timestamp,roll,pitch,yaw,acc_x,acc_y,acc_z,gyro_x,gyro_y,gyro_z,markers,motor_input
39.01700758934021,10.539054713530167,-41.972977385241286,-91.08348935234085,-0.12551092304856376,2.7864044299751645,-1.4352742647740746,0.4428569963629496,-0.66906863411243,0.20655511008350577,nm,0.0
39.01902198791504,16.587850022853228,-40.22665692987413,-94.59434283476435,-0.6666191324543906,2.8439805521994725,-0.523193491724532,0.2956403958528416,-0.9380630953817864,0.037197959441755,nm,0.0
39.02378797531128,21.931213858078774,-39.03638170302266,-97.82763192622372,-1.4104667749986453,2.100712959295431,-0.7655383967678341,0.13931392389480152,-0.8545814608373922,-0.016546900455050306,nm,0.0
39.046204805374146,28.559422639520342,-40.32078762785631,-98.21142849935381,-1.6234970235833472,1.371090153370424,-0.8463620097694706,-0.3536864572090813,-0.3467053795595881,0.4756690579937145,nm,0.0
39.05281376838684,28.950687838960544,-43.31273413172039,-95.45862477946089,-0.9000195035014482,0.29600003223818216,-1.331515196525559,-0.6105268375803465,0.002042030440245802,0.6088651802777106,nm,0.0
39.08063864707947,26.516700350520697,-51.130378954295274,-87.91114246938369,0.9080839836162167,-1.3916660015871092,-0.9697447666735424,-0.7911432393239801,0.1898501208764573,0.5079699075588123,nm,0.0
39.082371950149536,24.361142898471616,-53.95255191917114,-85.54056778178263,1.4408597661928781,-2.3520001952315948,0.04935823044009407,-0.586396365684092,0.21762303479279113,0.145118062153926,nm,0.0
39.091177463531494,22.548953841138353,-54.90583679130168,-85.63990823426445,1.2067602043416794,-3.3488480722670615,1.4791959785036162,-0.21403318131822,0.18377386882251548,-0.291479778385662,nm,0.0
39.11593270301819,24.221616769040377,-53.833123218980454,-93.07289310823843,0.30683753320942386,-4.083694371876264,4.0295048239079,0.13574953252149638,-0.16184645408653645,-0.7206362093058317,nm,0.0
39.117650747299194,24.33330453031619,-52.79359260126462,-96.69423247041041,-0.18031789194304368,-2.9764090730489015,2.3691406952653487,0.19679669957429266,-0.0413579620235168,-0.7459478197687666,nm,0.0
39.144582986831665,19.89053830594468,-49.1106858430538,-98.60144592824022,0.19299054098146717,-1.280268366694191,0.2726327862608022,0.48644449271265594,0.3475541074833702,-0.5340223367626485,nm,0.0
39.146610736846924,15.442304225278248,-46.24278512245067,-96.87886003938752,0.21812067354855877,-0.3113929505396116,-0.5292931419174344,0.6387651736188472,0.5073639017269553,-0.31396782615834945,nm,0.0
39.17098808288574,5.9488849915495665,-39.31565664633721,-90.50158264270483,0.30983111002846214,1.5640334603023827,-0.7314911708037365,0.7740981471420585,0.6665220762022931,0.09644726832584889,nm,0.0
39.1874897480011,0.5912716635581013,-31.2418983495037,-84.74782674348646,0.30145488232823253,2.6097056310348665,-1.2939729773554687,0.7537645337054978,0.3698467156909812,0.277343986762794,nm,0.0
39.204567432403564,0.04552101419676533,-28.214418516752783,-83.42304779105396,-0.06880210829793604,2.9367509917698547,-1.328134428590166,0.5828898663292916,0.14719209074002515,0.19150243127136804,nm,0.0
39.20795750617981,0.9491711221821107,-26.53115552402373,-83.14160025449242,-0.3536682307706241,3.2424232994124575,-0.7477720465965134,0.343636753054036,-0.1298538671774287,0.10220419521851112,nm,0.0
39.21487474441528,2.761508149807549,-25.988991984089974,-83.59671765745311,-0.7210995807122554,3.1411609953056634,-0.5586413767671448,0.13606246379457745,-0.32071322451442835,0.01956434872169978,nm,0.0
39.225982904434204,5.424918040863499,-26.38675064540432,-84.22799578830453,-0.9299292585044213,2.8201847512959466,-0.58408703402433,-0.03690648273879119,-0.49477873511513515,0.042884056561872184,nm,0.0
39.24822115898132,10.861906540648102,-29.79117353460953,-84.57711422325826,-1.085563646487122,1.3000069795170415,-0.9220678980056385,-0.3804120047522432,-0.4834267919259087,0.18189795136663742,nm,0.0
39.26186180114746,15.589640526124718,-35.851803295070404,-82.76794842220814,0.006826584534037443,-0.7546802052091561,-1.3800197939013492,-0.6335987858040308,-0.4431503963300768,0.3918788065694051,nm,0.0
39.27646088600159,16.870328805405116,-39.52827659209485,-81.6566997332085,0.6212759436892329,-2.0051117485511307,-1.3115385287787984,-0.7088171941572059,-0.3149510497272472,0.3142914231413272,nm,0.0
39.280736684799194,17.230403196738497,-42.590191883331826,-80.77031313065032,1.1355031538457276,-2.631035889147491,-0.3490930056637413,-0.6048921523348258,-0.16080020496158692,0.18388900136568356,nm,0.0
39.30910539627075,14.5730677869326,-44.711568418842425,-81.44751448532024,1.034567520282182,-3.7593373554800524,2.1415010122243436,-0.13019428206019545,0.1755117593783684,-0.4073324169324596,nm,0.0
39.311745166778564,13.928912373587195,-44.34328711833319,-84.04573753975878,0.8154903681580696,-3.267899648258393,2.790827834740631,0.05279678137303821,0.08910242922946723,-0.6329724910082623,nm,0.0
39.31743860244751,13.722915448612556,-43.05215379962494,-87.60198154465866,0.3093814097038307,-2.8970321540315,1.9764046317561221,0.24629354393589625,0.038055896054059124,-0.7736250233432683,nm,0.0
39.34166097640991,11.988980957632453,-38.192391593714355,-92.65824111085759,0.23237750969697654,-1.114454605827001,0.5341147641017226,0.5309332958863447,0.21548092956959586,-0.6069977168852152,nm,0.0
39.3653039932251,5.445500610790656,-32.48281626799463,-91.61318812052708,0.05102036178285852,0.7489682886319476,-0.03001243737490821,0.6149630887301973,0.5378966606535635,-0.13025480634325348,nm,0.0
39.36713719367981,1.9731253886353795,-28.793646471065266,-89.01780748166455,0.20640944283629437,1.4691209918058916,-0.9925046089542495,0.7303822505650388,0.5854737153601706,0.1474813656394777,nm,0.0
39.374250411987305,-0.54078974270302,-25.120860072116006,-86.0643404666714,0.021324983515811278,2.000352559196591,-1.396834012098838,0.7046956523443275,0.4703332499490135,0.3615546958802457,nm,0.0
39.401429414749146,-0.013856069177103213,-19.04580683253418,-81.39659037553666,-0.380865389444998,2.981495598925265,-1.4307597196763384,0.5419221497398506,-0.1435068009605423,0.4434423231395443,nm,0.0
39.403512477874756,2.5049478940623437,-18.03868842764578,-80.30999978097431,-0.8022501628818177,2.902106386979191,-1.037073179397893,0.2666164817885244,-0.4499665418697,0.32321000786490495,nm,0.0
39.417577266693115,6.348236674052451,-18.4580295732282,-79.92479384128116,-0.8682584609203268,2.7870978860405335,-0.05197913985376739,0.03614870561103162,-0.7450619359245199,0.24037264768021854,nm,0.0
39.421818017959595,10.013728616713628,-19.7289497213018,-79.90547786068198,-1.1886558355437848,2.104246626229618,-0.7689839204904547,-0.1348628889551366,-0.7388935903680374,0.15606090678214155,nm,0.0
39.44306302070618,18.038650990583935,-25.058720460075854,-79.16973312459396,-0.8482505754330208,0.5679071395360566,-1.5678192589511915,-0.474099774565517,-0.8891175963085776,0.39069600804372967,nm,0.0
39.45789909362793,21.398431527786755,-28.734948652407695,-78.00102791582833,-0.1634989791975089,-0.4998209723441529,-1.9826149008748404,-0.6072625693803383,-0.7476338858883677,0.4813375690290024,nm,0.0
39.46143555641174,23.81130975849779,-32.7323526049416,-76.3195051536328,0.6744825476525516,-1.4160419707093703,-2.2493685242441797,-0.6917851198679162,-0.5978468822831624,0.5108785254223422,nm,0.0
39.48510241508484,25.665340930363236,-39.84500667687482,-73.98691735708024,1.1173343889012408,-2.1459223617334633,0.0035968383938397223,-0.5883148627213423,-0.21691851010640853,0.16816201469760106,nm,0.0
39.49985694885254,24.82072331902937,-40.955535825009754,-74.41880050181574,0.6662392470302207,-2.464823329797698,1.1047309596025978,-0.2537838091118454,0.05001174100549803,-0.19056054126320998,nm,0.0
39.50167965888977,24.700834248503664,-40.158733422433706,-76.84044473018027,0.45418646835401,-2.3169745305228715,1.5084784129661721,0.14470832453675367,0.04406445538279135,-0.49743739337176435,nm,0.0
39.51116228103638,25.49630920591519,-38.162026554000214,-81.31894343246744,0.41815181174446,-2.2382939484521223,1.1052636106769345,0.40983608890679474,-0.057981889443746326,-0.8099516762629022,nm,0.0
39.55745553970337,19.772888027483337,-28.7945864905595,-94.86423868881695,-0.9046380474276253,1.5153773966103148,0.5355428657190103,0.30963365252453284,0.4927701124804702,-0.4928197426490462,nm,0.0
39.55969762802124,15.43685353217734,-27.28520652423312,-93.65614607200169,-0.5668796193091538,2.01546060121145,-0.42986114657223,0.34919694777384486,0.7316141065110567,-0.1322575109256712,nm,0.0
39.58558392524719,8.395299724466982,-23.59076904967722,-87.84960782642727,0.060162015166643136,2.784475073696831,-0.5189544336707881,0.3687651627914678,0.5255801855835297,0.4013117815318017,nm,0.0
39.587295055389404,6.988826608557494,-22.241077712300616,-85.68635118192164,0.12542094243213334,2.458617279695895,-0.8657878005513621,0.24558033690877393,0.2639282607555737,0.3432187839731152,nm,0.0
39.61521577835083,8.78730640644072,-23.13606100964458,-85.37523077044212,-0.14169507410416415,1.4374537638269518,-0.43886954849817716,-0.20663976269256448,-0.31491023402452656,-0.006600196291943155,nm,0.0
39.62335681915283,11.453886556014185,-25.574561376802958,-86.53944260997869,-0.37348240171966907,0.8291639783232633,-0.39024742258458084,-0.46134036248295185,-0.5308156466641482,-0.05485222937655304,nm,0.0
39.62570834159851,14.776005359959585,-28.980242646830323,-87.55251219685934,-0.5054369649648587,0.42035643644474385,-0.48240137797896226,-0.6584577583825622,-0.6375506219774849,0.055362632407077984,nm,0.0
39.63120746612549,18.073779625054126,-33.070119446410814,-87.80157056789962,-0.31607835010422775,-0.012279985923587242,-0.9395499708779504,-0.8031650013264428,-0.6108765989328196,0.25693265414651945,nm,0.0
39.66001343727112,22.129693901078685,-42.08520930863824,-85.4590891293664,0.6924953858771095,-0.8479574010259014,-0.8573596040501282,-0.8812723554797389,-0.28301860495501424,0.4886239181245332,nm,0.0
39.66196298599243,21.75777407596653,-45.53892959082247,-83.5397004459023,1.0678254806657688,-1.510930632571667,-0.3022558182578191,-0.7009680605465017,-0.02468015927208755,0.3514447216298942,nm,0.0
39.670990228652954,19.851464372806085,-47.16231951298155,-81.93251630316783,1.2323138221860044,-1.7955821038775792,1.0679302119944176,-0.36258564984367164,0.20850152544576034,0.09342687025595652,nm,0.0
39.69501709938049,17.108860060870587,-45.77649880623741,-84.42324560141181,1.0081873620378974,-2.5958239631014246,2.1139575931599217,0.22032587696111527,0.0656423847656554,-0.5261538137400235,nm,0.0
39.69872856140137,18.0851660110516,-43.999936124331576,-88.70776595865979,0.672824329544555,-2.5393633742239277,1.6405147991980358,0.3544975725106762,-0.1281653998452175,-0.7205661808829895,nm,0.0
39.722569704055786,17.819837942815575,-40.25462833224018,-95.84676879418443,0.28809561838780795,-1.1291940540270764,0.10898114965147651,0.3425343785628249,0.11813751492357959,-0.7422359054677516,nm,0.0
39.74527454376221,13.076210231184119,-38.432726941146086,-96.01926942745277,0.13447163617891378,1.4992389292771837,0.09068360679671526,0.2006720411882793,0.3970639275084071,-0.13130191714816666,nm,0.0
39.75052285194397,9.510707337003117,-37.017841070924106,-93.40837829151691,0.12176915464074874,1.9602463974820183,-0.7874064924081553,0.31867931036705405,0.5295186577035388,0.12354873780136631,nm,0.0
39.755024671554565,7.096806709689214,-35.019826261721164,-90.21310587546252,0.06711273970497092,2.396311935755739,-1.0580998689733534,0.40213916104205666,0.3677772546541613,0.38907749554120497,nm,0.0
39.76804232597351,6.751966492220128,-32.82169971722681,-87.53376290736364,-0.09278263725637564,2.683971284969783,-0.8029390952469271,0.42877662521016685,0.055797435729579424,0.49657942550984974,nm,0.0
39.790688276290894,12.461540640469769,-30.06504860437066,-86.21695098170271,-0.7922962055090688,1.9934532612604212,-0.2502404660241139,0.21674386787657585,-0.6847461356473808,0.38315350287335714,nm,0.0
39.80205416679382,21.400815358851617,-32.07607765449123,-87.56550201536791,-1.8568718731442064,1.1322877624725562,-0.4062820042007153,-0.3008067459833356,-0.7353231772371093,0.2699192146748045,nm,0.0
39.84100103378296,25.46644141369445,-35.19881223307736,-87.18864314568116,-1.7888088531337343,1.1301822821674394,-0.7007521073948395,-0.6002261073202247,-0.7182564676801656,0.5005358668267109,nm,0.0
39.84269380569458,28.309718697726016,-45.314627541430525,-82.71167364197505,-0.4416346010631571,-0.13005534141890915,-1.6080378589737705,-1.0909598662164275,-0.1597103249838421,0.6617425826690522,nm,0.0
39.84490752220154,26.824161408306633,-50.63129057287701,-78.5774803584397,0.7127896089036361,-0.7826976284490084,-1.3679605879137224,-1.0882409114848839,0.014022720379004367,0.6925431445264115,nm,0.0
39.85475277900696,23.33692049877362,-54.94702109737613,-73.90809829281498,1.4335434523226813,-1.333331445528086,-0.3261467217011811,-0.943639498570652,0.19504140995596103,0.4767558863509952,nm,0.0
39.85896039009094,17.99960539156759,-57.30944102445539,-69.74701452130196,2.094791406657434,-2.073602715215421,1.327563888700044,-0.6379999576499252,0.4073435114378333,0.03918620215279739,nm,0.0
39.885220766067505,13.788860495956495,-57.62860990572158,-71.55154307146196,1.6717413231049525,-3.20167030547847,4.502700450491775,0.01797548724980033,-0.013319845536204493,-0.5406946216236482,nm,0.0
39.8882520198822,16.85494722109129,-57.511551492613584,-77.70495563613072,0.9505515820704339,-3.1007419340143714,3.02597673508474,0.10302188054494685,-0.3235942309025512,-0.7197982532833511,nm,0.0
39.911866664886475,22.26953047474465,-54.351049211579465,-88.75166888922602,0.18193704837228308,-1.161797612905666,0.08387152418154452,0.42733526621030454,-0.1574313811104601,-0.6999683838455388,nm,0.0
39.91646766662598,22.049519534589525,-51.78829302291287,-90.96049663222809,-0.17969863014993487,-0.7326007247497467,-1.0934892270990768,0.5044231808916931,0.016627121166119536,-0.48725028520140035,nm,0.0
39.94153881072998,16.07168881445743,-46.195115237490946,-88.58326547655169,-0.5827033625473544,2.235450196532506,-0.7686522915775705,0.5850449901505045,0.5597127778536205,-0.16929319343172775,nm,0.0
39.955665826797485,11.50039648228626,-42.97283284690006,-85.65464800636758,-0.1877592787349028,1.3259796039650014,-2.021950974026105,0.6031618652207746,0.6714288515329044,-0.019200325062293543,nm,0.0
39.957414865493774,8.470697186662479,-39.913634528133855,-82.95566364332696,0.0990211928292827,1.5444750007479398,-1.5944316972211683,0.5560478257374502,0.5011766467912827,0.17731006815124664,nm,0.0
39.9634792804718,6.835606786005373,-37.59020578571162,-81.17071306977321,0.08530171614003532,1.1082907690574006,-1.8673169693064522,0.4168997867238101,0.30534792289256235,0.17952209232731725,nm,0.0
39.97976088523865,7.24816055576656,-37.13994913600645,-80.34418665500807,-0.008116185666952281,0.7395860982713939,-1.69787647056336,0.09076589412466483,-0.06168667069029305,0.19640497565451942,nm,0.0
40.00321173667908,12.393814731183928,-40.740581259312926,-80.95596133911921,-0.4360435736886958,0.83742370787668,-1.2226314265628546,-0.39052535895049023,-0.5422838736615468,0.23079141021729235,nm,0.0
40.005040407180786,16.121077522213753,-44.11371205677754,-81.61885822022602,-0.5191499131146144,0.9325319369714355,-1.4574831949349176,-0.5909578867147336,-0.65983336403091,0.33962606144800733,nm,0.0
