timestamp,roll,pitch,yaw,acc_x,acc_y,acc_z,gyro_x,gyro_y,gyro_z,markers,motor_input
40.51494598388672,52.707797321483596,-69.63132958403332,-133.49760569996639,0.4340575387694211,0.3655061106502918,-0.6923900951925832,0.37172336904959113,0.4234788617551646,-0.027718343569071775,nm,0.0
40.516706228256226,42.859162844993506,-69.66325266372957,-124.15590117496943,0.43564731926072436,0.0864278785028212,-1.8202896292238115,0.41380546374412974,0.5281874314014144,0.063680685197693,nm,0.0
40.5424964427948,31.072541996071184,-67.70851319134401,-109.88238607418316,0.28341756500407916,1.9199305238115485,-2.220677934936338,0.33751036182882216,0.1601344552693984,0.41952697263197414,nm,0.0
40.55224370956421,31.14931561711743,-66.17721129178554,-108.10191019911765,-0.1796991329041774,1.9734081270656494,-1.995397933049312,0.2774950203385683,-0.11555622716160957,0.40362671418469204,nm,0.0
40.576252698898315,38.281693584477225,-63.642330802431964,-110.61282574286362,-0.7311232735475792,2.1930337404506957,-1.2099378765366562,0.06184784336029279,-0.41210425096389924,0.36937266094930865,nm,0.0
40.57812547683716,41.95408089315579,-63.78647322713176,-112.85980633715762,-1.1035615214241712,1.2288825412393138,-1.3700646025513405,-0.15738688936788506,-0.30203798183981284,0.2177902029796823,nm,0.0
40.59494066238403,45.81611775844972,-65.49473492241205,-114.96014991871897,-1.0184605850273432,0.9887090493897066,-1.3084766400306498,-0.4567452662638315,-0.1743343637890205,0.29355934290681696,nm,0.0
40.59701061248779,49.64210830484451,-68.64589337786528,-117.24654522468173,-0.5552802485650636,0.5765477173718163,-1.3253804202808517,-0.7075442036227197,-0.00013122711524990617,0.27428255913363353,nm,0.0
40.62624549865723,61.81397415457072,-76.55061765774052,-127.92673524914737,0.6579259668747707,-1.1034454519233905,-0.8097722318921866,-0.882956268406978,0.09988120025068371,0.1246740221376501,nm,0.0
40.63358163833618,73.88346587355747,-79.28735644957735,-140.03581393427038,1.0660330229692132,-1.6939635126345256,0.1450375575557337,-0.7524397715899148,0.00845170857205532,-0.03132783995586419,nm,0.0
40.649176836013794,88.26048937175514,-79.04900883592599,-157.994529785725,0.46297285066810334,-2.100634272743544,3.2010339923608946,-0.01967666311076596,-0.2422050052581474,-0.49021309318486933,nm,0.0
40.65099620819092,87.08251243268657,-76.70612650891103,-158.93232490149865,-0.055540824551748746,-1.0609378864383665,4.1728696032528045,0.20874424158394775,-0.42813316622310066,-0.4319770268694326,nm,0.0
40.66746997833252,85.62326338474475,-73.60247806998655,-159.52664370957882,-0.41434563356255977,-1.0731863874199417,4.063263062964406,0.2806702183132337,-0.5637884368495469,-0.4306247319940192,nm,0.0
40.67219853401184,82.31530238640677,-70.71070935368215,-157.70093271494218,-0.5623246099394246,-0.7578898513723856,3.027040443511055,0.3896425005318161,-0.4735544463601191,-0.3001915228082283,nm,0.0
40.67749881744385,76.30776087886616,-68.82698627080083,-153.2474508830322,-0.1578760502223969,-0.9377493709562843,1.8442690025737423,0.5231959184425318,-0.1784781640196596,-0.2574994991712268,nm,0.0
40.70422577857971,60.231218652244884,-68.77398293040957,-139.93548925919995,0.40365694198262064,-0.5927530472546563,-0.17474515041526464,0.42797861613693194,0.44360860623259013,-0.03845053082623676,nm,0.0
40.70600390434265,49.70545533103437,-69.46419248050583,-129.9935989554584,0.6709294938472684,0.1149971195472244,-0.8074324071289908,0.42223785826640853,0.6184152237443564,0.07184090066776712,nm,0.0
40.737738609313965,31.35116314429999,-68.07583743170252,-110.41950840072403,0.7232799216560518,1.1824710118008515,-1.9599296085441098,0.4101139082106587,0.37654939725704467,0.36880484074130837,nm,0.0
40.739726543426514,28.932937493848655,-66.6098849774839,-106.48259343620155,0.3324238012383061,1.9578394628283275,-1.6131902956187951,0.327121847062307,0.07410590675921339,0.3603297008167218,nm,0.0
40.7442193031311,29.88994273586614,-64.81759889220983,-105.96204150922819,-0.15100384661834454,2.1949717866366787,-1.338325759379531,0.31222792013155304,-0.18613985832010513,0.3057343532182673,nm,0.0
40.76139521598816,32.87590450933694,-63.29787497682204,-107.40468610799381,-0.41075697599475747,2.085233036587909,-1.3401594943620387,0.20603577128997239,-0.3480165980231166,0.26484059025697715,nm,0.0
40.764307498931885,36.54367811320257,-62.84472965047824,-109.82092495280787,-0.7511352935587554,1.8150663213406677,-1.2380198171884536,-0.030462996794618565,-0.35418185834015675,0.1827069424112855,nm,0.0
40.7902090549469,41.708241967745124,-65.47423743520278,-112.58626322521977,-0.679476856082972,1.4919816819471234,-1.5095639095984388,-0.4281019803442963,-0.02292738881559297,0.21933835257220205,nm,0.0
40.792113304138184,42.984074647793534,-68.56129864506491,-113.05149913880427,-0.38723348430311905,0.7745933365635159,-1.6385650418237698,-0.6183440666865354,0.13865034970051998,0.1843257485112094,nm,0.0
40.82419300079346,44.770983157257916,-72.22253623196899,-113.94967614847764,0.13405958096659584,0.02465662208952001,-1.427722402574769,-0.7301093093462474,0.17345288039129275,0.19924574061705136,nm,0.0
40.826836585998535,56.87690188755437,-78.3741747223353,-125.59348384779742,1.0669819023339413,-1.9295109963265786,0.043894015616210036,-0.6653414124156223,-0.04764772767283304,-0.014872583417145398,nm,0.0
40.84248733520508,68.95996825854914,-79.49409566269094,-138.7575292843281,1.0165456914132827,-2.184704137411689,1.7191777310338938,-0.486118403128302,-0.20066063262481262,-0.23418815461013642,nm,0.0
40.84426522254944,78.05797436677088,-78.7586144797008,-149.8721861808424,0.5854311831455822,-2.247979460007239,3.2867287744246347,-0.2020329468600468,-0.3277649636286597,-0.4298430319927242,nm,0.0
40.84913182258606,82.17689010270156,-76.71591822883748,-156.5846757926749,0.45271069780952244,-1.027524242083327,4.483521853280024,0.018553065094746888,-0.4528737844408624,-0.5536031869961909,nm,0.0
40.85955023765564,83.00297411080015,-73.67206852036085,-160.48166487357148,-0.025614642454973864,-1.1089963930561666,3.937803596695504,0.17394453454672013,-0.5913021132941257,-0.6519372098069927,nm,0.0
40.87953591346741,82.2966585334723,-70.54540980989455,-161.9727801688216,-0.21151946091687276,-0.18219661087220465,3.1217455451607075,0.2319885069752785,-0.5867145663702478,-0.4663460265058248,nm,0.0
40.89505672454834,66.7859325357191,-67.80623267111281,-151.96563795308157,0.20001230029952924,-1.2933005419500965,0.8451298224019262,0.7017653550411526,0.18074124444892883,-0.44274789501885115,nm,0.0
40.89681100845337,54.19502402225228,-68.34253013847645,-141.8601578033619,0.5971167076349777,-1.1551460664934223,-0.24974188535139005,0.716759841829245,0.5945478835450018,-0.28760638690526164,nm,0.0
40.92261004447937,22.377434778784213,-67.28559594260602,-111.95995767798263,1.0510498417190908,-0.2304244966803735,-1.646665123563325,0.8438408370699761,0.8919233435373455,0.21116767593296362,nm,0.0
40.92552399635315,11.651297454381565,-64.40115730474344,-100.23746052210888,0.8603238545472479,0.6633293677665871,-2.1446913505869403,0.7863829618773099,0.6738314777361857,0.4413783778003899,nm,0.0
40.94733166694641,8.974591429531978,-60.29627720462024,-91.6521136117618,-0.052541108581191084,1.7745772232738997,-1.7818524940064886,0.309563116679285,-0.1465498478512531,0.6919824638056762,nm,0.0
40.953818559646606,13.40125605301142,-58.982620092775775,-91.78852734328179,-0.5856714611637561,2.5079880209375416,-1.514504445856566,0.2391110015256806,-0.4658244043203089,0.7483976543215205,nm,0.0
40.97706389427185,23.590999375936065,-58.5598078188916,-93.78860371136817,-1.8146858204020107,2.4908086077634235,-1.5390166509105823,-0.09797682511575927,-0.5066356123725932,0.6448492885411297,nm,0.0
40.984652042388916,26.751629816786373,-59.79347744654749,-93.4508384587955,-1.7985955049705968,2.1334659815309975,-1.6077522060413987,-0.275972658067939,-0.31935572797835726,0.6381590182597494,nm,0.0
41.001137495040894,26.07918137504582,-65.22979989373769,-89.33642487394597,-0.7961101494752565,0.3800095231578885,-1.5686758188223477,-0.6488959991764244,0.1137856946139803,0.2835487969527285,nm,0.0
41.020233154296875,23.89993946302325,-68.81460668662726,-87.02723636900848,-0.06476560477715666,-0.27474088379991635,-1.085553615356482,-0.7307114314735712,0.13724395305531115,0.11339054842977873,nm,0.0
41.04011106491089,29.955834520284018,-76.5731324713242,-99.8412280681128,1.1839691167357391,-1.9565950695725913,1.4173577756866662,-0.37959759465314,-0.3137887028116481,-0.7123970883822233,nm,0.0
41.04880714416504,40.025169569870755,-76.06463856007385,-114.10394447401237,0.5364248049161573,-2.3240144239124274,3.2413242258211783,-0.05086099541057982,-0.4932449351321023,-0.929243496088581,nm,0.0
41.0569953918457,48.11718046204544,-73.67501256389743,-125.92308620922041,0.12163156185858999,-1.8902193796978117,3.6704053283114,0.1934899735709588,-0.612444525105461,-0.8465556413354276,nm,0.0
41.080732583999634,57.46132911432612,-68.62810072280826,-141.16016264227935,-0.5982018354038022,-0.7393864161756447,2.886513340770019,0.2326551144156301,-0.4824364413770813,-0.5932948816976404,nm,0.0
41.085824966430664,52.37249767177373,-66.54734233395027,-138.5355857063235,-0.07922930614667295,-1.069756228754023,1.3448743800057823,0.5530737736232952,-0.07490485096699791,-0.42611439680791413,nm,0.0
41.10883545875549,33.47809673090657,-66.42571479368367,-124.2516274179457,0.585069931476517,0.10900204972224745,0.6324196074051662,0.4773081737662984,0.7149990703916498,-0.18584637426176306,nm,0.0
41.117838859558105,20.274751348504665,-65.6582812439982,-112.61886491518284,1.1903343197879108,0.29632558523972213,-0.4022853135598691,0.6338971702216029,0.8609835798154847,-0.03772978602255359,nm,0.0
41.12332773208618,9.343630196440714,-63.741681109376565,-102.58767419170236,1.3061292462358205,0.7959713757151192,-1.5158111386683681,0.6361662836773364,0.7664619770777902,0.07196131509066343,nm,0.0
41.15081739425659,3.145169004928812,-60.468622315272576,-94.12665226892224,1.0139538650271371,1.6512589973211516,-2.396292225361992,0.2814751948027841,0.02026206185865639,0.396086964602142,nm,0.0
41.15984869003296,6.073032453797103,-59.037290298058124,-94.46039914219467,0.37732755276666113,2.005690814711901,-2.5992641815759785,0.25232507872057214,-0.324258197512283,0.4430299316356781,nm,0.0
41.18167757987976,18.032743422792343,-58.25401771397989,-97.78189843106408,-0.542846496890332,2.57643096973259,-1.8511462188487737,-0.10483227309450338,-0.6879664282087824,0.7675402047463643,nm,0.0
41.18339467048645,24.02255352319025,-58.9464515299592,-98.6314503924235,-0.7369899483101632,2.2758020007859647,-1.8024931414565994,-0.23633390859885012,-0.6090358002785071,0.8554100997438326,nm,0.0
41.209025144577026,33.374943418205504,-63.37326422829763,-99.02355062621058,-0.4918317723624198,0.3162223591668354,-1.5616056613302491,-0.6249924282740994,-0.3397866993694181,0.7600004416977842,nm,0.0
41.2112295627594,37.95323910207717,-66.87391561222034,-100.02570840360318,0.21855416412277962,-0.8741205387147316,-1.0572654204339103,-0.7635578047599731,-0.2751532959359495,0.6635744787944252,nm,0.0
41.21976041793823,42.85641947039492,-70.48494769591977,-102.47789790810809,0.7555765002221957,-1.7686757112337872,-0.028533307286914292,-0.7869391695623937,-0.21946633502177507,0.46496202171112955,nm,0.0
41.24284744262695,52.24724459113593,-75.59048902407291,-111.43604113535413,1.162014442345583,-3.1172280279471827,3.136426780035837,-0.4866421032016395,-0.11231325348924731,-0.120426678607461,nm,0.0
41.251380443573,58.66502637225006,-76.54141681267666,-119.25856349662469,0.44859255646227003,-2.207867186374172,4.81041939969681,-0.31261274658012994,-0.20816443136751772,-0.30469510960046586,nm,0.0
41.27094531059265,73.70107543425739,-73.54476609206667,-135.72092377374636,-0.5714596082171719,-0.7716772576283718,3.270965410746091,0.05668386693231166,-0.5878458804938003,-0.11701227800809474,nm,0.0
41.27661371231079,73.80453368385987,-70.74679802194917,-136.5548640731727,-0.7848666981995209,-0.8851599077723052,2.3107547818274847,0.3754837268674076,-0.419435368156122,-0.16174841555354838,nm,0.0
41.28588509559631,68.46011384122991,-68.07199956631932,-132.32853729756468,-0.4340322988169979,-1.0299149623240076,0.7606662225863103,0.6364967286385884,-0.11755194072608054,-0.1541395647630807,nm,0.0
41.30817270278931,57.41242276944661,-65.24770281797156,-123.66264021571651,-0.597439441013903,0.15529020099183022,-0.027897403837240924,0.4282643689431284,0.25453818756663543,-0.11240832639044389,nm,0.0
41.317054986953735,49.32106864938876,-64.21531029582232,-117.06533010767923,-0.5521370741151628,0.5788076675026139,-0.4614346932694746,0.5186734115359046,0.4800086691365344,-0.10563242335684415,nm,0.0
41.32420611381531,41.42970804266844,-62.9565928633852,-110.43890312713691,-0.24874579843903497,0.7724427401300056,-1.2733057174180935,0.504716543817179,0.5296290030616702,-0.04635634893665761,nm,0.0
41.33355212211609,36.06619811687895,-62.007212931962194,-106.12321072921944,-0.23506732459550253,1.6590639461387893,-1.2700345207580495,0.3271170644112729,0.3999890316232092,-0.05179497049656063,nm,0.0
41.34668493270874,32.41989841018685,-61.066630898872255,-103.78368015105059,-0.3265612073274376,1.9530873247815268,-1.2790228499354144,0.26239440798143515,0.27654391547807305,-0.14701274205032655,nm,0.0
41.367358684539795,28.882726880770896,-59.3254282457728,-102.89777085249433,-0.1984119792945603,2.4227923679634293,-1.6205173444087821,0.13020232162564968,0.0796688828905399,-0.23520100230618596,nm,0.0
41.37260675430298,27.938988017014132,-59.641725164905836,-103.67208542419174,-0.3180936351941733,2.207090964069613,-1.4849998455903008,-0.04996738446084962,0.09798339278379244,-0.3232635306243466,nm,0.0
41.386353492736816,26.67928099973684,-60.55403520359804,-103.78873563774135,-0.2686248857193343,1.5353733533510283,-1.657965246885239,-0.1582379035575851,0.15575020068050552,-0.24663284033456814,nm,0.0
41.39496731758118,25.386545088025112,-62.2645783905547,-103.0870238244342,0.16224739084363196,1.415995918751095,-1.5281384453373086,-0.3150440102422993,0.19046251249190171,-0.08476981794188905,nm,0.0
41.412513732910156,23.194045540479422,-67.82519372396516,-102.00243552092086,0.6921518933008923,-0.31882569689534884,-1.1934764903778836,-0.5768443473506347,0.17439889226139607,-0.040941834612908255,nm,0.0
41.41984987258911,24.404855982368865,-70.7202904731701,-103.43792907833085,1.0874847053282748,-0.8648872620533946,-0.768615830486905,-0.5955151260505107,0.03562662355211173,-0.038829198312960195,nm,0.0
41.44539976119995,37.58799391548652,-74.97747136545782,-118.97950647114965,1.140340512048874,-1.9235279680277901,1.2648237944240377,-0.4998956810145639,-0.30596022948586477,-0.3844411941339722,nm,0.0
41.46500825881958,55.28659464246,-72.90471227969417,-141.17553792268635,0.21359540224182788,-2.0545234674034196,3.0418630684208074,-0.07519168587742336,-0.5782048120381177,-0.5446054383702156,nm,0.0
41.467023849487305,60.69489801867781,-70.39963345101201,-148.1028585971092,-0.23894642003747057,-1.537465506075269,3.062193476685728,0.001465592518579204,-0.6124319699093606,-0.4041482483028665,nm,0.0
