timestamp,roll,pitch,yaw,acc_x,acc_y,acc_z,gyro_x,gyro_y,gyro_z,markers,motor_input
57.526140213012695,-61.83477924165007,-24.175120782432167,-96.64785105712886,2.8240043663481895,-2.9876989042960087,6.74755918447207,0.14800612870988153,-1.1769183432497161,1.8591247082252145,nm,0.0
57.52926683425903,-59.52680685729552,-21.942979097259634,-91.01319343384337,2.600471873684843,-0.9022986225147038,7.393821137535732,0.4074369885028215,-0.45844544699403567,1.3184511209160732,nm,0.0
57.53810501098633,-61.72056737555699,-18.847683026313362,-85.53070745069027,0.2507253242160856,0.5558225929994679,3.0176188060414253,0.5976692632052719,0.42501954410611675,0.953924493561271,nm,0.0
57.56526446342468,-66.46432279456579,-19.2140967823273,-83.06143088027794,3.3771016150356212,0.6789532672612952,2.92897658431209,-0.2762320816910261,0.6196404658648819,-0.17483175229953504,nm,0.0
57.5931031703949,-73.08917760935203,-22.874655363935478,-84.62841569974965,1.2557433152968216,0.1997833714460245,-0.19406031067000096,-0.8686078246937758,1.1488120116780798,-0.7783704771449106,nm,0.0
57.59557271003723,-99.37233904334303,-43.231922513325955,-76.07896883249464,1.6844590049029742,-1.6675704317997975,2.2033328438986706,-1.2086921059508875,1.6789493689832111,-0.13770732277627576,nm,0.0
57.610552072525024,-110.90981746900593,-40.9561551744746,-68.47482656868422,3.056899236355029,-1.3887892074433021,1.2339899751230294,-0.09072783634916216,1.7715636481949055,-0.01457152474142821,nm,0.0
57.617583990097046,-119.63221223422674,-32.63671909045525,-64.24484857271041,3.78571020708835,-1.5078811008882793,-1.6201579482288417,0.9627063639084008,1.948990234573499,-0.18749238730515871,nm,0.0
57.63982701301575,-134.54586368565236,-12.642036860508203,-66.78002082436562,0.0048679820011568575,0.6900654352484914,-4.892875035733661,1.091966800775367,2.0475113522931916,-0.9375947351284591,nm,0.0
57.66498565673828,-148.99636219978137,-4.845709081044044,-67.05155092089798,-2.9704167366976626,2.037225160702906,-3.9271995456747093,-0.12064045862388038,1.5063422902169261,0.184511494935949,nm,0.0
57.66670536994934,-155.70101562011556,-4.427636745736622,-61.31348044037521,-2.8746070447224468,0.9347127450969595,-2.6346504876351093,-0.4971199150909868,1.2391894721321421,1.0489303070968747,nm,0.0
57.67081546783447,-161.06056136026075,-3.8928280300102616,-52.99312122845639,-1.969962305654968,-0.21430859851957154,-2.2486640486455447,-0.47957943481597165,0.957790284026306,1.595884666981308,nm,0.0
57.68146014213562,-165.32812140667818,-1.7330440131000822,-44.81903902699404,-0.8608451771299572,-0.48481562085488245,-1.721977844055108,-0.22340237150943584,0.9297642408567779,1.6018505877443245,nm,0.0
57.68908071517944,-168.23392367345707,2.169963463413685,-39.54034853481603,-0.27735340348317633,0.05007338234346706,-1.673666685060668,0.10587709514670939,0.9729173230987181,1.0655555981917104,nm,0.0
57.7149293422699,-173.00023692315025,10.853752381903048,-42.00651899542333,-3.1356859255808756,1.8533798005100777,-1.3367688915976232,0.13649982335197333,0.9845085267350558,-0.5738151960941003,nm,0.0
57.718794107437134,-176.1389937298665,13.111187451713695,-47.372162077384225,-5.121714210919355,2.8634048160844343,-0.9822242608785247,-0.1053213887279279,0.7549249055892248,-0.9396089829644177,nm,0.0
57.75705289840698,176.85859798169042,5.819037211930589,-50.7187911711569,-3.34696583704085,1.157683671818139,-0.5730372268375759,-0.8316347636117399,-0.15636312315598713,0.41934972762722983,nm,0.0
57.773393869400024,178.7668067787178,-1.6702108510048224,-47.34686404970482,-1.0630224047845032,-0.7431774638747426,-2.2602008571132,-0.2934974608790879,-0.8433629700441034,0.23028721018827264,nm,0.0
57.776254415512085,-179.5436372496832,-6.435790379547412,-48.087830412925584,-0.41053823199449635,-0.4059336504062848,-1.2949177608910987,-0.4659754104304509,-0.8891735104589915,-0.11845026808659358,nm,0.0
57.80102491378784,-170.68134747376877,-15.042928121958639,-56.31862243896113,-0.8664916888795622,-0.05152579565710201,-2.2258619145979526,-0.0023454867150902955,-1.356409951711185,-0.7602979680385338,nm,0.0
57.80470395088196,-164.27838916666286,-19.28416701235179,-62.073499036569345,-0.8795668692870814,0.572303177353549,-1.9586838748897255,-0.08765706534260015,-1.4864324129913042,-0.8127465881328989,nm,0.0
57.815449476242065,-155.99692993652857,-23.70096332513313,-68.00225503535644,-0.6113653659604189,0.9188511940392977,-2.1283029726475484,-0.1403851667839291,-1.7710501880605862,-0.5659004534260529,nm,0.0
57.82329750061035,-145.79016840076997,-28.188067594651866,-73.19104251140602,0.6515146216269833,0.019126659408799394,-2.8139752022512377,-0.22787546922625346,-2.0301488833454955,-0.12941294733396322,nm,0.0
57.85417938232422,-120.25608334332911,-38.733093508482234,-84.83129382831419,3.8876441580584364,-2.5560899766383134,-0.2098031318184028,-0.7415091580614738,-2.384664631696288,0.3376451447308254,nm,0.0
57.85612082481384,-102.97128931936275,-41.95086198175942,-93.8985300242709,4.360296794952566,-3.9724149380644085,5.461662906603234,-0.6111905259701386,-2.6377256987996143,0.4472099480463272,nm,0.0
57.86099433898926,-87.16072214075342,-37.41565977520058,-101.83828520422684,2.812393563259917,-4.959114957292604,6.414677311442486,0.5546249503745581,-2.5320683586835173,0.45272198153412985,nm,0.0
57.88733458518982,-71.53594532330199,-23.76455987278524,-99.95251879971758,1.4440994024446923,-2.2843218253402133,2.5413241459080145,0.6518351733281664,-1.358429185598569,1.3359567264981174,nm,0.0
57.89545774459839,-64.56913607504745,-24.623156488096157,-96.36565312134428,0.293185840204727,-3.1427970836156502,7.767383340176877,-0.36055048788510746,-1.2380591819001998,1.29946350709813,nm,0.0
57.91426181793213,-64.8205518124571,-18.513959539951678,-85.32155039815471,0.04860323629762088,0.49606900917536895,1.8445476156214942,0.8128746555301467,0.6205978512998022,0.8821133909337429,nm,0.0
57.92377805709839,-65.04214338362038,-18.90594578131113,-83.5327900014476,0.951362202289271,1.7020019482312885,1.021517838094376,-0.09105113272095516,0.028790240956233976,0.35401459341314423,nm,0.0
57.92824196815491,-67.31993019601039,-24.533678219670072,-83.44730458565162,3.4272078441011518,0.509961413719334,1.217987832707858,-1.1762001398630586,0.28916333687962703,-0.14116715329135043,nm,0.0
57.953866481781006,-74.03348558104655,-38.89766085932427,-88.01941583920411,0.7176602766265388,-0.9350388506645078,2.2060979937949052,-1.37594801145271,0.44849387311211875,-0.6829713173899135,nm,0.0
57.95591998100281,-82.98285237641738,-42.37081888902496,-82.69178824836087,1.0625374196147457,-1.674574039859185,3.1774698184466796,-0.8083585906394593,1.2995184707110752,-0.08939631583443798,nm,0.0
57.98055720329285,-103.22721173833762,-30.012754734840737,-69.93697541850352,4.462319039264676,-1.4977219859263495,-0.7719567733337961,1.3100716520456164,1.9432815934393861,-0.0717497199346658,nm,0.0
57.98689579963684,-112.37102561094858,-18.333748498603445,-68.31737306596698,3.4059669860529,-0.42641059954388233,-3.9579516937441173,1.585221188130614,2.3913220410895337,-0.41371775140987344,nm,0.0
57.993762731552124,-122.62230687133592,-8.544888296934337,-68.97395527128528,1.3008452142460138,1.2430146722176667,-4.7824893553767005,1.0968383381812243,2.5688531740165415,-0.5948561463951042,nm,0.0
58.003572940826416,-131.99186084409789,-3.7122959493299854,-70.26121171314016,-0.5131675278551382,2.1503928845288596,-4.5665035826503475,0.2612527364640374,2.080259032110203,-0.44498029850446635,nm,0.0
58.03522086143494,-150.21558280858343,-4.607831059343091,-62.94337484554802,-2.249041809521714,0.9943497002157864,-3.510030313606038,-0.9675841087204449,1.6413264327826722,1.0704457195168344,nm,0.0
58.037036657333374,-158.7022863416558,-4.602277101307745,-54.25950535665948,-1.2375818903544389,-0.37293408781563814,-2.43383084155428,-0.8710988031612519,1.446839356805226,1.6086068060872931,nm,0.0
58.041988134384155,-165.20549840514684,-2.6022402003881298,-46.26512364747537,-0.46636180001324623,-0.7438212077693284,-2.5178196473076833,-0.5115396679680003,1.2573999676789716,1.5251943155801528,nm,0.0
58.06838130950928,-174.48022152719176,6.923560844306905,-41.12155832591863,-1.0433789442675525,0.3578555431492707,-2.3872920036777545,0.10436052983181748,1.3270441575252534,0.13921380032224062,nm,0.0
58.07949256896973,177.09225898099373,13.270252527895721,-49.619082536881464,-5.446503966583218,2.840164555369232,-0.8400922377240828,-0.2664008925370045,0.9183938535472136,-0.8117584135924336,nm,0.0
58.09430551528931,173.1056655901597,13.018995190984725,-53.12269075771169,-6.184670575012738,3.324076065418699,-0.23576453560679858,-0.5101692373432339,0.5764195873518195,-0.5179185944333279,nm,0.0
58.09898328781128,170.43195747127294,10.58054540132964,-53.24367273014091,-5.3349932957675765,2.4228352223550575,-0.3196924855558376,-0.6905006108758849,0.12780843814361978,0.08693420925991295,nm,0.0
58.12272644042969,167.8700342701114,3.6991181595239193,-47.471592202597705,-1.664991456547333,0.1123067625642798,-0.7975203360505754,-0.5949957816352232,-0.2649657298851751,0.6341774900184158,nm,0.0
58.12836933135986,168.95242211244945,0.30717404462280257,-45.71427288465247,-0.8435217328914042,-0.8113999715004384,-1.5152906542032347,-0.3307729549096853,-0.620961169652502,0.3469389829898028,nm,0.0
58.149888038635254,172.9378825450375,-8.650729350421091,-48.97389710668013,-0.46753683715934513,-0.2516853944149174,-0.38836451922141785,-0.34205921076084755,-0.9507714007108423,-0.5299930120508438,nm,0.0
58.16200351715088,177.53259784967852,-12.41096600488162,-54.1793144666635,-1.278749807444082,-0.06360850496646155,-1.164711697012266,-0.014498211846066877,-1.1748665300370733,-0.8672516300221591,nm,0.0
58.165395736694336,-176.82771133117708,-15.945052825143367,-60.2470409101109,-1.6869902529048615,0.410022554106275,-1.7277085273848842,0.010704873911826458,-1.3029191192651448,-0.9296473975060017,nm,0.0
58.18915915489197,-162.6235807943412,-23.462112841873118,-70.15256799924124,-1.03877157833776,1.0187819974636116,-2.280670496324117,-0.13340422678191008,-1.6304617062149542,-0.27552738822238093,nm,0.0
58.193379402160645,-153.9078166969078,-27.80234057881578,-73.44418600079115,0.21274952432409677,-0.02041764589229856,-2.3198643376427452,-0.32423647499751984,-1.7650692253259124,0.10895119185005828,nm,0.0
58.20339894294739,-143.64179355242248,-33.14552698535062,-77.28199584730469,1.583825191178847,-1.0457512317884792,-1.473163788822923,-0.5784461146416288,-1.9822706593096986,0.2891076692876893,nm,0.0
58.227559328079224,-114.094366361008,-41.35099145918961,-92.52790558430995,3.973047407557827,-3.4593935627543275,2.496776363159868,-0.5057459316958277,-2.5048873425601226,0.28223339927371555,nm,0.0
58.23243045806885,-95.95802506443643,-38.62010010292913,-102.56846711558671,2.532731152675821,-4.334398295874352,6.228670969470459,0.16875284456255185,-2.8220997606201315,0.34760141856024557,nm,0.0
58.24342226982117,-81.46419242645945,-29.12413417482638,-107.00902476899417,2.0036380319186917,-4.806109426888529,4.218829773527976,1.2056213970725074,-2.812540439503233,0.7489126686843487,nm,0.0
58.25492477416992,-71.81872517836801,-20.240454333770263,-104.65121526697686,0.7749487009209914,-2.0923135256082017,2.1558424790137427,1.219575163462218,-2.1763276769295485,1.2891141667732542,nm,0.0
58.27020788192749,-58.81794544087995,-14.91521224933884,-92.21057589983043,2.8722693152403247,-2.4440074979319384,7.432145308368816,0.3463884573730768,-0.9121156161153198,1.6027645691607284,nm,0.0
58.284953355789185,-59.1688033572949,-13.032258521349723,-86.62827663379831,-0.08158635106956853,0.6811200099180205,3.091079180648568,0.3665642600170105,0.06578422704433838,1.1093135202756519,nm,0.0
58.30743217468262,-60.266211962905544,-18.73796890030454,-86.66217321624292,3.710365652072113,0.903178621399743,1.623334631998072,-0.8940363312269566,0.25520937847379477,-0.474493466396487,nm,0.0
58.30919671058655,-63.58574811021575,-26.06495811730158,-91.6558902881752,-0.7304087317709733,-0.6739594009627015,1.6215613817762384,-1.4859137790898096,0.5907740162882739,-1.241663044153238,nm,0.0
58.32884478569031,-75.37179707440622,-40.79030853636584,-91.7083083138747,0.6002819132294516,-1.9971935116232415,3.5135852621813592,-1.18114557718831,1.439480080272623,-0.5144701263491571,nm,0.0
58.35666584968567,-106.92764454833292,-22.74827460452332,-73.31174975421314,4.20174982407292,-1.360749196414941,-2.8747485947911997,1.706387599953115,2.3207369187560176,-0.17038363063156156,nm,0.0
58.380661964416504,-125.46849312851825,-4.76193539904207,-75.71039728161692,0.1737727022761074,2.0015440725792453,-4.851571969928905,0.9164245281809432,2.0327962154494483,-0.644116934941089,nm,0.0
58.385833501815796,-134.40452654768168,-2.456660476955765,-76.00569100478756,-1.1694655127444349,2.427453597752942,-4.8003767590027175,0.0163667128692296,1.8383453346825351,-0.15964674795158756,nm,0.0
58.40787863731384,-151.77067073393474,-4.638441116532118,-65.76900638739379,-1.3692620717746586,0.07061188700786623,-3.086188075475349,-0.8067248595049087,1.425134655924279,1.2509917484466524,nm,0.0
58.41684913635254,-159.26715944376573,-3.803851189545054,-57.94409683679671,-0.6581531859149115,-0.7315181561845687,-2.779794668972499,-0.5481207775901602,1.398210574465666,1.463280419658729,nm,0.0
58.44070529937744,-170.31715775818714,5.020721594801948,-50.27851063974997,-0.431955547707822,-0.008506507902810153,-3.616117420691615,0.2211507116566103,1.3732868224389947,0.40338134744163623,nm,0.0
58.44370150566101,-175.5695286821678,9.654219699343825,-52.7978821605996,-2.339800559634581,0.8804582240796454,-3.6166448716789192,0.09091936447700481,1.393545017282164,-0.3649675521477887,nm,0.0
58.45128870010376,177.86413114385476,12.795608195652981,-58.085568906054164,-3.7701835080200903,2.3108505483827404,-1.5555305831978556,-0.19986664627656311,1.4177272556158187,-0.7986569266152175,nm,0.0
58.47399187088013,166.43029585792394,11.22670615354949,-65.57106231121364,-4.892738729789997,3.3000361938118634,0.4379800565437667,-0.8106753089794989,0.7708370499544037,-0.23144563076676491,nm,0.0
58.47963261604309,162.69063931489674,8.718161197934593,-64.52777519593072,-4.432451882210503,2.1696119390203115,0.005772291987223958,-0.7519865220344462,0.45525124338026274,0.33877131744164923,nm,0.0
