timestamp,roll,pitch,yaw,acc_x,acc_y,acc_z,gyro_x,gyro_y,gyro_z,markers,motor_input
46.515174865722656,-82.00535576840153,-66.18639109927463,-91.59783981102355,-2.1652326459585476,0.4556285141549884,-4.091337535165917,0.08178796390011696,0.1416140049203465,0.5131857786181462,nm,0.0
46.51783633232117,-69.8048563890618,-68.02631216164097,-91.00722284486567,0.00807982194186919,0.4859959188042837,-3.9371811481570194,-0.2844378198943982,-0.6433411303161136,1.2205174317829521,nm,0.0
46.536359548568726,-36.6382442392154,-71.29846925507697,-108.60922044354854,1.0076771014363848,1.1278925249117,-2.138169151644357,-0.574725274670135,-1.2006313179451977,1.362441002252777,nm,0.0
46.57776951789856,22.874983005219867,-67.61132286642828,-150.42617029845235,-0.08982176220598435,1.1872233253406488,1.512559490708999,-0.6401215749112307,-1.0776005820247476,0.5463915573021355,nm,0.0
46.57953858375549,32.17449454963858,-64.74198593925615,-159.25571629320496,-0.28273954342671437,0.9735565257459483,2.5065315632854532,-0.4489967942374332,-0.8366725368037266,-0.0970609229129157,nm,0.0
46.596855878829956,35.86830835388199,-62.04998779141305,-166.2347933402166,0.20281554674207294,1.261730452726546,3.4765626346310627,-0.16896140842061044,-0.6103302181150834,-0.7793394928868693,nm,0.0
46.598589181900024,35.159798791304596,-59.54077302843575,-171.9724790619145,1.2321495181607958,1.2445794137132034,4.061318475944911,0.15088200378927066,-0.4757544477505521,-1.3282055677381737,nm,0.0
46.601869106292725,31.563663896917795,-57.766143851826314,-176.77014836428074,0.6123226251357923,0.8362741530328431,3.8656687084240655,0.39653724030010506,-0.30914456971970056,-1.6657500664161462,nm,0.0
46.64613747596741,4.024633462756856,-62.03001866266866,-172.84379409578915,-0.005420402489376704,-1.3625390093861887,2.9453776206718163,1.2456622739612566,0.6505328402090933,-1.2217206423720328,nm,0.0
46.64845299720764,-11.70114497161588,-64.36527481805444,-161.604287845207,0.7225576442727607,-2.13390400580299,2.0401208906508943,1.2694163407224073,0.7754066221448349,-0.5594764148266208,nm,0.0
46.65004062652588,-29.59596214392799,-65.0888190284265,-146.9082356319636,0.8623306752726482,-2.6714679141417492,0.16993512698136276,1.3006153676338479,0.803084897201614,-0.3396024065548602,nm,0.0
46.66825723648071,-46.14848129871341,-64.62632390552862,-133.3926957767125,-0.6125702419612383,-1.6049006908453176,-1.6496816545187056,1.1285844572501513,0.8378725310766538,-0.2901886096452024,nm,0.0
46.670085191726685,-57.5212042458682,-64.11201057675586,-122.57563299496998,-0.7490240642172332,-1.3122787002836047,-2.498188083573501,0.678615558882316,0.720026143701231,0.12036476671194926,nm,0.0
46.67838215827942,-64.72913880599141,-64.38867557890825,-114.63093723602408,-0.925499048443267,-0.8905021393720938,-3.0851132639833616,0.24336263094411623,0.584450228837579,0.26546861958459883,nm,0.0
46.68896770477295,-69.26617574485897,-65.71209992667978,-108.71501522921278,-1.2353087086359038,-0.17319673509967773,-2.987956465691639,-0.11249557460226453,0.46100868097684883,0.33042464094619417,nm,0.0
46.70356631278992,-70.57870224898949,-67.55310589234811,-104.3292398001866,-1.5011172256068037,0.0077974170611731135,-2.965261963729083,-0.3316424568437362,0.21129294503403787,0.5916729615482044,nm,0.0
46.72390556335449,-65.23256662487987,-70.58345316502188,-101.02639504161772,-1.2174604367853865,0.6301637955903789,-2.9199433663167054,-0.3098708205044923,-0.21494714010757046,0.8151998627895181,nm,0.0
46.725728034973145,-57.274823157026304,-71.18655605341482,-102.80877484875224,-0.7074893761918903,0.5451051649886943,-3.060459704316099,-0.23349505177023588,-0.4797471694976689,1.0903090089244523,nm,0.0
46.75179123878479,-33.02406032309866,-71.88340245666784,-114.19140796967959,0.28970411249707445,0.9451457614647872,-2.1379600426140777,-0.3715236103448248,-0.759659925127091,1.0379507600861095,nm,0.0
46.756184101104736,-15.493730840328656,-71.9531124437251,-125.4376819085514,0.7505500412675931,0.960001626546535,-1.2391670397238972,-0.561539913117878,-0.9323683200211044,1.0365832006403812,nm,0.0
46.76399517059326,3.9279932842011887,-70.97865009375181,-139.93457014736032,1.4610993215475627,1.404888304980186,0.15339598346389632,-0.7028211966355583,-1.033440493314386,0.7333767010632415,nm,0.0
46.77372431755066,20.11386946004377,-68.3319289339829,-154.21225688780078,0.7554686759525205,1.4113064271673341,1.0633671140743066,-0.6676141755181081,-1.0496967724099946,0.12580187779686136,nm,0.0
46.800108909606934,34.325505143271016,-60.42258898207727,-172.34155134730727,1.5161902394137479,1.565391089639106,3.5013899115113336,-0.20105447371446078,-0.860203324080934,-0.8644645337162872,nm,0.0
46.80187153816223,32.38780855111707,-57.23326820381584,-176.9798105888672,0.7084219404520715,1.1166047903914622,4.097498155591413,0.24963404286401308,-0.6102269073055949,-1.3652886946511378,nm,0.0
46.83080244064331,19.01059053850592,-55.90934388962939,-178.43543737162742,0.5436420009209855,-0.6388653639091761,4.851330610754424,0.8781082282536853,0.08662991723944986,-1.2833583873391772,nm,0.0
46.83275079727173,9.038563343129514,-57.69698926993678,-175.25892985391351,-0.3214165101520402,-1.3796068144140006,3.9237453678385794,1.0596826335579437,0.4295974522988311,-1.1071188024084642,nm,0.0
46.84193420410156,-1.3971163020947786,-60.252413872790264,-169.13654944899432,-0.5121999647484025,-1.5287281157015855,2.8180495893998723,0.9854571951853611,0.6635902644558812,-0.6173364430543863,nm,0.0
46.850223541259766,-13.13535948231853,-62.86518586420915,-159.55624059207832,1.1532679826911805,-2.3260809678690753,1.6684859429556882,0.9249559975466031,0.8143533910333087,-0.18434207804481256,nm,0.0
46.87535047531128,-42.1972757828205,-66.36963041594274,-134.2424718577537,0.0558131107821244,-1.1335941641034177,-1.63058521671519,0.7216204314844384,0.9458204095479644,0.022870894767551893,nm,0.0
46.87710380554199,-52.79143190971189,-67.03434275188366,-122.93345902449212,0.3894233271897958,-1.1644864350533468,-2.494330178654937,0.4100702320078945,0.7459253974553087,0.3042128141619257,nm,0.0
46.88896441459656,-60.452428687955226,-67.69563843047102,-114.55381807815832,-1.2551372404870884,-0.3225966875564612,-3.0553250983221396,0.1591130973103783,0.5885995213703191,0.23795914158625636,nm,0.0
46.896597385406494,-64.6372421865501,-68.60578077468028,-108.14764110526085,-1.0938780206614929,-0.013747837975450096,-2.844218030653509,-0.06463406935737037,0.36386902341492117,0.4744314181562962,nm,0.0
46.92129421234131,-64.54546819958591,-70.34640338279912,-101.32463143518689,-1.512690482490137,0.31432633355005857,-2.8199221654413376,-0.18321015611061203,-0.025679714146797743,0.6572291312951317,nm,0.0
46.92416858673096,-60.813453301881815,-70.94759042568523,-100.24040152537225,-1.3991219379442925,0.4233937436105442,-2.868920172975817,-0.17319515693912754,-0.21489463641136125,0.8810139762013544,nm,0.0
46.95061635971069,-44.69312538651116,-72.29698317377056,-104.96615847081654,-0.1384207310363542,0.7219864336938712,-2.827702891299046,-0.2972115312368557,-0.5237378393566202,0.9631744849517254,nm,0.0
46.95567774772644,-30.48719967839459,-73.06749547495245,-113.62382613618706,0.20016782962748436,0.847756351609696,-2.284652914816455,-0.43388102809583706,-0.742939632639196,0.9463241121557333,nm,0.0
46.981168270111084,6.708336542878015,-70.89458202352111,-142.96693300838297,1.0343278672242615,1.3737032345543247,0.37371225863598184,-0.5331211625044544,-1.0743172234974714,0.335138950911201,nm,0.0
46.982871770858765,18.991286530364533,-67.36584450870191,-154.76542682291915,0.6808870072381457,1.3674020922875019,1.9339671443733004,-0.3954663524666898,-1.0513311005423553,-0.11591057758322819,nm,0.0
47.00827193260193,24.662781189097316,-61.642141325348824,-166.36977571168404,0.3624711864387715,0.8425037106642771,4.136953448474753,0.07518443555514376,-0.40046959552521116,-0.9221673554856543,nm,0.0
47.02202129364014,16.285292479984523,-62.249987714965734,-169.25163683489606,0.9364834899184324,0.25450713488830135,4.310380840265501,0.4787729744322933,0.2228915469739817,-1.0553076681962477,nm,0.0
47.03932046890259,-1.2398952655395945,-65.33508197847964,-161.04394855253148,0.3063387898017338,-1.0563849446867175,2.2088204827177305,0.6870936897233071,0.6616260779054839,-0.7133003561419284,nm,0.0
47.06697869300842,-27.54245262890107,-68.24473710015755,-139.8921132010562,0.5750442781861882,-1.4657968764584455,0.21795616494904352,0.7635968013761909,0.7603333891834412,-0.2455253410511539,nm,0.0
47.070876598358154,-41.74030047514401,-68.5468904110426,-126.96233482619161,-0.320557798209964,-1.3060624646385115,-0.9773855601237108,0.6641176471348379,0.8077438524805216,-0.06513763820880221,nm,0.0
47.083829402923584,-54.20202547023991,-68.44015811609232,-114.63007407066178,-0.7762781371762026,-1.0580201411089456,-1.8131028553573947,0.47643291803638116,0.7805397173052664,0.1456367250993428,nm,0.0
47.102996587753296,-70.62577067860178,-68.46539139928385,-95.72006351733754,-1.2055722616647517,-0.23499770063868314,-3.053910279294195,0.038769257299185615,0.5024355460358683,0.4382821006418277,nm,0.0
47.106769323349,-74.3834184683482,-69.24665671064818,-89.4060936617887,-1.5142754052940295,0.04524699905214725,-3.69386352022464,-0.15256693424389806,0.28379696139548966,0.5577872542699982,nm,0.0
47.1329710483551,-70.80513241891157,-72.5554814185619,-85.23076911857225,-1.1202848993982988,0.5747290677760163,-3.970038757400565,-0.3595318821447805,-0.3040588539611689,0.8189982365656677,nm,0.0
47.134703159332275,-58.949985205052165,-74.5290752291408,-91.84628713010562,0.26843354665149277,0.7285481664801405,-3.8254321744633892,-0.3848211601121874,-0.6765803761831736,0.904818704415515,nm,0.0
47.15957546234131,-15.610414538888772,-75.41911258480685,-127.32980286228799,1.2641399447708277,1.126914567453597,-1.4208237942584805,-0.45665286602131827,-1.1062550897266012,0.5098589650306778,nm,0.0
47.16333317756653,4.53641014358622,-72.45877117858674,-145.79208000523454,1.9855586269452041,1.2024415101048356,0.4002147626364383,-0.4125579239708551,-1.1841599055435152,0.12298586573472474,nm,0.0
47.18420171737671,19.99489106791986,-63.74646048860413,-165.90021835014065,2.1565313728209587,1.3023163872837962,5.2010022692505995,-0.06169652795530302,-0.9497723091156982,-0.869325950357756,nm,0.0
47.20091414451599,19.10569638668497,-59.54610445781912,-170.17026509792146,-0.419161194474059,0.17325530450630738,5.921151496052614,0.24940236798575105,-0.7974950459447249,-1.1316569160474115,nm,0.0
47.202675104141235,18.594336993220278,-57.73765097830548,-173.77460699063536,-0.6878568861078117,-1.2338524301231528,6.455459701186759,0.0934833735986292,-0.3428681856302202,-0.9296786383153235,nm,0.0
47.21170115470886,17.855230031671113,-58.781365104309785,-176.3553803360885,-1.2683007979614245,-0.03456798500181797,4.532864649186934,0.04741381558035816,0.22384760687133956,-0.7324583105870736,nm,0.0
47.22259068489075,13.067492036466906,-62.014805558442745,-173.72822200337976,-0.13657595668920378,-0.27016999397442715,3.7187051358315246,0.40347513207807006,0.695258820041801,-0.3456420795078593,nm,0.0
47.24563431739807,-17.517676358993324,-68.35226210475464,-145.22565183440258,1.1182867653391586,-1.287847483330578,1.3651847676576352,1.1371681254602364,1.0826875483097291,0.1316040094867901,nm,0.0
47.26958894729614,-59.51681656834722,-66.70131098119951,-104.79228209338244,0.8248431569892264,-1.0454625683307754,-1.7884107342724023,0.8904000172152966,1.1795556879138536,0.17212598764353249,nm,0.0
47.27489447593689,-71.5970844690715,-65.12980469642655,-93.08660749301127,-0.674104562634999,-0.6349391439784354,-3.3368033269042976,0.4545659211408936,0.929746705994818,0.1549097770716378,nm,0.0
47.27805805206299,-80.67129211431788,-65.28182500927966,-83.68509336061754,-1.1734773467039394,-0.2177423864088818,-3.9400142380347005,-0.05914114812112211,0.7651141272810011,0.2543559667168988,nm,0.0
47.30159020423889,-92.7583650236719,-69.097174586217,-68.3419109949099,-2.1807894150587344,0.3391977883523621,-4.289867658514665,-0.5358213324421766,0.19394004571048357,0.49335104951143616,nm,0.0
47.30562424659729,-92.27985806931183,-71.19324508959761,-65.67603510429888,-2.2960786761875918,0.8779393795467226,-4.465101388512425,-0.38162133240557833,-0.18881475600726688,0.6119654420453465,nm,0.0
47.341286182403564,-70.80236260338731,-74.7106979305696,-78.06466513956383,0.19908258889227026,0.7432638117392962,-3.888262240378051,-0.10945139468500288,-0.8174278413944441,0.7490113419136563,nm,0.0
47.34316372871399,-52.177443749224395,-75.78467213067482,-93.37520291229902,-0.40884785361028125,0.8082306241062186,-2.7173476441171878,-0.14989227628038357,-0.9532902225494735,0.5005160569357449,nm,0.0
47.34485483169556,-27.876391400815137,-75.48882851575917,-113.51329676591652,0.9995798874791189,0.7997955193508343,-1.6517559081709001,-0.22986711183053404,-1.1742417717995697,0.6272087198116795,nm,0.0
47.353522062301636,-4.53701678828175,-73.49124701686357,-134.47217426856108,2.09174263379836,0.9714247390938444,-0.04455820054486657,-0.3765207028829101,-1.2449394017149218,0.25021533890838027,nm,0.0
47.362542152404785,12.104289436911666,-69.68323552202537,-151.99183000966633,1.8654689484819522,1.2084928272413415,1.6395032073401665,-0.3966296098173788,-1.2296139490418834,-0.40637522273217214,nm,0.0
47.38697528839111,22.662833359941423,-58.89462688169469,-170.6239951161474,1.577742855848105,0.7327087983820286,5.077382447961911,0.10278320351966418,-1.1077455653961048,-1.2651471222983413,nm,0.0
47.392741441726685,20.322354140638904,-55.07460867377303,-174.65627642998555,-0.31664872337226196,0.000719456939639633,5.555464868377296,0.343545352823793,-0.7166654427053931,-1.3240225887586856,nm,0.0
47.41966724395752,13.429867182641939,-55.546599474300976,-176.62064779031766,-1.6767165739083663,-0.9723942668878136,5.0375896146471755,0.3674625779590664,0.33705810352934784,-0.6495251907378562,nm,0.0
47.423248529434204,8.513991521163522,-58.94649675670203,-172.57556611061474,-0.6513820164953181,-1.0369321328088787,3.821032258774013,0.45365341653233104,0.7377205881529473,-0.06441755807101125,nm,0.0
47.44477462768555,-16.162089093230513,-66.14652845817355,-145.76233168576485,2.2238768982490202,-1.2482262261290518,1.2326421015801097,0.9283240509170001,1.1484177177066384,0.5217592833478347,nm,0.0
47.46848821640015,-51.023112790754276,-66.63629553945292,-110.09914027301278,0.9101672303753958,-0.6145354997996836,-2.3805753615257434,0.6514286341376077,1.0263020411798132,0.4470188166218646,nm,0.0
47.47035455703735,-61.52701664991635,-66.50417748952049,-98.88987689696076,0.09607677931944998,-0.3463203655017085,-3.31614105154621,0.22611221318158903,0.8067323012815617,0.3528227947845457,nm,0.0
47.47767186164856,-68.2224804607041,-67.68486816904071,-91.32142865859556,-1.146782181141841,-0.10509819677018332,-3.4402949764764865,-0.19760759270414519,0.5455504720709597,0.3020582417734435,nm,0.0
47.502381563186646,-72.41248022378048,-72.38736323096084,-83.0678033916991,-1.4153738385760382,0.191821635784028,-3.139290458386179,-0.5136050106659766,0.02410655328308473,0.45375642034343056,nm,0.0
47.50526309013367,-70.74179017502388,-74.3215853117747,-81.90863691581919,-1.993101426451841,0.286367465788845,-2.9169061374791685,-0.3813285340030925,-0.14071841032128526,0.543456925514347,nm,0.0
