timestamp,roll,pitch,yaw,acc_x,acc_y,acc_z,gyro_x,gyro_y,gyro_z,markers,motor_input
54.027724266052246,-79.10249045062345,-31.09790336099238,-68.44349934013604,2.138336034081407,-1.6144859660165687,0.577354223011918,-0.5516495631694486,1.7757056511885563,-0.6074673809933238,nm,0.0
54.02948999404907,-90.29941040242451,-28.138046271321763,-64.7227770763202,3.03461934769307,-0.8436284988598719,-1.0606196881399848,-0.2364187687704969,2.019429399048742,-0.35134645138457343,nm,0.0
54.03118538856506,-102.14423601762846,-23.15820143441438,-61.096100759530366,3.075799026972603,-0.16179858406411057,-2.8345721625098954,-0.0904553134833612,2.352570707650801,-0.2888650065609689,nm,0.0
54.05357599258423,-124.62373428964868,-13.37253505152709,-58.701582211215914,0.17129631718550112,1.0397808909452373,-5.486279218818756,-0.355677257265744,2.257814804460004,-0.48558672399690006,nm,0.0
54.06038236618042,-135.7348515302163,-10.693699473975933,-58.08919748858922,-1.534538980906058,1.2418744046530739,-5.616804534043196,-0.678110217807111,2.13126904651938,-0.3287896274586897,nm,0.0
54.08580994606018,-156.45970707830193,-8.855526310935158,-54.076822005664994,-2.8722237080285775,0.3081858078198127,-3.9124302023227764,-1.0244179071575894,1.650498040218874,0.17553575101023178,nm,0.0
54.09671902656555,-165.29668588295343,-8.51778381349887,-51.38525728932614,-2.856489685394788,-0.022107937256369618,-3.4868883396386883,-0.9938381306323041,1.4337451513830741,0.27947990958430924,nm,0.0
54.11717700958252,-178.6108063077959,-7.838323203053579,-47.953051461814816,-2.614887099001077,-0.16445146373649897,-2.1370608466060883,-0.720038464093711,0.87783930057618,0.08584455516238046,nm,0.0
54.12143802642822,177.31570196035696,-8.477319114126278,-47.85956405062105,-2.836746006004017,0.19527297500584498,-1.5046647800823916,-0.6229710147667298,0.5160663255805904,-0.09146477067690066,nm,0.0
54.12699031829834,175.2783168245499,-10.013443984681787,-48.4125312449679,-3.062492979544985,0.5659413609258257,-1.202938693714588,-0.4845918349768231,0.09739680390573024,-0.17092934455460063,nm,0.0
54.134055852890015,174.99484449633414,-12.322919602699296,-48.76879676762845,-3.314547325455941,0.2283919068713113,-1.782392942014294,-0.37064873639653945,-0.2611951638285019,-0.07681270290846945,nm,0.0
54.14427208900452,174.93995923613016,-15.219260008843934,-48.3416513727565,-2.848269909094936,0.30399952605140607,-1.4173698974869275,-0.42899333949301105,-0.37264545671655663,0.08870375375178532,nm,0.0
54.15336012840271,176.01955478304515,-18.294187742647274,-47.320225230252376,-2.235707981241805,0.47146789791122945,-1.226987911015544,-0.30497628635762825,-0.5630585525482185,0.2731190112843983,nm,0.0
54.182352781295776,-178.69263795265232,-24.692078279917602,-44.5847357288756,-1.2067375383631276,-0.08428410548776373,-1.9008306514614444,-0.12311612642762552,-0.797283926828586,0.4896739702788328,nm,0.0
54.18709421157837,-175.52096742792142,-28.38469210787044,-43.703764574050936,-0.8046118114567589,0.2194171760160923,-1.6504970340208114,-0.09697298356851233,-0.920894173008553,0.4686942373179283,nm,0.0
54.1948766708374,-171.18393820008313,-32.400035009574836,-43.862981572463696,-0.5238738362323158,0.04013552865352322,-2.092466409614607,-0.006182758379147943,-1.0928500790972655,0.4170194358330122,nm,0.0
54.2145357131958,-160.02391249408117,-41.322199250940415,-48.22122152170779,0.18838862310414092,0.22835169008664685,-1.9768983281310841,-0.002166700400556776,-1.3402268676084792,0.19681793356402044,nm,0.0
54.220250844955444,-151.71137463342163,-46.25792421044302,-52.97083451381722,0.9970257095036423,-0.20843030050788341,-2.153489914239583,0.005165735300885915,-1.5479083352016056,0.21408417231983973,nm,0.0
54.242631912231445,-127.51767472882777,-55.867969689758446,-68.8228210408173,3.324142042108249,-1.3147935093752223,0.10030847725007933,-0.11531218351779439,-1.867666049116911,0.3988452403154038,nm,0.0
54.251179456710815,-108.68372296743043,-58.94586728100748,-81.53325437193486,3.7888384071390036,-1.8925710214744824,5.34795382888959,-0.072701700013426,-2.1062516916419476,0.6513644822443241,nm,0.0
54.25871253013611,-89.95922979265491,-55.91009505048156,-93.35804738326165,4.220222587869544,-2.4632322794694255,7.15615328214148,0.6855443902283457,-1.977557606635066,0.8117488397156116,nm,0.0
54.27952194213867,-77.99742787474406,-45.925541949702264,-86.75003884049109,4.396484455702651,-1.4948724267838585,2.918031631045155,0.797074005546191,-0.7523612570853178,2.158659374052689,nm,0.0
54.28937482833862,-71.95435930599324,-44.46995084063015,-84.16306969091957,2.678548759158852,1.2720114200313255,2.835468356348373,0.3495693002789519,-0.8269699344067085,1.388179633521496,nm,0.0
54.316752195358276,-46.22793532036902,-46.36011892397312,-81.78076638674942,0.2547752225942284,-0.4897585730700327,6.170906250204959,0.23643809066634672,-0.6981646028978787,1.0540874738645245,nm,0.0
54.33266854286194,-47.425186160914286,-44.710032203216684,-75.3188109925603,0.15649444928785533,-0.11274259387459665,4.118968435311759,0.28001789271646893,0.22545575447904737,1.131497021790706,nm,0.0
54.33437752723694,-52.68057034479785,-41.748891866533,-66.87345869061551,0.4601037968446846,0.6167216924251543,2.5779970589076915,0.3027725852714975,0.9116144076255325,0.9787694040117626,nm,0.0
54.35750341415405,-62.57429756570333,-32.91778535194384,-57.14107099130077,0.42332044002387825,1.6227179078673786,0.16336589400703552,0.35601011351765877,1.0864680641617661,0.20526299717307048,nm,0.0
54.38044309616089,-75.45053132565938,-26.955699108426334,-55.48761911141365,1.4194050888464884,0.5787284576577759,0.21053406793054158,-0.25165143006433066,1.2810438975196232,-0.6459922665554222,nm,0.0
54.38411736488342,-83.02921385639216,-24.824612041828022,-55.82262711356789,2.079788484137167,0.18735825979162132,-0.653339298468861,-0.4223726873241382,1.362209179205239,-0.7167367626199304,nm,0.0
54.40444326400757,-104.12958381338176,-20.149878001019097,-52.320874986193424,2.3402212143189574,-0.2215461952307444,-1.9211454251797668,-0.8108234573308174,1.9893997876844407,-0.33581534585630024,nm,0.0
54.43223690986633,-126.87861000154292,-12.593893202637553,-48.22730269027229,0.7465392485046153,0.8488395100585617,-4.877828340148818,-0.8369550616252462,2.1999266152286627,-0.20009156777258813,nm,0.0
54.433987617492676,-138.6858703234003,-8.550798924503122,-46.727583420432936,-0.9775300513732805,1.122272319448613,-5.5436776401093075,-0.9685313546299867,2.2574721969568334,-0.12230462111223311,nm,0.0
54.45855474472046,-160.78054089078054,-2.380033757320784,-44.78132232696144,-3.9556694576097082,0.77446178175707,-5.112793858445162,-1.1122173388637957,1.8909893233177122,0.03364152965273108,nm,0.0
54.46748089790344,-171.32230770339845,-0.9915787865773743,-44.66358873777287,-3.871775695510232,0.5442902660885106,-3.1695371801526933,-1.2911991108403609,1.6836745458008953,-0.031761867734085215,nm,0.0
54.48284387588501,176.85300103458846,-2.7304426217068025,-47.17714528553422,-3.6716972521447673,0.019051349930235727,-2.167024866591237,-0.7758642676990163,0.3986482852557108,-0.3355422423106192,nm,0.0
54.49527859687805,173.20383104161257,-7.317635609027804,-48.14863279533032,-2.8740784694447035,-0.14007966134711333,-1.2859620990079108,-0.46945550500827293,-0.1593653489061569,-0.0030586623790880107,nm,0.0
54.509851932525635,173.9043465190549,-9.512483323197875,-47.1350120081079,-2.539384529449915,-0.29013277415623145,-1.7134011054689606,-0.21809635844158026,-0.39550768003302794,0.22843110107490106,nm,0.0
54.51335525512695,175.7168365330247,-11.633119234902393,-45.759193573392004,-1.9519433903326748,-0.30249658650223776,-2.1016917709179554,-0.04911104021957436,-0.5475496875239637,0.34759023895528585,nm,0.0
54.52285623550415,178.51947992795314,-14.199874284905254,-44.770850787429175,-1.3429472208081423,-0.07025915426820863,-2.3127451791536155,0.032231401040839394,-0.7463132224231364,0.32965263248670357,nm,0.0
54.536149978637695,-177.52514027842525,-17.582648228138705,-44.84604877837667,-1.0742040460378193,0.1675409389458677,-2.5864085252719318,0.07483866994199322,-1.0130958159520596,0.20925861136159035,nm,0.0
54.545422077178955,-172.73805463778183,-21.500914430283036,-46.30185331946016,-0.7771699952967641,0.33023040026555056,-2.664636956538159,0.0830649749998651,-1.189890730316182,0.03800404830150763,nm,0.0
54.56806540489197,-160.12295643539454,-30.14392664869539,-52.5679011856176,-0.04353372699703438,0.25509362511643835,-2.4210356381393376,0.09694568947998529,-1.5083820175492137,-0.08989773420180035,nm,0.0
54.571406841278076,-152.07460284838197,-34.74503456884242,-56.92082242001282,0.5333559004539752,0.01695629165810848,-2.203817087010937,0.04059924722278806,-1.6373419975446721,0.00651451123012262,nm,0.0
54.59945011138916,-131.5790509163399,-44.317033190680206,-67.39256946683516,2.6061938013348995,-1.088248533412614,-1.1212217749844224,-0.15637518941449088,-1.9146155962568738,0.3745275534042479,nm,0.0
54.618167877197266,-99.87707765722652,-51.81022038874723,-85.7966630687464,3.59012984784675,-2.5324066192462387,5.921746549662473,-0.15333448901774183,-2.3718222715898047,0.6758742063514527,nm,0.0
54.620218992233276,-82.8078610921008,-49.03432923015511,-94.82695745637707,2.397754456062566,-2.2344566493874987,7.819049461597679,0.5330355813310784,-2.172214029746563,0.8450749291196405,nm,0.0
54.627851724624634,-75.91782778601038,-43.73239540404024,-93.69028245107069,0.26636213380186236,-1.598364290625776,4.843932586634321,0.9795340289346595,-1.026440855648782,1.2391634774959348,nm,0.0
54.65218806266785,-60.605054743147754,-41.04839607065093,-88.68586734785127,2.054643688224775,0.3634726219044374,5.089103365888553,-0.04674514880481051,-1.2084528840980178,1.435063494732194,nm,0.0
54.66013431549072,-51.67114290754034,-42.18150928375218,-87.93727986219045,1.1700615489116573,-0.6809073561676957,7.9656134350806616,-0.19791216629375655,-1.345742685234156,1.3469443064056175,nm,0.0
54.67969226837158,-39.248824690059855,-42.901955890647294,-85.07772422552478,0.689119409861991,0.6921176211939782,4.9690238944769165,-0.03828098684770986,-0.6912762303087926,1.0723864754918286,nm,0.0
54.695115089416504,-39.250819674849666,-42.90636024093433,-81.18575651985968,-0.6678463235845739,0.3064936976429597,4.040184205015314,-0.012301142274428807,-0.0049241305295105045,0.7864318651709931,nm,0.0
54.71116352081299,-45.10157275059925,-38.585554986731815,-72.75479544753958,-0.3690337430774078,0.9493752205249992,1.5420968375791115,0.355877306309508,0.7072856740849414,0.3230254700861856,nm,0.0
54.715165853500366,-50.46349644472082,-35.43310116740954,-69.27077263804102,0.04859239145221116,0.675521658760403,1.554240357972934,0.3080839920097543,1.009278349599832,0.05972809837097935,nm,0.0
54.73767828941345,-62.88367051873808,-27.42243229794391,-66.00047929590596,1.7390070293680806,-0.15463109074395354,0.9140540006897838,0.30770127479987247,1.3694052639218413,-0.43134692838115474,nm,0.0
54.76453495025635,-79.2605532349338,-20.76251528745158,-64.08489735641042,2.4567788781416255,-0.8419151039188074,-0.32191124047896924,-0.1689092797848863,1.7053933254830436,-0.40909613201620415,nm,0.0
54.76673674583435,-88.52228565107818,-18.314055200219453,-62.617224807492356,2.9523086606767808,-0.5003536997686001,-1.5085900259318357,-0.349735104108316,1.7757553386583766,-0.31388786689956,nm,0.0
54.77169966697693,-99.39115163064838,-16.15251109218903,-60.67241985472933,2.2888522567060487,-0.10364354031569725,-2.5393810099694494,-0.6082274788113192,2.0290270588996124,-0.24275401898326385,nm,0.0
54.780110597610474,-110.85964694762582,-13.886704803846534,-58.05901995418268,1.5324217506319844,0.37792791032790707,-3.1550065301998558,-0.739284402843913,2.1344790788401466,-0.05959292099986452,nm,0.0
54.80471205711365,-133.51330824505357,-8.382471052281423,-53.26785637869658,-0.32245603803436435,0.8210026019369187,-5.05098432587818,-0.8621037825355468,2.188684567189651,0.03821909187988787,nm,0.0
54.81057548522949,-144.84719087467434,-5.227479125425444,-51.85601654895358,-1.4552076414276127,0.7593381588548694,-4.865732341506727,-0.8607842123241309,2.1707607700615568,0.02416586573046022,nm,0.0
54.832399129867554,-165.11749571962423,-0.1200823048414773,-51.629369610771214,-3.230058097417879,0.21535446130538585,-3.9864684918551,-0.8943369044370914,1.8104523276293207,-0.08867342231146706,nm,0.0
54.83740973472595,-174.06355389948044,0.9016457721915042,-52.19980395362571,-3.6158363398692512,0.3870413054771237,-2.9197614956848295,-0.9308601710717934,1.5361934988619979,-0.0957112346693527,nm,0.0
54.86627912521362,173.67589168824415,0.23471918899740626,-53.20874226911636,-3.4282054963346122,0.6608852364157338,-1.0331931124740252,-0.7226409287289973,0.7120557145470946,-0.07673780656240205,nm,0.0
54.868120193481445,171.20852760783634,-1.4762090668351653,-53.488329818462404,-3.1251396869096215,0.7370526855525261,-0.6016609229012772,-0.5556888645328091,0.19301876557933248,-0.05788363098319122,nm,0.0
54.8830189704895,171.29466980909305,-3.8364382250832603,-53.330825724110724,-3.107453491986271,0.5633387487484731,-1.0213016418085399,-0.35532435234496357,-0.2941658750483382,0.03608557127639173,nm,0.0
54.88507652282715,172.73245890365715,-6.341157926290869,-52.53274847646538,-2.9065921058043678,0.20618545461208543,-1.7499872083024233,-0.21368709629524693,-0.5293914573024329,0.18965705187425264,nm,0.0
54.91221237182617,177.83543519528135,-12.106781890417192,-50.51832080518914,-1.4387944900792415,0.147117881160755,-1.913478356494707,-0.07071732857354475,-0.8846828651036761,0.2940379343299431,nm,0.0
54.9142792224884,-178.13540101856987,-15.839371590231659,-50.55527741080813,-1.0942572942701747,0.02330446746162702,-2.2954812192499716,-0.06702602112250561,-1.07652375724218,0.19458710434844378,nm,0.0
54.93690490722656,-168.36839252675713,-24.440422199877563,-54.35611201105282,-0.4891670376799882,0.30189665095015167,-1.6588965981697752,-0.08429008940905132,-1.3459086931664048,-0.08443130753408205,nm,0.0
54.94394254684448,-161.47886642968862,-29.073471466972496,-57.7689756193483,-0.19331190498557635,0.04823738101373784,-1.9318718249223934,-0.06872243295030382,-1.5364140446935777,-0.09989183331852285,nm,0.0
54.966203689575195,-143.37174829976132,-38.85515495718361,-67.51089279824721,0.9729308437202138,-0.5760474737573092,-1.2258901546540735,-0.2023710645749518,-1.8802552492137987,0.15272807084412912,nm,0.0
54.969945669174194,-130.73039761902325,-43.7312491070413,-73.993722505306,2.2220281348034607,-1.664976084183128,-0.33517487283384056,-0.28819328547552864,-2.1105335638072775,0.3895347187737565,nm,0.0
54.99059867858887,-95.91177438958792,-47.07197606891134,-93.49750887069165,4.003043155152524,-3.8784206703497985,6.496684325963208,0.22836859885689093,-2.5174301849821155,0.6548779482685965,nm,0.0
55.00471830368042,-84.41856663441271,-41.05525527843817,-97.77527260342713,-1.154124829416736,-2.699613086789495,6.689671891064234,1.0262547103734814,-1.760689744671336,0.7605163980298637,nm,0.0
