timestamp,roll,pitch,yaw,acc_x,acc_y,acc_z,gyro_x,gyro_y,gyro_z,markers,motor_input
58.51021480560303,159.47009927944927,5.200103384685179,-58.74735225798009,-1.943783895538744,0.18492915259267131,-0.52170307076281,-0.3082322270197822,-0.08475389344513364,0.5957133818818539,nm,0.0
58.51203012466431,160.0432389438916,2.731579736617103,-56.654956333149116,-1.9011166036787324,-0.8615353336703162,-1.6129069219512424,-0.3422351510725833,-0.360301790116396,0.4114962114581317,nm,0.0
58.52937436103821,162.66443024842135,-5.514791706976448,-58.45373337660078,-0.8396409058059313,-0.5785252137375453,-0.5566097331389769,-0.4911269680574489,-0.8779305443567424,-0.4034734026060903,nm,0.0
58.545679569244385,166.83075896318988,-10.549696433882943,-62.66120344318024,-1.5057000359796762,-0.5533784338653684,-0.9528211942096049,-0.4576729232062553,-1.215496859322079,-0.7213405183821735,nm,0.0
58.547351360321045,172.28308606690862,-15.695116186314308,-67.93117067234525,-1.421271142685497,0.26961453471632996,-0.35906074101067587,-0.47771236047962057,-1.3978093676772985,-0.8005389282394687,nm,0.0
58.57006287574768,-170.01029655498706,-23.692913324187877,-78.09065663683457,-1.1134929828754119,0.22902529803123414,-1.468084882128084,-0.231496275904291,-1.944477239807725,-0.20045397356149758,nm,0.0
58.57439303398132,-158.49367092609498,-27.376882739626836,-81.96414625446302,-0.13589529482493615,-0.4402781259586279,-1.3521910386964182,-0.35469226132844395,-2.177076380097188,0.23193258703204217,nm,0.0
58.604071617126465,-125.56939927760334,-35.34389283469592,-91.87503735296218,3.984605289717485,-4.700032809611431,1.6196046713562011,-0.6868001328125345,-3.0707835570167363,0.8749364366197069,nm,0.0
58.6058292388916,-103.93903028247516,-33.25356571421361,-100.22271400720332,2.593983996863752,-5.394872778429327,5.611142521778443,0.03246805945917841,-3.59408800503171,0.7972527729082497,nm,0.0
58.63141894340515,-77.59930711796808,-8.753494088785033,-98.12892185723844,0.7829728500233051,-1.4597667918345545,0.7986238225584606,1.9751279217993218,-2.4568656651506786,1.714272356120312,nm,0.0
58.633626222610474,-66.61625053186307,-5.850245357341298,-88.23352154214733,3.3907883109992407,-2.9068261040144465,4.271807019561321,0.4491677776945805,-2.220644110577609,2.2635254312110353,nm,0.0
58.64197254180908,-56.80184276915488,-4.791265313954104,-79.92868728581963,3.8692544534622293,-4.63011025569082,7.983969651478706,0.40335592105980456,-1.9351127967545836,1.848286792593325,nm,0.0
58.667799949645996,-56.68511693477947,-0.5947721851946961,-68.61254316353217,-1.7786447684363644,2.5725660644195605,0.3365539749715685,-0.24489072075560792,-0.025644808356559617,0.6038246235984162,nm,0.0
58.669596672058105,-56.527030337314585,-8.335238818489483,-71.7606605449124,3.893085482483492,2.6163462894283125,1.2761223258246799,-1.4555795112182788,-0.5644590694757694,-0.6194371993852241,nm,0.0
58.69350290298462,-60.26480456870855,-28.623523802046325,-88.74071676662817,-0.5687004722217648,-1.46710178567208,1.8003786878985752,-2.01422246558837,0.10048822950478753,-1.761145049307286,nm,0.0
58.69931244850159,-66.7009173017816,-36.04481676126663,-88.30139604656374,-0.6260980788214427,-1.6927649015707094,3.15923079484678,-1.521295605083538,1.049601130440854,-0.591254807637352,nm,0.0
58.721020460128784,-90.90185622949609,-25.82735119361026,-70.57802715720504,5.855913057500229,-2.146356922573773,0.29944803963972405,1.4357350782495044,2.480745333232467,0.4485654865540283,nm,0.0
58.73813581466675,-115.94092475749152,4.962180062465373,-68.43781973695837,1.969605822497461,2.098228326067554,-6.582798086062968,1.7201133277295004,3.574301624908469,-0.3955599508116082,nm,0.0
58.75680875778198,-141.04283067102764,11.019011214638544,-76.36016859913248,-3.488912389871133,4.796554931083254,-5.335639539968962,-0.8172668136807106,2.2093738223845194,-0.029342305512939214,nm,0.0
58.774476289749146,-152.18238006854097,6.929744199900472,-71.0627230017896,-4.607351426178876,2.803614823582335,-4.311066325571142,-1.3923294424153976,1.8813492393087663,1.4136697552520079,nm,0.0
58.77799582481384,-161.90053374166143,3.9029166514468754,-59.75199955299626,-3.787514831762824,-0.19782207675412355,-3.2210449065379536,-1.346603513614234,1.5102484386835466,2.4502529400896624,nm,0.0
58.806750774383545,179.8839630273014,12.722156771572578,-35.52338633445106,-0.3410473959601823,0.06062384158408186,-2.4011479107053115,-0.04011078127875784,1.2991823719651079,0.6807378707692541,nm,0.0
58.81264901161194,175.30773343386068,15.30511011287205,-39.5956820803614,-2.163070496783491,0.35004525917999885,-2.182191784856531,-0.3757426367430511,0.9555122662903638,-0.5910779377901213,nm,0.0
58.83193039894104,167.566244600125,11.357113181933528,-56.127512861104165,-6.233182447518641,2.1732701630724867,-0.5868689040630187,-0.8373637398209274,-0.005191372594120246,-1.498340809653694,nm,0.0
58.846572399139404,165.4033253530771,6.477716961516015,-60.118167959983694,-5.542983532871911,2.445183882569287,0.24948275737052375,-1.0413916723924148,-0.15312077206063673,-0.7301219050293678,nm,0.0
58.86028337478638,167.70289276479846,-0.5649441038262918,-58.32397697844473,-2.2578496162049744,0.35384950347537614,-0.4305122076692264,-0.13562984650200777,-0.8301650890624559,0.36509753575330595,nm,0.0
58.876946210861206,172.44531920107414,-3.2844851736589638,-55.60412021195207,-1.5392854563007776,-1.4083582779417343,-2.469595511451219,0.0749486024731021,-1.091552812475281,0.5800024008895129,nm,0.0
58.88035321235657,176.2639752486637,-7.022165027977456,-53.58022779285264,0.1930696614184679,-0.8931475895367245,-1.143197340725072,-0.1551840411536885,-1.05280025753559,0.47878764913709515,nm,0.0
58.9024612903595,-170.55941249495828,-14.35985050244579,-58.142277783945666,0.06569275918305534,-0.4672733772345395,-1.9834061634723354,0.2537377777423903,-1.603664354871843,-0.4501207630624461,nm,0.0
58.908896923065186,-162.63156890788667,-17.732563877919514,-64.82166890826036,-0.2050023841544514,0.3933195084549827,-1.3911299033128746,0.14624722054619935,-1.6626875308321998,-0.886332394887922,nm,0.0
58.91703391075134,-152.6948904615869,-20.744771868079656,-72.8498529210967,-0.4465150032537489,1.0119554190024966,-1.3806428953130352,0.12562133062707534,-1.9700922498236049,-0.9363918119593605,nm,0.0
58.94042778015137,-128.17893813971492,-25.91945293534003,-86.02075387931357,2.171560446148062,-1.7039847614852153,-1.0662449123747955,-0.27419793763627087,-2.3072060540826422,-0.1134919463602136,nm,0.0
58.96378135681152,-99.11951009770719,-26.334604978457122,-97.09447679455509,3.4194032984243603,-5.811393406972323,5.36214821079629,0.27451593416152864,-2.6122497487620273,0.24283209488409496,nm,0.0
58.965550661087036,-89.79514903629068,-19.270504647843314,-98.54497846630696,-1.0041827930227671,-1.7900118484134193,2.373079861968683,1.1584463176183175,-1.9003436770206887,0.44798101453585903,nm,0.0
58.98853778839111,-74.03667469648647,-15.728341781559228,-91.39113386277684,2.308199302498181,-2.374288585182972,4.34335342771812,-0.21206398709592333,-1.4237499658566084,1.0462076531740363,nm,0.0
58.99427652359009,-67.05400299038342,-15.856018561421587,-88.79692161762803,0.30955527516977177,-4.521811713280573,8.385281289689903,-0.03677208041228783,-1.3506108076085663,0.9094792244337928,nm,0.0
59.01705288887024,-67.99659417233418,-8.877663904931584,-80.12932527535905,-1.7341095367554216,1.2715497012142074,1.1506569581162223,0.49267159320737747,0.33053746911774773,0.5306036559955775,nm,0.0
59.02130889892578,-66.6167459357331,-11.796630713254435,-79.8948119120453,2.115255343253158,1.7975160994554256,0.6200367318419696,-0.5364961092180841,-0.3761361125083675,0.10617333551482008,nm,0.0
59.04601526260376,-69.77505448759733,-27.245920473089438,-86.23174800154042,0.3884505291253745,-1.7163279014125459,2.662327525869276,-1.645496911076152,0.2616838290426012,-0.9353100993480874,nm,0.0
59.05425310134888,-73.53660255449937,-33.099796497908685,-86.66997814832634,-0.34173774005756824,-1.758197775005487,2.9218888124740645,-1.2179247351699982,0.5761070177939361,-0.45473086335922214,nm,0.0
59.073957443237305,-90.0402312422091,-28.69955713553236,-74.30268576314103,3.6149381981762554,-1.7558349203453707,1.7397821423374014,0.7508952680266822,1.7466552225966214,0.44445520509702474,nm,0.0
59.08285427093506,-98.58976647200569,-18.142616513323944,-70.12331638945439,3.8543696042929496,-0.7610320782923445,-1.6051928529564605,1.5265403936091306,2.1376756266220434,0.16596813846311528,nm,0.0
59.10263013839722,-117.55686419795745,1.3544553047608747,-70.46004669791766,0.5170538489797434,2.209990335004084,-4.331982697181255,0.8281899167058041,2.424351395331517,-0.35114873580279593,nm,0.0
59.10857653617859,-127.13514378382362,3.944875796859506,-71.87125279746394,-0.9254704462580782,2.5901189923785863,-3.850891279494988,-0.12335409852669413,1.973280520855523,-0.1816119358662317,nm,0.0
59.131351947784424,-145.161940351877,-0.7559164301404221,-63.98494101573957,-1.7707018678692192,0.35306085661600994,-3.3317161383595155,-1.2524448112546034,1.466406747969946,1.2543894378559883,nm,0.0
59.13621211051941,-153.83312421427087,-2.0459681408928274,-55.49185120449113,-1.025367452017582,-0.5910460758000149,-2.5148869752617156,-1.0877307794494468,1.3688056884782447,1.664595987637243,nm,0.0
59.16111946105957,-166.47455441571407,3.4531184235841086,-43.55634839235339,-0.733304271997196,0.25141430861507635,-2.7733920964195,-0.21862086944234252,1.3478149196479738,0.8887619548853554,nm,0.0
59.16892051696777,-171.32283175450488,7.60712317423427,-43.78402023010829,-1.9411202349380214,1.0077188713443406,-2.698557614370822,-0.1117055993551885,1.2703789660155318,0.05366184224049232,nm,0.0
59.173306941986084,-176.10856654009655,10.147800033005446,-47.70346078594751,-3.5485074011852227,1.8534227950633706,-1.6338189119965107,-0.2827614439949385,1.0342020590876424,-0.6320013269842301,nm,0.0
59.22809910774231,174.76864217777592,3.878201689987324,-56.243593759346176,-3.4504338707704325,1.4732186343919318,-0.10572612431884312,-0.7922028427386398,0.07084703675201594,-0.04638072932377034,nm,0.0
59.23042011260986,177.35336798221687,-1.6386206060045156,-53.591311734455616,-2.01671684312722,-0.2379544768337942,-1.8004828361161187,-0.147285982685492,-0.7190525854437889,0.32667612480381425,nm,0.0
59.234461069107056,179.10479077902494,-4.7994135500326065,-52.41199983020874,-0.9702515964636005,0.010149520179145994,-1.1637897645061532,-0.2814702445806146,-0.6590567931131192,0.2612038357822173,nm,0.0
59.249993324279785,-173.89266455054738,-11.2774023151195,-55.489538333514744,-0.7015940756196595,0.0726826677991409,-1.7595831397113812,-0.030410789693529724,-1.0665132786933231,-0.37272982204559046,nm,0.0
59.27343559265137,-164.00691704682035,-18.444037528148296,-65.4083291062742,-0.7966282376823485,0.7440750350408096,-0.94590558456014,-0.13762155809754584,-1.2727629757540526,-0.7721384142238055,nm,0.0
59.281169176101685,-156.68914400476717,-21.77854593002331,-71.0203617442224,-0.5074390574026687,0.3425934879861867,-1.5420049827224505,-0.09944789334755018,-1.5255665475865312,-0.6071258331980994,nm,0.0
59.3022255897522,-138.29364142936254,-29.09007019857969,-80.92576083795828,1.016639921266831,-1.4524130793743049,-0.5423335477378479,-0.38903419627237934,-1.9091947925217936,-0.024705457882021928,nm,0.0
59.323577642440796,-111.10811434078249,-32.56007452717481,-93.22471721908059,4.015253092179069,-5.673765836269498,5.184743117235955,0.04587540751099704,-2.475020701592399,0.20745527468033192,nm,0.0
59.326515674591064,-100.25907091048451,-24.738270419364007,-98.73548671762003,0.7803445143638753,-4.679781457508913,3.9279016852084236,1.3509440830599864,-2.0603976920251283,-0.04235222306374193,nm,0.0
59.34188890457153,-92.35889452650756,-15.53217720873353,-99.01364438361341,-0.22418163647171907,-1.500281207152095,0.7651358614797116,1.5840288271166076,-1.7560723451450815,0.5031193441740686,nm,0.0
59.35654544830322,-75.95052174876531,-12.638008124101884,-92.09139777467864,1.5589664986872769,-3.8588964239403727,5.355295016795845,-0.3282006598137996,-1.7249612289104252,0.9537632574479112,nm,0.0
59.37319278717041,-72.82297525839782,-2.7403415706311782,-81.97871990817211,0.6752243379290799,-0.21082611736702012,1.6826842114627396,1.3967302193566535,0.6084470255026501,1.102954914459404,nm,0.0
59.398205518722534,-73.7024122590175,-6.337986901992504,-77.70246594205308,4.062754978094384,1.2162210209170454,0.18601843860930212,-1.079929767119157,-0.05681015327786526,0.2990535627944291,nm,0.0
59.42239761352539,-81.61579546577482,-24.064980249932713,-80.45768426172494,0.706850911981066,-0.9582782553080614,1.9217654704982525,-1.8335263185039186,0.299683887754152,-0.4732535920081789,nm,0.0
59.427610874176025,-88.24278077883312,-29.178285891771527,-76.33401344444268,1.3350255010204621,-1.4440750279801795,2.0759676349260503,-1.2455739152070167,0.9541331058742171,0.24273669771702572,nm,0.0
59.44786047935486,-107.71968655875085,-18.305848760588052,-63.57210716563862,5.203377529076859,-0.5749361164468292,-1.414389861854883,0.9677162229212325,2.2428415176456125,0.2875568665110657,nm,0.0
59.450180530548096,-117.77915879251441,-5.989915549534951,-62.83565313659091,3.3001903912722117,0.9686809839880123,-5.47638657879243,1.3099546411808018,2.8646114626553176,-0.2646243798947829,nm,0.0
59.47258758544922,-143.57856156678844,9.425049206375988,-68.54338542308956,-2.2003230996911065,3.4252298571980737,-5.286442418253727,-0.10516985550021615,2.7036409468304288,-0.3493110700412405,nm,0.0
59.495694160461426,-165.20782872394443,6.921562033747052,-63.06453568233412,-5.105793061326547,2.2644720940681986,-2.8515013237136846,-1.1428717411550056,1.7522587213004992,1.4214811970491978,nm,0.0
59.49745273590088,-173.6646042901327,7.283463834113802,-53.64230263808981,-3.8133029044578732,0.3429440947411952,-1.7100326193076376,-0.8075586457024766,1.4699276342650873,2.097840752794784,nm,0.0
