timestamp,roll,pitch,yaw,acc_x,acc_y,acc_z,gyro_x,gyro_y,gyro_z,markers,motor_input
59.01705288887024,-67.99659417233418,-8.877663904931584,-80.12932527535905,-1.7341095367554216,1.2715497012142074,1.1506569581162223,0.49267159320737747,0.33053746911774773,0.5306036559955775,nm,0.0
59.02130889892578,-66.6167459357331,-11.796630713254435,-79.8948119120453,2.115255343253158,1.7975160994554256,0.6200367318419696,-0.5364961092180841,-0.3761361125083675,0.10617333551482008,nm,0.0
59.04601526260376,-69.77505448759733,-27.245920473089438,-86.23174800154042,0.3884505291253745,-1.7163279014125459,2.662327525869276,-1.645496911076152,0.2616838290426012,-0.9353100993480874,nm,0.0
59.05425310134888,-73.53660255449937,-33.099796497908685,-86.66997814832634,-0.34173774005756824,-1.758197775005487,2.9218888124740645,-1.2179247351699982,0.5761070177939361,-0.45473086335922214,nm,0.0
59.073957443237305,-90.0402312422091,-28.69955713553236,-74.30268576314103,3.6149381981762554,-1.7558349203453707,1.7397821423374014,0.7508952680266822,1.7466552225966214,0.44445520509702474,nm,0.0
59.08285427093506,-98.58976647200569,-18.142616513323944,-70.12331638945439,3.8543696042929496,-0.7610320782923445,-1.6051928529564605,1.5265403936091306,2.1376756266220434,0.16596813846311528,nm,0.0
59.10263013839722,-117.55686419795745,1.3544553047608747,-70.46004669791766,0.5170538489797434,2.209990335004084,-4.331982697181255,0.8281899167058041,2.424351395331517,-0.35114873580279593,nm,0.0
59.10857653617859,-127.13514378382362,3.944875796859506,-71.87125279746394,-0.9254704462580782,2.5901189923785863,-3.850891279494988,-0.12335409852669413,1.973280520855523,-0.1816119358662317,nm,0.0
59.131351947784424,-145.161940351877,-0.7559164301404221,-63.98494101573957,-1.7707018678692192,0.35306085661600994,-3.3317161383595155,-1.2524448112546034,1.466406747969946,1.2543894378559883,nm,0.0
59.13621211051941,-153.83312421427087,-2.0459681408928274,-55.49185120449113,-1.025367452017582,-0.5910460758000149,-2.5148869752617156,-1.0877307794494468,1.3688056884782447,1.664595987637243,nm,0.0
59.16111946105957,-166.47455441571407,3.4531184235841086,-43.55634839235339,-0.733304271997196,0.25141430861507635,-2.7733920964195,-0.21862086944234252,1.3478149196479738,0.8887619548853554,nm,0.0
59.16892051696777,-171.32283175450488,7.60712317423427,-43.78402023010829,-1.9411202349380214,1.0077188713443406,-2.698557614370822,-0.1117055993551885,1.2703789660155318,0.05366184224049232,nm,0.0
59.173306941986084,-176.10856654009655,10.147800033005446,-47.70346078594751,-3.5485074011852227,1.8534227950633706,-1.6338189119965107,-0.2827614439949385,1.0342020590876424,-0.6320013269842301,nm,0.0
59.22809910774231,174.76864217777592,3.878201689987324,-56.243593759346176,-3.4504338707704325,1.4732186343919318,-0.10572612431884312,-0.7922028427386398,0.07084703675201594,-0.04638072932377034,nm,0.0
59.23042011260986,177.35336798221687,-1.6386206060045156,-53.591311734455616,-2.01671684312722,-0.2379544768337942,-1.8004828361161187,-0.147285982685492,-0.7190525854437889,0.32667612480381425,nm,0.0
59.234461069107056,179.10479077902494,-4.7994135500326065,-52.41199983020874,-0.9702515964636005,0.010149520179145994,-1.1637897645061532,-0.2814702445806146,-0.6590567931131192,0.2612038357822173,nm,0.0
59.249993324279785,-173.89266455054738,-11.2774023151195,-55.489538333514744,-0.7015940756196595,0.0726826677991409,-1.7595831397113812,-0.030410789693529724,-1.0665132786933231,-0.37272982204559046,nm,0.0
59.27343559265137,-164.00691704682035,-18.444037528148296,-65.4083291062742,-0.7966282376823485,0.7440750350408096,-0.94590558456014,-0.13762155809754584,-1.2727629757540526,-0.7721384142238055,nm,0.0
59.281169176101685,-156.68914400476717,-21.77854593002331,-71.0203617442224,-0.5074390574026687,0.3425934879861867,-1.5420049827224505,-0.09944789334755018,-1.5255665475865312,-0.6071258331980994,nm,0.0
59.3022255897522,-138.29364142936254,-29.09007019857969,-80.92576083795828,1.016639921266831,-1.4524130793743049,-0.5423335477378479,-0.38903419627237934,-1.9091947925217936,-0.024705457882021928,nm,0.0
59.323577642440796,-111.10811434078249,-32.56007452717481,-93.22471721908059,4.015253092179069,-5.673765836269498,5.184743117235955,0.04587540751099704,-2.475020701592399,0.20745527468033192,nm,0.0
59.326515674591064,-100.25907091048451,-24.738270419364007,-98.73548671762003,0.7803445143638753,-4.679781457508913,3.9279016852084236,1.3509440830599864,-2.0603976920251283,-0.04235222306374193,nm,0.0
59.34188890457153,-92.35889452650756,-15.53217720873353,-99.01364438361341,-0.22418163647171907,-1.500281207152095,0.7651358614797116,1.5840288271166076,-1.7560723451450815,0.5031193441740686,nm,0.0
59.35654544830322,-75.95052174876531,-12.638008124101884,-92.09139777467864,1.5589664986872769,-3.8588964239403727,5.355295016795845,-0.3282006598137996,-1.7249612289104252,0.9537632574479112,nm,0.0
59.37319278717041,-72.82297525839782,-2.7403415706311782,-81.97871990817211,0.6752243379290799,-0.21082611736702012,1.6826842114627396,1.3967302193566535,0.6084470255026501,1.102954914459404,nm,0.0
59.398205518722534,-73.7024122590175,-6.337986901992504,-77.70246594205308,4.062754978094384,1.2162210209170454,0.18601843860930212,-1.079929767119157,-0.05681015327786526,0.2990535627944291,nm,0.0
59.42239761352539,-81.61579546577482,-24.064980249932713,-80.45768426172494,0.706850911981066,-0.9582782553080614,1.9217654704982525,-1.8335263185039186,0.299683887754152,-0.4732535920081789,nm,0.0
59.427610874176025,-88.24278077883312,-29.178285891771527,-76.33401344444268,1.3350255010204621,-1.4440750279801795,2.0759676349260503,-1.2455739152070167,0.9541331058742171,0.24273669771702572,nm,0.0
59.44786047935486,-107.71968655875085,-18.305848760588052,-63.57210716563862,5.203377529076859,-0.5749361164468292,-1.414389861854883,0.9677162229212325,2.2428415176456125,0.2875568665110657,nm,0.0
59.450180530548096,-117.77915879251441,-5.989915549534951,-62.83565313659091,3.3001903912722117,0.9686809839880123,-5.47638657879243,1.3099546411808018,2.8646114626553176,-0.2646243798947829,nm,0.0
59.47258758544922,-143.57856156678844,9.425049206375988,-68.54338542308956,-2.2003230996911065,3.4252298571980737,-5.286442418253727,-0.10516985550021615,2.7036409468304288,-0.3493110700412405,nm,0.0
59.495694160461426,-165.20782872394443,6.921562033747052,-63.06453568233412,-5.105793061326547,2.2644720940681986,-2.8515013237136846,-1.1428717411550056,1.7522587213004992,1.4214811970491978,nm,0.0
59.49745273590088,-173.6646042901327,7.283463834113802,-53.64230263808981,-3.8133029044578732,0.3429440947411952,-1.7100326193076376,-0.8075586457024766,1.4699276342650873,2.097840752794784,nm,0.0
59.52049374580383,175.43402699623726,12.482165466371479,-38.67709319486217,-1.425299342560662,0.06693704710316853,-1.1975481041038105,-0.28311345085260564,1.0964602899114613,1.3313662705711111,nm,0.0
59.526118993759155,171.30911705882468,15.171612388108814,-38.30146364909662,-1.294617581327625,0.2658795445669147,-1.5320459676871374,-0.2789310599770997,0.9248807592626939,0.2737132069539112,nm,0.0
59.54996299743652,164.29789944625242,12.170853362777889,-49.569148426548686,-4.088595453452536,0.7133956102111031,-0.6904039115241551,-0.8246216944745948,-0.012299456296963171,-1.2077079554633092,nm,0.0
59.55330753326416,162.1972008381762,7.536334775767103,-55.37759926767379,-4.968883355747504,1.2487734598260392,-0.4058782336757745,-0.9743526907537402,-0.23587640269705346,-1.089900535674519,nm,0.0
59.57818365097046,162.8986243574216,0.0992538578774369,-59.803759380349135,-2.896937440745716,1.0504393126706435,-0.21528690053626828,-0.33178546645624146,-0.6524789688519955,-0.20932416405065102,nm,0.0
59.58331894874573,166.89466789197465,-2.482301832190376,-58.479756975220766,-2.845314089241122,-0.07922935823882069,-1.703402267438212,-0.0191190269145524,-0.9515411962855191,0.2842529315922464,nm,0.0
59.60916209220886,174.760637299708,-7.55121262707065,-54.17566323114974,-0.10662654435354271,-0.24459116604592368,-1.0252529965212027,0.08320758906039072,-1.0210355176770525,0.45392078775252354,nm,0.0
59.612385749816895,-179.30003688468503,-11.103825138973818,-54.83129520292936,0.057989613155450044,-0.3656146599281189,-1.6930287855417516,0.11552548220499208,-1.366679349699573,0.06809147203339966,nm,0.0
59.63914942741394,-164.16621496559404,-19.970269714463633,-65.91250524491697,-0.1424861360454953,0.6573162960555494,-0.7576286880102342,-0.004498114972061876,-1.8677671452754827,-0.8912769836497018,nm,0.0
59.65946102142334,-137.40399047580797,-25.56529594867232,-84.21752505712857,1.3088937489505719,-0.6432125357857175,-2.066231383552893,0.06522615448674102,-2.6990471089109147,-0.588898157610188,nm,0.0
59.66125798225403,-121.1592899968248,-26.555758756248654,-91.70993222263576,3.463182427744477,-3.864656891836648,1.856115431151987,-0.09129869444603285,-2.925822906975321,-0.04893114990521112,nm,0.0
59.684433937072754,-90.94722790944195,-15.144142481013073,-101.51842069731103,1.2124376185047134,-3.8694619726734274,3.231088351172484,1.2851978269800748,-2.617631369188596,0.2281157744745341,nm,0.0
59.687764406204224,-81.06413492411829,-8.81214229009164,-97.44598480633464,0.360297625700804,-1.9769463543201105,1.1596283949061192,0.921325520858774,-2.1242964413315377,1.2351398289749635,nm,0.0
59.710859060287476,-63.582252772527625,-9.446924034803006,-88.91252332285733,0.6363590884227615,-5.915820354519138,8.52760190113618,-0.11402605316675858,-1.5306493618247559,0.9368950748749284,nm,0.0
59.715352058410645,-63.497810514624405,-3.428698357839387,-82.11200475871954,3.3965285851843867,-0.7674742192868855,2.7125162218833156,1.1947582759549367,0.06936629964038428,1.3707528505636701,nm,0.0
59.72518181800842,-64.39636906434771,-0.38977582717792625,-79.03417875274322,-3.4937405373693253,1.236461340227454,1.169573645227085,0.5629680695317858,0.268077871381563,0.6182836705742232,nm,0.0
59.734981060028076,-63.00028049626369,-3.796527215620679,-77.96062918957857,4.269565565326157,1.8233448972854758,1.3121672661479036,-0.6207633519330044,-0.41856277906789513,0.23328466528174877,nm,0.0
59.74708151817322,-67.17129837000202,-11.418074812855796,-80.72936545075454,1.1509746929481819,-0.8229447516633235,0.96491129918144,-1.6605652121191898,0.5251959967687172,-0.6543876196419629,nm,0.0
59.76612114906311,-70.29367294118764,-20.06495492385999,-85.29784216000422,-1.0298314782936808,-1.000900120177489,1.782668535502664,-1.8002536091280268,0.38288446778381846,-1.0718884219705243,nm,0.0
59.78243565559387,-82.9832762196679,-29.676525839198707,-79.4373450360527,1.1870951066234972,-2.1532050677189596,3.3263471850619344,-0.6822464197331247,1.548974053830563,0.3088309394571389,nm,0.0
59.78656053543091,-92.24030679068004,-24.1691390667252,-73.05612182919411,3.28010463147686,-1.8276780183820718,1.689623223913749,0.6718631872970129,1.863666243522424,0.4487967136639887,nm,0.0
59.790764808654785,-100.67678363886493,-12.758191436286559,-69.1891880268514,4.218047108943929,-0.32063003815185703,-2.8963303909361406,1.637801905363502,2.2508998186624374,0.24850370421393705,nm,0.0
59.80133247375488,-111.4687689444484,-0.12355939194925747,-68.40103029993892,2.3346599083859303,1.4330345716192923,-4.786048049907408,1.5758343830656854,2.9109592541743257,-0.07338343867150413,nm,0.0
59.8362250328064,-132.02288468697668,11.0736593919837,-73.7840000967643,-1.9862022901252294,3.6697344080778493,-4.2199558943351025,-0.09326951756037334,1.9100304874059193,-0.2160065587677218,nm,0.0
59.853429079055786,-141.50433421648077,8.885361652728784,-71.93099172615362,-3.0644891658988347,2.818620160430016,-3.8751425640646606,-0.9607143745865917,1.6510105397530472,0.7088108429561055,nm,0.0
59.85517764091492,-157.71410961205635,2.9179984261124616,-54.988361985380685,-1.8662243796711653,-0.5698232744486742,-2.9763965176482565,-1.1407210892763984,1.0044129925759175,2.068628604115574,nm,0.0
59.869468450546265,-170.29759539796743,5.301510419165257,-40.46564954461796,-0.5493683561626568,-0.08224665318972366,-1.9502665213335881,-0.5172363224963203,1.1388563844660162,1.182697153480844,nm,0.0
59.885936975479126,-174.95591048465909,7.924510643772517,-40.00636213617628,-1.578707588956931,0.40157273696822,-2.581534529034087,-0.3548930539685729,1.0022243872219199,0.20423270190286633,nm,0.0
59.888558864593506,-179.83467895325154,9.340657143758802,-43.76927826257336,-3.114541788064888,1.1020552851818146,-1.6772727519496955,-0.5159770235539336,0.8583386360856253,-0.6026135010503649,nm,0.0
59.918639183044434,173.02076795944367,6.12380922602796,-52.88932061929898,-4.95977800627206,1.496356754498778,-0.9088771127562443,-0.788547672116429,0.17542642650492693,-0.6765604363929991,nm,0.0
59.92126989364624,170.3308839839947,2.8734596549267786,-54.04159103650475,-3.522090358108039,1.3636714254845872,0.07276424418184813,-0.8283376174036521,0.044937302683839365,-0.1856745711100787,nm,0.0
59.924076318740845,170.42880167386284,0.03818066110889522,-53.29012605558824,-2.396418571759717,0.885929681184504,0.23607437504450354,-0.4316923443733957,-0.3509338409589508,0.15302652750489898,nm,0.0
59.95042443275452,174.40443108341165,-4.585514265774753,-49.73027545345064,-0.9321012684250636,0.05474378437953846,-0.6888725176061501,-0.11992762279971993,-0.5663097684818956,0.38350752874213007,nm,0.0
59.956114768981934,177.3695114461246,-7.161921499045431,-49.37290289895731,-0.4334639511485931,0.3825112528904424,-0.670909904505257,0.0037713893289135483,-0.7816303113711848,0.1376693010447,nm,0.0
59.98637843132019,-173.58685789813,-14.007912922897454,-55.51212018902598,-0.6116050395899153,0.6262910590073714,-1.3370035116285852,-0.049178962173456776,-1.168357783358307,-0.6398015739897321,nm,0.0
59.988144397735596,-167.6340240154661,-18.061839873894897,-61.437696600794354,-0.6682660301154743,0.7718506507305948,-1.0478738843692945,-0.08132594153080838,-1.4001778109426328,-0.8465663510282565,nm,0.0
59.992018699645996,-159.7337135628197,-21.85581645999718,-68.02051018373807,-0.4444019055122684,0.3011168883137693,-1.3712486106755133,-0.04157142676967207,-1.66847534530768,-0.7651112789085013,nm,0.0
