timestamp,roll,pitch,yaw,acc_x,acc_y,acc_z,gyro_x,gyro_y,gyro_z,markers,motor_input
57.02018117904663,-164.96830123145847,-4.757747775674084,-46.51380207387297,-1.8577197519432032,0.9208794999079938,-2.105378759543489,-0.27858684990081434,-0.8028441392981368,-0.3147913261317604,nm,0.0
57.02403950691223,-163.45736603966296,-8.957045506689948,-48.83956512553878,-1.1063077184470762,0.6100116573398973,-1.0847159781406384,-0.4083560893807372,-0.7866173374922923,-0.42028786126123385,nm,0.0
57.04775881767273,-157.31133586601726,-17.178762090615095,-54.21298258350967,-0.5539548755010485,-0.30042809120308217,-1.8129343308140569,-0.2724363375125798,-0.9772157376802871,-0.358187814665173,nm,0.0
57.05360770225525,-154.04636941096138,-21.322498620621037,-56.70933561350086,-0.3944987900762717,-0.19787200026855642,-1.2140608223966753,-0.3243263408397274,-0.9773789658226992,-0.28420396861114255,nm,0.0
57.078471183776855,-143.8460191798104,-29.927696305933868,-62.48525023415022,0.5114889529290152,-0.37196039458604657,-1.5875288239492622,-0.27484192723292344,-1.294469594710892,-0.12605864278112658,nm,0.0
57.08337593078613,-136.06439562671858,-34.547273164556806,-67.3651225845071,1.0207272160916339,-0.34816909872566115,-1.09043873359582,-0.2737693925284144,-1.5826151503247428,-0.13086915856979336,nm,0.0
57.10609030723572,-108.95835834975986,-41.67777992622744,-84.06238793084266,3.5343834688021145,-1.9373695987550592,0.3106917394664052,-0.12088953782474213,-2.4314937647857966,0.13730010624100183,nm,0.0
57.11295509338379,-90.92063279534969,-41.63659267792417,-94.18043970424765,3.5385422683303043,-3.5638030624843937,5.58281651164026,0.04506942466107355,-2.6902065852073274,0.3973652098680541,nm,0.0
57.13426685333252,-69.5618029654107,-30.48146661483813,-97.20846620212117,-2.7092463948927343,-3.683035853418992,6.082738859325932,0.8778972868643429,-1.226620454946537,1.3216459594232133,nm,0.0
57.139164686203,-63.068330099193325,-28.911015202915763,-91.61402202317187,5.082167102081475,-1.2612146052205033,3.2613898446017973,0.21669807297548016,-1.1537835993770644,1.773764316125286,nm,0.0
57.16627049446106,-51.11007277148826,-33.26861395545122,-93.32582457921086,0.2474931813879407,0.046604573363167486,3.1838906235146656,-0.7668160808194922,-1.2252854047063833,0.2723458115056524,nm,0.0
57.16962957382202,-42.49102409348802,-36.74527898341994,-98.09170710850063,1.922014406188691,-1.5923165378019297,6.218518604441644,-0.8438931963553906,-1.3391063931863652,0.044957372322743674,nm,0.0
57.19181203842163,-41.96676057560266,-38.01656192621892,-99.20206840366403,-0.9038672758639097,-1.5322956345577181,4.452588815402104,0.011605174084235904,0.4661640976266159,0.20097620753430936,nm,0.0
57.195823431015015,-50.4211665550443,-36.57872257463826,-91.31158020978926,0.5104014288511636,-0.9044037457127786,3.644489062042086,0.3981572416987426,1.3118887643743118,0.5609694563591895,nm,0.0
57.22068381309509,-69.10712892907954,-26.255565705610962,-77.0575859599448,3.3668889283077186,1.121037863663511,-0.3283076037163926,0.852756332118383,1.788646944306659,0.3245251234370137,nm,0.0
57.226038217544556,-79.51343967045344,-21.384500207368536,-74.21252615652959,2.5141111109960455,0.9228998340453721,-1.4466406393881595,0.46327237592802867,2.082983047636827,-0.2612872145080567,nm,0.0
57.24791193008423,-98.78063389418537,-19.044512662454302,-73.8925807363453,2.169857129116783,0.16460290522478205,-2.992617835304908,-0.5385435115938119,1.726277557664337,-0.5597584442240938,nm,0.0
57.25425457954407,-110.55034843454769,-20.75177432660124,-71.72415794816109,1.1114728507247484,-0.9421862210179246,-2.566517392543616,-0.9723959766633775,2.0168163925893547,-0.26701684599258435,nm,0.0
57.28070664405823,-133.5855159024743,-20.86617013284163,-61.96703773739019,0.8689042540877342,-1.080687069002214,-2.929817016998331,-0.6756305452143319,1.9360955780625093,0.35335797600717883,nm,0.0
57.28248190879822,-143.65433476003815,-17.232554594096257,-56.925672735001434,0.18990940976997467,-0.4974036561340977,-3.318841506800746,-0.33645458017513397,2.0097974756251515,0.36137456077299973,nm,0.0
57.30446529388428,-158.24606593050726,-6.951271887714047,-53.11337461372934,-2.0785671471909533,0.9670357768387914,-3.6851068482601272,0.09601548302907466,1.6124379783716067,-0.0359114238998591,nm,0.0
57.30883049964905,-163.67303989256894,-2.84247975342013,-53.485936468693524,-3.2353906186091757,1.586932388731002,-2.855606639671222,0.023922696898624727,1.359425910197795,-0.15885973684760554,nm,0.0
57.33408522605896,-170.82914947205015,0.26505991034194626,-52.82632347323996,-3.798997283116315,1.3113983891568075,-1.5838380364021152,-0.22961425368857752,0.5961227391643407,0.1873296695536858,nm,0.0
57.33977127075195,-173.19704265420228,0.5559601091359728,-50.676393242960536,-3.159268616647609,0.8455153562580066,-0.928360525395887,-0.23474314760187714,0.40931178696732157,0.44009316594312886,nm,0.0
57.38247013092041,-174.75516460448833,0.5356442430140782,-46.26587150311005,-2.5058398235115793,0.8067530993385028,-1.399177083370501,-0.06232131923621479,0.018415095328027785,0.38156014341805006,nm,0.0
57.38486194610596,-172.3932939972226,-5.542381081206673,-49.609332205869315,-2.395685299544137,0.9083943087757921,-1.8545204733878922,-0.26208370851024365,-0.6278161183753476,-0.44767152718031805,nm,0.0
57.40254354476929,-171.13108562847717,-9.306658520741447,-52.17849205551691,-1.9468820497742263,0.7003598903209545,-1.4137702739455895,-0.4148000489926676,-0.6684553424247284,-0.4737768293904228,nm,0.0
57.404515504837036,-168.84253905861908,-13.384018033022988,-54.569804758897,-1.5623638372948336,0.5997675693159549,-1.2450861067573646,-0.3756644629371107,-0.8462664692442249,-0.37981320181277095,nm,0.0
57.4159255027771,-165.2941199801815,-17.53302433251542,-56.55945899309687,-1.160603311592079,0.024482760553765318,-1.9475608445476782,-0.28708561397910276,-1.0330504515217829,-0.1991777799007298,nm,0.0
57.4376585483551,-157.22049832301985,-26.119574271582728,-60.1054695845113,-0.1330967934427349,-0.08828871398134126,-1.3834345043345546,-0.3138768069250125,-1.154838892224282,2.2061095158556688e-05,nm,0.0
57.442771196365356,-151.13979025902506,-30.613114804090507,-63.034631965294366,0.3938485055640143,-0.2982212142084427,-1.7545348303958193,-0.2731642080586807,-1.3677742595873084,0.004808443313066054,nm,0.0
57.46782660484314,-133.1478461246549,-39.060117256999575,-74.70810417167252,1.5186233958290003,-0.4791545498990141,-1.13931899313287,-0.21532490701993592,-1.8250763511441188,-0.12964247500656648,nm,0.0
57.470966815948486,-119.10070059274292,-41.8973318318947,-83.99125703804229,2.490081717033084,-1.3217597306998334,-0.71630864974663,-0.15902824770667745,-2.201450846933741,-0.013285893937045223,nm,0.0
57.50105118751526,-85.36044503163835,-40.952739618875476,-103.9251642380704,2.6162777092850873,-4.094625256885683,6.768135921328962,-0.014494504001380096,-2.5910879291083537,0.45466634654729626,nm,0.0
57.5028555393219,-73.23298305238629,-33.256737833000706,-107.36455499541914,2.236643788145504,-4.730815151269326,6.647642057287135,0.9475083106303817,-2.277724415367484,0.7925879719441579,nm,0.0
57.526140213012695,-61.83477924165007,-24.175120782432167,-96.64785105712886,2.8240043663481895,-2.9876989042960087,6.74755918447207,0.14800612870988153,-1.1769183432497161,1.8591247082252145,nm,0.0
57.52926683425903,-59.52680685729552,-21.942979097259634,-91.01319343384337,2.600471873684843,-0.9022986225147038,7.393821137535732,0.4074369885028215,-0.45844544699403567,1.3184511209160732,nm,0.0
57.53810501098633,-61.72056737555699,-18.847683026313362,-85.53070745069027,0.2507253242160856,0.5558225929994679,3.0176188060414253,0.5976692632052719,0.42501954410611675,0.953924493561271,nm,0.0
57.56526446342468,-66.46432279456579,-19.2140967823273,-83.06143088027794,3.3771016150356212,0.6789532672612952,2.92897658431209,-0.2762320816910261,0.6196404658648819,-0.17483175229953504,nm,0.0
57.5931031703949,-73.08917760935203,-22.874655363935478,-84.62841569974965,1.2557433152968216,0.1997833714460245,-0.19406031067000096,-0.8686078246937758,1.1488120116780798,-0.7783704771449106,nm,0.0
57.59557271003723,-99.37233904334303,-43.231922513325955,-76.07896883249464,1.6844590049029742,-1.6675704317997975,2.2033328438986706,-1.2086921059508875,1.6789493689832111,-0.13770732277627576,nm,0.0
57.610552072525024,-110.90981746900593,-40.9561551744746,-68.47482656868422,3.056899236355029,-1.3887892074433021,1.2339899751230294,-0.09072783634916216,1.7715636481949055,-0.01457152474142821,nm,0.0
57.617583990097046,-119.63221223422674,-32.63671909045525,-64.24484857271041,3.78571020708835,-1.5078811008882793,-1.6201579482288417,0.9627063639084008,1.948990234573499,-0.18749238730515871,nm,0.0
57.63982701301575,-134.54586368565236,-12.642036860508203,-66.78002082436562,0.0048679820011568575,0.6900654352484914,-4.892875035733661,1.091966800775367,2.0475113522931916,-0.9375947351284591,nm,0.0
57.66498565673828,-148.99636219978137,-4.845709081044044,-67.05155092089798,-2.9704167366976626,2.037225160702906,-3.9271995456747093,-0.12064045862388038,1.5063422902169261,0.184511494935949,nm,0.0
57.66670536994934,-155.70101562011556,-4.427636745736622,-61.31348044037521,-2.8746070447224468,0.9347127450969595,-2.6346504876351093,-0.4971199150909868,1.2391894721321421,1.0489303070968747,nm,0.0
57.67081546783447,-161.06056136026075,-3.8928280300102616,-52.99312122845639,-1.969962305654968,-0.21430859851957154,-2.2486640486455447,-0.47957943481597165,0.957790284026306,1.595884666981308,nm,0.0
57.68146014213562,-165.32812140667818,-1.7330440131000822,-44.81903902699404,-0.8608451771299572,-0.48481562085488245,-1.721977844055108,-0.22340237150943584,0.9297642408567779,1.6018505877443245,nm,0.0
57.68908071517944,-168.23392367345707,2.169963463413685,-39.54034853481603,-0.27735340348317633,0.05007338234346706,-1.673666685060668,0.10587709514670939,0.9729173230987181,1.0655555981917104,nm,0.0
57.7149293422699,-173.00023692315025,10.853752381903048,-42.00651899542333,-3.1356859255808756,1.8533798005100777,-1.3367688915976232,0.13649982335197333,0.9845085267350558,-0.5738151960941003,nm,0.0
57.718794107437134,-176.1389937298665,13.111187451713695,-47.372162077384225,-5.121714210919355,2.8634048160844343,-0.9822242608785247,-0.1053213887279279,0.7549249055892248,-0.9396089829644177,nm,0.0
57.75705289840698,176.85859798169042,5.819037211930589,-50.7187911711569,-3.34696583704085,1.157683671818139,-0.5730372268375759,-0.8316347636117399,-0.15636312315598713,0.41934972762722983,nm,0.0
57.773393869400024,178.7668067787178,-1.6702108510048224,-47.34686404970482,-1.0630224047845032,-0.7431774638747426,-2.2602008571132,-0.2934974608790879,-0.8433629700441034,0.23028721018827264,nm,0.0
57.776254415512085,-179.5436372496832,-6.435790379547412,-48.087830412925584,-0.41053823199449635,-0.4059336504062848,-1.2949177608910987,-0.4659754104304509,-0.8891735104589915,-0.11845026808659358,nm,0.0
57.80102491378784,-170.68134747376877,-15.042928121958639,-56.31862243896113,-0.8664916888795622,-0.05152579565710201,-2.2258619145979526,-0.0023454867150902955,-1.356409951711185,-0.7602979680385338,nm,0.0
57.80470395088196,-164.27838916666286,-19.28416701235179,-62.073499036569345,-0.8795668692870814,0.572303177353549,-1.9586838748897255,-0.08765706534260015,-1.4864324129913042,-0.8127465881328989,nm,0.0
57.815449476242065,-155.99692993652857,-23.70096332513313,-68.00225503535644,-0.6113653659604189,0.9188511940392977,-2.1283029726475484,-0.1403851667839291,-1.7710501880605862,-0.5659004534260529,nm,0.0
57.82329750061035,-145.79016840076997,-28.188067594651866,-73.19104251140602,0.6515146216269833,0.019126659408799394,-2.8139752022512377,-0.22787546922625346,-2.0301488833454955,-0.12941294733396322,nm,0.0
57.85417938232422,-120.25608334332911,-38.733093508482234,-84.83129382831419,3.8876441580584364,-2.5560899766383134,-0.2098031318184028,-0.7415091580614738,-2.384664631696288,0.3376451447308254,nm,0.0
57.85612082481384,-102.97128931936275,-41.95086198175942,-93.8985300242709,4.360296794952566,-3.9724149380644085,5.461662906603234,-0.6111905259701386,-2.6377256987996143,0.4472099480463272,nm,0.0
57.86099433898926,-87.16072214075342,-37.41565977520058,-101.83828520422684,2.812393563259917,-4.959114957292604,6.414677311442486,0.5546249503745581,-2.5320683586835173,0.45272198153412985,nm,0.0
57.88733458518982,-71.53594532330199,-23.76455987278524,-99.95251879971758,1.4440994024446923,-2.2843218253402133,2.5413241459080145,0.6518351733281664,-1.358429185598569,1.3359567264981174,nm,0.0
57.89545774459839,-64.56913607504745,-24.623156488096157,-96.36565312134428,0.293185840204727,-3.1427970836156502,7.767383340176877,-0.36055048788510746,-1.2380591819001998,1.29946350709813,nm,0.0
57.91426181793213,-64.8205518124571,-18.513959539951678,-85.32155039815471,0.04860323629762088,0.49606900917536895,1.8445476156214942,0.8128746555301467,0.6205978512998022,0.8821133909337429,nm,0.0
57.92377805709839,-65.04214338362038,-18.90594578131113,-83.5327900014476,0.951362202289271,1.7020019482312885,1.021517838094376,-0.09105113272095516,0.028790240956233976,0.35401459341314423,nm,0.0
57.92824196815491,-67.31993019601039,-24.533678219670072,-83.44730458565162,3.4272078441011518,0.509961413719334,1.217987832707858,-1.1762001398630586,0.28916333687962703,-0.14116715329135043,nm,0.0
57.953866481781006,-74.03348558104655,-38.89766085932427,-88.01941583920411,0.7176602766265388,-0.9350388506645078,2.2060979937949052,-1.37594801145271,0.44849387311211875,-0.6829713173899135,nm,0.0
57.95591998100281,-82.98285237641738,-42.37081888902496,-82.69178824836087,1.0625374196147457,-1.674574039859185,3.1774698184466796,-0.8083585906394593,1.2995184707110752,-0.08939631583443798,nm,0.0
57.98055720329285,-103.22721173833762,-30.012754734840737,-69.93697541850352,4.462319039264676,-1.4977219859263495,-0.7719567733337961,1.3100716520456164,1.9432815934393861,-0.0717497199346658,nm,0.0
57.98689579963684,-112.37102561094858,-18.333748498603445,-68.31737306596698,3.4059669860529,-0.42641059954388233,-3.9579516937441173,1.585221188130614,2.3913220410895337,-0.41371775140987344,nm,0.0
57.993762731552124,-122.62230687133592,-8.544888296934337,-68.97395527128528,1.3008452142460138,1.2430146722176667,-4.7824893553767005,1.0968383381812243,2.5688531740165415,-0.5948561463951042,nm,0.0
58.003572940826416,-131.99186084409789,-3.7122959493299854,-70.26121171314016,-0.5131675278551382,2.1503928845288596,-4.5665035826503475,0.2612527364640374,2.080259032110203,-0.44498029850446635,nm,0.0
