timestamp,roll,pitch,yaw,acc_x,acc_y,acc_z,gyro_x,gyro_y,gyro_z,markers,motor_input
22.01422929763794,-60.11187734014238,-15.38641952011438,40.24556133786754,-4.001899482048358,4.085487202595479,0.6673354495289665,-0.5675129665811712,-0.13287756515558027,0.4830617348622775,nm,0.0
22.0200252532959,-68.32109861364947,-14.864627732254787,42.668534636167806,-4.656806134366151,3.4070188139411393,-0.677132194583884,-1.246543223358644,-0.9780601332453472,0.019342496894176144,nm,0.0
22.043482542037964,-85.90522235457722,-16.271866048597406,43.49931560527961,-4.588550474482667,3.5515633833551514,-2.9578705330112327,-0.9633200389623573,-1.2457566515245224,-0.590474473604611,nm,0.0
22.04847812652588,-95.22715740658158,-17.80007597761589,44.09359672431293,-1.9244057576572888,3.1359285376399195,-3.1939981079788575,-1.0612353767965776,-1.463523753125574,-0.576339505237448,nm,0.0
22.058659076690674,-104.01016961188583,-18.785481315233188,44.811358889587886,0.5925774398695869,1.8994059795570921,-1.868593415175976,-1.0409731993416291,-1.3165922225631863,-0.5559235873730121,nm,0.0
22.084161043167114,-115.93946451270534,-17.377013048833128,45.71794411227479,3.260144953576995,-0.9286276405803674,-0.46226280978889317,-0.9452367702551281,-0.5907754722503021,-0.28416278683199375,nm,0.0
22.086875915527344,-121.04759838112085,-15.09411137955623,46.926414953295044,3.9476928223654766,-3.158754713619901,1.4924935949109395,-1.006530915803111,-0.39173363243107606,-0.05263910883508202,nm,0.0
22.09886074066162,-124.22485699511856,-12.304538141425027,48.576557716340304,4.015744557721182,-4.860331525836649,2.310510962632571,-0.8275880538975111,-0.0762327123364011,0.21727529999615652,nm,0.0
22.104907035827637,-126.30870243781426,-9.570081102099662,50.78139947926401,2.540611222423625,-4.768719816302603,1.7440952685977644,-0.6811014839612348,0.049345929694655816,0.43065210743552385,nm,0.0
22.12345576286316,-126.37653823557578,-7.75466937000743,53.06457088288337,1.6882161043056423,-5.731906570104713,1.912406729660489,-0.2925524501804179,0.2205718691728728,0.5294718787107773,nm,0.0
22.140777349472046,-121.36906341490203,-10.677601040627717,53.622159498462906,-0.08399633312156779,-4.165471239198967,-0.023774956415995422,0.7802274898260121,0.14447463089586873,-0.01521650181319949,nm,0.0
22.143160820007324,-116.01984836258929,-15.13219496971498,50.74934025972253,-0.4385467947971672,-2.001422702001958,-1.287595379905288,1.3466591764522777,0.28060286003833396,-0.30210679093815695,nm,0.0
22.16965103149414,-103.1331061708313,-21.786427280338767,44.31900771551889,0.704560614403579,2.2819835579063272,-0.09402969394004237,1.2611469218939153,0.5510791069234008,-0.12352806304736567,nm,0.0
22.171858072280884,-95.4078856537647,-22.359861562968867,41.317292580488775,1.3305363209371504,4.081608110729975,0.31826050350369345,1.1350656686205431,0.8866363795178763,0.035376165810317835,nm,0.0
22.181684494018555,-88.83250644313851,-20.90742381000026,39.657410900115885,0.7096433358930165,4.332110392409266,0.20497360487782063,0.7496488370005274,1.011831284020568,0.2119464585090074,nm,0.0
22.192673683166504,-84.57648445869788,-18.332391201340478,40.53484173798175,-0.49039558284179174,3.712307123578598,0.08346984431055983,0.2908883818615711,0.9084232513751004,0.5254258694960755,nm,0.0
22.21581745147705,-81.18950009793218,-14.663858315283635,44.33701311079733,-4.261235126024862,3.2197112576104905,-0.8223068707974429,-0.07697264255273067,0.2645422275552096,0.42381751338276263,nm,0.0
22.218566417694092,-82.51169100938428,-14.933783091279436,44.83525101804439,-4.2744092926374355,1.823035676031795,-1.1240227993469463,-0.13673996818264658,-0.21956030069017995,0.05579232783209619,nm,0.0
22.24406909942627,-88.61717054747118,-18.573348860056026,44.18399132520216,-2.8789489102444312,2.6988848476217906,-1.20174534904968,-0.21263990868036622,-0.7955075357094331,-0.4037895145782139,nm,0.0
22.25319504737854,-93.51178430621908,-20.014703128782713,43.57466800296142,-1.0830897575400458,2.490771953945779,-0.9144434134812901,-0.4582676441199243,-0.8520350857514473,-0.5245828884615271,nm,0.0
22.27265954017639,-105.74152000741402,-18.526299399998553,44.4105233448315,2.301785257897474,0.17854641035697635,-0.427348155619753,-1.095827097846483,-0.6486234106352766,-0.37472308107337415,nm,0.0
22.277525424957275,-112.48089700080497,-15.99594108960948,45.33751502683146,3.89979642919456,-2.8890344573041777,0.9360629549577831,-1.2652489773099205,-0.553054199836216,-0.2904816244157457,nm,0.0
22.304733753204346,-122.85282298056703,-9.838695805833694,48.95074579412472,3.490455209675712,-5.34649943220085,2.3692168016441837,-1.067752634708111,-0.24239172378976181,0.26236532021564957,nm,0.0
22.306403398513794,-125.51285329474379,-7.537180357189551,51.04920653269325,2.6944636521783982,-5.954010376704426,2.498383364711367,-0.6897130445216136,-0.10096488320621765,0.357075862605171,nm,0.0
22.314056634902954,-125.37420482346432,-7.15049499082152,51.93272525683027,1.4132368256387566,-5.661297962004864,1.440617459051444,-0.04171036908273217,0.0758963589891502,0.21356932607077642,nm,0.0
22.34078621864319,-117.96332859793318,-12.766652117551269,49.824813743179256,0.03596458244007764,-2.9658870468308014,-0.7890083850721047,1.10788423729115,0.22888639519498066,-0.08508986924991971,nm,0.0
22.343392372131348,-111.87408179765596,-16.782938422261605,47.95985590405899,-0.17640603461534665,0.05314857878102724,-1.3840786854587104,1.3834392956908275,0.36146464915984744,-0.032025571405182536,nm,0.0
22.352606058120728,-105.17341945618938,-20.405641658131437,45.225916672310774,0.3512794347756531,1.6321953726916596,-0.5641733004047892,1.4038310596099879,0.4250538208482906,-0.08069651285237087,nm,0.0
22.380584716796875,-90.74970515389752,-21.508281206078802,41.163145689089625,0.5880140229519707,4.791277714151568,0.3803557348937486,0.8741133693004466,0.971530835510901,0.30605388341870093,nm,0.0
22.382296800613403,-86.18773938673903,-18.649295614862364,41.23582425666567,0.10149042319084056,3.7442531451888774,0.4975060235341731,0.2779641088468757,0.9928634778616225,0.4067231164809729,nm,0.0
22.406302452087402,-81.11305621342488,-12.428484139418591,45.16080680907661,-3.520247377901611,2.936767132016581,-0.8062710715100329,-0.1036300244636546,0.6214974415536356,0.6403155699984069,nm,0.0
22.410955905914307,-81.59347923275863,-11.537891387673728,46.58697272807477,-4.316204157907861,2.3367630272262607,-1.084127883187102,-0.1849882754894044,0.056246137317604764,0.3313704873627755,nm,0.0
22.433337450027466,-85.74366996716225,-14.36838856171412,45.47361845175999,-3.4034643149589265,2.470492464830305,-1.3327039071759876,-0.030821173920569336,-0.6122138602292702,-0.3287543337552991,nm,0.0
22.45205044746399,-94.33409508221357,-17.057287096688512,44.78074692697789,-0.09210964105888512,2.840517533754362,-0.5270853422812966,-0.5315123083664365,-0.7395577696838693,-0.3691782858011817,nm,0.0
22.468202114105225,-99.2359306636837,-15.88809912381698,44.91208894436201,1.4568210258383494,1.5448879979319543,-0.5056300398203961,-0.8259526172945835,-0.4996569379365494,-0.3025778151342388,nm,0.0
22.470020532608032,-104.46120803250808,-13.079289185700489,45.724699828547784,2.4848750501522883,-0.21537640236213781,-0.3547283829553423,-1.1067055656575189,-0.3255328986538811,-0.13155709394030374,nm,0.0
22.478059768676758,-109.56177640641096,-9.501207617798716,46.83964620927278,3.278300915757598,-2.746043534491939,0.4030153721380101,-1.2051483777159804,-0.2270384028689585,0.014236749101423923,nm,0.0
22.500011205673218,-115.33122814253757,-3.379410143201468,50.67623202322937,2.803754289426918,-6.58092802367295,1.9669469725903732,-0.6341525310693295,0.08754758837487263,0.4782504865314422,nm,0.0
22.505590200424194,-114.3170498813706,-2.546824962805944,53.39127660971166,1.1882204214123897,-6.519242904973579,0.8340946226835275,-0.002266057258645534,0.26797416923099965,0.5971570242655115,nm,0.0
22.532677173614502,-107.1242726553113,-9.602516862836262,52.72764331780417,-0.3152567700249271,-3.4671568454231676,-0.144982894744388,1.3166062257571867,0.17625549106495286,-0.20509696035240527,nm,0.0
22.534928560256958,-100.76073852734929,-14.474688367061773,49.22161166731279,-0.12463416696270403,-1.325979903185501,0.1268953610327615,1.5467886444238426,0.35597116069156937,-0.4216657775543369,nm,0.0
22.548279523849487,-93.25551597793824,-17.6241026597945,45.254109930961135,0.29891659692610406,1.241214929069156,0.49215405935927076,1.448432741742077,0.6322582196245643,-0.36446396170932055,nm,0.0
22.557987451553345,-85.9560673111893,-18.271636410903206,41.74415246216419,1.8773398110314286,2.2999458783858344,1.5130686404834743,1.1041033430082794,0.8611813766374458,-0.23887737691761815,nm,0.0
22.580027103424072,-76.11557620137494,-13.429657772996928,40.805309391573665,0.897082920310671,2.8910166318334536,0.7291948625884273,0.13089641529307233,0.8737892710535676,0.38720225556327204,nm,0.0
22.581763982772827,-73.68730309965422,-10.999103121637564,43.29052442091077,-0.0942380260642117,1.915585452512287,0.5825986624395513,0.03766435576847395,0.6775621737839442,0.6500292802588885,nm,0.0
22.589768648147583,-72.23845242949946,-9.612022875120124,45.96623043904127,-4.029813138323537,3.3614675786221593,-0.38163032170279176,0.01847580038310495,0.39657445046716805,0.6247995895582896,nm,0.0
22.614302396774292,-79.48483830276754,-10.960544528114545,47.18496995550618,-3.9109591981497194,1.4133551117491567,-0.9304902080628574,-0.3344192598143798,-0.7523800067906415,-0.21320686011933435,nm,0.0
22.619425058364868,-83.78434732877915,-13.013092459079012,46.693557891402534,-4.334128442583113,3.088601062992063,-1.825974686296001,-0.2639033642367747,-0.8975233307869869,-0.3449378388535602,nm,0.0
22.642910480499268,-95.62860482465324,-15.437007201976263,45.81595062408157,-0.8073001816084183,3.4550435888575595,-1.276133738345986,-0.6534087092459971,-0.8520106985976318,-0.48138520059473816,nm,0.0
22.65082335472107,-100.65714935102518,-14.30225237473818,45.55669259676065,0.5385424133618842,3.204534294662975,-1.7185837849076226,-0.8354234556944568,-0.5396068717874589,-0.37779955833761375,nm,0.0
22.671833515167236,-111.17410449018318,-8.713628936879564,46.685955009461736,2.2864092395931896,-0.4758573988785058,-0.7461960907842323,-1.1169617932313998,-0.27198478542044635,-0.03870606584828802,nm,0.0
22.676291465759277,-115.96775807860578,-5.718576120902816,48.0642554923902,2.763360167273176,-3.0888922613981684,0.03920056047130208,-1.0817319098266411,-0.29117659198321755,0.14136433385175148,nm,0.0
22.701671361923218,-123.03511331896709,-1.078184077508302,53.33232423780086,2.0232495766504934,-6.19834439969392,2.3793634026988806,-0.6099918167876047,-0.09967456819610182,0.6203753880616704,nm,0.0
22.709685564041138,-122.99190667301193,-0.423342088835537,55.44403975460137,1.040847991915128,-6.67837743723929,1.9842659210157083,-0.09888554416291061,0.09062914923123323,0.46462294910111723,nm,0.0
22.728315353393555,-116.7874485267788,-5.46427060834244,52.370151723035555,-0.19148026689549058,-3.8723282000227743,-0.17353130407890113,1.0590911628520359,0.25188481018819936,-0.4923765002654382,nm,0.0
22.733367443084717,-111.31379697298854,-9.657278475135568,48.68850389837843,0.091672067269645,-1.4744672120527014,-0.6638740086569204,1.3423016243241284,0.3090924328067067,-0.5787169201377191,nm,0.0
22.7570641040802,-97.52215049403264,-15.559425938464345,42.53496503995512,2.018575518181573,3.1918384224219434,0.1369501375211474,1.3366172768327271,0.6521771932493552,-0.1522543900070728,nm,0.0
22.76114559173584,-90.7474033359026,-15.76792926230709,40.72074824003851,1.9469096721630113,4.268870115224573,0.555205766426309,1.011014970629912,0.8342185842049912,0.04171681270173935,nm,0.0
22.786033630371094,-82.92105551983443,-11.676422842425723,43.412586927162884,-1.357105352369742,3.0623640634267755,-0.21554179335400953,0.1110948371799044,0.7167152578532204,0.6723155079378555,nm,0.0
22.791369199752808,-81.28554691327723,-10.247581359595452,46.31482159838071,-3.5381392586197182,2.7464797289088763,-0.4710160697418675,0.03568612291903567,0.4288393892159514,0.7065479910009348,nm,0.0
22.800007581710815,-81.15131638084478,-10.27452867321452,47.89948951607314,-4.482083409791554,1.9751874722488443,-1.0440686548914972,0.030641028307462993,0.01516540390429177,0.37212114457731854,nm,0.0
22.817463159561157,-82.8948886585269,-11.79121283019405,48.2772468650478,-3.862916381831006,1.2986262807196258,-1.0520929902295617,0.0055190052890415914,-0.4583224422890238,0.008084253319569709,nm,0.0
22.833510875701904,-89.73529633849522,-15.858166689582005,47.936692458516966,-1.8366950974866416,3.0814606070492636,-0.7821365567729957,-0.24937268593598372,-0.8333498946209359,-0.31682723367693455,nm,0.0
22.83752155303955,-94.59178416895419,-16.234358321353373,47.75422745432494,-0.24850498896205364,2.9102748387152806,-0.6335197268070627,-0.563134283624618,-0.74520408161359,-0.37227563584876033,nm,0.0
22.86323308944702,-105.47448261078185,-11.938510763018252,49.521458369199586,2.3490786197623805,0.494178979777705,-0.3428868307500678,-1.1357565511362084,-0.43868814215946295,-0.05176485382761783,nm,0.0
22.866079092025757,-110.43297093146496,-8.514205538515565,50.721486181482696,2.9592103043882947,-1.825760268241352,0.037888498857481634,-1.1478366861087748,-0.30829090569619233,0.04556974496864102,nm,0.0
22.89332675933838,-117.37444007033196,-2.434101628562465,54.71483689388355,2.780103133664067,-6.319576000161881,2.3952671713885674,-0.7406018585540914,-0.06032079270117385,0.4716495478275376,nm,0.0
22.895039796829224,-116.2815675583875,-1.1065288739904549,57.316507284007926,0.9257845276955179,-6.617450142385914,0.8173677016611457,-0.09427380303716829,0.3363639525092495,0.5691843926411585,nm,0.0
22.920422792434692,-109.18968897750304,-6.503355620653747,56.62540052570736,-0.6932166683327147,-3.9723799279006955,-0.468333221696592,1.1846326006649446,0.36350194311880774,-0.2383537210508991,nm,0.0
22.92949891090393,-103.37008103481718,-11.432484060335335,52.63113350110303,-0.22449335688516703,-2.0323201167113654,-0.09833168325667975,1.4753270625533395,0.3706935026945658,-0.6076158300503846,nm,0.0
22.94726014137268,-88.95096765192045,-17.072927228013135,44.211180661405436,1.6039510632156262,2.6488790487624665,0.8893478163550488,1.233226579465018,0.7487933599187017,-0.3705838954123359,nm,0.0
22.95218276977539,-82.88344750563898,-16.625190779972726,41.79999150254531,1.8146208308863603,4.063076146363591,1.1093943284358896,0.7972408352574643,0.855667065168181,-0.09460944994384546,nm,0.0
22.96193504333496,-79.26213952177068,-14.852633354107134,41.596334793472195,0.9333457672481351,3.3845340085294158,0.4771379484580052,0.2941726908093159,0.7265229106837476,0.19995674939574065,nm,0.0
22.9852933883667,-75.61530374636115,-12.888843535178289,46.23755829089274,-4.184492011030274,3.6080866679605696,-0.5784457739420439,0.13548078299730207,0.27647171722748926,0.6459355544348986,nm,0.0
22.989729642868042,-78.42598495314044,-13.486935227346057,47.90583003666855,-4.2939720893228435,2.391622690578708,-0.8840664866362893,-0.27721422803900286,-0.4838015413759542,0.23342003823028856,nm,0.0
