timestamp,roll,pitch,yaw,acc_x,acc_y,acc_z,gyro_x,gyro_y,gyro_z,markers,motor_input
7.008737802505493,-8.79918089327681,-13.923732553928536,-13.970681279545994,2.4600361342790498,-0.775173515246679,-1.3072205045990288,-0.3433382060766366,-0.4282162875109292,-0.26347333142725665,nm,0.0
7.033273220062256,1.7530204167809793,-16.50018643871231,-11.520381611249014,1.49846797711481,-1.440156794557897,3.344367792593783,1.3517592507783334,-0.4699372961000343,0.7798255526912732,nm,0.0
7.035136938095093,12.528026591470079,-16.674550478984237,-8.47351139960496,-0.4173024488236354,-1.9079217963280142,4.353537009420272,2.038768685336153,-0.40460970578874517,1.2194702457705338,nm,0.0
7.043510675430298,25.09818541187561,-17.788971577839213,-5.98466066656997,-1.7709920103158596,-3.2555987459455658,4.431642700519145,2.3668119056141927,-0.5322927199274414,1.2355449722534622,nm,0.0
7.066082715988159,50.34653440935892,-18.2236809836073,-7.431906323821965,-1.0354685673756456,-3.5053858962976965,0.8037419554941249,2.3503615200598436,-0.11366883439516236,0.4318061886233867,nm,0.0
7.090003490447998,69.08432496491339,-8.987318614592622,-12.12414458687027,1.6049117225853515,-1.2813378339250043,-1.4144329951823664,1.7741364540062217,0.7964616670812235,-0.10763589359949527,nm,0.0
7.091941595077515,73.97288563926976,-3.220175958013256,-13.722149307926973,1.879910934388096,-0.35808286671352124,-2.1442666288956325,1.2153762729486377,0.9068520646202668,-0.22738640111640931,nm,0.0
7.11864972114563,79.62854369935208,3.704950747820776,-17.462423042899392,0.6951365359372119,2.4951255200603466,-2.934342243689929,0.7012905425373716,0.29583878964090915,-0.46452809728073374,nm,0.0
7.120331525802612,81.70201141043243,3.837002926957916,-20.010497340256233,-0.49896304154954263,2.597064632495852,-2.20776223879909,0.4081481030071768,-0.10720925828220808,-0.549895377599615,nm,0.0
7.128123760223389,81.66091000814887,2.1796291152859606,-22.07884707627811,-1.4213594394711646,3.880567825300676,-2.3592593866992173,-0.1191768233807585,-0.30637373678469265,-0.4258875402394535,nm,0.0
7.151609659194946,77.45353443711807,-4.019537450592227,-22.94068912722328,-2.7810153315449324,2.902396054862683,-1.7124324035977667,-0.8115385517078859,-0.38526175453337624,-0.02222871767778387,nm,0.0
7.156319618225098,73.09308543949312,-7.450063236208803,-21.788218984457494,-1.977176916318103,2.088493071032671,-1.6662399791199585,-1.0558449421687301,-0.3062575674927169,0.13216824082793996,nm,0.0
7.179263353347778,61.43413080466792,-13.659594085148347,-16.65440138274814,-0.4408755801243663,-0.9169268392520663,-0.2628465412265972,-1.3784218737783618,-0.1617285733401663,0.3292872388551988,nm,0.0
7.18770432472229,54.59375881967411,-16.380579080774226,-13.09553811598187,0.825519124336829,-2.3594550216437447,0.5705925508124795,-1.4086032452719195,-0.19107205680599001,0.3471970689009009,nm,0.0
7.193464994430542,48.350432164681976,-18.801219024412987,-9.180547914815644,1.6735115743248157,-3.9480044833091923,2.3694731839149132,-1.252727867085177,-0.2502871476126424,0.3965318435661794,nm,0.0
7.203905820846558,42.956293201049775,-20.680668558467694,-5.179338259884227,3.1989793378244786,-4.046936838869117,3.406847711651182,-1.0451937412490422,-0.2518298263086842,0.4277518534534028,nm,0.0
7.213122367858887,38.511135223025455,-22.006376388315513,-2.6262309909809414,2.0957931530257583,-3.4795959007236874,4.149352469349236,-0.8344303355045086,-0.21448245672107352,0.1796367909658052,nm,0.0
7.225615978240967,35.82519687442271,-22.378258024226003,-3.0310980091991486,0.8193156323159625,-3.246094649688409,2.732994202032219,-0.49047786934728743,-0.056613952597207653,-0.2912884225483468,nm,0.0
7.232943534851074,36.31305332128146,-22.30909021131701,-5.945988009212075,-0.26550936871850533,-2.371322693681893,1.9392271311393785,0.10138139130440345,-0.000560411573818558,-0.5536991930577941,nm,0.0
7.24220085144043,38.144517860367785,-20.85514600864762,-9.792916228330617,-1.1662976508454905,-1.872785262071296,2.1806814535317525,0.3873530690137509,0.23409817796785518,-0.6429513868797859,nm,0.0
7.25141716003418,39.73863813004759,-17.646779264462936,-13.498991927931582,-1.3641402987562683,-0.9049204023736042,0.252685527402583,0.4337341098915262,0.5605861544345492,-0.6450177996004531,nm,0.0
7.260591983795166,42.360102241718266,-13.829200911385078,-16.860636409310818,-0.7110326383190994,-0.07244943426328093,-0.8344092790521287,0.6958827389824672,0.5976800399616573,-0.5396973051102202,nm,0.0
7.270064353942871,45.346679360936605,-9.745957283053299,-19.190495982826498,-0.3122514967653573,0.13024264117594675,-0.26343660870904206,0.8170524134078399,0.5889386603586895,-0.35429031674106415,nm,0.0
7.292863368988037,46.883837756606695,-2.6188963950805,-20.39181359280001,0.7933573578731401,2.0142504070928555,-2.4105474186981986,0.26465017610626834,0.5385960061591006,-0.0637280840031322,nm,0.0
7.299138307571411,47.18202468896977,-1.4902406654436622,-20.869386367901296,0.6197523178010822,2.289210688110097,-1.998624792925992,0.14124505528897305,0.1839769759797376,-0.10504708807828261,nm,0.0
7.3094987869262695,46.58976160153425,-1.672771461784073,-21.580894332479474,0.20545908629766452,2.5635188205461943,-1.5851369548994918,-0.11805967835511136,0.002136921686499023,-0.15721581622073225,nm,0.0
7.332147121429443,40.28361460810972,-4.163613446289447,-23.49857756689846,-1.537075408982837,2.9317663177424746,-0.8789632360764957,-0.8632438494061553,0.0040118891943060776,-0.3096501530375486,nm,0.0
7.336028814315796,34.33102777660468,-6.342895685269938,-24.437682568128235,-1.8736738617524715,2.593415881175964,-0.29010448568773656,-1.2568016047269095,0.07315599531114776,-0.32762458162280456,nm,0.0
7.3604819774627686,19.10694087088364,-11.056799808295889,-22.680427237996565,-1.0146925854863957,2.236952422365101,-0.11565504299747797,-1.6335370953467376,0.1685050505701837,0.008621973374372793,nm,0.0
7.36766505241394,11.075493575255667,-12.881639253246883,-19.656820243271998,0.22249102049728114,1.495687018509635,-0.8381345886722223,-1.5939803962321963,0.2154313882282574,0.2656315656655566,nm,0.0
7.389528751373291,2.9528807343177617,-13.920346746583924,-11.1146293225686,2.214824494172297,-0.5229622095458895,-0.9010729556433769,-0.41819322165565176,0.03479573718519925,0.7821938945435244,nm,0.0
7.399041414260864,6.325864934834625,-14.511132134346093,-7.043038704651515,2.9511704457803987,-1.714673275394578,1.221147692488384,0.6354392844111934,-0.23186526533826599,0.9767434635372432,nm,0.0
7.419564723968506,24.13522139412023,-20.162966312005747,-0.3778534937278868,1.2545327176598589,-4.151806310021449,5.72001265068972,1.700760237125846,-0.7870144617677438,1.1705987745657467,nm,0.0
7.422657012939453,33.35002618373196,-23.730678735089477,0.40203276153720097,-0.9719232203933026,-4.359673715936214,2.722693557474302,1.723707228267815,-0.7175450668705255,0.8170882310097282,nm,0.0
7.447503089904785,56.15559901037933,-23.46625077704474,-8.84535219142046,-1.442728286805025,-3.69789560412911,0.8783226435046038,2.00062919715229,0.2175289754471485,-0.24731335301107454,nm,0.0
7.4522786140441895,63.83384938466772,-17.246239209422896,-13.26054589713771,-0.3290790094561839,-2.033890341985208,-1.2119201997008675,1.664474050167469,0.9401911805238367,-0.34484389695512135,nm,0.0
7.475381374359131,73.22176184255915,-2.8387508583267906,-18.43523093515796,0.8279189299710497,0.16142275858417365,-2.2519130726075987,1.0563622364404903,1.071449776629581,-0.34874124371376425,nm,0.0
7.479582786560059,74.53067150604294,1.1220645659690145,-20.356752996892173,0.9648154810090385,1.1418230506964615,-3.0443608317405073,0.5191201562128158,0.6593369456239385,-0.3527842592243633,nm,0.0
7.511226415634155,75.08881168550376,0.02256593949584902,-22.39916411601623,-1.0016874357967793,3.3132007405567463,-2.1111733914093493,-0.1755062870605628,-0.3235240048294377,-0.20322831423757165,nm,0.0
7.513809442520142,73.54243370610624,-2.768987169835901,-23.01438222651226,-2.0813125367808283,3.935050320766145,-1.8200685360768838,-0.49335380668812273,-0.3977861146935332,-0.14244290306352547,nm,0.0
7.518149375915527,70.5682986848353,-4.791735405648919,-22.646096669764397,-2.825453580680808,3.9578943544798277,-1.1186770458255662,-0.6966491419481493,-0.14499494362842688,0.022796857923832767,nm,0.0
7.542178153991699,58.900223138060596,-5.556971753073058,-20.875009725623862,-1.2843307079198771,2.763134407803942,-1.8838739052237479,-1.1555761742240735,0.4377923837799965,0.037746218076144165,nm,0.0
7.5460498332977295,52.7969857688112,-5.665269679715694,-21.965116677586575,-0.646043984381649,0.7860769896305858,0.37828869760674527,-1.1266416794927305,0.43542905596779613,-0.000491950439012531,nm,0.0
7.57174015045166,37.218988415830275,-8.403537891334377,-23.775842193407872,1.5832317421845044,-0.924921154986142,0.016588425269897022,-1.491322040253672,0.23299881125173985,0.05196205401867628,nm,0.0
7.574930191040039,32.176377539624,-11.109900000621042,-20.63346909629333,2.023519956498729,-1.6763335080538622,1.9296402456175243,-1.119025873256257,-0.1422299740580123,0.3020868512637042,nm,0.0
7.584073543548584,28.54862973806213,-13.636827934518026,-16.673541711688387,2.294464902177449,-2.435916379016559,1.7073724944116417,-0.8262268424380083,-0.2654476788426114,0.5411960329662777,nm,0.0
7.5935022830963135,28.40571702124157,-16.327556968927233,-12.932133044552524,1.6336757909212467,-2.453795485124074,2.1693460706387895,-0.15645967655566828,-0.5235042448069032,0.7343342926771362,nm,0.0
7.618056297302246,35.15769650066808,-20.247345573272135,-9.772934310521821,-0.44551467419455665,-2.9132959745277502,2.8161360622068226,0.7093243128449648,-0.4234124333061004,0.3262106915117486,nm,0.0
7.622259616851807,40.43937020458097,-19.989704894858424,-11.956008534958105,-0.20748268836975406,-2.9911560716027448,2.4125268514515232,0.9943492239390733,-0.14405553750303784,-0.08108286940913007,nm,0.0
7.650899171829224,50.11264531338662,-13.302497826329951,-19.38602750288435,0.3872314523608702,-1.6792721019962022,0.13348042376639638,1.0459871044102913,0.5345398562597059,-0.5796566183076272,nm,0.0
7.657212734222412,53.920414100822384,-9.016738003945369,-23.255493227258345,0.5917295214278219,-0.9055793674899941,-0.7943365359601001,1.016295084945933,0.5213134091373629,-0.642570102228381,nm,0.0
7.660526990890503,56.88074183731518,-5.352749317145406,-26.117504609855338,0.30505591392428294,-0.23102048264246983,-1.263395638326144,0.8476008689866757,0.41527640262230203,-0.5101927597656684,nm,0.0
7.684819936752319,59.01215055915684,-2.4513972993186885,-28.705016042187463,-1.3510869651301354,1.7788996448058538,-1.5434759760809922,0.14736808539698296,0.04135615183713881,-0.2502239614016963,nm,0.0
7.690891981124878,57.615532191686555,-2.8144852812196874,-28.76770236874467,-1.4906530736094985,2.578643404725902,-1.7918228894269956,-0.273810681269696,0.06491416749197845,-0.05282693874144731,nm,0.0
7.698671817779541,55.30729863394867,-2.9813453859053096,-27.25491029135752,-1.4788124131308666,3.275654657266697,-1.8158683122938,-0.4172643559368339,0.18125034503456972,0.24992403450098125,nm,0.0
7.72139048576355,47.79424782058988,-3.0090080122253213,-24.516659235239274,-0.677643329851241,2.4499659214007696,-0.6462422925205834,-0.7869917600949532,0.3663240048362952,0.16079186914058577,nm,0.0
7.729458332061768,41.93934669390893,-2.950744077969798,-24.160680027744057,-0.10530052945273566,2.1853544972451653,-0.8238496350993467,-1.0559321123325596,0.4868819927467443,0.03483554544581999,nm,0.0
7.750738143920898,29.373479738509626,-5.906673284356819,-24.605889793053628,0.7864296955902221,1.0973540473058045,-0.42917093225926123,-1.300140846116895,0.10260133900567527,-0.15247049689397202,nm,0.0
7.755249977111816,23.674296760090844,-8.817194895805946,-24.06604426203646,1.2337111214575878,0.5050751187593635,-0.6164744910046868,-1.2667356563408676,-0.07532958422182245,-0.046146906950232804,nm,0.0
7.777602672576904,17.973591526001723,-13.922274605194989,-19.22420490898729,1.0229822439315135,-1.2727477143941917,0.6766864762680715,-0.45467604398351413,-0.34383747728939545,0.46066628552338945,nm,0.0
7.784733772277832,20.37842933693174,-16.097143382167843,-15.87630313459383,1.5070810991968382,-2.159438737454623,1.1988977112272374,0.32062818159980155,-0.5657285465993472,0.7212272883697789,nm,0.0
7.813702344894409,34.662363887380344,-20.142972293710365,-11.598027823481061,0.23372264781883473,-4.191862749765903,4.009649726149014,1.3440665424156797,-0.7337769694912348,0.7477266862068301,nm,0.0
7.815556049346924,42.328919170431966,-21.76552320942585,-12.102382046869302,0.2192285161764953,-4.387390208528066,2.437360723105339,1.3462261484765168,-0.6191135156053752,0.44038369533545374,nm,0.0
7.824443578720093,50.09320471841981,-21.640976605814604,-13.996232370008146,-0.35215233229222276,-3.6517089426710294,1.246868641520283,1.4227615494056605,-0.30793222700187134,0.18783366512786162,nm,0.0
7.831450700759888,56.71724893092248,-19.386269563244348,-16.952849140189485,-0.27719005378398054,-2.4959545249414616,-0.004490792347250416,1.3274735933514383,0.0979731248736988,-0.13569636189298737,nm,0.0
7.840046167373657,61.65308476006442,-15.306105739960673,-20.084007115033568,-0.07726630600007,-1.575669933340276,-0.9197328432728783,1.1634440050240282,0.47004291480091503,-0.34170851771887506,nm,0.0
7.867967128753662,67.01869299413433,-5.63856016871032,-24.862101320581093,-0.4894938563994163,0.6532776805780054,-1.7709499736195806,0.7230122157349675,0.6992741082971089,-0.38235759889346765,nm,0.0
7.870811462402344,67.20309380693138,-2.3460352052590787,-26.807997876094717,-0.5169016957762875,1.5162568506543557,-2.1658383054989314,0.3284478294686623,0.5735332719761648,-0.36648236813404267,nm,0.0
7.89278244972229,62.84471566323239,-0.5907683046949047,-26.779513791472233,-1.0031449462243893,2.954117996715486,-2.023621007239684,-0.556695773277483,0.3088016595039294,0.13327881055392635,nm,0.0
7.917935609817505,54.606619179535194,-3.1620940078350475,-23.168120092234417,-1.3470496576541988,2.8148049508627198,-0.45389681311698366,-0.9254022608373252,0.08183283234827453,0.32666078652695135,nm,0.0
7.9196765422821045,47.64466456075655,-4.182058955852036,-21.676742267871454,-1.1416868240381641,2.7899055581357604,-0.15790966226336142,-1.3575806330265072,0.33540828382071186,0.19779577188673117,nm,0.0
7.927489280700684,39.14579990749648,-4.973293905478812,-21.591985165620002,-0.6768708444595318,2.5458573137232015,-0.6065620368039891,-1.627037200439381,0.478308865344121,-0.014476218667486353,nm,0.0
7.9505932331085205,22.451286637754713,-8.434244594944655,-21.902848085174217,0.6329452338536884,1.6502985779397963,-0.12847205017598476,-1.6943534888336516,0.21879931018372564,-0.30084812475764505,nm,0.0
7.955950736999512,15.174791032701943,-10.736593112375731,-21.28675305283435,1.307018052685801,0.7826910771863288,-0.7049812900972585,-1.5010997099147243,0.08310284326072338,-0.2089055271424799,nm,0.0
7.964527130126953,10.691920065776541,-13.011239107815328,-19.854692256009393,1.7677099700745127,-0.025563918812855257,-0.35072454125384245,-0.9773179687032255,-0.1326049869621462,0.039032497559584343,nm,0.0
7.974048852920532,9.53590726685227,-14.974937441079895,-17.581653172759744,1.8956820250702595,-1.2479168195898531,0.7485389174998134,-0.33283800542152364,-0.31368534405771287,0.3406008666590627,nm,0.0
7.997209072113037,21.783871567773367,-18.387045541539585,-12.26406991773785,0.6948053388693476,-2.263391577122087,4.768636559268234,1.487368584101869,-0.7410367298746641,0.9958456826219401,nm,0.0
8.003558158874512,30.25006818054968,-20.537324362366103,-10.946170105589548,-0.39028529645126203,-4.012923322279216,4.740091415615713,1.4891651812268933,-0.7502874856985021,0.7987194377384947,nm,0.0
