timestamp,roll,pitch,yaw,acc_x,acc_y,acc_z,gyro_x,gyro_y,gyro_z,markers,motor_input
47.53191804885864,-56.77100553059768,-75.48892012122803,-87.89531665771773,-0.7039353994055181,0.5181718813611353,-3.004545077169304,-0.02913001000653576,-0.4142128685046316,0.7075849126831777,nm,0.0
47.535134077072144,-45.576619753252096,-75.60420964782546,-95.11418675281433,-0.7170280458880807,0.5182008522913735,-2.720491651710517,-0.048452715455857914,-0.5536626695645174,0.7199208604793711,nm,0.0
47.557761907577515,-8.984268894462842,-75.0857024613426,-124.58539406365233,0.9526459287241256,0.8935616710647454,-0.8513267755705632,-0.3442381516668545,-0.9752638273728372,0.39052922395118567,nm,0.0
47.58183169364929,23.62265056286867,-68.1007876827665,-157.8144253303415,1.6134188673008334,1.3987056018976851,2.2744318902578393,-0.3335795515148349,-1.1859165478851796,-0.4935758740913496,nm,0.0
47.585278272628784,28.19594910244622,-63.34243831212595,-166.41154472411154,1.607635378813032,1.484670457624589,3.952374490359384,-0.07419617734039557,-1.0182040086830746,-0.9866623842135137,nm,0.0
47.6000018119812,26.759661363138353,-59.8674017544812,-171.11269389773733,0.9882747846759631,1.3960019610847634,5.061745363355473,0.25989942697120644,-0.6493442498297619,-1.2885334308149172,nm,0.0
47.60248160362244,21.974981607645415,-58.29638615348606,-172.28667543994612,0.21429746510788306,0.30510415766843724,5.3866860845649205,0.5210686401726929,-0.23135409180411293,-1.1335822789039416,nm,0.0
47.60925078392029,15.120334830742499,-58.55410449654577,-170.3747706058185,-0.3374208137122804,-0.8160991646610238,4.747965656798621,0.6902063961289336,0.16872206636126602,-0.840637875948859,nm,0.0
47.63600778579712,-1.4157427347103029,-63.88401622054963,-157.703330193119,0.18961553038895354,-1.1774086605544332,3.211503339283558,0.5635430282123188,0.8506858897789797,0.08473470420208293,nm,0.0
47.64167094230652,-14.15620609547925,-66.56793178506226,-144.8793823078399,1.827510402881768,-1.3600803973026743,1.7445120577512667,0.6684414071073078,0.9881348184376915,0.27148455922942677,nm,0.0
47.64980888366699,-32.12912407008531,-68.40141507889791,-128.00999935226665,0.5957941738965791,-0.9816351669512463,-0.20901474811237628,0.7353402155003373,1.2148843957861613,0.08307362783829907,nm,0.0
47.65699219703674,-49.70432473515445,-68.6305253078196,-110.36428550509063,0.7980990675863192,-0.7630350757611409,-1.2478847282050929,0.5779528650105863,1.1480316167733333,0.29666704888374035,nm,0.0
47.66624593734741,-62.80696089251567,-67.64497003917654,-96.83551770713838,0.007150328545302805,-0.733570941414261,-2.579163812110704,0.4118558184367597,0.9057778032822852,0.315968802361973,nm,0.0
47.69721698760986,-82.66623333050771,-67.25830430020407,-73.55011556082647,-1.89698639030756,0.044765229279912375,-4.2701846334683236,-0.18999681155620318,0.2701402396263561,0.43350974058058744,nm,0.0
47.70643186569214,-82.63511371751491,-68.51491363277665,-71.10220902400752,-2.063168090475534,0.45467593781993054,-4.398333314815842,-0.2476927693385043,-0.07422227762836127,0.5062136045465223,nm,0.0
47.7299599647522,-63.88502297112956,-72.49641701171078,-81.64770855961449,-0.2759561763634342,0.6919308786782709,-3.8118258868501416,-0.25616927576564047,-0.8538998674871452,0.7113217100206605,nm,0.0
47.73637318611145,-45.04502257772211,-73.99784763925516,-96.33443205733721,0.15664111380677473,0.8754072955227642,-2.545363038860914,-0.28681577357074434,-1.0839457963406152,0.6348499403221212,nm,0.0
47.74423623085022,-21.401760791029368,-73.56797144707024,-115.93984705166643,0.5210250601684526,0.8824058834266725,-1.3750748364688392,-0.2926215167427782,-1.2815391582180344,0.5785908921728056,nm,0.0
47.75353407859802,-0.6397094580565038,-71.29171966837936,-133.76522267455977,0.8984376269641903,0.9182062522040796,0.033808242343611676,-0.3547101957179351,-1.2785296484218234,0.3565016976037838,nm,0.0
47.761781454086304,13.292301621661176,-67.89261388391044,-146.94309616573543,0.9977431038675671,1.1554293029386768,1.6611062834243733,-0.3244646240587675,-1.1380765563847652,-0.1053701137608515,nm,0.0
47.77070212364197,20.27057156072889,-63.745029093121,-155.70553526785554,1.335750596408148,1.197087332445358,3.2708182794190446,-0.11330063129756497,-0.9991548676317357,-0.5661185737041149,nm,0.0
47.79465627670288,19.38244749408335,-56.665964485011315,-165.67630257547592,0.5097065041621149,0.6063020328451647,5.075623110879004,0.37208931080121593,-0.497891492948288,-1.2663333091927906,nm,0.0
47.801536321640015,15.978020166674016,-55.30480446640237,-167.84120126770927,0.009946523014622724,-0.33255669277459315,5.348690655965289,0.42193275427694044,-0.1695956409597475,-1.0676112595134164,nm,0.0
47.82461857795715,5.885653237097807,-59.044613095404124,-164.30827433895547,-0.5375355513022867,-0.9650685638308535,4.06350625191383,0.43099988012791884,0.721120395333891,-0.29192950175416343,nm,0.0
47.82867789268494,-1.5563448940496987,-62.68035152180237,-156.43881978096127,0.3075095929837899,-0.9420170258038024,2.983925740704054,0.4277268662941861,0.935500844394979,0.2905822506465232,nm,0.0
47.85588359832764,-32.618564797760506,-68.22607073717111,-124.83435585722087,0.7477385433395783,-0.5635212595824508,-0.6291126115502981,0.675891056010654,1.3204635766655848,0.2538760620053309,nm,0.0
47.85765290260315,-49.26226882104318,-68.27999179830027,-107.49731315424938,1.1958630791961986,-0.275909702062751,-1.9372132255371717,0.5245883112190339,1.1133156565855924,0.4247081418445678,nm,0.0
47.88324451446533,-69.47105156726217,-67.6658901528133,-86.25677552658729,-1.23651171545491,0.07840828684819938,-3.825695375939456,-0.01521333811559683,0.6438413860501241,0.2575805186824818,nm,0.0
47.88708686828613,-73.88250522978961,-68.59448935957651,-80.26696999494689,-1.0504160117211558,0.22174167202285036,-3.9911050505423304,-0.23198005955849257,0.3093864666600278,0.4153901469727861,nm,0.0
47.91015338897705,-73.47835149146451,-71.83846168836095,-77.67838936807658,-1.7981498579389787,0.1063920842415827,-3.7272960234841883,-0.3236621045198137,-0.17124620533134863,0.23082225328714867,nm,0.0
47.91469669342041,-67.63015497898219,-73.23784763048916,-82.04341789417192,-1.4968749739502147,-0.008196634144872757,-3.3393836085190496,-0.22321375193914159,-0.39022655226791403,0.22197686760922614,nm,0.0
47.939321756362915,-44.99131971802039,-74.12882902616026,-101.77868862846624,-0.17221243052541688,-0.10236154166254949,-2.1618815915471408,-0.10867318082075489,-0.6789936997199296,0.1412934461235328,nm,0.0
47.959717750549316,-16.95664780688798,-72.59661665743799,-127.79546417710236,1.0042649358222158,-0.08916781323005246,-0.13584470330913112,-0.24409936820555078,-0.8129602398341053,-0.026807045292501913,nm,0.0
47.97614526748657,-4.0279236864691415,-70.6777632424563,-140.19764046022513,1.1141698432481524,0.025160936204338527,0.9208819692993236,-0.29786727514123273,-0.847258401189094,-0.13430664899616324,nm,0.0
47.97783184051514,6.46936593376577,-68.20887817729243,-150.29238363938305,1.004849182032648,0.17884564117903012,1.920017522303245,-0.33366330797777427,-0.8211501728888465,-0.13966195569580198,nm,0.0
47.98347353935242,14.154306267987186,-65.68040666228488,-157.3474585896944,0.7570315709763774,0.33901015501645254,2.5507674378449643,-0.32754130402736453,-0.7152935739096488,-0.07513514000642853,nm,0.0
48.00650930404663,22.109795783431636,-62.58807122096469,-163.10771013131188,0.22689050577373457,1.0000696260741853,3.031504677237658,-0.19843659715122441,-0.28515743786813796,0.16727606157139333,nm,0.0
48.009435415267944,22.102850643911808,-61.56274539333199,-161.68951525335356,1.8689148417425288,2.5339762458677417,7.162352305740793,0.04931436323938957,-0.19099938296648564,0.26770259142595215,nm,0.0
48.03458881378174,15.087962538538918,-62.71374684511874,-155.35961011154083,-1.9405568967158233,-1.3059811143811078,1.189662420139267,-0.008728361887056266,0.6384658895812944,0.006241938236556439,nm,0.0
48.043739795684814,13.712352456839524,-68.651672621175,-153.85662467705373,0.8904731184644866,1.1543316843036995,1.7661769457125023,-0.4192938339786798,1.12858112028784,0.0854386666436856,nm,0.0
48.049684047698975,10.246215463817473,-71.94365541109518,-149.87078099719326,1.1909282680139048,0.49935179678956376,-0.8695571219050713,-0.1168216790316597,0.696467160000728,0.18304698484403464,nm,0.0
48.07149648666382,5.578211600126173,-75.60259937731568,-146.52759747116247,0.9329970762358236,0.3905065403157943,-3.3271624400666715,-0.21774409468298797,0.3840808912276149,-0.18137953286331773,nm,0.0
48.074859857559204,7.7287346124215714,-75.39288813001795,-149.32223113020123,0.6746692379804268,0.13702931747065256,-2.114148012400624,-0.08121980273351219,-0.08785661530220956,-0.13658976155790387,nm,0.0
48.10033440589905,10.200939575178069,-69.63732852370079,-152.885509279009,-0.7403496829490911,-0.3328114174405528,-1.111036587297878,0.17686640080257893,-0.48183391171670126,-0.1408881869351129,nm,0.0
48.10542368888855,11.365619533666255,-68.36887898325486,-153.38852031084969,-0.6327079264426128,-0.35969972436297215,0.36844176577204024,0.027690600463154955,-0.25966518428529806,0.09770114478998454,nm,0.0
48.12889647483826,12.10070627519657,-65.77018727354965,-151.92999704200858,-0.8093040980527462,-0.2211696964125897,-0.42383504620457285,0.048773885504634414,-0.20753109060746988,0.21838734097434037,nm,0.0
48.1333065032959,14.881387372555329,-64.91279403722287,-151.90459596926243,1.2775305136345927,1.8295975339313288,3.5003422594521725,-0.13755683324539908,-0.25724947227915024,0.5041827075789221,nm,0.0
48.161027669906616,17.108844395173783,-60.87232190968376,-152.0676141125729,-2.905081208770924,-1.345086414331339,0.6159794144187523,-0.01722331816152828,-0.19369715887460037,-0.006876617239273046,nm,0.0
48.16278672218323,19.739451929217516,-63.25446275830283,-153.9351205687053,0.1395112955795164,0.5033711182065252,2.4316688745968156,-0.4500957155598695,0.31662838924920284,0.10685449574166205,nm,0.0
48.18692588806152,20.956229978903195,-66.1514330336335,-155.09598066291298,0.19892015269915264,0.26288860253194096,-1.3105655731180403,-0.17817439744628347,0.19361449533875183,0.10356932953438239,nm,0.0
48.1952064037323,23.06719711160313,-67.84533222203981,-157.04049951414083,1.1623472076121624,0.6207404913889567,-1.8570569051446357,-0.3020093564697679,0.24693215179913927,0.020503123610214363,nm,0.0
48.21382236480713,25.298891947564712,-67.13755705872673,-160.02570309201045,0.8071051451551314,0.6394636963690988,-1.5335474471268964,0.06635281056000351,-0.2899270687499412,-0.014018850370228474,nm,0.0
48.22014927864075,24.39501148038227,-64.88373150499585,-159.57045528899909,0.4766848196666132,0.4027941214274925,-0.7676780110450221,0.2118618533415811,-0.3944454365630122,-0.10184287644558228,nm,0.0
48.246474742889404,21.414787737314743,-61.67216375229119,-157.85380557138635,-0.38134414232069674,0.017590511155558375,1.502923272308175,0.24410641027219154,-0.22121561588069927,-0.0561140308543478,nm,0.0
48.248632192611694,18.793641876600493,-60.244546164107234,-155.97980097321843,-0.639045582737606,-0.5386512085221542,1.5635860465467397,0.3328043283863737,-0.15912831512689557,-0.09544342171446392,nm,0.0
48.27296042442322,16.486589759671613,-60.636747581251385,-155.40251356886262,-0.5064829928166876,-0.2927507790460032,0.8671424919967585,-0.059753643370744174,0.14280330379286324,-0.08517893541464072,nm,0.0
48.27629089355469,16.94625410362897,-61.3993768707718,-156.39421794456715,0.6635280745617245,0.057368288468223984,0.3863296079774483,-0.11660066354140287,0.1256013072027635,-0.11535522060133951,nm,0.0
48.299535274505615,18.644618596056905,-62.073310988325346,-159.7219167553894,0.7293563694493054,0.2580160214453681,-1.1518056066162292,-0.14602449287198965,-0.0050779359675898845,-0.12797428407541458,nm,0.0
48.30737280845642,19.62023934132683,-61.688619766308626,-161.0369058591892,1.080791944153828,0.4749645658099347,-1.0138020794197986,-0.07404604571540446,-0.09862548552630372,-0.11279807813726972,nm,0.0
48.31264591217041,19.34937158561291,-60.43825081400046,-161.2102975575302,0.49856685977301074,0.4238323130902785,-0.9164410817152043,0.09274461787299475,-0.22343403417279678,-0.10252645736790252,nm,0.0
48.3257839679718,18.39341528537639,-58.64560271749056,-160.16704672128617,0.5234146030104951,0.3202504404080616,-0.27163499800377067,0.1971686160858115,-0.30172106720806563,0.022710772955703687,nm,0.0
48.34943604469299,14.852836796924667,-55.20291895575185,-156.54481943501776,-0.4955577959672757,-0.1295068450099589,0.8255018224163605,0.3004406596768981,-0.2199268980190939,0.0651567729398608,nm,0.0
48.35255575180054,13.36396356156446,-53.905137674727555,-154.75035091190298,-0.5271638650760919,-0.31676249673804474,1.0117104226524412,0.25120628125891065,-0.16074503259053602,0.09043184744004976,nm,0.0
48.379257917404175,12.151662596737596,-53.69256779737284,-153.34480712946566,-0.2916499874196337,-0.23212160066010154,0.6163541188845799,-0.0177202243815126,0.06660485369360698,0.0023828204913663746,nm,0.0
48.38125729560852,12.490558100373715,-54.29927388723647,-153.74228967401214,0.1328006567166324,0.0298838958303355,0.2081586650654378,-0.10356440331287446,0.09536670816327554,-0.03872000919158789,nm,0.0
48.404499530792236,13.822151076858017,-55.18244434344512,-155.1077345957897,0.5753800088508928,0.3515153524371986,-0.7161495695370782,-0.11422042049530558,0.028603191217414437,-0.016297393624549166,nm,0.0
48.40869927406311,14.097236652567817,-55.12097087485425,-155.1747578401027,0.6617299419661082,0.4766649878130752,-0.7852317107001098,0.0,0.0,0.0,nm,0.0
48.43256187438965,12.842035690904432,-53.41062390647248,-153.03649582066572,0.32722770763160713,0.3398912044135592,-0.2750720825713806,0.17934090509670056,-0.14875129939995752,0.13065307765637288,nm,0.0
48.43810987472534,11.702194438987043,-52.13206768813074,-151.29735029997886,0.010586218864786693,0.13914578894136365,0.059183305137079895,0.22790513740870302,-0.15793798401572143,0.15333343090023294,nm,0.0
48.46229410171509,10.124724696934177,-50.2671159427308,-148.5729094570237,-0.46333610830140937,-0.20399178315727315,0.6924288669696546,0.13248221966163526,-0.09068460147397651,0.13054310477825432,nm,0.0
48.46565818786621,9.990659299627596,-49.94258662180552,-147.99464693578105,-0.47272522319111276,-0.2522144960634343,0.625712891469291,0.03482911377811459,-0.04283647652799175,0.08738186026482384,nm,0.0
48.495465993881226,10.911133137958998,-50.883333847210665,-148.68485273848432,-0.05960564400055617,0.10931328692801479,0.2094520324766232,-0.14859919578949504,0.07770976586847021,-0.027974167546455844,nm,0.0
48.49861788749695,11.602057181259209,-51.56514339268782,-149.43949350591774,0.19778595393127146,0.3508553615526757,-0.1353151509346623,-0.15847358565441103,0.07607981685143309,-0.04187651478001639,nm,0.0
