timestamp,roll,pitch,yaw,acc_x,acc_y,acc_z,gyro_x,gyro_y,gyro_z,markers,motor_input
41.5117883682251,60.10437891914713,-66.2763794763889,-150.09225510972738,-0.27637119835718454,-0.7438761950718473,1.5273966739664964,0.3403976596132957,-0.22725441673133048,-0.2725960704378287,nm,0.0
41.51473808288574,52.571861242202765,-64.69704056937003,-143.28830895510578,0.2078377622271446,0.11275017531192039,0.07670930817622315,0.2945373083912975,0.09814510205574012,0.07938426225445849,nm,0.0
41.51643943786621,48.06501562276954,-64.28817901386239,-138.87356869172774,0.06942402264629888,0.18859413589782983,-0.6135454874047229,0.340654994061859,0.17396842720117606,0.07056169928971508,nm,0.0
41.5295250415802,44.28450571461555,-63.42955228560498,-134.23342849264833,0.11295642184809329,0.5775450325456863,-1.4685498044066638,0.34746390789718995,0.09772161617643249,0.25053249297954827,nm,0.0
41.533257722854614,43.21123869666867,-62.490742122849625,-131.19403998034457,0.17127098773786903,1.297796704039542,-1.7805638298283317,0.19189463660285705,-0.06287446573144101,0.4057506245280007,nm,0.0
41.55906629562378,47.945252415871224,-60.73866773919296,-130.33845630281502,-0.5069128570979383,2.6101189391130535,-1.2825724679107873,-0.05223066452094643,-0.3515621283474035,0.5448732524780381,nm,0.0
41.563737630844116,51.11264441900816,-59.967487415906284,-130.57065639320277,-0.825263951234943,1.9356109189535706,-1.7822712588457406,-0.09770058834687126,-0.34754102629200206,0.509321204100486,nm,0.0
41.59243941307068,64.35473388725876,-64.1877776947833,-135.89501014577084,-0.8595022174118134,-0.1540197705289078,-1.192761359391406,-0.6093602475882606,0.06731880689050944,0.39087577109129895,nm,0.0
41.607701539993286,69.09235675961044,-67.4866778559634,-138.60675200570964,-0.44311344037809997,-0.8564579736665922,-0.5208365414861454,-0.7433367127339554,0.21305361665938305,0.36693595876131135,nm,0.0
41.61446976661682,74.6120246970582,-71.25004965142361,-142.94716168587917,-0.1332882225952282,-1.3737020884643003,0.5751369919843796,-0.7871409260303659,0.32998880044133416,0.230617386473491,nm,0.0
41.63349485397339,80.78075213962063,-77.46714588100464,-151.1613951731372,0.5843904284013383,-1.962784002917991,2.5410578172007154,-0.356783021567634,0.4097157898814274,-0.3454615037870575,nm,0.0
41.640361070632935,82.80359528187755,-78.79845290507771,-156.00288739953302,0.7106348591520627,-1.996306560423547,3.1663498228286606,-0.20330225034381946,0.19449960306513456,-0.5393998399406723,nm,0.0
41.660911083221436,80.6508612551369,-76.6488439030217,-159.6141812879918,0.02174837977110962,-0.4820708654666078,2.4052615379894586,0.18315659512564905,-0.30688978943607664,-0.5393367275923274,nm,0.0
41.66968035697937,77.15669965858393,-74.66612147697343,-158.6321265772484,0.15306776541226488,-0.09271638616661544,1.9605108490277292,0.2920856600142247,-0.3167694040599829,-0.5063430650317065,nm,0.0
41.6960027217865,60.46413941262488,-73.0111084920594,-148.5057556709503,0.04019328599903615,-1.036264115445352,0.37343899868430325,0.4900388942304473,0.19879280369114086,-0.559869922241328,nm,0.0
41.69776225090027,48.9378903081926,-73.37151838152504,-138.8701708502692,0.6033022334251801,-0.1368046041708427,-0.041792817101406296,0.48143924088447404,0.4457033410995577,-0.27064232805435484,nm,0.0
41.71985173225403,21.142947649173617,-71.70470565324975,-113.27421775439937,0.9111950868234642,0.22757777367768306,-1.4852977215879724,0.627798547981121,0.5393884964434966,0.006447270352652599,nm,0.0
41.72455620765686,14.008172264751721,-69.70467113527864,-105.62988551537374,1.058370472448127,0.972460259222424,-1.7718436926102807,0.522628051402568,0.30397057923131265,0.20521822565706632,nm,0.0
41.746055603027344,14.931714587025855,-65.6544553696542,-104.08059250711342,0.41087592270421275,1.6616790767264293,-1.7029045730224286,0.3317327148891853,-0.29472218149149226,0.262082353305437,nm,0.0
41.75202536582947,19.741521804956353,-63.95432768549244,-106.85813885975962,0.04280478141076056,2.0634924560118306,-1.4574584532735642,0.2069467421063644,-0.4936658171061399,0.31878778900996735,nm,0.0
41.76445937156677,24.93406551497602,-62.811721402565325,-109.70800519743221,-0.5048032569923037,1.8313493140728638,-1.3743720815921714,0.059424269415166445,-0.522147860383735,0.361707149124908,nm,0.0
41.79371738433838,32.93022887939612,-63.04274620266575,-111.34670819873945,-0.8204039433415389,1.7936546108996856,-1.234477697110115,-0.24011175459555184,-0.24505559445093023,0.5724778394356673,nm,0.0
41.79782295227051,35.026626884085154,-64.87186535011266,-110.69256536951812,-0.8948101908178794,0.7923782840095971,-1.3853257832072738,-0.41874991043092696,-0.04994142135075622,0.5344024435176737,nm,0.0
41.81395101547241,39.842844742742706,-70.72752018847089,-110.62465974069714,-0.047074195775194394,-0.5372023886199359,-0.7782420675296418,-0.6650334526370872,0.029540781468583226,0.41314198981358136,nm,0.0
41.81958723068237,43.998577806066876,-73.68525464854926,-113.87290744849045,0.3043795459757807,-1.7065803066349468,-0.23281548681160116,-0.6544245542136943,-0.020480462322187882,0.15729560640614182,nm,0.0
41.84894347190857,58.3813314088828,-77.08704156708981,-129.8845208999816,0.4784594718513603,-2.441830263176313,2.268157855282144,-0.3995481715747194,-0.17374609760913678,-0.3621360583508696,nm,0.0
41.85113048553467,65.537498999868,-76.98710737339894,-139.56268312416944,0.20055296489537447,-1.4693607509606395,3.2530207242850926,-0.22161304053551506,-0.25032352255717083,-0.5485407917095025,nm,0.0
41.876704692840576,70.87189709916505,-73.94061559363172,-151.5496693984026,-0.258662382052624,-0.8693746689417717,2.627856414517565,0.13036589343183708,-0.35598250327061465,-0.6983561838490616,nm,0.0
41.8784384727478,67.71636213461782,-71.97421477943185,-151.0978074694697,-0.039067140928034996,-0.17340825983730615,2.070607218541013,0.33999941557738395,-0.2634735421185198,-0.5560099421787528,nm,0.0
41.893314361572266,59.954732229453604,-70.45043439449074,-146.92075507989097,0.31653601148700894,-0.644977522777199,1.184929083212003,0.5730889483806283,-0.009969073096916312,-0.65666058838078,nm,0.0
41.9071524143219,37.86781775618535,-69.23072597200827,-131.4269393679572,0.636258110587525,-0.23262641302138715,-0.11540764290007342,0.6465524271325295,0.5035574273917317,-0.3738174313511503,nm,0.0
41.92212414741516,24.99053270046714,-68.09781193067685,-120.1931609254465,0.908330240377126,-0.46629270192249245,-1.0271721809433991,0.718481847068897,0.6203348978050605,-0.130115675673913,nm,0.0
41.93462371826172,8.182353556875768,-64.38011370098938,-102.8919847759336,0.9055211276727831,0.7322170158451072,-2.08096672850816,0.49290793938230987,0.3795828380002034,0.3294707756264595,nm,0.0
41.947274923324585,6.887267823991729,-63.09721802637616,-99.22189307165097,0.7114486074025709,1.3551544619062124,-2.1774999457872144,0.26232319891658856,0.055848084934085114,0.5137854282610291,nm,0.0
41.95493125915527,9.774054856734928,-62.46081942014168,-98.70586126550141,0.33082419662584606,2.147062783343038,-2.011296121050724,0.0731755744903435,-0.2889581036069526,0.6121751283381525,nm,0.0
41.97438931465149,24.10248610151975,-62.61488957446458,-103.78060639373099,-0.6299289489109979,3.0257679052931685,-1.2972297534964037,-0.22370549872561774,-0.7383551468261912,0.8059429026548949,nm,0.0
42.00042009353638,37.17651444329601,-64.33351664682063,-108.85374991714288,-1.5421262302645748,1.3308234579942202,-1.3444845302288495,-0.3926304836300118,-0.41833078834420884,0.6152847789475745,nm,0.0
42.00222897529602,41.42656943191354,-66.6676617553962,-109.87434451760643,-1.2856387634726256,0.8201066013206972,-1.0143666960111004,-0.5675111438620372,-0.18845165306682823,0.5816368263156858,nm,0.0
42.02193856239319,45.22800668823778,-73.81298020241307,-110.79008881186405,-0.13998155571777562,-1.4863379084437152,-0.36937250439015296,-0.7493591125589143,0.17743836393005893,0.2413304952237939,nm,0.0
42.03055763244629,46.882650766483486,-77.29408014594974,-111.87527320264569,0.539083512086446,-1.949853850357006,0.3110052305727193,-0.689041007614562,0.16793201394322096,0.1539820582351191,nm,0.0
42.05246925354004,56.5431849020492,-80.45257893092108,-123.77213550203302,0.6440538045455784,-2.6459847853304628,2.475028314268642,-0.24791400301746747,-0.12985256721791635,-0.3170786057006721,nm,0.0
42.07768416404724,71.85470245228797,-76.9825873682632,-143.22536523489575,0.06263600749427747,-1.4931263595584912,3.008364038960404,0.10605027091772666,-0.5551655495940568,-0.5393635268919851,nm,0.0
42.07943344116211,74.63389257336597,-74.05827079794547,-149.1056222630458,-0.25869039367848745,-0.8601983493150653,2.4606111516271527,0.20133287332880834,-0.5728333257905787,-0.6628967146140016,nm,0.0
42.08501100540161,72.57567687428487,-71.4814801320909,-150.44784118510867,-0.38089281859064256,-0.8668198837114713,1.4246693131005188,0.3546392065483348,-0.3926843513650556,-0.6861309268780451,nm,0.0
42.10846781730652,61.42117577981758,-69.65037584512628,-146.77896542303378,0.2558344271616024,-0.07739278816248783,0.06365337038553519,0.42012123676019947,0.17880544137957594,-0.7254153857778128,nm,0.0
42.11761260032654,51.73223574162734,-69.66310233608402,-140.7889101488454,0.5834674616770014,0.4695302331887006,-0.24037528927636206,0.5294473071819356,0.39317206139518,-0.6049459422396194,nm,0.0
42.14041471481323,30.03036269434654,-67.57529838371177,-124.1776552410058,1.0436264682283816,0.6132837919193054,-1.1459044785021444,0.661364901344943,0.3962443063118626,-0.25563471644120267,nm,0.0
42.146400690078735,24.303038152394,-65.74027033496061,-119.11872080733937,0.9774670690901971,0.6604825220095437,-1.0816144209283125,0.5382539487388738,0.18744649304806138,-0.025608233827735985,nm,0.0
42.15212535858154,22.25090626020498,-63.611921447548646,-116.64004098492664,0.7071833501423699,1.0680879180932514,-0.8752342194161359,0.4463041977148778,-0.05058736087974593,0.1367895463660077,nm,0.0
42.182443141937256,26.017236507663686,-60.97079205203175,-116.01934914926713,-0.24166486611097934,1.3755155596282787,-0.8956454021801742,0.011416867297920854,-0.3364952210043771,0.5165272768105806,nm,0.0
42.18421006202698,29.68676065402649,-61.10087566979753,-115.64247896112806,-0.5798343933532669,1.7054574236544728,-0.9287431069261772,-0.19049042672184693,-0.3169268617618228,0.7200676356495396,nm,0.0
42.18980026245117,32.95210207843275,-62.16641158764273,-114.31525481705472,-0.6828869444914508,2.228581444999692,-1.2354640107819062,-0.33619062270216626,-0.20018732590818378,0.8544869347036191,nm,0.0
42.216774702072144,38.17791412003235,-67.71240729193076,-111.63222257839766,-0.8063173109211803,1.3732801507778245,-1.8734742816976078,-0.6946664360086503,0.038144980448986475,0.7786830629010248,nm,0.0
42.21849799156189,41.10053277589997,-71.20631518719335,-111.57829549349893,-0.353617293599699,0.4654537618807848,-1.9185347649086106,-0.7361392184649292,0.05882160296553315,0.6324075368841289,nm,0.0
42.24211502075195,54.00233148918204,-77.08506304711942,-121.6139943533706,0.4678320463898069,-1.912985300166215,-0.61002948436113,-0.660496011397237,-0.12461640465892544,0.20601105749011372,nm,0.0
42.26121926307678,71.94160991360815,-78.40725350158066,-140.49278847269517,0.3138885513772264,-2.3143443886850177,2.364910005953978,-0.22165749581028651,-0.21772388141640076,-0.2182708244367372,nm,0.0
42.27910351753235,75.53628515602082,-77.45827726846986,-146.05350678372764,-0.17271054366400018,-1.6486742840912896,3.4542633294727487,-0.016266814276941825,-0.251411464863131,-0.40438926306301726,nm,0.0
42.281150102615356,76.2980219914836,-75.80789279447785,-149.4885075681711,-0.3201857821860774,-1.0149205172460067,3.6423890662497334,0.13652491076240947,-0.3076520302940263,-0.5351342151631524,nm,0.0
42.28508377075195,73.91710790259927,-73.52403762044267,-150.35471472228755,-0.35396648448574836,-1.048869440379217,2.8047169876277853,0.3277650554232522,-0.3413536752922919,-0.6435560120961155,nm,0.0
42.31108808517456,64.97166980469159,-68.88331215058237,-146.81394372949705,0.07724079945799964,-0.47679575220689585,0.9665873632205925,0.5014353112353901,-0.18897418739412655,-0.44359532700629534,nm,0.0
42.319191455841064,58.11780460109989,-67.54141957164853,-143.558377977844,0.16728108209328202,-0.5114100529917478,0.15868237590042375,0.5587874201161286,0.06321659150686021,-0.6280426905841083,nm,0.0
42.34066605567932,40.46303897334449,-66.25273698818428,-131.04630971619696,0.7277266774904159,0.7155455492667885,-0.7244177627260195,0.6113363707492572,0.4345942805582864,-0.2382605464334622,nm,0.0
42.34572243690491,30.624658438663868,-65.07760536789681,-122.66327315053046,0.7360956916002775,0.613509555016547,-1.1903460075044805,0.6617869510585116,0.5007313810040481,-0.09564752254735165,nm,0.0
42.38127017021179,18.814631690077633,-61.016267489905104,-108.4775851938684,0.35960076842615146,1.5543569824888968,-1.111156717987448,0.2073827482273587,-0.0061198353398159745,0.3187679138233193,nm,0.0
42.382994174957275,20.849241231969806,-60.95772048884308,-108.63043448957443,0.10545672019096353,1.9698048940312198,-0.9516573170515876,-0.06381732218505622,-0.19888659540835846,0.3418180553477247,nm,0.0
42.39826822280884,24.604146411233987,-61.836678663690904,-110.25073552078533,-0.14172463627829035,2.176539530019771,-1.0275165331403757,-0.2972804925711356,-0.28916016180583765,0.31742144124101285,nm,0.0
42.39998984336853,29.176133196682034,-63.450268269832165,-112.52174957280633,-0.3857691182073529,1.8857725927577544,-1.455839673024477,-0.46516658743833217,-0.2831640816793832,0.3115342552929475,nm,0.0
42.42262530326843,38.55011122939315,-68.38736032597475,-118.17414144254474,-0.2477272698798157,1.2096307694402408,-1.7793408875056882,-0.6425708650707049,-0.07466229663374221,0.22904541778150284,nm,0.0
42.430766105651855,42.636674768475,-71.08978685770549,-121.48449727294363,-0.01246465563838313,0.24879483016266898,-1.6696644484243255,-0.6216376114964806,0.01558362370316651,0.12908482000359822,nm,0.0
42.45642423629761,52.49728200495681,-75.09997599003242,-132.36507665539906,0.48509292023767964,-1.6499452727338448,-0.4230102200859568,-0.4522400112290127,-0.027022322799848078,-0.24287738291023653,nm,0.0
42.45820879936218,58.41934830023818,-75.58646335900228,-140.12456378847392,0.4315390867692009,-2.001462178843704,0.7769204632453043,-0.29523629349390484,-0.14387172762506245,-0.40121737191567514,nm,0.0
42.46717977523804,61.78982149317606,-74.58514463355364,-146.17466197389896,0.0044054645616132876,-2.411908005730507,2.0572084476877457,-0.029849670537591317,-0.2713929135426207,-0.5833373343951255,nm,0.0
42.48883557319641,65.3461212289373,-69.93346920459176,-154.53838881681617,-0.3567737565784309,-1.5643036423152261,3.68437145238649,0.1204217326709843,-0.5174458514681006,-0.5114648595232297,nm,0.0
42.498093128204346,66.59588938307638,-67.25993302019417,-158.44631344370399,-0.5344418838505706,-1.2078653584803085,3.0623999518204155,0.11795287929802854,-0.5327594295760512,-0.5907802611400792,nm,0.0
