timestamp,roll,pitch,yaw,acc_x,acc_y,acc_z,gyro_x,gyro_y,gyro_z,markers,motor_input
28.551095008850098,-95.7460842043395,-9.116815902560447,70.70673773679117,0.9310386120162571,-2.90559470577394,-0.3062012417146224,0.553119281085704,1.0122482989004513,-0.34707843671320354,nm,0.0
28.579664707183838,-53.80028080296819,-16.505613805746187,63.543649268606885,-3.291995853422098,1.4918868522173658,1.1458272827494755,0.1715658772080103,-0.1751700875330668,0.15546507446459085,nm,0.0
28.58864164352417,-58.009228858699146,-18.013281845097183,63.68860508295692,-4.560987520166185,1.735196317265459,0.8392049160313226,-0.0747372400245466,-0.8553962089024427,-0.24446233265847256,nm,0.0
28.60941505432129,-72.53612656615155,-20.80228444319488,62.08015625927312,-4.359494978391541,2.4420502811810016,-0.49409508089698995,-0.41894223227558647,-1.3984880631587147,-0.7676719205481282,nm,0.0
28.611202478408813,-80.75281337956444,-21.6672961921282,62.69446018399558,-3.882802640725716,3.4065286834995256,-1.3218842002557654,-0.5398602087100769,-1.4433259777541316,-0.6237422017734472,nm,0.0
28.62017273902893,-89.24177349471104,-21.608122239747445,63.621447616328496,-2.144561204633638,3.2975887376142667,-1.7117859218079132,-0.7079944995362922,-1.4092981387386152,-0.5920370642637869,nm,0.0
28.644562244415283,-103.29812880622626,-19.011984902091232,65.51185960426314,0.6564001647605131,1.336042416803688,-2.2648073368116846,-0.8167437448187256,-1.0061692431220126,-0.3299496162893444,nm,0.0
28.652615070343018,-110.08117028701072,-17.16136439417323,67.23257283120013,2.010802002947811,0.07546441864121678,-1.5481353337149661,-0.849045256864267,-1.0359065755923513,-0.18123786599171376,nm,0.0
28.670867681503296,-121.80907342130281,-13.25137191645763,71.39863211868095,4.068153332760172,-3.0841762533218215,0.6754173532076219,-0.7553583973007177,-0.8722115002030048,0.11492558030812097,nm,0.0
28.678671836853027,-126.47379802557963,-10.490169659291617,74.44017266338216,4.003447080048502,-4.136265099646075,1.6359881753578085,-0.795572637043258,-0.7083639871926042,0.35516621224789874,nm,0.0
28.701045751571655,-129.25215760138317,-6.2013575360801765,76.79016526441708,3.6486501017396837,-6.00059388292633,2.2381161290099,-0.3015696248714146,0.054864940875270024,0.04645442512520931,nm,0.0
28.707212209701538,-126.54692413560367,-6.7161612210402835,75.20502243577566,2.729839199374749,-5.497180192064908,0.8643630522434771,0.23005194325239406,0.5032216310768912,-0.19899446995419787,nm,0.0
28.731481075286865,-116.95054053032592,-13.84528119652008,70.27338301026116,1.6441136039100124,-1.584845553097833,0.07677953522678663,1.1107598337801998,0.7179862926476084,-0.20246405867269793,nm,0.0
28.733737468719482,-108.65187710361354,-17.788427824920813,67.92160150225007,0.8155694081101457,0.46790477380648615,-0.9133648610546474,1.3122765910947976,1.211331899548681,0.06032853513690933,nm,0.0
28.743706703186035,-99.84038374210839,-20.904267064797306,65.59188950640124,0.14456991968072128,2.8369473318470204,-0.5211069566290183,1.2366934946296322,1.281156365710132,0.2025655137371226,nm,0.0
28.7662250995636,-85.07092853081066,-22.232339174026983,62.51814264196667,-1.0372438998526654,3.016014554142905,-0.030744631661675886,0.5302151278730339,1.1289890268808467,0.4349609645126237,nm,0.0
28.771668434143066,-80.53270739672449,-21.12203200624489,62.9995552057517,-1.6114720562162665,2.047904067510515,-0.0074071210471902465,0.19889966340725274,0.851689250812877,0.5089755554829716,nm,0.0
28.790244340896606,-77.02125759306165,-20.08022345517883,63.97736099659713,-3.1160580980596015,1.8430183406535823,-0.3489620012576875,0.11692033474179193,0.6817356587630758,0.5047421302753804,nm,0.0
28.805248737335205,-75.80071705202094,-20.308070954149112,64.36932571118265,-3.8424980967569753,1.6870098457388514,-0.16811997533826628,0.07845167446255576,-0.1054313113143975,-0.031000279969448288,nm,0.0
28.826786994934082,-78.69566455580502,-22.327161223050258,64.03684664859084,-3.1980259082634115,2.86753860670546,0.09614578204633786,0.022703694755685795,-0.4185421428909589,-0.1432061680941249,nm,0.0
28.82854676246643,-81.84819955402038,-22.573331944131816,65.07805349873458,-2.0448280940908066,2.880570376167357,0.2995884435812729,-0.1979164349191211,-0.5485674468570562,-0.06249012566375871,nm,0.0
28.852274656295776,-89.36899959705073,-19.53969071605842,69.30393186135362,-0.8146692368617411,1.80682857308988,-0.6544966811511027,-0.6625184460832881,-0.5530150534918908,0.16113569284459972,nm,0.0
28.856874465942383,-94.16132866686652,-16.796895076245004,71.96876998257011,0.017005553854724475,0.627006706338306,-1.0338206472047642,-0.8126908131694383,-0.6786408861971077,0.1712572516377219,nm,0.0
28.883482694625854,-103.84206047509369,-11.3951187186033,76.30373689129354,2.6667771465984815,-2.533695784373753,-0.5678181872001813,-0.718949050307256,-0.7513124802393278,0.11687678192248015,nm,0.0
28.89225196838379,-107.6380148380996,-9.255511758417486,78.18733204067416,3.5664479079696054,-4.034844833546726,0.3805075879588022,-0.5783443736988924,-0.6316054026335397,0.1821806361028083,nm,0.0
28.90858268737793,-107.83333589630487,-7.534669842739299,79.57823210807666,3.2674825014758957,-5.852832746046823,0.8181122358229767,-0.0033231954764364273,0.24561208735972126,0.05592180706285794,nm,0.0
28.934187412261963,-98.07932357626744,-11.940820525996845,74.64175525264804,0.7579566093979108,-2.65986017232754,-0.4135615817598135,0.8492079713269313,0.9507336151383086,-0.4146096750814512,nm,0.0
28.936004161834717,-91.36325053348158,-14.766257343537601,70.14487785207793,1.7952271949680352,-1.2689441917933837,1.2797442129935033,0.9419842109818445,1.077184148884949,-0.5396498862293794,nm,0.0
28.944804430007935,-80.75797501897877,-16.26926163347001,65.322444775774,0.053867621582106666,0.9559421216843013,0.3917285022358762,1.0655729288733227,1.7777482923890175,-0.32038372958921274,nm,0.0
28.951890230178833,-71.28201236996782,-16.697297721715127,62.14982700702308,1.286330869265885,2.4268292359215504,1.2349270310429854,0.8960856266815942,1.590815980138655,-0.013290450743571578,nm,0.0
28.985791444778442,-60.78154134502692,-16.167589012009355,62.70539879675396,0.16270835157234206,1.8139191587126338,0.9567817515133402,0.29922831993996185,0.6267412600786046,0.4903210044780317,nm,0.0
28.992616176605225,-58.63472346708465,-18.686777982156254,66.27899399716048,-4.210271296380782,1.2607465640829552,0.48907545809124575,0.32443815761486217,-0.15103101765560734,0.3805470323883193,nm,0.0
29.01199436187744,-69.38515969125488,-22.335601762446473,66.44857362191627,-4.298366238761311,1.2102317994654568,-0.090231697115834,-0.12764631510302676,-1.1490905848230049,-0.5762584171321065,nm,0.0
29.02139925956726,-76.1732841222924,-23.29036757250995,66.53574282669042,-4.498400075325987,2.3076847767881254,-0.8705804938737896,-0.3107533576309891,-1.2269300076084733,-0.6051143992833834,nm,0.0
29.04889678955078,-91.23940491190415,-21.574294236766722,68.2664444286687,-1.6662005477468338,3.5715160957558774,-1.2050773553338836,-0.7687101039475996,-1.0958428201709887,-0.49930076576236,nm,0.0
29.050690174102783,-96.59857952125697,-19.165050750465365,68.8655094368599,-0.3355212084560077,2.800426427128758,-1.9318132785462983,-0.8087739468528801,-0.7618603183502494,-0.33053864323777504,nm,0.0
29.05844759941101,-101.47230102603494,-16.70896239861205,70.53085229593255,0.527975249631289,1.805301867390733,-1.7774641139210448,-0.7772217731383729,-0.7000299495264998,-0.022751504435026753,nm,0.0
29.080825805664062,-108.72233749184338,-13.765221917708393,74.40798790277121,2.146401385988203,-0.9872680424320938,-1.0823509474074635,-0.38358587962100427,-0.5606722867406155,0.22711549945902795,nm,0.0
29.0874445438385,-111.288930603552,-13.132587557131101,76.704103950604,3.196722008651743,-2.559400020175765,-0.09378461586605341,-0.24569705891278845,-0.44823385552734535,0.3539134512048171,nm,0.0
29.10833978652954,-111.39599875467376,-11.39271018101045,80.74677237331618,3.676219519925955,-4.612584602580755,0.9484379356079873,-0.14227945677354303,0.2352181259822042,0.3751138397667602,nm,0.0
29.133472681045532,-101.58237637677955,-11.922853632448572,77.51744084973433,1.8572739481340672,-4.32268246905035,-0.8415786190139953,0.39556279106829506,1.0679885610653124,-0.2022406483616806,nm,0.0
29.135385751724243,-95.1148387307058,-13.795747259267184,74.10790793078425,1.334374224336459,-2.514611755433966,-0.2023615012563347,0.6806138134625936,1.1334865365518385,-0.3195480386015215,nm,0.0
29.144336700439453,-85.4665519550325,-15.736116450729083,70.07658180515746,0.5439418961874101,-0.8037111691175809,-0.1575749949717311,0.955224032347997,1.6572236865802226,-0.22918935852993275,nm,0.0
29.157615184783936,-74.09189121840666,-17.425766255906716,65.8844971283835,-0.9447338874384702,1.837765385177318,0.3201046876583901,1.1464375224915746,1.8935263917631546,-0.09475980669236202,nm,0.0
29.161208391189575,-64.48986036605072,-18.668324855022902,62.48206174369106,0.27415440121023454,2.787744992522561,1.7156521134530363,1.0348901579991616,1.5334824357441545,0.0021894875907265098,nm,0.0
29.172449588775635,-57.37933263305345,-19.39291354104105,60.715373104573914,-0.6254927343389644,3.505346411845641,2.2173810750858354,0.7820761939855083,1.1118149047185246,0.18498039899496707,nm,0.0
29.1983802318573,-52.791424875362004,-21.156897832790676,59.859416597660115,-1.9408098106785139,1.1809858972937266,0.9638963457204056,0.3168943551202199,0.07408926818596584,0.10287697775414445,nm,0.0
29.216521501541138,-60.58638092708834,-24.413584849380854,60.39352467478134,-4.7314013335882565,1.1688943116046386,0.45604410213221297,-0.25458277913954624,-1.0692804782965797,-0.5029869254780798,nm,0.0
29.218422651290894,-67.52923243310877,-25.065310776696492,60.61638978768171,-4.14185924594414,1.3337323720566843,-0.08896316254841838,-0.49347807140100386,-1.1672060316705393,-0.6321068449990807,nm,0.0
29.241268634796143,-81.92684967816302,-23.0721407944832,63.24542041295457,-1.8645934246468687,2.344855127719874,-1.3207298474469467,-0.8901966634843939,-1.0546328966175753,-0.37592626327038625,nm,0.0
29.261064767837524,-91.48456883448485,-18.59252486135803,64.87360718278887,1.2937245443693473,0.5976642550715472,-1.8616926850661477,-0.6918564228014223,-0.46914086309539693,-0.13723774295193078,nm,0.0
29.26891326904297,-94.78754780973128,-17.426462311929356,66.55287624236382,2.4951206869656435,-0.3276706576021836,-1.471609619140982,-0.4658614759149447,-0.47598552268953553,0.12618976878408808,nm,0.0
29.29155421257019,-97.09986934654233,-18.387528197893307,70.68681027100091,4.219539971303375,-2.14004068406576,-0.5498715803401396,0.1659439242767979,-0.09529917513259838,0.4243347932252932,nm,0.0
29.313588857650757,-90.45548806415802,-20.37303193289496,73.31293097102113,3.0319309651048063,-2.975934631966035,-0.6502694062438852,0.4330698391283126,0.8271297359669803,0.5741459810825681,nm,0.0
29.315572500228882,-82.36642558255318,-20.8271014049864,72.07290979579408,0.6839754358745082,-2.7923271434478263,-1.2716051568217597,0.5501912716090795,1.4192587092696636,0.42186319596953037,nm,0.0
29.32463502883911,-73.02831936984329,-21.076503089152546,69.09101014540134,-0.48448710890501684,-2.651594053049014,-0.5620474074704624,0.6427119622541552,1.6278589372114407,0.1757618939196769,nm,0.0
29.333930015563965,-61.84067517248009,-20.99973909515827,65.48994737982775,-0.8302789214038988,-1.6481796255716048,0.6665246007875637,0.8116651269610833,1.930552465154482,0.19246869860514149,nm,0.0
29.355406284332275,-38.08377844129974,-19.80187950796557,58.02084165036961,1.0427614917775676,0.7838290596612911,2.2436834823415683,0.940928353784709,1.852067671241946,0.15085122960554403,nm,0.0
29.381117582321167,-25.53735587592126,-20.391212175924718,56.416809845036994,1.2290007714032591,1.3389078257271896,1.7628614405896383,0.5301351733806234,0.4968401752812661,0.31733526248810495,nm,0.0
29.38701343536377,-25.83669111217036,-21.70509743317135,57.09926972244917,0.9298533102946888,0.24231847066254503,0.7924742841665219,0.20313475266722514,-0.19242393718075754,0.15786178287930758,nm,0.0
29.411208629608154,-35.21688648447691,-24.728931794390142,58.54900917639012,-4.711762898484489,0.7445815969207549,2.057485759769691,-0.41491068930628744,-1.2585046794570494,-0.5372240837136107,nm,0.0
29.412994384765625,-46.420106603537555,-25.371178226009288,58.592093222955405,-4.808298483480474,1.174776837998246,1.0203202909005775,-0.9259922995774187,-1.809578984892525,-1.0892987162379455,nm,0.0
29.421432733535767,-58.30287514662215,-25.555592079518696,59.29843124060272,-5.646829255604054,2.4828456971725625,0.28694784279420893,-1.0491020893426055,-1.8711655606376922,-1.0801532136398952,nm,0.0
29.428476095199585,-70.6713966859725,-25.350970991144408,61.36273652364238,-5.389140251564926,4.159623293560306,-1.2750605888894941,-1.1154452420654226,-1.9346818429454835,-0.8536402399161321,nm,0.0
29.450572729110718,-92.65983591964684,-22.97923046590285,64.25666978750938,-0.29788604949073894,2.580917624060133,-2.6148055942675485,-1.016454777990636,-1.4846578509869237,-0.7362252870245267,nm,0.0
29.45935368537903,-100.4553665479194,-21.810333944099956,66.23524887002812,0.9089283119490345,1.4009335878441027,-2.910743762080452,-0.8051181901851767,-1.216628986652014,-0.3295181069544669,nm,0.0
29.468238830566406,-107.63082424296532,-21.130323953808386,69.15348393385696,1.857806367969423,0.39964860863503815,-2.211115954037882,-0.62538184175597,-1.1863054373853792,-0.03591254836816277,nm,0.0
29.48773217201233,-117.35573581940626,-20.853717925305133,74.07852310896553,3.8696667505667963,-2.2674092777237,-0.09313160323857911,-0.25789600499873205,-0.7221549442851302,0.2141332603313146,nm,0.0
29.503203868865967,-120.57560803312458,-19.841480654038516,76.5862318304338,3.7627144951851386,-2.761868031750385,0.646602433416361,-0.3495754686616516,-0.5304833028582774,0.2832777851809404,nm,0.0
29.505051374435425,-121.79864207874624,-18.148352148124506,77.71045187520667,4.134305667994315,-3.8196022929747206,1.470869738859417,-0.3831447508088385,-0.14641133819965502,0.18349769163682317,nm,0.0
