timestamp,roll,pitch,yaw,acc_x,acc_y,acc_z,gyro_x,gyro_y,gyro_z,markers,motor_input
19.529659271240234,-39.67859699667924,-17.752553875956796,30.79444739932797,1.7833975269067692,0.978804868843463,2.47015892979353,1.429010101770111,1.0996560052145061,-0.8617645978614087,nm,0.0
19.531863689422607,-33.22620671895844,-15.888134343321987,27.56962311357625,4.072557710822791,1.7452154446782997,2.292083886342527,0.910565684141552,0.9197194502116495,-0.23841549993120661,nm,0.0
19.54060673713684,-30.566000093397857,-14.392691763364278,28.610819759256085,2.975913753344738,2.4779219045091674,2.0071621422676964,0.3254717794685243,0.4981516031816786,0.3915160348483618,nm,0.0
19.562183618545532,-30.555575247143828,-15.079119707946724,35.55415988388714,-2.089121768165846,2.245695211015592,2.5240531843712155,0.12354072289253863,-0.17053381919478228,0.8200341894879507,nm,0.0
19.58673906326294,-47.0716549371839,-16.725595786393857,38.63250372796806,-3.827476259056985,1.1288025973744549,0.2556941409544346,-1.518179071724337,-1.3269267193318,-0.6246134050423997,nm,0.0
19.590100288391113,-55.87699356533748,-17.46023473150342,37.997478215267336,-5.1404025559908115,3.1773488034784223,0.14615519365168828,-1.2153502354013421,-1.1711332548591373,-0.7457518337088982,nm,0.0
19.612199068069458,-77.71906497542713,-19.440575872888246,38.815988518165575,-0.19059432850555283,3.5640864246598394,-1.2853028186065998,-1.626415902585556,-1.479417023588232,-0.7346285556919334,nm,0.0
19.61434817314148,-86.34662414883364,-18.60930497165655,39.503555183281584,1.3109861479356408,2.947326110585228,-1.9100659751967415,-1.3612532977666572,-0.9099662874764348,-0.5023195587602609,nm,0.0
19.639132499694824,-94.22743257892756,-16.97062566009322,41.40751402804533,2.87911054165317,0.8499444810250324,-2.20494930981151,-1.3489597186948101,-0.728531846077296,-0.12621354749487554,nm,0.0
19.65583324432373,-103.92643805802497,-12.628531419852706,47.83455276741664,3.4451956246836186,-3.0253216134771175,-1.1887756877370022,-0.7726153373949987,-0.13827170879335499,0.5357920787079691,nm,0.0
19.657598972320557,-107.22822377498734,-10.183564382416778,51.91464017916669,3.2698647768616524,-5.8265655700575,-0.07527476299088844,-0.7879399612220453,-0.17567317158857904,0.7385022457337429,nm,0.0
19.665516138076782,-107.78716494979729,-7.832286633015361,56.547665530603474,1.6767381915670698,-6.5722326249387795,-0.1549954297744672,-0.4420132185172902,0.19049459054287812,0.973707626064341,nm,0.0
19.68711256980896,-100.43218562128627,-8.831669977721859,56.93135200533047,-0.9593638259174205,-6.844081460011797,-1.5893830158603026,0.7922652963971449,0.590515165040815,-0.15489186133188573,nm,0.0
19.69016671180725,-93.54193519975847,-12.837895888082212,51.6290269486858,-2.194164936797733,-2.344949484478466,-2.4629941612471,1.4484221619154145,0.632907884385034,-0.7765528993263149,nm,0.0
19.704349994659424,-86.73129190225325,-17.190766056247988,44.53961503996861,-0.521983144013777,-0.17931798676294833,-0.6772296061719509,1.5346334310541612,0.39868300278438007,-1.0680829183613074,nm,0.0
19.710360288619995,-77.66497127661147,-19.802171679100056,38.02418492613281,1.5483602899619167,1.6761168397525539,0.6301322671603192,1.6451549999972133,0.7407108820406931,-0.719777368837172,nm,0.0
19.73316788673401,-60.79867478711264,-17.741621639860025,31.389175948115135,3.2786598642088816,4.128561063113222,2.387848691197252,0.8492868804906069,1.0508742765992207,0.09589549797269366,nm,0.0
19.760339498519897,-54.35981514845066,-13.866112121444148,36.934121161294044,-2.2040426224232816,2.612120285571982,1.1466097104455628,0.21859988436838693,0.437638338591478,0.8902770178567833,nm,0.0
19.76225996017456,-54.30712115343293,-14.352207914345787,39.676338541342545,-4.976678478575506,3.3412037902965928,1.4976855295119051,0.07943534318933533,-0.07488084047737281,0.6095359487106043,nm,0.0
19.766603231430054,-57.01294157880538,-15.91235913924184,39.8183700171906,-4.118616691771479,1.1612534422523124,-0.04588040501345094,-0.19170905805582011,-0.5791916900133697,-0.1044874691877799,nm,0.0
19.790608882904053,-65.2344272873341,-21.085921736010476,37.18942500943323,-3.096519637092081,3.1602385833971294,-0.002866800551139746,-0.39253376065941237,-0.9957154878598306,-0.6399592268205736,nm,0.0
19.795382261276245,-72.11129634021967,-22.571376742799398,36.933044550561824,-0.1424757433650445,2.255836086144978,0.21101161348141728,-0.8303362393078644,-1.0146807734763519,-0.6220619239327728,nm,0.0
19.819654941558838,-84.33717459918508,-19.141462006532294,39.51829817450719,2.1748777764283425,1.4524930485097372,-1.144013719716115,-1.231520483939471,-0.3048921090328898,-0.08895721276210083,nm,0.0
19.825905323028564,-90.27460889315797,-15.491962907807512,41.75332436893537,3.501650993083981,-1.417982437556582,-0.933264051145944,-1.3304815444121998,-0.18560998416222815,0.1153653557458626,nm,0.0
19.847749710083008,-95.9168370855546,-9.28707873378009,47.66039229783878,2.693780878358741,-5.2872211530305835,-1.1895807808311496,-0.6545346266430878,0.0707794160986316,0.657944203101893,nm,0.0
19.852819681167603,-95.53659162870296,-8.451890174061463,51.639451881939756,1.941920719014268,-7.035980838905989,-0.5805309246192568,-0.07189487201209024,0.16766587998879715,0.8540641961792879,nm,0.0
19.881242513656616,-74.90897900431307,-18.865963273501233,45.081457952256656,-2.228374486201328,-1.101190984477406,-0.9599548075960059,1.844688790225967,0.7088366667959974,-0.7693768401617165,nm,0.0
19.89384651184082,-65.9129786671486,-21.61831233681382,37.07476351370734,-0.3168754816768672,0.4833204388144243,1.3921146214723226,1.643336973968415,0.6932281802417165,-0.9951819423543821,nm,0.0
19.914743185043335,-49.21798447663212,-19.603651336847427,26.740594686436157,3.414675518882813,3.802641357952419,2.717329044949139,1.0242015674229286,0.9765793269226948,-0.14187182456272376,nm,0.0
19.918524980545044,-46.4676576157515,-18.012568776656426,26.89706015597917,2.2269599738059274,3.7624640525502926,1.8203702895908336,0.33271697714427567,0.5111558695899846,0.26085980361604555,nm,0.0
19.942808628082275,-46.89722806188128,-19.85936299792201,32.00756060502607,-4.272711312417187,4.067666836658369,2.1669550412053784,0.052618931228747425,-0.3945160869095695,0.6334502107179728,nm,0.0
19.94809317588806,-54.258031255359725,-22.005995960012118,34.74875081863565,-5.345894608618156,3.9065631525528155,0.8184418082755037,-0.9018667781717589,-1.123348790478537,-0.0034017822479345356,nm,0.0
19.972480058670044,-72.98355358433045,-24.3615555409624,37.241625257021965,-5.289484741179388,3.7829797170392165,-1.6957957986605494,-1.176650617099483,-1.1339840099254548,-0.5167702269092334,nm,0.0
19.976290225982666,-83.73627058816871,-24.44585193531194,39.16407890519325,-2.3205642677512524,4.055334690315203,-2.378979178130876,-1.5188987688583435,-1.2356899836138289,-0.5932937164948319,nm,0.0
20.001354932785034,-102.33551555373658,-21.15268154215616,40.38039618639454,2.2553976616692917,1.160133381438035,-2.1047546690705126,-1.4096129582880927,-0.6544392021965869,-0.5669455193888446,nm,0.0
20.003159761428833,-110.64397231674559,-19.02800279531468,42.15078254991591,3.8996175011130534,-1.2691182456376506,-1.0035493386627359,-1.4505841579846424,-0.7117489930607303,-0.23616777244513168,nm,0.0
20.032804489135742,-124.38784638410185,-15.875893342290727,49.09141020578332,4.028512846776006,-5.194779107756867,1.765773324160652,-0.9977289677770051,-0.64324960127583,0.45762502627567136,nm,0.0
20.035025596618652,-129.4294392046296,-13.961636761572892,54.137806224665,2.626008134701637,-6.099438856432535,1.8604885869338317,-0.9066150791636178,-0.5205165024390775,0.7843749378896454,nm,0.0
20.045238256454468,-132.64913353425538,-11.891651769638475,58.34739044576038,1.1556767784910509,-6.089594438888748,1.3618694434941985,-0.6949737227821248,-0.28490295058997217,0.7460296524028758,nm,0.0
20.053366661071777,-132.63039916377306,-11.440156172795627,58.45488060621053,0.5204516352945221,-7.091623552289891,1.2527577666047347,-0.07579379697494172,0.056918131236504556,0.07648357386535823,nm,0.0
20.06151294708252,-129.35787702795062,-13.159479002311539,54.46935983347311,-0.1678211557101698,-5.41522020043156,-0.745988886691932,0.6409075364138643,0.34826269325181514,-0.6165525944624054,nm,0.0
20.092691659927368,-116.61944873815983,-20.525031439438873,42.83386500654744,0.5210453161398758,0.04605627510189144,-1.9387429499491355,1.4494624478157894,0.4067928283231486,-0.6055972140260728,nm,0.0
20.09450650215149,-108.27985772372077,-23.658373777490677,38.945282993098715,1.5317706198474268,2.4817003468799745,-0.8122582409782145,1.582203110426177,0.5377246839206131,-0.10879850459814916,nm,0.0
20.098815202713013,-98.2642477680828,-25.662621248779086,35.78438288966492,2.4795315735194707,5.985563379022398,0.3910832694425603,1.6955104641091334,0.7829804381699004,0.258482326297629,nm,0.0
20.1078999042511,-88.68943945834023,-25.476351941802523,33.463125248317766,1.6733144577464987,5.338056465512156,0.923479055067451,1.4085678072863916,1.006177715312111,0.4334541325474298,nm,0.0
20.133891344070435,-77.68352133855633,-20.737080357085187,37.48960910346292,-2.94832443719032,4.594282900055148,0.5457235644239736,0.34267008671674665,0.8503950830683491,1.0277492345921466,nm,0.0
20.136637687683105,-73.89549618876269,-18.928380530038257,39.958586431556995,-4.674173866358769,3.4560946682160276,-0.11504325707953342,0.34109194129175496,0.7241016189274881,0.8468993620565809,nm,0.0
20.16306471824646,-72.887330214945,-19.881724357312525,42.057930422649,-3.908874013557652,1.3081048302607354,0.03170553690290724,0.08237787439587768,-0.28000968998471276,0.1219378823227479,nm,0.0
20.165189266204834,-74.43513490874324,-21.61928542429531,41.62912664143366,-2.508462020395133,1.8249393506788345,0.287800913359258,0.024069566087025752,-0.456183659627926,-0.19091783421642258,nm,0.0
20.190150022506714,-82.82308368625526,-22.74190188383553,41.295042129382786,1.9601172413588428,-0.15575211279216913,0.3816229364411122,-0.7052800377846233,-0.6215905749261048,-0.3099720567757768,nm,0.0
20.19904136657715,-87.9914512324024,-21.100623474756897,43.28363352206682,3.364902308663467,-1.0534663959072639,0.28399908436946925,-0.9247777263882302,-0.40608502489860676,-0.002686447549224286,nm,0.0
20.21911859512329,-93.64013915866644,-14.468941991857712,48.15571990324984,3.9897123558716276,-5.075827808081724,0.22494770461380645,-0.7044303506076297,0.30339048727711243,0.4786925826234648,nm,0.0
20.224663972854614,-92.18215730165815,-11.482726814932795,51.59626522035765,1.9873900033704328,-5.613780057820241,-0.5215629121614355,-0.26548446820594834,0.6047514734824299,0.8306651126911616,nm,0.0
20.250805377960205,-79.40974520142446,-13.634871791682489,53.30811537430554,-2.5838916255243145,-4.393392490865712,-2.252225686913431,1.3829296220685823,0.9214169363990031,0.20027155553009923,nm,0.0
20.257370948791504,-71.09882316116685,-18.62325414668823,47.94446162259639,-1.9838626973220665,-1.917540427920269,-0.4257965833575891,1.7945955878070607,0.5997970919635869,-0.582388571015963,nm,0.0
20.261281967163086,-61.229763357011706,-22.738261118845788,39.838020752337954,-0.5435976223125853,0.39918226237827203,1.875393719192407,1.9118168881725066,0.6847354465969938,-0.9112516318561958,nm,0.0
20.286568880081177,-46.03807992793648,-23.181180280674578,27.435353984836947,3.59768843639739,2.41435356649472,2.4197663669743066,0.7968036515055534,0.6088011639701072,-0.40169888189404745,nm,0.0
20.30556893348694,-46.821399566982954,-22.675546406417368,29.54664342347439,1.7668841006132083,0.8215594013566758,1.3431241028442578,-0.22367200944641566,-0.14897864795932667,0.3319111735845893,nm,0.0
20.30882716178894,-49.36544140370571,-22.81071024948941,33.99623473868866,-4.180325010094951,4.494617588804612,1.9969990206854866,-0.37510462324009924,-0.2768000663355254,0.7183992497825342,nm,0.0
20.324537992477417,-59.02888677764265,-22.436401482791823,38.084313100534935,-5.455865401201635,4.810408798115792,0.15480422769363866,-1.47771853947474,-0.996628734786637,0.06739347753054967,nm,0.0
20.326677322387695,-70.66946675837826,-21.246292160991533,39.46377024735244,-4.209427383646903,1.7908403220157378,-1.1955962829885447,-1.8219529383312831,-1.181875468391576,-0.6801756493636334,nm,0.0
20.352626085281372,-89.22269159865013,-21.25958326501187,40.58799652057492,-2.5235262259389204,3.8905422161994485,-3.6605076099977647,-1.339934850525305,-1.3109629933215763,-0.6863776237765726,nm,0.0
20.357149362564087,-98.95363369540931,-22.480130112580127,40.727864486978866,0.6868768884421169,1.6376861972441945,-1.9296893604716183,-1.201780246701288,-1.3704596375368794,-0.8056768944943787,nm,0.0
20.365242958068848,-105.54733172076955,-23.45068498433365,41.25762417395562,1.9765722298958623,1.1877979024055867,-1.80012137909362,-0.7840293961272796,-0.9468295558792076,-0.4784660236041974,nm,0.0
20.390692472457886,-119.06229139538561,-21.7975102902628,47.105160745772096,4.486121386009376,-2.7995818082519968,1.5928575242066276,-1.0781793845324417,-0.6399128012541384,0.19358351682252767,nm,0.0
20.394145965576172,-124.23244813913867,-18.999407720161713,50.494470648855255,4.189560537641333,-4.592676238174496,2.383515697337366,-1.0605563921950159,-0.3561663908539649,0.35985241743363056,nm,0.0
20.42040991783142,-129.44372011751946,-11.439705968521116,56.27914292974114,1.6785282478693095,-6.374167485519471,1.3639153585769548,-0.7976459870485451,0.1764782217576927,0.4868440678740887,nm,0.0
20.42224645614624,-129.5835609834181,-9.53295425855972,56.281879770294196,0.17037854976467703,-6.9860710197191,0.39343759749549256,-0.3322394895064293,0.19612800679970058,0.062440074476519246,nm,0.0
20.454367637634277,-123.66790357117694,-14.918483723363902,48.807132546715955,-0.3269591104153481,-3.2687188634803275,-1.8903561833617275,1.1241783947921355,0.09923857138960626,-0.7314535921539902,nm,0.0
20.456300020217896,-118.26261758807696,-19.42281083773381,44.54969717103651,0.5962538592135659,-0.34126724492816274,-1.7603035530677886,1.3666982995153936,0.13599064855340295,-0.5050717328160818,nm,0.0
20.46250891685486,-111.5707970475123,-23.333464554431544,40.83971817805244,1.4187678255539857,2.1061408137572935,-0.984887599844284,1.4493348369926384,0.27086433978899255,-0.21951768377863434,nm,0.0
20.490153074264526,-94.74684968669943,-25.634860920123163,34.66185571571605,2.280855243380767,4.370563176022873,0.5827440469637559,1.2633952615021316,0.9456412156098938,0.26995124071587423,nm,0.0
20.492255210876465,-87.82342389890647,-23.037706728456726,34.37762122710883,-0.032654830207259865,4.645246486730236,-0.37269044871894835,0.7553358867690693,1.1381350149990077,0.6050621554597703,nm,0.0
