timestamp,roll,pitch,yaw,acc_x,acc_y,acc_z,gyro_x,gyro_y,gyro_z,markers,motor_input
62.51171588897705,-140.82747888681163,-24.888275107530962,-75.42349604956212,-0.3978845389022464,0.09318200049783668,-1.2618857882212786,0.01632041775274487,-1.1239879291893313,-0.807118934461446,nm,0.0
62.53412652015686,-124.3376408470389,-26.782641613010778,-89.30892770146558,0.4094257474377378,-0.8232377085355229,-0.8928408528750349,-0.04170569471946654,-1.6144191264884673,-0.5713348471465203,nm,0.0
62.54067015647888,-113.4083628500645,-27.387309429264196,-95.97901538392729,1.0615965405830943,-2.0309416535296174,-0.27770353845939033,-0.21040801663473835,-1.9406747134137527,-0.3215777881132169,nm,0.0
62.564372539520264,-88.1705787016476,-24.270825479171485,-107.61801050029534,1.1945719494681686,-6.408063905545658,5.456158063442274,0.024908758595513815,-2.329519788234957,0.07061303434310368,nm,0.0
62.56999158859253,-79.53524158012699,-16.593061069663896,-108.93932840520118,0.10609403591142574,-4.3896189401814425,2.988779502559309,0.9405511048900275,-2.02241752269656,0.3526197393479255,nm,0.0
62.601325273513794,-64.49182011681597,-10.231701673980922,-103.45053767874667,2.197795397986856,-2.466835650100614,2.29596283856664,-0.35791520142158423,-1.5043568214063785,0.9376269279029129,nm,0.0
62.60325646400452,-56.22843868881308,-13.487843409910768,-103.7192290821287,-1.0464110356833398,-3.1225041536413025,4.406076410766108,-1.0245944002887577,-1.4242905275715028,0.2944643012707629,nm,0.0
62.6064817905426,-49.04832492108247,-15.681865856948406,-103.09876620154344,-0.7446840618144045,-3.898069606880098,6.209146167923145,-0.7617666867841343,-1.2548461281152665,0.49311208474062557,nm,0.0
62.631518602371216,-49.389579489785774,-17.012467812056062,-98.12171933571472,-1.5035105098879817,0.05971795859459866,1.2133862625458383,-0.17994754039610936,-0.012974598186993055,0.3489694467815117,nm,0.0
62.63758206367493,-49.04084371216977,-19.70554364259213,-96.85943216552381,2.3359222768405035,-0.5377810130413276,2.6472177016726204,-0.5551435006232238,0.0007539966667114177,0.2820334177860893,nm,0.0
62.67773222923279,-62.42148057191019,-23.54582206588342,-92.18334788911552,1.4725090695632315,-1.3430909189385112,1.4279005852908566,0.045819898068625825,1.0447244797715232,0.2629254360388953,nm,0.0
62.67950987815857,-71.30103625024414,-21.833841012261235,-86.74612261867759,1.5971233018789437,-1.6060728743120904,0.9941960040755115,0.3184311368060424,1.6393447383943005,0.4121485007257039,nm,0.0
62.68250060081482,-79.99594742201792,-17.934234919144743,-82.15448392356927,2.3585857132328454,-0.7231076601469323,-0.20817278204960082,0.6108930160671002,1.7001713714238018,0.3374337938287991,nm,0.0
62.69730043411255,-88.64283580090758,-13.500324805946203,-78.75649285083291,2.814546275469848,0.3552464345340562,-2.1241622080057834,0.5949683374584553,1.7845293599375491,0.2462596522478689,nm,0.0
62.70204734802246,-98.64783493526305,-10.162367243123905,-75.95299084054874,1.4397561644250347,0.9696072761596102,-2.7429458899019483,0.22109623461607125,2.053115231324292,0.18224932208301411,nm,0.0
62.731757164001465,-116.55391315302481,-9.061635641698173,-70.88761735248995,0.43049780800141163,1.2247640900370507,-3.700201083226669,-0.5708438125420481,1.5684001888183894,0.30255947681203216,nm,0.0
62.74229121208191,-133.90125485677547,-9.933658403373077,-61.83314928678235,-0.43958522414917084,0.34519887352290374,-2.5416207199515783,-0.7038661703199073,1.475802211378312,0.7169055793957085,nm,0.0
62.75938963890076,-140.62039866221096,-8.74922614232431,-57.5678400992785,-0.3913987707845359,0.49296033676096823,-3.1534391037265466,-0.4574902650041442,1.2638470713822938,0.6468379648426258,nm,0.0
62.761624813079834,-146.49981473183553,-6.54477087418243,-54.838396494813956,-1.2159177048486478,0.8184982173435248,-2.5936643724327264,-0.2734386450247731,1.2136293143924421,0.40062829973407754,nm,0.0
62.78541707992554,-154.96880855319097,-1.1598960926379844,-54.356433419015886,-2.897610360156258,1.795178654948316,-1.9809562263947231,-0.020855658031617572,0.8981262318697973,-0.12969648665535455,nm,0.0
62.788511991500854,-157.88069650472653,-0.14166642485659056,-55.74054616614826,-3.5204472962644258,2.177987104364778,-1.536681905049385,-0.155562192154979,0.593315437530911,-0.27473974301366016,nm,0.0
62.811649322509766,-161.8364170035521,-1.8053158737158101,-56.962245881418305,-2.9890092557390373,1.4597401735000526,-1.3947944528411254,-0.4069257631035507,0.15597229109592078,-0.03274711777812356,nm,0.0
62.82712459564209,-163.11484247013001,-5.973865564456605,-56.69182718896642,-1.8114236380483943,0.8783136130524108,-1.4465122454883848,-0.36401759296418357,-0.24692835297723348,0.004759216389649305,nm,0.0
62.84298610687256,-162.69263343143717,-8.420239445076117,-57.58320150063692,-1.4126239016959152,0.6738425814192206,-1.754497610942468,-0.35481299275591593,-0.33643143621550503,-0.15871926442578863,nm,0.0
62.845252990722656,-161.93929962156076,-10.99210936978916,-59.72247049553386,-1.105902131369435,0.6806548485238956,-1.3352837909070345,-0.35166358887891375,-0.3951429671118241,-0.39332140617359934,nm,0.0
62.854872941970825,-159.903334378959,-13.616458531424263,-63.20076309342742,-1.033875725681613,0.5747051606474983,-1.5961172628193907,-0.26107182012958435,-0.6015235560150595,-0.5993296684342603,nm,0.0
62.88362431526184,-153.10082150185787,-18.862037961901986,-72.64422893217197,-0.8561264884604881,0.4414832378049554,-1.406427365986764,-0.23624008647094016,-0.8664847468947056,-0.7527726659734217,nm,0.0
62.88567328453064,-147.94683223988505,-21.463205277742404,-77.74683544445905,-0.6008110199735807,0.19066485817956513,-1.456266546057737,-0.24825463637585377,-1.071100174965836,-0.6530119147563322,nm,0.0
62.89760971069336,-141.6411078732626,-24.10614748357239,-82.86960497130924,-0.13969902453431374,-0.22766175162332908,-1.3091388891805793,-0.31913152756974944,-1.2378229418968616,-0.5227615197055033,nm,0.0
62.917747497558594,-123.76369250148096,-29.06615820417966,-94.44830794323454,0.989005140090981,-1.720845153329541,-0.5260710953337333,-0.5003133579802358,-1.76385776638379,-0.2716210418582401,nm,0.0
62.920713663101196,-111.59679910151338,-30.418432214862,-101.40769661466568,1.569311263302017,-3.07652892782923,0.5071204830555902,-0.558972178829381,-2.0565505734907905,-0.1665248469708404,nm,0.0
62.94405198097229,-85.95169025229397,-22.953245462223418,-112.93905879502317,0.4201093585741095,-6.43710603337692,4.918235152002219,0.4534759532866216,-2.42628289864757,0.17918352441182545,nm,0.0
62.94860529899597,-78.18083821447145,-13.6617651604102,-112.51367598697912,-0.1883172492856664,-3.426440405798167,1.8028833861061764,1.1336847101280922,-2.083404074192654,0.5860714987352419,nm,0.0
62.97298002243042,-63.24835423629381,-9.994331761871708,-105.73552810151271,1.7985212324842503,-3.4172644757524777,3.169695795614542,-0.7314037220369842,-1.3470036980782432,0.9381742547006728,nm,0.0
62.97701930999756,-55.63019389974848,-13.949837317192257,-106.19112443790475,-0.9186601945783003,-3.5813302183323246,4.854509138643271,-1.1825572550155277,-1.2198839602795888,0.2334148251038384,nm,0.0
63.00700807571411,-53.07966058740794,-19.313958315696144,-103.80718833066489,-2.318755899208917,-1.670874416242102,3.0263514094355446,-0.4280635477820931,0.33540598107580333,0.291043297340131,nm,0.0
63.00946760177612,-53.41456564522904,-21.38409665954102,-101.78708667587756,1.2362984363242373,-0.9258517566788013,2.5552861752308442,-0.4019180522312384,0.15076216928839536,0.38938747008001057,nm,0.0
63.03269171714783,-62.352108411724714,-24.293064267237096,-96.07542469564487,-0.23930553898649645,-0.6259065218689527,1.84281457891483,-0.059472654146110915,0.9605109509074221,0.20208554490608974,nm,0.0
63.036561727523804,-67.80261237636465,-23.73739517929426,-92.18932097288832,1.8969047052192796,-0.714683604730719,1.1392823125102192,0.1735589679501106,0.9832369266039609,0.3442803335400931,nm,0.0
63.05867910385132,-84.46567678379866,-19.108877174077964,-83.67377380671435,1.6132692244417508,-0.3714355856334038,-0.38824846001016367,0.43461437904697703,1.662716095892388,0.21033210597218535,nm,0.0
63.08373284339905,-111.14848003492256,-12.63927720327815,-74.83093931667992,0.5195626498056585,0.8767710391006833,-2.490607051205254,-0.2061178787984464,1.8237314571229726,0.15367374834806827,nm,0.0
63.10968852043152,-128.0331975149242,-12.043761205101337,-67.4226641274313,-0.37285224259274385,0.9040213140609055,-3.1698956718993396,-0.5454678736930462,1.5810212924577658,0.4548660462349689,nm,0.0
63.11180830001831,-135.93831851210584,-11.237035025916898,-63.26947408203146,-0.8647724470409673,0.8148413268332833,-2.420028047388512,-0.4936650387128717,1.4736426379937766,0.5237456858887869,nm,0.0
63.156004667282104,-147.49399184740085,-7.553919735199295,-57.892263651363734,-1.4731863938543384,1.0881730938003171,-2.7818722158434697,-0.1855150169970495,1.1219958204394007,0.2534991248983037,nm,0.0
63.15789294242859,-154.98748282220532,-3.944664005315825,-57.7501829867339,-2.6485183976469724,1.6853909273031322,-2.0737387582472193,-0.06489313340545864,0.6866179966155733,-0.13459769973906135,nm,0.0
63.16102075576782,-157.1329594267972,-3.49839970380759,-58.59027994169198,-3.0161126124392177,1.8447311772885016,-1.7658188151672525,-0.13930286938776498,0.40986536651418615,-0.18658751163710732,nm,0.0
63.190515756607056,-159.51677122573875,-5.3251828011186,-58.92458570944799,-2.4653836096144777,1.412704927468817,-1.567187126024529,-0.31019822663709207,0.02493732290465603,0.014651541803491226,nm,0.0
63.19230318069458,-159.6479911773374,-7.227671916124741,-58.74469393781159,-1.9175449892409924,1.2089863119192077,-1.4399498997550453,-0.3286578294843107,-0.1755547259018386,0.04264396506010108,nm,0.0
63.195908546447754,-158.82612503530328,-9.591792127911345,-59.087188670113854,-1.4429701412307436,0.9996558714596585,-1.8780421642843017,-0.31086991757136206,-0.38432193263709497,-0.03463976733528552,nm,0.0
63.22225332260132,-155.79430242975639,-14.95751239146579,-62.91385862377375,-0.7445109322041137,0.6638277606623434,-1.6142479475203197,-0.29782319444299815,-0.5719436710264802,-0.4073733404911719,nm,0.0
63.22687315940857,-152.96944649139397,-17.55339407898308,-66.62816289831868,-0.6204597125240091,0.43148423981834905,-1.6065418945494663,-0.2298842467171787,-0.7134131159478967,-0.573778609872255,nm,0.0
63.248480796813965,-144.66033871066514,-22.167223337161374,-76.38685997996623,-0.4398593947898502,0.06735480342379599,-1.1382861489654181,-0.17517438501572727,-0.9620312540419342,-0.682769756528566,nm,0.0
63.26437568664551,-131.27333088529264,-26.149870180656148,-87.70841129108952,0.22744099570171478,-0.7217854513242365,-0.7325689408110702,-0.25674747902317535,-1.3802651560601589,-0.5196348502939697,nm,0.0
63.29379653930664,-97.54568091530768,-27.236021728308565,-107.66418806259342,0.9294791674551081,-5.44876113616517,3.924432036213497,-0.322928312466395,-2.2825202120046466,-0.1264348313037608,nm,0.0
63.31608819961548,-79.44240245853477,-11.689193357198144,-111.69935328011387,-0.503433753725186,-3.1541015849363188,1.5210235646358023,1.1614577014568905,-2.0098526748857073,0.4534893529157815,nm,0.0
63.3214328289032,-72.22273609014185,-6.603744024219876,-108.39653433612068,0.11443062338731666,-1.6629727467188722,1.0977297940518373,0.4561593384712935,-1.6935137980988106,0.900043441655846,nm,0.0
63.34576058387756,-57.077233053238714,-10.648559357650292,-105.4667708052776,-1.472920720131288,-3.480016361497775,4.607515611269683,-1.0120534462595625,-1.269210800697006,0.15924328331379367,nm,0.0
63.36166834831238,-52.522212141061416,-14.814145286094927,-102.85372314453346,-2.283760254027517,-2.0183034819723984,2.9722608863993014,-0.38514751575401074,0.05443415940264291,0.3451441601958465,nm,0.0
63.38272738456726,-55.82907285423388,-17.941690559558733,-98.1201618918373,0.3874855741127321,-1.1868323532413836,2.350570876508589,-0.21004186165002514,0.7442975073469842,0.3497626073869963,nm,0.0
63.38629341125488,-61.039823360547224,-18.408567914616672,-94.9976707215979,-0.11992186713244664,-0.9910603621649494,2.0689824796738905,0.010067375031494831,0.9916802977450428,0.30875058596804317,nm,0.0
63.41035175323486,-74.9954208911927,-15.92536035205319,-86.63560704332473,2.220128729444932,-0.690705442391149,0.24489989919891988,0.2981403424656331,1.6051196732678743,0.43845475738103745,nm,0.0
63.415560245513916,-84.29373009894876,-13.427472977640894,-82.47662608393532,2.0908550540787454,-0.2444986786798204,-0.4858561814159802,0.3203886135467158,1.8347846918203292,0.3714542242063983,nm,0.0
63.442299127578735,-103.39204456999742,-8.855779008575194,-76.14386942791594,1.674645369389198,0.9776091998426921,-2.8774155889184754,-0.05022703406113024,2.0293969095844293,0.26551035640521353,nm,0.0
63.449830770492554,-113.60188713284909,-7.783364815673592,-72.90571165850113,0.6852991236317597,1.175049560636502,-2.7826553541085652,-0.33174130575490357,2.0009744787035455,0.3642248288585425,nm,0.0
63.47327780723572,-131.95300735041346,-6.717057665635096,-65.0455056655725,-0.7262917327668164,1.1838118135502183,-3.4204881099232347,-0.6132200560152641,1.7342146392483313,0.6172715876015419,nm,0.0
63.47503614425659,-140.4747044658372,-5.539015238694268,-60.87545661692251,-1.0747034064526775,1.2366814677153253,-3.005815140779107,-0.5536265363967,1.6152559119463958,0.6630900591625087,nm,0.0
63.48124694824219,-147.23321185328624,-3.718851434720668,-57.569941537991234,-1.536119249985632,1.3432544603643177,-3.2090414143074733,-0.36803486219200293,1.343067633343048,0.562718315078032,nm,0.0
