timestamp,roll,pitch,yaw,acc_x,acc_y,acc_z,gyro_x,gyro_y,gyro_z,markers,motor_input
43.52192401885986,98.07784804302821,-71.87027740277746,177.40186098860994,-0.4717710329354883,-1.1745321941151359,1.6879568863254562,-0.24971532186413084,-0.39314773505349376,-0.5470259835791138,nm,0.0
43.52409648895264,95.72913838925206,-69.42552700014701,175.88542706576263,-0.5663900009200825,-0.7100400679334433,2.1765245946620797,0.11486748159528855,-0.503340327099311,-0.788178682148957,nm,0.0
43.53758907318115,89.8137336472475,-66.85291238092235,176.8606417454477,-0.5946335454019346,-0.03324484946319517,2.5045954529196717,0.3952715788773722,-0.5451730956961913,-0.9624581641131753,nm,0.0
43.55922269821167,61.103362550434774,-63.51251659661553,-173.69770815945063,0.37140323208766496,0.08426655763501516,2.201644325910126,0.9608991841212948,0.09794459307635443,-1.2246061326280064,nm,0.0
43.574665546417236,48.13206128263056,-64.83601698406606,-167.64055593061903,0.7621509533091629,-0.42098759083114823,1.724649271024366,1.0570247836309603,0.4458699518738256,-1.1633451771375343,nm,0.0
43.578179597854614,32.952385020779744,-66.50876364003159,-158.24169808147866,0.8474280600119181,-1.0386144505154,0.8126670074712594,1.081739694944645,0.6870999954723207,-0.913629459566356,nm,0.0
43.61947512626648,-4.813144179605757,-67.5832257062583,-125.71988364926891,0.9353200809873169,-0.8184180331946767,-2.6682883043209107,0.4134232531840876,0.49372762208114407,0.16086551505469285,nm,0.0
43.623136043548584,-7.174026231474969,-68.06114598213098,-120.91343611065201,1.099154344637903,-0.014864160714246918,-3.145804252531384,0.004377861384269548,0.20238723001423298,0.5161056283076899,nm,0.0
43.63590216636658,-3.1067178744730484,-69.02254414443081,-120.60090870633499,1.3594024221449625,1.0653898139437834,-3.0212478222053005,-0.33125847336289005,-0.15779241322657359,0.808320645606593,nm,0.0
43.649054527282715,21.506613593921188,-69.6933129807802,-131.3522993017614,1.0755260158942883,2.85984516271956,-1.6154280186264893,-0.6087372644303107,-0.8003402238419676,1.3506308350747511,nm,0.0
43.682276487350464,57.17539537194328,-67.75048353715277,-146.30413737742342,-1.4687638644807992,0.380085319157226,0.041165404288704605,-0.6283247651160344,-0.45845151793746325,1.1258960037434784,nm,0.0
43.68419551849365,66.10738434862338,-68.76136013131136,-150.80524020579523,-1.4538776761650622,-1.055912526534998,0.45562497058679335,-0.6828757429975724,-0.17866247054099008,0.8004892034993838,nm,0.0
43.69753575325012,75.32519526230604,-70.41099658891962,-158.02943643218782,-1.0781010152732091,-1.6236609710288263,0.8320840086916752,-0.7343579932801242,0.014264549696720355,0.3301581386298173,nm,0.0
43.70171332359314,84.59217610595839,-71.50560427576166,-167.7290207249176,-0.9793852200017845,-2.029166446803449,1.2205489327488301,-0.6540211215600851,0.02607508097165596,-0.13843507304726715,nm,0.0
43.7262020111084,92.67108726456104,-69.79104693826083,179.92402074321018,-0.3913521500992102,-0.5046357334083513,1.5985886530011384,-0.10555945664847517,-0.30506510321564567,-0.5692541609809707,nm,0.0
43.74207067489624,89.3469248525878,-67.51895732019112,178.65354668634058,-0.4586771834814314,-0.06091287115670659,1.6348898724917995,0.22388790078215084,-0.4625315022742837,-0.9041236306426377,nm,0.0
43.74793219566345,82.74890253126513,-65.15666445997618,179.4810233459946,-0.1721054278632705,0.5246833533937857,1.7194619710861034,0.5094594398612035,-0.48373744690134857,-1.091544842171127,nm,0.0
43.77023410797119,64.0123463308681,-63.0445723149186,-176.6222723149438,0.46653296497578606,0.40948934284061517,1.7605229805791458,0.8863708350774175,-0.041165550208749874,-1.3973566596026363,nm,0.0
43.773439168930054,52.347925752988516,-64.02932084408904,-172.21565696712958,0.7107149532775698,-0.17136310835315877,1.7953825526054172,1.0005481531315177,0.3003906813977457,-1.2716616690681215,nm,0.0
43.83157467842102,5.32130452340019,-67.69486986323756,-138.69917051853406,0.42247536529526253,-1.9086929615533497,-0.49241832120421275,0.9178957885120502,0.7906304769415868,-0.24136304890003463,nm,0.0
43.83394241333008,-13.842381246500642,-67.95445638033253,-117.48385290632329,0.876493292758472,-0.7770319216176298,-2.034484967362329,0.23139374445392652,0.48815257357266256,0.49948147118032504,nm,0.0
43.83563828468323,-15.815247375393572,-68.86730501014343,-111.44351664293819,1.0396973120652948,0.20921720321398138,-2.58007041161228,-0.11955690052799682,0.20822757023529337,0.847767059179759,nm,0.0
43.837302684783936,-12.599887706824665,-70.16336634692645,-108.69644022655625,1.4693128448772155,1.5986333657217624,-2.7777573636416464,-0.33455289591884657,-0.12347240216267724,1.1589969320908955,nm,0.0
43.85298490524292,-4.706769156494693,-71.13185155194303,-109.42650028697834,1.149147703832534,2.6455848726665723,-2.8300620128862657,-0.36739308196380477,-0.433787730665986,1.3510046688544686,nm,0.0
43.89195394515991,25.81139574963691,-69.30316292336028,-118.29075143600006,-0.8971316116877915,1.6308456321356357,-1.0217471390079194,-0.10648336002081578,-0.6372327050426296,1.1295038559619093,nm,0.0
43.89400243759155,32.98474222649726,-68.79140905556267,-120.5187118705411,-1.037355600319194,0.2286344314870019,-0.12798931273423264,-0.17535107643195808,-0.5046768337600246,0.9138706344589413,nm,0.0
43.896549701690674,38.67793811830623,-69.04161827504223,-123.25643737862933,-1.1671038761594943,-1.2849080004647642,0.8026411361008398,-0.27116858008835515,-0.3290437722299749,0.5334513240925551,nm,0.0
43.91127395629883,43.99533092446061,-70.12246603150366,-127.93377041838663,-0.9209052536725437,-1.6179706725619918,1.4760822635756279,-0.40410425253615634,-0.1829353202363781,0.08865747762534751,nm,0.0
43.96942210197449,69.37742938217824,-66.63952633032504,-166.8984478497404,-0.05811387547432515,0.4989582388220454,1.757878129317649,-0.07515723611621258,-0.6318396387297082,-1.0555289246813313,nm,0.0
43.97266983985901,55.00642705320618,-61.36883151765733,-170.2846819192577,0.36605292517447763,0.3083174613688513,1.7635767154452138,0.7119399854071798,0.056608169709720345,-1.0490125419964482,nm,0.0
43.98651361465454,43.44279309697775,-62.60170551949802,-164.47707331017494,0.06093355738452912,-0.5889643576099424,1.5498322010638894,0.9911704083316683,0.47977026084184327,-0.9182342092779521,nm,0.0
44.02477312088013,-5.108888918078319,-64.30176714180759,-123.14001445498651,0.4751670733008581,-1.609823612533113,-0.8257389497952524,0.9647735658884654,0.940689626346973,0.1612072751946684,nm,0.0
44.02674055099487,-15.041480600217604,-63.52262768834735,-111.31474619008742,1.02749159469737,-0.7304261715305258,-1.6878733261624128,0.5252410183546855,0.7046935013760993,0.6063539397750025,nm,0.0
44.02864861488342,-19.771780116788307,-63.76780749134846,-103.26517208021367,1.7308959406846982,0.7581500430028301,-2.355802999143945,0.06527244567122266,0.4145054582254912,0.7876694330506357,nm,0.0
44.043593406677246,-20.01668450782426,-65.27154232293441,-99.06003657582414,1.0151472675355482,1.4071784940516585,-3.240964230666416,-0.30446736753638404,0.07703268396073976,0.8126637508736771,nm,0.0
44.069218158721924,-3.442441514743294,-69.17717886377291,-103.86979467100524,1.209508193347894,3.4625873824304714,-3.0546394053680994,-0.5245939513731975,-0.7331780044648359,1.091338655466258,nm,0.0
44.071993350982666,23.369930084893976,-68.22710040658443,-119.55065024337753,-0.5997364428121332,1.5002366676298087,-1.4112501807903501,-0.20094226916754085,-0.9565012577598465,0.9215527781932952,nm,0.0
44.08704113960266,33.31162294831275,-66.78210682835092,-124.83232808998982,-0.8852142221088953,0.4621226104524382,-1.006959569772483e-05,-0.17336503507009468,-0.8040799056556286,0.7724171012713471,nm,0.0
44.14286828041077,62.842778145618226,-68.40841650018014,-160.90693753131367,-0.46781945417959975,-0.6417516564286333,1.8598152019138592,-0.4403924663542383,-0.43223144339108743,-0.8584188048217083,nm,0.0
44.14501595497131,66.32839343228186,-65.69965371730582,-168.91595121175962,0.40026517359675284,0.7638735480505329,1.7686539926150882,-0.13376228913801605,-0.5976894680446527,-1.0109087454694554,nm,0.0
44.15822458267212,63.59336269385237,-62.674107298630524,-172.76498230208227,-0.23020645397612943,-0.39009159294307255,0.8350309079783425,0.31966978867183643,-0.5608248505945136,-1.332702192730344,nm,0.0
44.166494607925415,58.760528707681885,-60.878581024834844,-174.12537573826788,0.1366817625735248,0.4036057641761842,1.0755465764829977,0.4823201496911241,-0.30346058459793646,-1.1881908473206864,nm,0.0
44.18588829040527,50.89108337443169,-60.86236042323147,-172.30448821921672,1.1101042681353464,0.7269397765908644,1.870899633924322,0.7472751796335404,0.09047233832041192,-1.0653457767366576,nm,0.0
44.18769025802612,22.011362113422024,-63.34697973166928,-153.9697445553913,0.40304403914227066,-1.2607195067666146,1.0697269936989096,1.2697398635254626,0.7422168559820098,-0.4936947048658883,nm,0.0
44.207870960235596,5.4458794745555235,-63.60779614132635,-139.38183724341738,1.193444026737345,-1.6578359690055018,0.4718949772404248,1.1916542739958582,0.8569467611270873,-0.048747134002997586,nm,0.0
44.20963978767395,-8.807992094083636,-62.82258299726063,-126.11822892500426,0.38953287790662194,-1.8532978125705637,-1.0856192392285617,0.972232170853409,0.8382393794507766,0.1088846944420962,nm,0.0
44.23114538192749,-20.28662381882679,-63.28569444095208,-110.39649239042834,1.2547437816077074,-0.18241768943423056,-2.5536830067707377,-0.07160312083456848,0.3313267640196904,0.6493553634783314,nm,0.0
44.270528078079224,-9.440060942085946,-67.46653681154663,-111.45574787528741,1.2213899351021489,1.9680346373648996,-2.9453583678162367,-0.6448718138334406,-0.5129529314329192,1.0417711872493982,nm,0.0
44.27362942695618,4.304192014763514,-68.4212388098009,-117.73717297493545,1.4520895388617088,3.1374402931871814,-2.4085740538610385,-0.6149151443308489,-0.8617200696339221,1.2753530340925139,nm,0.0
44.27608013153076,28.953832255696252,-65.887858939078,-128.5557032967153,-0.706255550823539,2.3808716345056005,-0.9802968128991855,-0.23332189979910617,-0.897962237291289,1.1572170667276296,nm,0.0
44.29131507873535,36.789153848061154,-64.49491579698288,-130.50525204084173,-1.161393785578178,1.3905185499345667,0.03706031029155276,-0.2170668208459771,-0.6908051955725351,1.0363850743009717,nm,0.0
44.29302954673767,42.24912489128939,-64.25474831113942,-132.13695328910737,-1.6563984522678386,-0.3392331996803897,0.7335130234288418,-0.28878290466060436,-0.39335077912281435,0.6610805003606435,nm,0.0
44.31044340133667,51.121038091814505,-66.53150082619656,-141.14748129226803,-1.0731768179342716,-1.7291228002515453,1.1280251976688347,-0.4581269566316226,-0.05440558129407282,-0.3663768081574508,nm,0.0
44.32609939575195,56.70496863669374,-66.75700810814698,-149.88035127316448,-0.9259421595367088,-1.633178365839064,0.9525034243145735,-0.40380147806255146,-0.21860935536688203,-0.7191248620950483,nm,0.0
44.33151412010193,62.17165183230007,-65.23566971958032,-159.38617099514408,-0.2782223770435478,-0.5711533476390886,1.024251672237572,-0.28451045219432697,-0.47018123730707223,-0.931948192883991,nm,0.0
44.3533501625061,62.4592248791913,-58.64335787790679,-173.02945008723262,-0.1794747913183523,-0.07568008725270114,1.3018568375341555,0.29089074882692556,-0.6731861162608394,-1.519206864328292,nm,0.0
44.35888957977295,58.02094642626984,-55.77190298664342,-176.5616833650619,0.281753400113894,0.44113107893446596,1.7533502426887748,0.5194186313640081,-0.526376711109669,-1.5334547025493066,nm,0.0
44.42997932434082,42.23336871746569,-55.28556738138764,-178.0734561987811,0.3362863558675892,-0.22157797046257374,2.0097945245759443,1.0233106450485554,0.17202482955801257,-1.467761577729784,nm,0.0
44.43217182159424,20.01126019009446,-59.08935595632747,-166.4575638640685,0.46826387710917405,-1.7917349584217233,0.8945119256087544,1.1608938297538116,0.6221031557180727,-0.5569670841171407,nm,0.0
44.43401288986206,7.588834925624024,-60.76817138580877,-156.74918234782442,-0.34905193833351794,-2.068884060973179,-0.323333670511697,1.0616059170353718,0.7175246338823322,-0.2371957146985924,nm,0.0
44.43613958358765,-9.11871270898935,-63.411882304165644,-137.74107287699073,0.2823474089536728,-1.449513094997017,-1.690120897684501,0.30664330741586093,0.6083158889800931,0.5674426841118856,nm,0.0
44.48863172531128,-0.5960390967516861,-68.7517889241508,-120.43197336334687,1.5876743210897686,2.5273626772767357,-2.465392428021664,-0.3626018145771614,-0.4180782498490215,1.6408902931897251,nm,0.0
44.50701713562012,32.726026191812,-65.00818829525086,-127.83508084626898,-0.8525528454447128,0.6028985542438102,0.0435624032655907,-0.173117310334853,-0.6359312625713661,0.6672965397384615,nm,0.0
