timestamp,roll,pitch,yaw,acc_x,acc_y,acc_z,gyro_x,gyro_y,gyro_z,markers,motor_input
55.008180379867554,-76.0530528423089,-36.7217499296248,-93.90393236004724,2.7545645229798987,-3.1746454194110996,5.931187514753658,0.721914196984068,-1.3860582639748598,1.8383214281500224,nm,0.0
55.03158903121948,-64.86640740816662,-34.9390686331519,-87.27868775985704,0.2653194385435028,1.235090484780744,2.713076703735896,-0.1272202884624181,-0.9730044618910872,1.0931740264964698,nm,0.0
55.04042410850525,-55.067955004289836,-38.54832414427399,-87.0895121239588,3.6392528767063546,0.048758642222729735,5.094930086149255,-0.6534376050797739,-1.6083652614562074,1.2211192759580098,nm,0.0
55.060301303863525,-40.32894774836689,-40.83180847178057,-90.48773309080252,-0.6278430565762457,-0.8272735553815601,5.315982810607728,-0.0017455794749676908,-0.8735305628842904,0.6673855339131657,nm,0.0
55.06589984893799,-42.11801112579246,-39.83782532246792,-84.3947928673266,1.0696562492687451,-0.323112082281632,4.597782691882864,0.17518717904961154,0.27727899278332724,0.9957354845366063,nm,0.0
55.09521675109863,-56.319055988534835,-30.06899079084678,-68.17415189110616,0.4853677253309424,1.1282660615091276,0.8323068502104427,0.8216296222983025,1.4032616908006301,0.8119429289461505,nm,0.0
55.09870195388794,-63.503399473734405,-23.940481388080247,-62.5657411499498,2.3598900119120163,2.102326492615908,-0.07862714922722881,0.5727688911777741,1.6686173325170852,0.47775900918397707,nm,0.0
55.109126567840576,-72.25220855249226,-18.62129789418751,-60.56766555913457,1.1658645279919206,1.0204221622579308,-0.4273511639120719,0.15215906027883777,1.934249873961277,-0.22552390754285576,nm,0.0
55.115593910217285,-79.88478269621662,-14.800411741723734,-61.63414756549323,1.8974163412135998,1.203002558099462,-1.2852836842076776,-0.04254914922830587,1.643719453365596,-0.6407077624410263,nm,0.0
55.15220522880554,-113.25109280337556,-10.707004677490682,-59.67773025851635,1.9148963250977273,-0.40150794516836086,-2.9738806292136974,-0.8739769205201974,2.180824933488824,-0.09993443441285406,nm,0.0
55.15977191925049,-125.51124051514257,-7.604231929055819,-57.64702057061576,1.3801696073457848,0.28097628383417944,-5.075306720703922,-0.7265856596216067,2.3882205465165076,0.027516098852608774,nm,0.0
55.177690267562866,-152.17578209134354,0.8555996579036131,-55.83672565509369,-2.3253807321931586,1.4823848336531777,-6.744953452937292,-0.8035610165417462,2.638523002489035,-0.003676535784853303,nm,0.0
55.179434299468994,-165.53238635531133,3.3148255941358733,-56.55360580798151,-5.294336259832125,1.623658402299197,-6.258653826825384,-1.0669749751320445,2.4920469322999277,-0.038303445665953374,nm,0.0
55.20300269126892,169.81425882343066,1.743455047000094,-58.7779955200394,-4.342599475984336,0.605616545249823,-2.690331083049755,-1.4683523312922662,1.5496689165177577,-0.12426700504706979,nm,0.0
55.20903730392456,162.85545605858692,-2.652314490473107,-59.438378764061255,-3.497901132991855,0.828979055807784,-0.9752317862178295,-1.4554913571672947,0.7442766347956902,-0.1412013008754832,nm,0.0
55.23608613014221,155.5363684570755,-9.071173061075562,-57.432641549042756,-1.81231044012056,-0.4732369185627899,0.17305005141276075,-0.7990250405754553,0.3023898139391239,0.2296504952673624,nm,0.0
55.24081230163574,155.0385456446079,-11.079249518489705,-55.47715470988836,-0.8297855663599145,-0.2735710308764813,0.5233679429582516,-0.3749884318624515,-0.1394149257677495,0.3752982281123595,nm,0.0
55.261675119400024,161.01760761856403,-14.39288593869209,-54.64892529552805,-0.9051748629678553,-0.685772772396031,-1.1261560997297297,0.09811386705417625,-0.722172144160714,0.09863258963114713,nm,0.0
55.26460099220276,166.24031877276317,-17.416669423891115,-56.49750225812425,-0.878466696280444,0.08927096657190234,-1.1148959587309344,0.08311989680154777,-1.1701397486679834,-0.07897693937207452,nm,0.0
55.2908501625061,-178.3722512579624,-25.4996213560153,-63.99668574151837,-0.922095354919275,0.5571665301695884,-1.9603641130562193,-0.009110498977073708,-1.6883438741298387,-0.18225793985846692,nm,0.0
55.296730518341064,-168.73959303539561,-29.530645156101066,-68.21164536766678,-0.3087415682513791,0.13197066177658748,-1.9607094406865917,-0.032882143403953255,-1.888542034070032,0.05874042941001654,nm,0.0
55.32246470451355,-132.10454560330396,-42.95371324774831,-80.89921790800781,2.313069173398483,-2.1530946044646764,1.6476617078416338,-0.44503017328116695,-2.2466481465063253,0.819071915813912,nm,0.0
55.33196020126343,-113.99849043592674,-45.38831173472152,-88.63303483461854,3.245208172298412,-3.618616617062886,3.075449889355275,-0.2437683625569525,-2.6249388292868665,0.9980553615670464,nm,0.0
55.34074854850769,-96.62636320365539,-42.89142123520192,-96.63266149593225,1.9896890778192746,-3.201161107040554,5.938084974369471,0.37726530592460095,-2.508885554566751,0.8412424460816952,nm,0.0
55.36352038383484,-73.41041393098193,-28.86560884546468,-93.86365835915305,1.7788512757278345,-3.6504024795700354,8.668793938523814,1.1862653884218868,-1.7111345773747169,2.071331240556227,nm,0.0
55.369603633880615,-68.14916901814914,-22.33315536290787,-84.71779853329942,3.442044463929751,-0.45346826746226365,4.708266532521419,1.3122128008424463,-0.9403078912245387,2.2946785997413897,nm,0.0
55.39340782165527,-54.180632886502764,-24.15425963478713,-74.09069464759298,2.049846529697779,2.175652742350333,1.9533354910621337,-0.4002228058522911,-1.845091442437734,1.3076049733438806,nm,0.0
55.39894914627075,-42.781645025661874,-30.247251679683274,-78.18120790392373,3.646339188731967,1.2872368027887642,5.4042000661843215,-0.7042851834009863,-2.2691554046018463,0.23465628406363825,nm,0.0
55.42571139335632,-26.608657751267693,-32.78590174636385,-93.62744452033076,-2.0452162131683322,-1.7463703851739711,3.395043564921417,-0.03471336984442277,-0.9682987547238681,-0.6093586923785258,nm,0.0
55.42911219596863,-27.52587925153658,-32.26916660998019,-92.24797280512296,-2.644797694278403,-2.2960101262480532,3.087455838595158,0.09865694442944196,0.1439715424367268,0.18205993840343174,nm,0.0
55.45093035697937,-44.90209828077518,-23.728755130890725,-71.19505896408114,1.8028294875124806,-0.9067501182117412,1.7673614893450034,0.7693398781298979,2.1212743316033627,1.4775287941816986,nm,0.0
55.4553165435791,-55.776509705923495,-14.573759753583682,-60.945856169462026,2.4846482008624426,0.86219809585171,-0.017425690123161294,0.8291304650730607,2.614401275827516,1.3357627571628576,nm,0.0
55.48293137550354,-75.61980015607345,0.17042079943038616,-56.57817972726186,1.2442650298565798,2.855425942288672,-2.690760557361241,-0.21252556493485655,2.3101426271349954,-0.2072077038523143,nm,0.0
55.488200664520264,-87.03801029134324,-0.3575921938381034,-58.909049244001054,0.7467215334688669,2.725600406063419,-3.4502281841752724,-1.3103189053356519,1.8680799469167655,-0.45780971109968477,nm,0.0
55.49625873565674,-99.57280323047262,-5.853961252996812,-58.56848826171792,0.7379312356647233,1.544469058539478,-3.9954978040903644,-2.2374488786530833,1.5671883430440259,-0.05559406091829805,nm,0.0
55.52687048912048,-126.4507764340313,-15.029394252218065,-46.85823944923179,0.5526915398271999,0.574950247981198,-3.7151369271498855,-2.098380414009976,1.668059738519928,0.8304770042830929,nm,0.0
55.528947591781616,-138.89451720658062,-12.441970233721241,-40.335748822610334,0.4639033089183063,1.08167600332192,-4.633479452457568,-1.3898434384096803,2.0435062114782747,0.7220745013547771,nm,0.0
55.54387617111206,-149.7495468076609,-6.845434829050997,-38.4798800817637,-0.8383477554694837,1.064084467454386,-5.688591360046735,-0.9372500126781832,2.2256436521254406,0.017024933337432154,nm,0.0
55.545818567276,-160.26494414651768,-1.8233721196253394,-41.87890592654986,-3.197490986885892,0.9474462860591291,-4.743205877029991,-0.9461207948710126,2.1232945918445796,-0.8285917049478428,nm,0.0
55.551671743392944,-169.3434695536869,-0.4117443823746432,-48.313144860105005,-4.510566231244524,1.2775243425101945,-3.5525062465378237,-1.070998808632329,1.4883095116295668,-1.3139660543713938,nm,0.0
55.574318647384644,177.9357752246382,-7.997214673857041,-56.31613783783381,-4.295529054230889,-0.012992914598813667,-1.7913481817841594,-1.4933610363028724,0.47651160110447355,-0.5925725298077803,nm,0.0
55.583595752716064,173.46732450539898,-12.175097934339703,-55.86628355162372,-2.19564506911789,0.42109669512892545,0.04818280719118798,-1.1719644295794405,0.2658853814188211,-0.06151201476039458,nm,0.0
55.588380575180054,173.48796513554498,-14.97001537930652,-53.69669890978953,-2.4004854716188517,-1.5165840765272818,-1.650980729975082,-0.4417176947952406,-0.3240606351826825,0.4408026148388408,nm,0.0
55.613208293914795,173.49726439276512,-19.061073205765723,-48.85396445430538,-0.26918974622992703,-0.39489544608701554,0.3650357128327051,-0.2283294102114715,-0.3323709422622453,0.4227403560247676,nm,0.0
55.61666226387024,178.3883951765953,-21.475196330100356,-49.50783251471388,-0.8339145289011551,-0.9466103867847905,-1.3982885281310964,0.246896689445032,-1.0074181267218134,0.21544312570895108,nm,0.0
55.64216899871826,-167.51656790015963,-28.646634112500987,-59.06303641995037,-1.2589960884979492,0.9590544010667151,-0.999833365365079,0.15468818761490963,-1.6225200731852123,-0.48269283154109344,nm,0.0
55.64748454093933,-155.51302907185098,-32.32887913550632,-66.41364145218166,-1.0328976699772587,0.5612344615564384,-2.5740312032553048,0.30815786866357764,-2.173656599085657,-0.2848344160001577,nm,0.0
55.670769691467285,-126.81497230458662,-39.25374662595707,-80.58377108274472,2.4125013702400864,-1.250547802265467,-1.6652696907531903,-0.16725858366211122,-2.47520218174903,0.4983463380524199,nm,0.0
55.67409300804138,-109.04466197618616,-42.84606225019658,-87.44095030014655,4.360217303057459,-3.6363142879761683,2.6849200969156226,-0.4302143801460161,-2.7360913729131373,0.9842534456564749,nm,0.0
55.70086169242859,-78.4022174667371,-37.75026352779053,-98.50448959096488,0.1950347035369132,-3.197188290649772,7.24974816638943,0.7849121417547706,-1.8274344203079882,0.971208795898794,nm,0.0
55.70302891731262,-70.6960301828977,-34.529638589428586,-94.32341082428164,1.086981346963797,-2.5005115421380872,4.990187096252064,0.49242060586775716,-1.3117258422516624,1.7580410787452958,nm,0.0
55.727147579193115,-55.75072156263337,-36.52645139058749,-90.15128841566907,1.1754677842964711,1.289630973419265,3.3951089782811024,-0.555279966967403,-1.3333244589666586,1.045862371606804,nm,0.0
55.73167634010315,-43.83369009565921,-40.96427102863213,-92.96970828332768,1.7188378502348294,-0.4968953774591195,6.18483527320926,-0.9472150661746337,-1.8381684337126036,0.9388167511310477,nm,0.0
55.742294788360596,-31.790461510189594,-42.78033912375617,-97.89916636566531,-1.6563030999428259,-1.8365704339652886,6.815811164003682,-0.5431132887801904,-1.7546755529737033,0.6310787754909223,nm,0.0
55.76389503479004,-31.07563867718818,-42.45224529185739,-89.17848812739895,-0.330728967064528,-0.7521238173512297,4.497170836619976,0.07712171572192231,0.756255217005332,0.9343538186736133,nm,0.0
55.76925468444824,-41.30808606431805,-39.72530694443754,-78.47652282171815,-0.6990685262765302,0.06357840449658177,1.9432274600770947,0.36421210907327745,1.5875678619085294,0.8000780663305923,nm,0.0
55.779137134552,-49.597152039881166,-35.09790313575142,-69.86957160742246,0.8166788637166397,1.6047386582109133,0.5109194697559971,0.5206829943656853,1.5139224733802912,0.7207741065965032,nm,0.0
55.80091571807861,-57.88373651653825,-30.678851362627423,-65.09454455625766,2.219605671968074,2.2434609460762713,-0.3490079787611501,0.2740457055351068,1.6183082619435627,0.06322048825083966,nm,0.0
55.817429542541504,-74.73940011789637,-26.207200097283984,-66.25080844749142,2.0909816045515335,0.7309269340294136,-0.8854600339912024,-0.35065666226919173,1.3788200062527716,-0.9777935152231861,nm,0.0
55.819176197052,-84.53517169437104,-26.66475343051822,-66.61436652417652,2.8862772375973305,-0.2944647504474395,-1.6034956454199596,-0.7856909302992579,1.571742919677476,-0.8576310078242118,nm,0.0
55.83484125137329,-97.44237715530552,-27.2371678157277,-64.642641691937,2.1921709295766614,-1.2679644702185995,-1.297763976721183,-1.0481709888903412,2.0525174623889972,-0.6656154749841142,nm,0.0
55.83658957481384,-110.05366062388345,-26.207845583387495,-60.78394401263554,2.476235615844669,-0.8423210966184276,-2.1424605623114252,-0.8513572806434673,2.09609926932594,-0.3508202448722707,nm,0.0
55.85609769821167,-122.08931794008267,-22.931807100880466,-56.53703146930058,2.452620449838675,-0.2652479407569609,-4.46549320969488,-0.5789198562637942,2.2103540411197433,-0.140140234399006,nm,0.0
55.87173628807068,-145.0733284169881,-13.097414181811692,-51.93531908800538,-1.1640051770670874,1.1640937004855383,-5.652559260835609,-0.4505828566543321,2.2550196828132636,-0.28747749514936743,nm,0.0
55.875025272369385,-154.66491567043533,-8.786891080787724,-51.96140488751444,-2.971193447404522,1.1998481290103664,-5.929677289561674,-0.4741421695348032,2.016032603024251,-0.35928305309081904,nm,0.0
55.8891716003418,-164.09361316119913,-6.267399909096893,-53.11009059527698,-3.6250700015184636,1.2496856143713295,-2.88044923110977,-0.727269696356999,1.7922066342131788,-0.4680046051853373,nm,0.0
55.893834352493286,-170.53787974685036,-5.975529774671205,-54.841379000131774,-3.4543372975227524,0.7844648203126239,-2.5068434463503357,-0.6949166466638753,1.0723515399626873,-0.47630566395047264,nm,0.0
55.905882120132446,-174.52952232497515,-6.965463219469728,-56.30800482434197,-3.3972095208563835,0.5640236784974701,-1.8259290375698394,-0.5996800057316934,0.5434374262548628,-0.37665415820904263,nm,0.0
55.91230535507202,-176.94906332904844,-8.017849511688778,-56.58473333799749,-3.2061206033570113,0.06628318534448988,-1.7891925191922209,-0.4281925054111017,0.28437191708158654,-0.11195177077031436,nm,0.0
55.940887689590454,-178.66177669611048,-9.884931805934048,-54.03889902133952,-2.2803956329909885,0.14648147495924743,-1.1032403751609072,-0.1411008345566682,-0.09713020243396843,0.31769784975269444,nm,0.0
55.958959102630615,-177.3939555536128,-10.824499321098664,-52.73769389006983,-2.138537229434862,0.19267619319686333,-1.836267329108184,0.010495880569102624,-0.31087061810312316,0.31297870503863195,nm,0.0
55.962116718292236,-172.53895406642548,-15.38232199962913,-53.16111328875452,-1.8820807610522394,0.912306707445944,-2.0310832621130634,-0.09239608284482397,-0.827870880062191,-0.006024793703572348,nm,0.0
55.981292724609375,-169.2994411452021,-19.451076519020617,-55.02675602614619,-1.6103835530212587,0.647805858845379,-2.2285864287035544,-0.28577971033664323,-0.9769244228606211,-0.17011383839463207,nm,0.0
55.98592734336853,-165.4834274792206,-24.117845388582644,-57.89754593976946,-1.0719685839354847,0.7963633362435272,-1.0751755069220463,-0.37648389697049806,-1.1054064686595915,-0.28078038335949196,nm,0.0
55.989795446395874,-158.96068389323136,-29.204293501799217,-61.686722659935015,-0.6015436826906237,-0.03716966331853346,-1.9810016130113481,-0.2831792492016349,-1.5182718129622788,-0.1603492595859727,nm,0.0
