timestamp,roll,pitch,yaw,acc_x,acc_y,acc_z,gyro_x,gyro_y,gyro_z,markers,motor_input
60.520705461502075,-119.17130449420674,-21.113927688597148,-66.26457228783856,1.6024079775823992,0.46845481103225967,-3.9550744154086757,1.216086435719978,2.0148972241110985,-0.5809242520350274,nm,0.0
60.54663324356079,-140.592736625725,-10.49509760898738,-64.90868950458348,-2.718980207443338,1.9788946269177239,-3.693393793626604,-0.6242403763229527,1.1434904909336363,0.2972860531985311,nm,0.0
60.57361912727356,-153.19351011139148,-13.54856327335079,-49.27828799535159,-1.3763930703408325,-0.1337202393559513,-1.6543602134310051,-0.8358552438267577,0.758229875557722,1.5327597525392942,nm,0.0
60.577001333236694,-157.38643343042972,-13.449191041851122,-41.581685499323335,-0.5011834468241793,0.025546018776562446,-1.2709378989495597,-0.5494542211646524,0.5986322361380241,1.355056373543217,nm,0.0
60.58137130737305,-159.7695746389891,-11.764069377357748,-37.45954213613106,-0.34826096768427306,0.6590368815894267,-1.231847908183525,-0.13470601018419137,0.560312581980465,0.7311138934330657,nm,0.0
60.64221930503845,-160.866453675026,-5.368442017613412,-46.485079262183554,-3.96467902140401,1.9664594709822312,-2.701183140212637,0.10809770551243109,0.1994522223986132,-0.974484661282734,nm,0.0
60.644105434417725,-163.2940848614105,-7.775350946766429,-51.74073312642756,-3.302546843323875,1.53319422334331,-1.1936138995398309,-0.37608066594110434,-0.10970689263702228,-0.3365829198921349,nm,0.0
60.64590120315552,-162.67853378787896,-10.749779129762066,-51.588889004490184,-2.560525816568123,0.747514308273732,-1.9120842571768542,-0.38086949988440305,-0.46355961758108977,0.059613719521282756,nm,0.0
60.64785671234131,-162.33111230952616,-14.45330972530398,-50.3307731163788,-1.7296471580232318,0.35204056098919845,-1.591275074833182,-0.5228657147556351,-0.5178933964817071,0.2767772734973878,nm,0.0
60.67104506492615,-160.04928156756387,-21.335006366594484,-49.82041000957584,-0.3632145839888857,0.09318940269639975,-1.2071166521038579,-0.2740733900375616,-0.6761913755403807,0.012573563799531824,nm,0.0
60.67605519294739,-157.22497133292634,-24.436217608927542,-53.10797595668662,-0.3678713031337213,0.27816156332323594,-1.029013817991792,-0.15251314760519405,-0.7915944929193454,-0.42690801243831317,nm,0.0
60.70398187637329,-145.76559427456544,-28.91063867218695,-67.27688405002566,-0.5419867711061881,0.41179001606997423,-1.4575369741664193,0.21772532926659433,-1.248401703571827,-0.9610704445827962,nm,0.0
60.72862267494202,-126.99019229359155,-31.35021121510427,-84.7120419673657,0.4931379760843503,-0.14108305894293988,-1.1215052103954803,0.08199470246086396,-1.7765143798408984,-0.6469430981130695,nm,0.0
60.730350494384766,-114.75481689467985,-32.283919746729936,-92.4920651952072,1.7944014804231385,-1.5764817459357194,-0.7085543258168598,-0.13495768085219387,-2.083818860981844,-0.247570203089286,nm,0.0
60.733102321624756,-101.15201424480321,-32.886927364072406,-99.87988562696954,2.5047472334323024,-3.2785821820484045,2.24472724666459,-0.3689175578225272,-2.2658889375916007,0.006661040869397952,nm,0.0
60.75887417793274,-75.88419044240077,-23.050466080297454,-110.05660945649424,0.7923253120083759,-4.597776958374949,4.150631078629604,0.8233301898569454,-2.2557251820319313,0.3054903342698699,nm,0.0
60.782044887542725,-62.01699273876653,-13.997838256989501,-105.88410673046985,1.1019203236361217,-3.490222468312706,4.161424434915351,0.003084187432827434,-1.3928000488820165,0.905457553054464,nm,0.0
60.789989709854126,-56.272421218703165,-13.657095616134743,-104.07009835577053,-1.37054282390879,-4.921826231784533,8.375011840418763,-0.2343944341050634,-1.0996249928618147,0.646011907211165,nm,0.0
60.79171848297119,-56.91996526862075,-10.874052539339797,-99.30782470356871,0.49296042548245617,-2.830251683409828,4.272714301841262,0.5601997232171602,0.006931878396950717,0.9338340375772234,nm,0.0
60.81688141822815,-60.70337657579074,-11.740693138182017,-95.68096183514352,1.822097099038233,-1.203327939930175,3.1019978360084886,-0.43042833286479676,0.5022892337849949,0.18198229499804056,nm,0.0
60.819931983947754,-66.69632751981463,-16.075890557776443,-95.21052145560726,1.9107186730237151,-1.3749024677474486,1.160631665880629,-0.7623561132610109,1.238155686677917,-0.18444506652309706,nm,0.0
60.85064077377319,-78.58920850977498,-28.505960720870245,-92.9593241450442,2.0879738320679744,-1.5945112529118528,0.8686386134054801,-1.200278567011005,1.183515486558744,0.0865711259701665,nm,0.0
60.85256361961365,-88.9137320411419,-32.23678909820119,-86.21749190045345,2.114030442021902,-1.4941417164941346,1.4261449947848441,-0.7630876276875711,1.77709707100341,0.3145462860918668,nm,0.0
60.856133460998535,-99.27815606533296,-30.97194566102493,-79.2480509602666,2.8971825293561846,-0.9048299562112055,0.6474525579858685,0.02377187233360835,1.7835989226880051,0.3193254712500234,nm,0.0
60.88631272315979,-117.96853578635115,-17.24586799367519,-70.90833769869687,2.1265141155926837,0.6030923430505608,-3.5668647711277393,0.9632477779736102,2.200540297236786,-0.07906630043675504,nm,0.0
60.88799786567688,-126.51726179700547,-10.516872096092369,-70.38485688896158,0.5448943913182829,1.391763538095643,-3.9122421132749934,0.7222936301334754,2.010263199266862,-0.2928618952892698,nm,0.0
60.91576623916626,-133.73799890730228,-7.001055716672412,-70.45491179532179,-1.0321357903478343,2.15722658619436,-4.394985480428361,0.18952674152476268,1.5777521565353028,-0.22159293994962737,nm,0.0
60.92643094062805,-147.95042088584847,-6.518740302838188,-62.9432277632866,-1.8660888208779718,0.9239134148277909,-2.748234627976873,-0.6217821864816714,1.1914747019348852,0.9128041909933977,nm,0.0
60.94230771064758,-161.6768366926017,-4.005121135615695,-44.42007249577604,-0.5927652089145726,0.48827173129418694,-1.7230478263276496,-0.09739274298298105,0.817968202139379,0.8973460418370588,nm,0.0
60.97310280799866,-166.2969192044831,1.6699227969710635,-44.61078257158796,-2.487412328247568,1.7770999063662822,-1.3845425139042993,0.0440634637551434,0.7027754227292974,-0.31337693094248026,nm,0.0
60.97705268859863,-168.28794700355778,3.1482612953738442,-47.714775083437324,-3.8235696011732716,2.2941624714993583,-1.5014077834690975,-0.049601148156709456,0.49335133570750367,-0.5978663691286829,nm,0.0
60.993690967559814,-172.7571322173673,1.1510886442895902,-51.332517392369354,-3.7357077845089717,1.716065699357175,-1.1109625023507292,-0.5594406062153687,0.11961864172810324,-0.1783049478022203,nm,0.0
61.00039219856262,-174.61282534921088,-1.4631258568478436,-51.04597562646027,-2.834542998175308,1.2032441086999055,-0.6391785783198064,-0.6277530071324864,-0.03741260857543059,0.0626047569972201,nm,0.0
61.0223925113678,-175.39440129075555,-7.442879783835996,-50.54442159767445,-1.3313451269696233,-0.21399153435901155,-1.4508596310189443,-0.5093044374730178,-0.3919616669266209,-0.0068051216081088306,nm,0.0
61.02759790420532,-175.30578114953516,-11.006735292268237,-51.93728489175024,-0.8950149050145346,-0.1940463891879412,-0.6522319081360677,-0.5331858025668899,-0.4585594554655233,-0.2687418116357557,nm,0.0
61.05212354660034,-170.70050799480495,-17.334140773115813,-59.86118074836389,-0.9795702230428354,-0.4840010622823012,-0.8816922712247631,-0.2008571056255597,-0.8166621052828515,-0.7819521431776845,nm,0.0
61.07856249809265,-160.2921674882235,-23.233300713189593,-71.75909414197328,-1.1107869707253493,0.07058652499077868,-0.9037329338488911,-0.0992412497152252,-1.263196804165418,-0.7529323596779219,nm,0.0
61.080358266830444,-152.66153408221513,-25.834843958786834,-77.5725778457276,-0.5522095505019978,-0.24192879798626868,-1.1833240439945283,-0.1259787895086037,-1.4784100098290958,-0.5161815383549526,nm,0.0
61.08902859687805,-143.35153359731802,-28.70410708935774,-83.23104427450833,0.15036296724724257,-0.713845819837924,-0.9945098116203711,-0.28267882280368306,-1.7293114027866892,-0.2638094705722464,nm,0.0
61.096764087677,-131.75191904170663,-31.55039516395344,-89.1666024672467,1.1395133161692736,-1.8695721299291506,-0.6325774119053655,-0.42950126366771135,-2.0409834953249524,-0.0056783009307986125,nm,0.0
61.121309757232666,-101.70581673986666,-32.05369867399534,-103.26651650710038,2.571940409653514,-5.657650661749396,5.0283592918683935,-0.15511228820323222,-2.6974929755126587,0.2732329550712398,nm,0.0
61.14588475227356,-81.26344696574206,-13.646914798943165,-106.63385344403369,-0.20032678603431675,-1.714343341872695,0.8579324587873366,1.4446421981047206,-2.090238208178566,0.735434087271833,nm,0.0
61.14763283729553,-73.4132381874645,-9.437723245754412,-102.05259748402969,1.2848525549265621,-1.8395889039236566,1.7190095178932359,0.42470533217160167,-1.7055339440233566,1.2406608554983847,nm,0.0
61.151363372802734,-64.76876952769022,-11.502259594524647,-98.89778544801415,2.198801492000592,-3.2306218145527197,4.097032046820109,-0.7256282993005025,-1.6032789403722933,0.9542977652196342,nm,0.0
61.181310176849365,-60.74486633910184,-9.493036343704391,-89.73226066048221,3.9149375277532026,-1.3974802487755353,3.1040513470018722,0.8673528649569462,0.5060128692199546,1.2900398219430955,nm,0.0
61.18362331390381,-65.80524923139228,-6.726572955157343,-86.14108747230553,-1.9304786220225796,1.290941343396234,0.3501550751950357,0.5083084596767712,1.0155723935999166,0.5846483668129512,nm,0.0
61.189347982406616,-68.37241625567393,-10.280847480330117,-85.0107532663393,3.41228338712261,1.6285245510726258,-0.11214457442265853,-0.7570773573658213,0.4455451706715568,0.15993907829336482,nm,0.0
61.21333861351013,-81.41028636612543,-28.477057328880328,-85.94959741544268,0.006588031105443114,-0.9114678031724874,1.3313108962045535,-2.020734418067116,1.0844741993854647,-0.5971949727635097,nm,0.0
61.218085527420044,-89.23296375739199,-35.37530450147682,-81.37118917373903,1.6058847255287065,-1.200295548312074,1.2695466939349522,-1.5227414812533493,1.1690102717692836,0.09885758894957422,nm,0.0
61.243632555007935,-112.18836009223173,-29.246713189890418,-65.5545456992669,4.296236438703773,-0.9849714355394547,-0.5362180153386367,0.5733707748995562,2.1607752294543165,0.1538957833436574,nm,0.0
61.26734900474548,-129.76676037998774,-8.462806308123826,-65.40333215186838,0.3796191061960876,1.506742390629872,-5.401776715267911,1.1173611454637598,2.481302018106736,-0.669960157312159,nm,0.0
61.28375577926636,-146.7300026462343,-0.43177704720518195,-67.23388502151553,-3.6357056796012026,3.146712965107007,-3.6499316912617745,-0.3049540282457709,1.5617390113947491,0.0033310680972300803,nm,0.0
61.29939603805542,-153.42717278367834,-1.0119751878091987,-62.548397202970555,-3.8183422401846143,2.1106691527176737,-2.919182705134722,-0.6638499288377342,1.162179768320571,0.9299030433244481,nm,0.0
61.301183223724365,-159.02021695295883,-1.5282723523115989,-54.32925134543092,-2.72320419679104,0.3739581639695484,-2.057798281175488,-0.6632265511017639,0.8997378805761104,1.6285539807615375,nm,0.0
61.30556845664978,-163.24218690451397,-1.381866006957182,-45.77847881800696,-1.218657221470727,-0.3358975803220836,-1.4347347703784015,-0.5087687036786149,0.6685131786811174,1.6982017418137438,nm,0.0
61.330371141433716,-167.96619232944397,2.567237016346934,-38.42911481312976,-0.5945136599305965,0.48978606331616587,-1.387996676127231,0.05068208579473047,0.6481938584551795,0.30876632730164294,nm,0.0
61.33608293533325,-169.71999477894312,5.2348145672960475,-41.57204500653548,-1.760841084440073,1.056963048222741,-1.3873577361377005,0.08781845864544108,0.6367798297339159,-0.5990097773288718,nm,0.0
61.35670208930969,-173.2002469620699,5.67480667155872,-53.204881266422085,-4.822240107633125,2.3593785765322024,-1.6851380950099173,-0.35098771286941916,0.19651310323891874,-1.0880275141878317,nm,0.0
61.379202365875244,-176.74894250755622,0.17031803821120672,-57.35252170341386,-2.686970104990395,1.313703586674828,-0.43057139660742116,-0.6257373984487361,-0.17198765883379877,-0.16740465501031965,nm,0.0
61.38093447685242,-175.4727111020078,-3.2434930005332303,-56.77267495129151,-2.093729038071834,0.1398942551517851,-1.658745099679037,-0.42182557326341247,-0.5859839652696419,0.12922704211268152,nm,0.0
61.43074560165405,-173.1902325288689,-9.792683593271498,-55.75764460529123,-0.13988234009477876,-0.5135090341011175,-0.3524600598161754,-0.35198510072547606,-0.5631372080771377,0.045214699532143555,nm,0.0
61.43249177932739,-170.02885115665015,-12.4921810612021,-57.94782585341808,-0.16286570093556593,-0.6604318793143659,-0.947067467716693,-0.10115676801493453,-0.8148427175981273,-0.30772123204677176,nm,0.0
61.43789458274841,-166.00815659614975,-14.98035016753527,-62.611653678322604,-0.4637092774474626,-0.24996118834412498,-0.846434386128415,-0.033791761926534505,-0.9261912694062276,-0.7329565307674437,nm,0.0
61.44010806083679,-160.64754484683507,-17.137704841747386,-69.27023626837223,-0.8804250256397483,0.43534063977750226,-0.5802697426156461,0.0363716918532258,-1.1190534262965177,-1.0250467078039278,nm,0.0
61.44356894493103,-153.21247384911152,-18.85073787142695,-76.85196060559026,-0.9575123961515468,0.7645157390198724,-1.1887685842307607,0.09341438152390709,-1.456382753661217,-1.0447557153273548,nm,0.0
61.46113467216492,-132.3188837514092,-22.329626575484024,-90.91425975231049,0.46146247149009517,0.07325120399294784,-1.4435504757986812,-0.2756211666691429,-2.191017628312886,-0.46486426282701926,nm,0.0
61.46498370170593,-118.15712737869889,-24.415942282108542,-96.91060718232998,2.690183598204415,-2.144961982111546,-1.6214634806233548,-0.5911525463110053,-2.568860862417024,-0.05622744722239584,nm,0.0
61.49184012413025,-85.19404047483145,-24.05054372728388,-109.93354086562852,2.2480686323910253,-6.486548556666285,5.675783017495687,-0.4838139436823763,-3.116684770471424,0.17524497959927585,nm,0.0
61.50178098678589,-72.07325904284289,-16.377670694565367,-111.81657247730115,0.6229979463487376,-4.165704857172882,2.6427134302423383,0.5408114404212157,-2.850889328259754,0.5447544338841408,nm,0.0
