timestamp,roll,pitch,yaw,acc_x,acc_y,acc_z,gyro_x,gyro_y,gyro_z,markers,motor_input
40.028441429138184,22.640026457532365,-52.439393849955245,-81.94232761109328,0.19441740794735868,0.2419292182025291,-1.507286989449578,-0.777971535804409,-0.4674878835479093,0.44876153333113955,nm,0.0
40.03398871421814,23.491633253960487,-56.05735952370895,-81.02469985649752,0.6499153394395751,-0.5569282213615546,-1.3192221692350392,-0.7083752310704147,-0.21880677217765226,0.3230219288730072,nm,0.0
40.05682015419006,21.46462112986109,-60.81663182583554,-78.74245798392747,0.9250491964813485,-1.3724946720446092,1.5403251744500746,-0.3831623544011517,0.07814738291266722,-0.007284587094910191,nm,0.0
40.061561584472656,19.333428142204937,-60.70890662345369,-78.53745226400582,0.5627379368510164,-1.8202474935411017,2.531889326746759,-0.026118604093134656,0.1960353539963715,-0.2806897568259967,nm,0.0
40.085004806518555,23.127541057438876,-59.48472548648901,-86.04580097625526,0.3734703449502167,-2.143994156262009,2.2726667299062666,0.14406340701412912,-0.32418701503431613,-0.4496421040933789,nm,0.0
40.110422134399414,28.45581849277239,-56.36294158556982,-99.11549013219674,-0.6563841235030542,-0.05012900696827194,-0.10211740878668382,0.1202005754982145,-0.11045281453985978,-0.5308445885259564,nm,0.0
40.118717193603516,27.70737368169339,-55.942201544844124,-100.17689083334247,-0.7516009149119935,1.7997038564136731,0.1537495442823778,0.08735106029966301,0.05755018995513795,-0.3311225158228108,nm,0.0
40.13339304924011,24.05998940035499,-55.151857546658796,-98.74442002472396,-0.5489804458123237,1.8005525235694164,-0.9076425235922044,0.21448085632638517,0.37081924635721036,-0.28641942675415205,nm,0.0
40.148603200912476,15.65168556377242,-53.047800931618355,-92.52546223154626,-0.07939988910351696,2.2246857757250704,-1.2013308492272363,0.24619107327209755,0.4382546634159806,0.05742822582506758,nm,0.0
40.16596698760986,12.33362092842809,-51.37889283892216,-88.6400480300917,-0.20110789442632054,1.5920619457774283,-0.8019334692765749,0.09403505071727236,0.06544781679939882,0.20498569594550892,nm,0.0
40.18123507499695,13.57904594805951,-52.123344281657985,-88.29622150511396,-0.2975544773677672,1.1515432104352101,-0.49301239523436485,-0.15434405127576994,-0.16923621117169863,0.25159882553565743,nm,0.0
40.18727970123291,15.99485397130566,-54.101014561664435,-88.65953840694877,-0.5101275390409078,0.8366017675235811,-0.3716326431259627,-0.39716994081391804,-0.31219442702785305,0.29346522208879033,nm,0.0
40.20654249191284,22.70532076439165,-61.42093678373784,-90.23432267175879,-0.3940566985581634,0.4317554323946274,-0.530758483587532,-0.8521183077254768,-0.37718546810409653,0.4674699530110569,nm,0.0
40.21632528305054,25.82328967965859,-66.21476962023466,-90.84417773227452,0.16136993947457914,-0.39522594199971484,-0.47464854304739307,-0.9712115049142565,-0.27721748982112543,0.4614867324437223,nm,0.0
40.23544359207153,29.08462236252338,-75.52689092957714,-91.42774070695374,0.9316668759528361,-1.5962517624330492,0.6167413856508606,-0.908207452587972,-0.06139232705138188,0.2259938006506731,nm,0.0
40.24018216133118,29.246397561477654,-78.83114696278663,-91.67030576099957,1.3725336215122101,-1.6946805322459801,2.0592467125892995,-0.6711733268245433,0.0011089681150559254,0.034109545919100835,nm,0.0
40.27020025253296,38.04912509612914,-80.67242607123463,-103.01378422913528,0.6172335694871768,-1.5090221668144754,3.798542491532442,-0.09498927093208809,-0.24887638881536478,-0.1929397297782952,nm,0.0
40.27348184585571,48.88672033852337,-79.3696475850662,-114.51983330266296,-0.1495454498077964,-1.105262298722862,3.074022475659446,0.11787809025003203,-0.4481644371554137,-0.16386660865401972,nm,0.0
40.279072523117065,55.85135958408373,-77.07658174757856,-121.51343204667346,-0.20042786719207906,-0.1972933123456025,2.298307407414424,0.2637327869045828,-0.47664473844435884,-0.036320812793357964,nm,0.0
40.29392099380493,55.78248556891627,-74.3882262372302,-122.59564616443129,-0.13128443686006838,-0.4776132708258787,1.055309070618253,0.4498224103533403,-0.293739752966127,-0.22609513310112717,nm,0.0
40.31497883796692,49.54914213336969,-70.70360579624798,-117.92281149631754,-0.3118055039593522,0.5392502858825643,-0.1313597391205765,0.34533313928582515,0.044071455655366375,-0.01698398966164671,nm,0.0
40.31717395782471,43.81955447127034,-69.96837533290152,-113.23844174022236,-0.36160465995377356,0.7085463689954355,-0.40885426717092327,0.2902004238935894,0.2733946855290216,-0.10703016794770805,nm,0.0
40.32925891876221,36.85825231288044,-69.36689617212838,-107.07058548582523,-0.3418058711102087,1.0620433054031548,-1.0433378287826636,0.2709909422501862,0.40163773738545944,-0.026210733761045133,nm,0.0
40.33505916595459,31.31696009682728,-68.88017920616342,-101.67663466248999,-0.13814084262221646,1.8707423750586474,-1.4340564227547477,0.18390958108001348,0.34745382825367915,0.09624894146719362,nm,0.0
40.361342668533325,28.286855899293368,-67.93368416396765,-98.82657976625055,-0.3193694838278026,2.0098291329116247,-1.69195584893449,0.10331241334709715,-0.02913727553757253,0.03917707765257983,nm,0.0
40.363131523132324,31.082313147112448,-67.34941008887684,-101.33730118436465,-0.37650093999565537,1.897419508469539,-1.5079099484689282,0.06844609992140274,-0.24063838825870784,0.03160048440184913,nm,0.0
40.386883020401,41.0287125267936,-67.89787011015615,-110.77272567925702,-0.7284063721084525,0.7083575515510497,-0.8350325588182239,-0.26220349170690754,-0.36083351704641803,-0.006386351154779064,nm,0.0
40.39161229133606,46.60008994081711,-69.5171954285019,-115.59328009374917,-0.5448737683327844,0.15407309438682437,-0.615240768754257,-0.4670125434280178,-0.25479156521021246,0.07759664552839218,nm,0.0
40.40219211578369,52.50881122273711,-72.21677725050134,-120.80059161533626,-0.13961519972326003,-0.4816685767497673,-0.46186308442741464,-0.6690868469722251,-0.09576853078275198,0.09500922582577212,nm,0.0
40.41093468666077,59.952534796703674,-75.58436305287248,-127.76493205111656,0.39214769131580873,-1.5256852793871352,-0.2800053228238787,-0.7989290091465802,0.029848726861953844,0.0715082374694007,nm,0.0
40.44353437423706,83.72654759476279,-80.73291572865783,-151.45924451931214,1.0148816535780798,-1.7146416530950148,1.033233931001089,-0.6135657259723992,0.05164069837103869,-0.055032964490932215,nm,0.0
40.459158182144165,90.69649810437637,-80.00698860621361,-161.7620275696682,0.5323647363208568,-1.3343041854965025,2.816981890812813,0.08009191314631793,-0.21828593496099552,-0.36633488617495147,nm,0.0
40.461440324783325,86.57443602945646,-77.49018592958872,-159.35037136492386,0.15967642577968472,-0.9264398681533615,3.092427260736236,0.3096530726814737,-0.4315242437188564,-0.3465442213208836,nm,0.0
40.489501953125,75.94480300821276,-71.62796131138106,-152.1751285285867,-0.09883897409172199,-0.7548953760219417,2.031875967533368,0.5429472116581995,-0.3459811716419676,-0.32234260664972525,nm,0.0
40.49173092842102,68.26972743984254,-69.85687919284007,-146.74307091029564,0.023818039742697004,-1.5642162276855887,0.7553193418737527,0.6044555993129155,-0.05596898648429507,-0.37107831489612886,nm,0.0
40.51494598388672,52.707797321483596,-69.63132958403332,-133.49760569996639,0.4340575387694211,0.3655061106502918,-0.6923900951925832,0.37172336904959113,0.4234788617551646,-0.027718343569071775,nm,0.0
40.516706228256226,42.859162844993506,-69.66325266372957,-124.15590117496943,0.43564731926072436,0.0864278785028212,-1.8202896292238115,0.41380546374412974,0.5281874314014144,0.063680685197693,nm,0.0
40.5424964427948,31.072541996071184,-67.70851319134401,-109.88238607418316,0.28341756500407916,1.9199305238115485,-2.220677934936338,0.33751036182882216,0.1601344552693984,0.41952697263197414,nm,0.0
40.55224370956421,31.14931561711743,-66.17721129178554,-108.10191019911765,-0.1796991329041774,1.9734081270656494,-1.995397933049312,0.2774950203385683,-0.11555622716160957,0.40362671418469204,nm,0.0
40.576252698898315,38.281693584477225,-63.642330802431964,-110.61282574286362,-0.7311232735475792,2.1930337404506957,-1.2099378765366562,0.06184784336029279,-0.41210425096389924,0.36937266094930865,nm,0.0
40.57812547683716,41.95408089315579,-63.78647322713176,-112.85980633715762,-1.1035615214241712,1.2288825412393138,-1.3700646025513405,-0.15738688936788506,-0.30203798183981284,0.2177902029796823,nm,0.0
40.59494066238403,45.81611775844972,-65.49473492241205,-114.96014991871897,-1.0184605850273432,0.9887090493897066,-1.3084766400306498,-0.4567452662638315,-0.1743343637890205,0.29355934290681696,nm,0.0
40.59701061248779,49.64210830484451,-68.64589337786528,-117.24654522468173,-0.5552802485650636,0.5765477173718163,-1.3253804202808517,-0.7075442036227197,-0.00013122711524990617,0.27428255913363353,nm,0.0
40.62624549865723,61.81397415457072,-76.55061765774052,-127.92673524914737,0.6579259668747707,-1.1034454519233905,-0.8097722318921866,-0.882956268406978,0.09988120025068371,0.1246740221376501,nm,0.0
40.63358163833618,73.88346587355747,-79.28735644957735,-140.03581393427038,1.0660330229692132,-1.6939635126345256,0.1450375575557337,-0.7524397715899148,0.00845170857205532,-0.03132783995586419,nm,0.0
40.649176836013794,88.26048937175514,-79.04900883592599,-157.994529785725,0.46297285066810334,-2.100634272743544,3.2010339923608946,-0.01967666311076596,-0.2422050052581474,-0.49021309318486933,nm,0.0
40.65099620819092,87.08251243268657,-76.70612650891103,-158.93232490149865,-0.055540824551748746,-1.0609378864383665,4.1728696032528045,0.20874424158394775,-0.42813316622310066,-0.4319770268694326,nm,0.0
40.66746997833252,85.62326338474475,-73.60247806998655,-159.52664370957882,-0.41434563356255977,-1.0731863874199417,4.063263062964406,0.2806702183132337,-0.5637884368495469,-0.4306247319940192,nm,0.0
40.67219853401184,82.31530238640677,-70.71070935368215,-157.70093271494218,-0.5623246099394246,-0.7578898513723856,3.027040443511055,0.3896425005318161,-0.4735544463601191,-0.3001915228082283,nm,0.0
40.67749881744385,76.30776087886616,-68.82698627080083,-153.2474508830322,-0.1578760502223969,-0.9377493709562843,1.8442690025737423,0.5231959184425318,-0.1784781640196596,-0.2574994991712268,nm,0.0
40.70422577857971,60.231218652244884,-68.77398293040957,-139.93548925919995,0.40365694198262064,-0.5927530472546563,-0.17474515041526464,0.42797861613693194,0.44360860623259013,-0.03845053082623676,nm,0.0
40.70600390434265,49.70545533103437,-69.46419248050583,-129.9935989554584,0.6709294938472684,0.1149971195472244,-0.8074324071289908,0.42223785826640853,0.6184152237443564,0.07184090066776712,nm,0.0
40.737738609313965,31.35116314429999,-68.07583743170252,-110.41950840072403,0.7232799216560518,1.1824710118008515,-1.9599296085441098,0.4101139082106587,0.37654939725704467,0.36880484074130837,nm,0.0
40.739726543426514,28.932937493848655,-66.6098849774839,-106.48259343620155,0.3324238012383061,1.9578394628283275,-1.6131902956187951,0.327121847062307,0.07410590675921339,0.3603297008167218,nm,0.0
40.7442193031311,29.88994273586614,-64.81759889220983,-105.96204150922819,-0.15100384661834454,2.1949717866366787,-1.338325759379531,0.31222792013155304,-0.18613985832010513,0.3057343532182673,nm,0.0
40.76139521598816,32.87590450933694,-63.29787497682204,-107.40468610799381,-0.41075697599475747,2.085233036587909,-1.3401594943620387,0.20603577128997239,-0.3480165980231166,0.26484059025697715,nm,0.0
40.764307498931885,36.54367811320257,-62.84472965047824,-109.82092495280787,-0.7511352935587554,1.8150663213406677,-1.2380198171884536,-0.030462996794618565,-0.35418185834015675,0.1827069424112855,nm,0.0
40.7902090549469,41.708241967745124,-65.47423743520278,-112.58626322521977,-0.679476856082972,1.4919816819471234,-1.5095639095984388,-0.4281019803442963,-0.02292738881559297,0.21933835257220205,nm,0.0
40.792113304138184,42.984074647793534,-68.56129864506491,-113.05149913880427,-0.38723348430311905,0.7745933365635159,-1.6385650418237698,-0.6183440666865354,0.13865034970051998,0.1843257485112094,nm,0.0
40.82419300079346,44.770983157257916,-72.22253623196899,-113.94967614847764,0.13405958096659584,0.02465662208952001,-1.427722402574769,-0.7301093093462474,0.17345288039129275,0.19924574061705136,nm,0.0
40.826836585998535,56.87690188755437,-78.3741747223353,-125.59348384779742,1.0669819023339413,-1.9295109963265786,0.043894015616210036,-0.6653414124156223,-0.04764772767283304,-0.014872583417145398,nm,0.0
40.84248733520508,68.95996825854914,-79.49409566269094,-138.7575292843281,1.0165456914132827,-2.184704137411689,1.7191777310338938,-0.486118403128302,-0.20066063262481262,-0.23418815461013642,nm,0.0
40.84426522254944,78.05797436677088,-78.7586144797008,-149.8721861808424,0.5854311831455822,-2.247979460007239,3.2867287744246347,-0.2020329468600468,-0.3277649636286597,-0.4298430319927242,nm,0.0
40.84913182258606,82.17689010270156,-76.71591822883748,-156.5846757926749,0.45271069780952244,-1.027524242083327,4.483521853280024,0.018553065094746888,-0.4528737844408624,-0.5536031869961909,nm,0.0
40.85955023765564,83.00297411080015,-73.67206852036085,-160.48166487357148,-0.025614642454973864,-1.1089963930561666,3.937803596695504,0.17394453454672013,-0.5913021132941257,-0.6519372098069927,nm,0.0
40.87953591346741,82.2966585334723,-70.54540980989455,-161.9727801688216,-0.21151946091687276,-0.18219661087220465,3.1217455451607075,0.2319885069752785,-0.5867145663702478,-0.4663460265058248,nm,0.0
40.89505672454834,66.7859325357191,-67.80623267111281,-151.96563795308157,0.20001230029952924,-1.2933005419500965,0.8451298224019262,0.7017653550411526,0.18074124444892883,-0.44274789501885115,nm,0.0
40.89681100845337,54.19502402225228,-68.34253013847645,-141.8601578033619,0.5971167076349777,-1.1551460664934223,-0.24974188535139005,0.716759841829245,0.5945478835450018,-0.28760638690526164,nm,0.0
40.92261004447937,22.377434778784213,-67.28559594260602,-111.95995767798263,1.0510498417190908,-0.2304244966803735,-1.646665123563325,0.8438408370699761,0.8919233435373455,0.21116767593296362,nm,0.0
40.92552399635315,11.651297454381565,-64.40115730474344,-100.23746052210888,0.8603238545472479,0.6633293677665871,-2.1446913505869403,0.7863829618773099,0.6738314777361857,0.4413783778003899,nm,0.0
40.94733166694641,8.974591429531978,-60.29627720462024,-91.6521136117618,-0.052541108581191084,1.7745772232738997,-1.7818524940064886,0.309563116679285,-0.1465498478512531,0.6919824638056762,nm,0.0
40.953818559646606,13.40125605301142,-58.982620092775775,-91.78852734328179,-0.5856714611637561,2.5079880209375416,-1.514504445856566,0.2391110015256806,-0.4658244043203089,0.7483976543215205,nm,0.0
40.97706389427185,23.590999375936065,-58.5598078188916,-93.78860371136817,-1.8146858204020107,2.4908086077634235,-1.5390166509105823,-0.09797682511575927,-0.5066356123725932,0.6448492885411297,nm,0.0
40.984652042388916,26.751629816786373,-59.79347744654749,-93.4508384587955,-1.7985955049705968,2.1334659815309975,-1.6077522060413987,-0.275972658067939,-0.31935572797835726,0.6381590182597494,nm,0.0
41.001137495040894,26.07918137504582,-65.22979989373769,-89.33642487394597,-0.7961101494752565,0.3800095231578885,-1.5686758188223477,-0.6488959991764244,0.1137856946139803,0.2835487969527285,nm,0.0
