timestamp,roll,pitch,yaw,acc_x,acc_y,acc_z,gyro_x,gyro_y,gyro_z,markers,motor_input
59.52049374580383,175.43402699623726,12.482165466371479,-38.67709319486217,-1.425299342560662,0.06693704710316853,-1.1975481041038105,-0.28311345085260564,1.0964602899114613,1.3313662705711111,nm,0.0
59.526118993759155,171.30911705882468,15.171612388108814,-38.30146364909662,-1.294617581327625,0.2658795445669147,-1.5320459676871374,-0.2789310599770997,0.9248807592626939,0.2737132069539112,nm,0.0
59.54996299743652,164.29789944625242,12.170853362777889,-49.569148426548686,-4.088595453452536,0.7133956102111031,-0.6904039115241551,-0.8246216944745948,-0.012299456296963171,-1.2077079554633092,nm,0.0
59.55330753326416,162.1972008381762,7.536334775767103,-55.37759926767379,-4.968883355747504,1.2487734598260392,-0.4058782336757745,-0.9743526907537402,-0.23587640269705346,-1.089900535674519,nm,0.0
59.57818365097046,162.8986243574216,0.0992538578774369,-59.803759380349135,-2.896937440745716,1.0504393126706435,-0.21528690053626828,-0.33178546645624146,-0.6524789688519955,-0.20932416405065102,nm,0.0
59.58331894874573,166.89466789197465,-2.482301832190376,-58.479756975220766,-2.845314089241122,-0.07922935823882069,-1.703402267438212,-0.0191190269145524,-0.9515411962855191,0.2842529315922464,nm,0.0
59.60916209220886,174.760637299708,-7.55121262707065,-54.17566323114974,-0.10662654435354271,-0.24459116604592368,-1.0252529965212027,0.08320758906039072,-1.0210355176770525,0.45392078775252354,nm,0.0
59.612385749816895,-179.30003688468503,-11.103825138973818,-54.83129520292936,0.057989613155450044,-0.3656146599281189,-1.6930287855417516,0.11552548220499208,-1.366679349699573,0.06809147203339966,nm,0.0
59.63914942741394,-164.16621496559404,-19.970269714463633,-65.91250524491697,-0.1424861360454953,0.6573162960555494,-0.7576286880102342,-0.004498114972061876,-1.8677671452754827,-0.8912769836497018,nm,0.0
59.65946102142334,-137.40399047580797,-25.56529594867232,-84.21752505712857,1.3088937489505719,-0.6432125357857175,-2.066231383552893,0.06522615448674102,-2.6990471089109147,-0.588898157610188,nm,0.0
59.66125798225403,-121.1592899968248,-26.555758756248654,-91.70993222263576,3.463182427744477,-3.864656891836648,1.856115431151987,-0.09129869444603285,-2.925822906975321,-0.04893114990521112,nm,0.0
59.684433937072754,-90.94722790944195,-15.144142481013073,-101.51842069731103,1.2124376185047134,-3.8694619726734274,3.231088351172484,1.2851978269800748,-2.617631369188596,0.2281157744745341,nm,0.0
59.687764406204224,-81.06413492411829,-8.81214229009164,-97.44598480633464,0.360297625700804,-1.9769463543201105,1.1596283949061192,0.921325520858774,-2.1242964413315377,1.2351398289749635,nm,0.0
59.710859060287476,-63.582252772527625,-9.446924034803006,-88.91252332285733,0.6363590884227615,-5.915820354519138,8.52760190113618,-0.11402605316675858,-1.5306493618247559,0.9368950748749284,nm,0.0
59.715352058410645,-63.497810514624405,-3.428698357839387,-82.11200475871954,3.3965285851843867,-0.7674742192868855,2.7125162218833156,1.1947582759549367,0.06936629964038428,1.3707528505636701,nm,0.0
59.72518181800842,-64.39636906434771,-0.38977582717792625,-79.03417875274322,-3.4937405373693253,1.236461340227454,1.169573645227085,0.5629680695317858,0.268077871381563,0.6182836705742232,nm,0.0
59.734981060028076,-63.00028049626369,-3.796527215620679,-77.96062918957857,4.269565565326157,1.8233448972854758,1.3121672661479036,-0.6207633519330044,-0.41856277906789513,0.23328466528174877,nm,0.0
59.74708151817322,-67.17129837000202,-11.418074812855796,-80.72936545075454,1.1509746929481819,-0.8229447516633235,0.96491129918144,-1.6605652121191898,0.5251959967687172,-0.6543876196419629,nm,0.0
59.76612114906311,-70.29367294118764,-20.06495492385999,-85.29784216000422,-1.0298314782936808,-1.000900120177489,1.782668535502664,-1.8002536091280268,0.38288446778381846,-1.0718884219705243,nm,0.0
59.78243565559387,-82.9832762196679,-29.676525839198707,-79.4373450360527,1.1870951066234972,-2.1532050677189596,3.3263471850619344,-0.6822464197331247,1.548974053830563,0.3088309394571389,nm,0.0
59.78656053543091,-92.24030679068004,-24.1691390667252,-73.05612182919411,3.28010463147686,-1.8276780183820718,1.689623223913749,0.6718631872970129,1.863666243522424,0.4487967136639887,nm,0.0
59.790764808654785,-100.67678363886493,-12.758191436286559,-69.1891880268514,4.218047108943929,-0.32063003815185703,-2.8963303909361406,1.637801905363502,2.2508998186624374,0.24850370421393705,nm,0.0
59.80133247375488,-111.4687689444484,-0.12355939194925747,-68.40103029993892,2.3346599083859303,1.4330345716192923,-4.786048049907408,1.5758343830656854,2.9109592541743257,-0.07338343867150413,nm,0.0
59.8362250328064,-132.02288468697668,11.0736593919837,-73.7840000967643,-1.9862022901252294,3.6697344080778493,-4.2199558943351025,-0.09326951756037334,1.9100304874059193,-0.2160065587677218,nm,0.0
59.853429079055786,-141.50433421648077,8.885361652728784,-71.93099172615362,-3.0644891658988347,2.818620160430016,-3.8751425640646606,-0.9607143745865917,1.6510105397530472,0.7088108429561055,nm,0.0
59.85517764091492,-157.71410961205635,2.9179984261124616,-54.988361985380685,-1.8662243796711653,-0.5698232744486742,-2.9763965176482565,-1.1407210892763984,1.0044129925759175,2.068628604115574,nm,0.0
59.869468450546265,-170.29759539796743,5.301510419165257,-40.46564954461796,-0.5493683561626568,-0.08224665318972366,-1.9502665213335881,-0.5172363224963203,1.1388563844660162,1.182697153480844,nm,0.0
59.885936975479126,-174.95591048465909,7.924510643772517,-40.00636213617628,-1.578707588956931,0.40157273696822,-2.581534529034087,-0.3548930539685729,1.0022243872219199,0.20423270190286633,nm,0.0
59.888558864593506,-179.83467895325154,9.340657143758802,-43.76927826257336,-3.114541788064888,1.1020552851818146,-1.6772727519496955,-0.5159770235539336,0.8583386360856253,-0.6026135010503649,nm,0.0
59.918639183044434,173.02076795944367,6.12380922602796,-52.88932061929898,-4.95977800627206,1.496356754498778,-0.9088771127562443,-0.788547672116429,0.17542642650492693,-0.6765604363929991,nm,0.0
59.92126989364624,170.3308839839947,2.8734596549267786,-54.04159103650475,-3.522090358108039,1.3636714254845872,0.07276424418184813,-0.8283376174036521,0.044937302683839365,-0.1856745711100787,nm,0.0
59.924076318740845,170.42880167386284,0.03818066110889522,-53.29012605558824,-2.396418571759717,0.885929681184504,0.23607437504450354,-0.4316923443733957,-0.3509338409589508,0.15302652750489898,nm,0.0
59.95042443275452,174.40443108341165,-4.585514265774753,-49.73027545345064,-0.9321012684250636,0.05474378437953846,-0.6888725176061501,-0.11992762279971993,-0.5663097684818956,0.38350752874213007,nm,0.0
59.956114768981934,177.3695114461246,-7.161921499045431,-49.37290289895731,-0.4334639511485931,0.3825112528904424,-0.670909904505257,0.0037713893289135483,-0.7816303113711848,0.1376693010447,nm,0.0
59.98637843132019,-173.58685789813,-14.007912922897454,-55.51212018902598,-0.6116050395899153,0.6262910590073714,-1.3370035116285852,-0.049178962173456776,-1.168357783358307,-0.6398015739897321,nm,0.0
59.988144397735596,-167.6340240154661,-18.061839873894897,-61.437696600794354,-0.6682660301154743,0.7718506507305948,-1.0478738843692945,-0.08132594153080838,-1.4001778109426328,-0.8465663510282565,nm,0.0
59.992018699645996,-159.7337135628197,-21.85581645999718,-68.02051018373807,-0.4444019055122684,0.3011168883137693,-1.3712486106755133,-0.04157142676967207,-1.66847534530768,-0.7651112789085013,nm,0.0
60.015501260757446,-139.59040512056532,-28.504869906131596,-79.92959467209555,1.285576250161208,-1.817631072377597,-0.5706882561312457,-0.19302614972160972,-2.0435313279549505,-0.13612265658252498,nm,0.0
60.01979088783264,-126.60693100536726,-31.369403716156846,-85.74879569885155,2.25431581083203,-3.4412156266703406,2.0205989715256933,-0.28291626790684643,-2.3047534106503607,0.15017243657361387,nm,0.0
60.04405450820923,-100.31643395426254,-25.087411212922223,-98.15380331920797,1.470907517087097,-4.021439783636588,3.2875346688544878,0.9903971310204978,-2.1515450947884824,-0.015014175067788573,nm,0.0
60.04981970787048,-90.75752469673225,-17.751084045687904,-99.67558314227587,1.324410084525358,-2.2366490437578177,1.0125017189271321,1.1661945484551381,-1.9909473786360314,0.4092258617550758,nm,0.0
60.07220482826233,-71.87790848627616,-14.587162507379116,-97.51457080985914,0.045229610635263345,-3.662416782499663,4.713127512767014,-0.36784413500629276,-1.899298936063293,0.6913661810067131,nm,0.0
60.07751178741455,-65.52984849711665,-13.318010513299242,-93.62688526393154,1.9574079674516602,-5.305431219368568,8.431665474128813,0.12327842724066661,-1.2575664096265107,1.0938326269668648,nm,0.0
60.10067343711853,-68.46934312883509,-6.169165530125575,-83.07443232412604,-0.5544395898766477,1.4096144139975684,0.3647758722299798,0.29063118091445267,0.22196800767403266,0.7919561913502152,nm,0.0
60.106024742126465,-70.01765412065568,-10.956355076552223,-80.80603004297895,2.9854431444680576,0.9913906720091117,0.36640156263211804,-0.9998047545078713,0.16232293430553427,0.4177478715397214,nm,0.0
60.13233304023743,-76.55735605424326,-28.132493889258782,-82.54057000331652,0.3840433715078101,-0.5879539439527182,1.5152457444166287,-1.7974152011042002,0.2292756897079812,-0.4152895910123913,nm,0.0
60.13509941101074,-82.60694582893751,-34.21244975224263,-79.08491249519263,1.1446259063977575,-0.7821274781041857,1.8929010277717233,-1.3726045207584836,0.827755716925848,0.0760902144166005,nm,0.0
60.15830206871033,-102.00379429268463,-27.457136185176687,-65.64069380165155,3.8925638669567566,-0.5589791892516619,-0.03685257155691139,0.7132669727183937,1.9343646476810779,0.24851869153257397,nm,0.0
60.165897846221924,-110.9437557698048,-16.49264119851164,-63.35330791764049,3.2999460526752085,0.43661075438771707,-3.6806601349320545,1.2628369267447477,2.4399094091066162,-0.20052816279801966,nm,0.0
60.18898916244507,-130.90085160141655,0.8306030616372152,-66.02647651833549,-1.2630235581525975,2.5155400800943135,-4.1514600120384975,0.39360347562088155,2.2735473391175507,-0.5025174044560599,nm,0.0
60.205414056777954,-148.35970634106928,0.8694399256746842,-62.99169035016461,-3.4519579880569857,2.3147359110672414,-2.928229342366122,-0.9818484106321689,1.4826403259618355,0.8008707578900381,nm,0.0
60.221691846847534,-155.68609698120804,-0.518503327943719,-55.71107256063099,-2.613896030956471,0.7780574105267059,-2.3377720910940623,-0.9762445248812226,1.1196412989078006,1.4695561229227938,nm,0.0
60.23050284385681,-161.71580836189844,-0.954636060255865,-47.92594485595699,-1.7194966140409178,0.06361550174350102,-2.3321117354149195,-0.8036561646519115,0.8962109309505425,1.5503502963731066,nm,0.0
60.24762296676636,-171.37536895039602,2.584785540185946,-41.26393266370974,-0.9044154838875204,0.31097323350157335,-1.9635228535011697,-0.3103505628949987,0.9123764478631038,0.26856984827881547,nm,0.0
60.249858379364014,-175.2206995016788,4.035629496148285,-44.505404470043295,-1.9805869969177194,0.3253477604788141,-2.0334590689957754,-0.3523134472336643,0.73816472788624,-0.5989169948151949,nm,0.0
60.27447056770325,178.6323878416794,1.6789302704241278,-56.1282537556079,-4.412498818677063,1.328216938691541,-1.577094092156733,-0.6148249181845874,0.16585651149211872,-1.1186760003397742,nm,0.0
60.2765679359436,176.53812929137104,-1.1073114376302002,-59.66235280533524,-3.9502384995891915,1.596097188926396,-0.5925371613372805,-0.6817799364466348,0.058227030093764336,-0.7008435589176992,nm,0.0
60.287832498550415,176.30583206158445,-3.8579509881931275,-60.54764125126221,-3.0672053185099752,1.3500106761630029,-0.2865020528085461,-0.48705052332207005,-0.23470996886708362,-0.17446160591481555,nm,0.0
60.30101251602173,178.15626989374195,-6.713740700689722,-59.2355113506786,-2.6842184182174336,0.3790424163428691,-1.3733675578608708,-0.29625162021361945,-0.6059594707161992,0.302275892779532,nm,0.0
60.30464792251587,179.99669603311563,-9.850834110403238,-56.93986964665012,-1.4855990393664524,-0.08508652056625131,-1.1763064593620858,-0.3274540839578099,-0.640840145100704,0.5187993478994402,nm,0.0
60.32972025871277,-172.85725635953744,-17.099884966163277,-56.89392372957571,0.06790538253518673,-0.43973740788883386,-1.1637776840648928,-0.14760592125071037,-1.1575691710894456,-0.01624280906411315,nm,0.0
60.333909034729004,-166.62907548291244,-21.32983302288806,-61.728830307276866,0.05051189796198222,-0.20245379665380697,-0.9820610041139224,-0.1160148968820461,-1.443564878848805,-0.5467714560763582,nm,0.0
60.348150968551636,-157.7211364647646,-24.939518110594555,-69.87976286807772,-0.18651105942911572,0.15929064783937288,-0.9016285356731866,0.023329073171215842,-1.7915797233619886,-0.9168557867519631,nm,0.0
60.36836624145508,-130.79527897382422,-27.772846572021923,-89.43295110963022,0.9284240983689293,-0.5004291832909383,-1.9578405851246068,0.11049771107155919,-2.6137239562298475,-0.5382269491202907,nm,0.0
60.38775157928467,-115.4268988792975,-27.789210711751277,-96.75324259122793,2.6747309137111848,-2.311924482499054,-0.40078622001986414,-0.1496008212030732,-2.7168647462302724,-0.010259264089438771,nm,0.0
60.40196108818054,-84.57271911234255,-21.09551151067553,-106.40567075017896,2.28728122272251,-6.178973310593092,5.25202644215164,0.4459987878721201,-2.833438392161304,0.40279737861002024,nm,0.0
60.45599007606506,-62.31681474143156,-14.4037531318084,-97.56675240680039,0.3246195268977395,-3.961832047586544,7.016668942083268,-0.5910416896156124,-1.2469364991172527,0.7729356495013711,nm,0.0
60.461058616638184,-72.73564087564364,-20.01379016496159,-87.87317059392483,2.542747403897336,-0.6309008707275057,0.367814525286286,-1.5140458039597802,0.9110773619804386,-0.14940909894924884,nm,0.0
60.46720576286316,-79.08706088260213,-29.52276984192158,-87.9205719207509,-0.5940618694602545,-1.0492165104779059,1.7750223234004592,-1.9504524270560974,1.083749108365361,-0.5308092711002821,nm,0.0
60.49082827568054,-93.20614587344369,-41.45914948061612,-78.244655167005,1.6952551030312446,-0.8485351549828454,1.8053538785403733,-0.948211050721813,1.309857649419061,0.3143387841018955,nm,0.0
