timestamp,roll,pitch,yaw,acc_x,acc_y,acc_z,gyro_x,gyro_y,gyro_z,markers,motor_input
17.03049397468567,-27.588132496909807,13.906018645454159,50.56511594763964,-0.016590642445002614,-0.1820396752999976,-0.31812680410174676,0.1139016960484708,-0.0587607854008314,-0.008607512958955935,nm,0.0
17.03222346305847,-27.76833744090375,12.874910886914254,50.7344819456865,-0.16034712531856307,-0.1837244996740427,-0.29139565452834465,0.1519043082067177,-0.15996333653302822,0.008541337446521129,nm,0.0
17.036131620407104,-28.13017243236031,11.38937190978948,50.846568326086164,-0.1505327553632563,-0.19983114439838137,-0.30997534873182975,0.2004304786127168,-0.24464816222154998,-0.003203044000723182,nm,0.0
17.04939293861389,-28.20870863404924,9.787593823037616,50.616844677865906,-0.2855339761336711,0.11667972265262208,-0.021916412640588516,0.2531660662211448,-0.21668827742336366,-0.07966739071468155,nm,0.0
17.06979513168335,-27.212366230031044,7.818622251913506,48.56836296991477,-0.09176593634128358,0.2886021230676624,0.25540213792434197,0.2318803585130245,0.023215094704648113,-0.29928502470557594,nm,0.0
17.075393199920654,-25.92897588547123,6.972185013265764,47.40605177889834,0.007184176345040289,0.40018285995695013,0.033535334876468044,0.31059470491019636,0.07316192843677176,-0.27946128874579146,nm,0.0
17.088233470916748,-24.85467759063339,6.022575591455987,46.580481421271195,0.36383306636645146,0.16064438319129043,-0.37266681232427434,0.29890740897558027,0.023635673318388617,-0.2048429648080677,nm,0.0
17.110017776489258,-22.897848447896415,4.251335816349706,45.90982601406435,0.03870440324494548,0.11502461078873814,0.35832667585759076,0.2611797058042263,-0.002536033974826668,-0.07080474785640187,nm,0.0
17.1167471408844,-22.269066220253926,3.487998360793455,45.68368530834249,0.007276420060849173,-0.04426293298184187,0.2561425679827638,0.21118815448683878,-0.019825630544998002,-0.06334369087397894,nm,0.0
17.12560248374939,-21.772200353531957,2.9442012171166825,45.25679611251502,-0.019941372527209334,-0.2205042968083732,0.09494314306221631,0.16128783963179444,-0.008946792479815013,-0.10528596013271539,nm,0.0
17.149022102355957,-20.49086131606116,1.6789165923614737,43.94438146133792,0.1712307836004707,-0.31545126878491986,0.22639028165569516,0.2228575348043552,0.0017213846813280496,-0.16451898489994135,nm,0.0
17.152989387512207,-19.56566201189968,1.0146677056607338,43.323325539783085,0.30248417201901323,-0.35065491071236626,0.4033347488476583,0.23966411829876796,0.027835760467508137,-0.15213782410237092,nm,0.0
17.170349597930908,-16.705325325165806,0.08331696570211561,42.86874502812076,0.36552866681206414,-0.6986660076258329,0.4990701689480937,0.3164803169529086,0.1572443865436373,-0.00760301516824654,nm,0.0
17.184555053710938,-14.834818960428438,-0.2756838453394671,43.31083122078337,0.3330519565327574,-0.8085930341670523,0.6718016199210433,0.3364394007984962,0.19955242701339793,0.0872147961122333,nm,0.0
17.190595388412476,-12.85489206265582,-0.4060768475775187,44.057548139478904,0.31972089234441925,-1.01855051411945,0.6207113014409492,0.31854178477126815,0.25135799449871915,0.1495314854433051,nm,0.0
17.214831829071045,-8.582336292398063,-0.6851471724502053,45.45694407688848,0.24894590532400918,-1.1090619739959384,0.6266499776975999,0.3454072935580388,0.26502114769077467,0.13337335604267783,nm,0.0
17.219327449798584,-6.621745169969661,-1.107075645992996,45.660063829256835,0.3569860790618482,-1.0286447590104224,0.5053570922243759,0.3489449527926324,0.21806647755083608,0.051204065045022736,nm,0.0
17.239607095718384,-3.4077771658155234,-2.489279543301965,44.671741955651626,0.40397721655630014,-0.7862370400488514,0.1289325415073255,0.3345887371277935,0.08839859975495808,-0.14500800437039751,nm,0.0
17.25492262840271,-1.2251168008221,-4.6342278141980895,42.81088871225729,0.39641458802724727,-0.3814552100432458,0.05082156558118163,0.300450028321125,-0.03005921442151187,-0.2129084540159192,nm,0.0
17.270442724227905,-0.6695067440809982,-5.486480831048421,41.9683168111288,0.40225163561224375,-0.1469822139461275,-0.12514705289983402,0.21041131707207172,-0.05435417749344974,-0.18711873887862499,nm,0.0
17.277148962020874,-0.4937911020428097,-6.155666259087379,41.42060844580153,0.2570376679870117,0.09262019343180909,-0.4109356501481762,0.12883034981192965,-0.07992246317842643,-0.14331102256857575,nm,0.0
17.30893301963806,-2.5462747875954324,-7.7556892479732475,40.7773012140654,-0.14781713062364263,0.7221397408513226,0.020115069382965037,-0.11651258404383577,-0.3327905893433281,-0.13857263360639127,nm,0.0
17.310635089874268,-5.258124265383123,-8.434307722144455,40.40513198578406,-0.20760470217633936,0.8089961846481503,-0.33134001121064555,-0.3053906152336632,-0.45738527391312117,-0.19551979387411111,nm,0.0
17.33082675933838,-13.234980975758221,-9.713293675789687,39.2725995139814,-1.3009196438241593,1.7908057708720195,0.5689750166107646,-0.6220981865720806,-0.7032400594565712,-0.33778520177765536,nm,0.0
17.332563638687134,-19.369380773445176,-10.26273937523834,38.70230501731748,-1.2713108681184315,2.1128129211381643,0.3234142314113847,-0.8552739254512103,-0.8539902238305429,-0.39079091996512594,nm,0.0
17.347349405288696,-26.07264512424876,-10.547680905432397,38.50918386196476,-1.5673429340042793,2.773303273796403,0.39438617632536394,-0.9801430969048481,-0.8765410921983737,-0.3489166536988291,nm,0.0
17.35143780708313,-33.49993543465159,-10.541503058952804,38.929993242758535,-1.6302341600028252,3.3081629744406444,0.04958796492072832,-1.1259629697901445,-0.9219114368969102,-0.24756334132127147,nm,0.0
17.37401270866394,-48.17773481194452,-8.97006701159676,41.49044890250444,-0.7595906088824208,2.997161057091586,-1.4129834653707292,-1.1730566329504855,-0.7366204233196006,0.05014234270343101,nm,0.0
17.379870653152466,-54.07418043634531,-7.415753552866294,43.26156331671257,-0.33877317161465215,2.192375376399666,-2.139425049313275,-1.060461858424379,-0.5618759869718987,0.1806386914209738,nm,0.0
17.40311551094055,-61.37799450789384,-4.245739467539642,47.239690265640704,0.9318526865442709,-0.5816555001769721,-2.7696537986994914,-0.5820531414149459,-0.18288465984800856,0.34013026931140883,nm,0.0
17.408097982406616,-61.529314136990266,-3.0073228979984696,48.81473357939701,1.3177264670298394,-2.065026713843436,-2.7386328610184654,-0.19241306048122928,0.1423496940667744,0.3446310737715005,nm,0.0
17.41808772087097,-58.2186279232659,-2.276545283121427,50.20425456751928,1.1041067577257648,-3.3014385101288526,-2.641929377206706,0.3324041514361051,0.5968740175408236,0.3621385748694184,nm,0.0
17.444890022277832,-37.42463414423807,-3.5406994330487254,51.976909001674244,-3.4264567997254356,-2.3754476799572215,0.7547579330769806,1.7984692265443123,1.8841799107307171,0.31593536105027153,nm,0.0
17.447246313095093,-21.306216082457166,-5.067244072606941,50.76854133542044,-3.5514649186273286,-2.433832361290915,4.46060196939682,2.2606394152144014,2.3227086361106037,0.0019488816447477237,nm,0.0
17.456246614456177,-2.407416294872052,-5.787067026117007,46.943866145276004,-0.8605894852103034,-2.401932906610031,6.721357831733486,2.6105636038674045,2.730965692919747,-0.3175075218089511,nm,0.0
17.465410947799683,17.124697581817436,-4.291763526501349,42.91500026927436,2.819902795605626,-1.7209265352682614,5.6930246196015455,2.5612714520720474,2.9601784772065005,-0.46291899881141024,nm,0.0
17.474013090133667,34.619457661966784,-0.7485168306094342,40.90047111065828,4.707504390310709,-0.999978351042239,2.412868266043701,2.144764582850405,2.8619583368225063,-0.25659024915324363,nm,0.0
17.50079345703125,61.62669980811722,0.14023299220993612,43.00305713844987,2.7408424015713044,0.7423931004021338,-2.0976164633331016,2.0276285576527338,1.4295935983714279,0.2254425444430428,nm,0.0
17.511261463165283,71.65656189438207,-5.010924870993332,43.47578766328011,1.0450735556631943,0.8246667991694261,-1.8151963229324475,2.1723026820557667,0.6321549779441613,0.16817990653007273,nm,0.0
17.528339862823486,82.32024476963414,-16.826727061929127,41.33272272115864,-2.6628949218064526,1.467312335981013,-2.3121462430135873,1.2986298047671836,-0.2600966669890109,-0.08862743210936665,nm,0.0
17.53663969039917,84.78212534049916,-19.28492544676289,40.57960524933229,-2.7030565668899356,1.5427453350015299,-1.84120571833477,0.6822298452664769,-0.05440321775475057,-0.006533743274890308,nm,0.0
17.554868936538696,82.29281295849624,-14.636998517684269,43.90397458237698,-1.4316580674356811,3.3251843173054194,-1.651144017902711,-0.8329069313839839,0.24000791552295853,0.3007593977384324,nm,0.0
17.581990957260132,62.269082618815034,-5.106736870652221,43.74368763065072,1.3264947484567249,1.7885819270610803,-0.8224617660901753,-1.5302890168005132,-1.074902782777464,-0.43213909614096774,nm,0.0
17.588212251663208,52.74402097804902,-5.227552556130991,43.24351720963689,1.0671994978012704,-0.29905357392753035,-0.13947659042418104,-1.3532260111743117,-1.3211575826550057,-0.2830320102871446,nm,0.0
17.613200426101685,35.163721030842275,-7.557976433433743,44.815836386563184,-0.1937425463439914,-3.918566398147031,1.6756548685900727,-1.0359800521791611,-1.3214387457613843,0.043649359142994115,nm,0.0
17.61763310432434,30.49610935278674,-7.7250857969382825,46.86596922808335,-0.6310230881866922,-5.347296682716949,2.573479871564028,-0.6101539650678349,-0.6864361763394835,0.27699907479229563,nm,0.0
17.641245365142822,32.741315891889556,-6.697803518145012,48.877500568611794,0.23139640958669505,-4.0777218503596115,1.9346982503740957,0.28997730132827176,0.506275363160268,0.1386156323469274,nm,0.0
17.656779527664185,38.60387070649331,-5.934891209623266,48.11946281962607,1.7383792524382704,-2.915710679253694,2.470186547439693,0.6687888054108482,0.9774905621247293,-0.03269716526597954,nm,0.0
17.658448696136475,45.29654801628505,-5.235368796061184,46.62615687046259,2.7912438715783354,-1.1807870239386569,1.9027266125432358,0.8093207628714374,1.079194832322455,-0.1791329449063065,nm,0.0
17.66506004333496,51.21909903241251,-5.017205433250803,45.07691930212221,2.836617487464619,0.8268225856262338,-0.5651489088743346,0.799607109121619,0.8816277907864011,-0.21527948656300513,nm,0.0
17.68355655670166,62.69901397933286,-8.537776391868304,42.063027473131335,0.7754688251901468,2.065758431064528,-1.44619598899153,1.0907259258853845,0.3343120280343036,-0.22881736275506345,nm,0.0
17.69878101348877,67.1025937840918,-11.8626821470648,39.47973036394698,-0.8854354678724601,2.6704063395581445,-1.9386934925045214,1.0993442971963243,0.06915810003023078,-0.3712464051571415,nm,0.0
17.702555418014526,70.6509397302481,-14.952636506543083,36.39333466090728,-1.5683149993726768,2.1928496277027407,-1.432284761622496,0.9332344376246329,-0.056045476724455784,-0.46286430339164303,nm,0.0
17.724363088607788,71.45807135934712,-16.676805682266117,32.0857544427362,-3.027524315609577,3.2254572180132834,-2.072312171797308,-0.08929767370596503,-0.05457050973922666,-0.37401029373808675,nm,0.0
17.74016046524048,68.5527421070176,-15.14874586329835,31.705958126308282,-2.6010956714360196,2.844978766127797,-1.7357443299165758,-0.6280626959389196,-0.029963669977392596,-0.24560387086217228,nm,0.0
17.751641988754272,62.377511460035294,-12.826031292665704,32.34347712788381,-1.4941981358649647,1.9135459085483824,-0.8510176443640056,-1.25480163249422,-0.2376520896688753,-0.18185456656264107,nm,0.0
17.769432544708252,31.477784704748327,-9.311596785089986,38.31917824114912,0.3655128043863983,1.3840535440377582,1.146438874616913,-1.7912090216603922,-1.2876613433859985,0.16936619999620373,nm,0.0
17.792986631393433,16.460714511679484,-8.365004549674028,45.87126463685148,-0.2702511204958369,-0.8294179607111963,0.30630690658312454,-0.8013147057132552,-0.6243269709480448,0.6171724928692459,nm,0.0
17.798563957214355,16.90167290067823,-8.484256212653833,48.94006282548001,-0.9084303582196726,-3.2136974382559744,1.2923989378779015,0.08937350966027188,0.048429633725904996,0.6204825851884377,nm,0.0
17.820833683013916,33.773521586003824,-11.170910592969202,49.163068725746776,0.3684756846893331,-6.509333566314329,4.475149533447888,1.5792560199818433,1.454698149993505,0.18742523405466263,nm,0.0
17.82655382156372,45.55462260105975,-10.467797175843188,46.84120952498279,2.332683319741466,-6.358833314894531,3.4994539878692805,1.4556334687676669,1.819594997956092,-0.030607521325494977,nm,0.0
17.856382369995117,64.72119884821674,-5.240183534973102,43.89675719609743,3.763272708775466,-1.2716407439681412,-0.8931228971338889,0.856931452357921,1.5869802122596697,0.017745247342427675,nm,0.0
17.858246326446533,71.10614483343493,-4.380274014757124,43.89680938543431,2.782340479691646,0.8876518149815901,-2.1276573726114774,0.803969532057422,1.0138126666774203,0.09543632624444477,nm,0.0
17.888590335845947,79.71262628898829,-10.803776097353461,41.37144628465793,0.4176623124547301,2.9091748318910935,-1.936533915422482,1.156172488274577,-0.12611144600281016,-0.26676469505529127,nm,0.0
17.890580892562866,82.92220250079973,-15.93136238875144,39.19822905729212,-0.7659136931118147,2.4406321178804635,-1.1989914861410604,1.1466340954528462,-0.3693779099743679,-0.29537093670844206,nm,0.0
17.894838333129883,84.49138918318512,-20.024031616669475,37.24387509502542,-2.4820553428675214,2.6937565705261957,-1.2383046162992608,0.7482517461991971,-0.4491701135692847,-0.30254377263031235,nm,0.0
17.903239965438843,84.77767955220467,-21.754746176361156,35.67304430018601,-3.373617056905362,3.091401365326328,-1.4216359298327295,0.2558414253209486,-0.23717966753309902,-0.30218533993636276,nm,0.0
17.911749362945557,84.04618332274488,-20.664259122980766,35.041849156401256,-3.2636348040896066,3.0497296791149053,-1.1787746526909662,-0.23082973062562398,0.10856331096361681,-0.1878382576469172,nm,0.0
17.922537326812744,81.34849438926685,-17.252129827981438,35.63467743659826,-2.532662644082598,2.980966081064779,-1.0955830584209656,-0.8051696503909672,0.27061405265884586,-0.06620098181029875,nm,0.0
17.93523669242859,76.59774059224301,-12.892418195650395,36.77665568150046,-1.370548354847407,2.6008716699237957,-1.279165051687181,-1.2500563844186008,0.16914859103726906,-0.029350498968963176,nm,0.0
17.940364599227905,70.43916830067832,-9.330560554065698,37.66946598642552,-0.16647067320508888,2.025196186296345,-1.218590337179921,-1.387868390155445,-0.15820556525583218,-0.0702407809322108,nm,0.0
17.96281361579895,55.01227127262967,-8.124840630612868,39.96973169741834,1.3452645397254706,0.07345159908553388,-0.40344686276239106,-1.1762454813416656,-1.0594311419016633,0.07072485861122456,nm,0.0
17.9710795879364,48.16563399947483,-9.480557284172137,42.62094205197433,1.3088667778700125,-1.8902721086862122,0.8069403332055126,-0.8295987721577573,-1.0943239035852195,0.31002927190983925,nm,0.0
17.99090075492859,40.79237175016854,-11.533861519682649,47.40415858680334,0.33138344458228686,-5.656784877498447,2.24373630211817,-0.20304566822557354,-0.4449804227387189,0.26164810857515436,nm,0.0
17.99817728996277,41.494449060417516,-11.607393148816481,47.166078890421,0.40547381904645297,-5.606240809444185,2.274093993042149,0.1145081341249316,0.09467748075935215,-0.029033302322957977,nm,0.0
18.007083654403687,44.44754762154822,-10.453462249795198,45.45405697487609,1.2449337170844657,-4.91587656338295,2.5993604236092556,0.2437261436710653,0.5827131402044825,-0.2396062913275789,nm,0.0
