timestamp,roll,pitch,yaw,acc_x,acc_y,acc_z,gyro_x,gyro_y,gyro_z,markers,motor_input
56.51147675514221,-76.99251339803736,-17.91921163631418,-60.59010380741982,1.045982050075095,0.9171564893689947,-1.0630763376156476,-0.451789802842786,1.7598599163519466,-0.6811405702352368,nm,0.0
56.5341432094574,-96.7726660703258,-20.291345277367636,-59.44547938182543,1.8510622951809657,-0.5475086738937912,-2.339521027675063,-1.4126289846795819,1.6418964367628792,-0.3555928373430265,nm,0.0
56.559184312820435,-120.404493503483,-20.97522965401588,-50.068468230777015,1.9253990016981155,-0.2690861294685723,-2.8548559337549833,-1.0994746671014242,1.7283617980186023,0.2565791093243329,nm,0.0
56.567718267440796,-131.00710057786952,-17.284680148651056,-45.3205159593034,1.0840407356216648,0.21635644516470195,-4.097626454161405,-0.7998631269387617,1.9790679658121337,0.26588785223943484,nm,0.0
56.57000923156738,-140.82896400344234,-11.852077795932242,-42.603063700365226,-0.397938180385596,0.8991000199025724,-4.445384653531487,-0.6095037648734727,2.1032445769687573,0.06018907229587714,nm,0.0
56.57671046257019,-148.80514132768414,-6.245441841790963,-42.22862576634854,-2.4631251046194933,1.2637450933889067,-4.797841873210809,-0.399166534523458,1.8925975405773978,-0.1654125232619356,nm,0.0
56.60238313674927,-162.6145254426124,0.3413205334959533,-44.9917744801861,-4.503028774521894,1.3067006779671497,-2.3314415974999236,-0.5867530362643906,1.1545139849626167,-0.3341873354705185,nm,0.0
56.608227014541626,-166.72317729934448,-0.16040178517082368,-46.10584328950126,-4.3602923412484635,0.7393296212357349,-1.9355393971685957,-0.6354495480663616,0.5183543922546662,-0.21416367066384792,nm,0.0
56.63485097885132,-169.53044189674037,-2.977720892202163,-45.52723532099254,-2.942055810832237,-0.03928256170701204,-1.4272706336211693,-0.19934247302284144,-0.14613953239637809,0.14907309981084732,nm,0.0
56.63660287857056,-169.09978274409556,-4.529680149444051,-44.4158977839158,-2.4339834286700186,-0.20197301603270557,-2.0091677621688153,-0.14677951764135913,-0.2781743958640322,0.23579810636376541,nm,0.0
56.64478802680969,-168.42631818219823,-6.731695157478782,-43.8082963852611,-1.9614556312288947,0.3100518070122307,-1.0400529146759656,-0.19889624336007192,-0.40720839707790557,0.14288294540434515,nm,0.0
56.653507471084595,-165.9812813844381,-9.23567541346889,-44.5207344623871,-1.9456679188979826,0.4641765938295698,-1.668543546305253,0.009649470442826071,-0.6946603317934884,-0.06593307239060392,nm,0.0
56.66325640678406,-162.653700266445,-12.259758871839605,-46.73820439692667,-1.7924812208639078,0.5690651289224942,-2.110765421961577,0.03552444765224527,-0.8888462323727772,-0.310030013257053,nm,0.0
56.689311027526855,-153.3788889947853,-20.39565136244126,-54.474217660989495,-1.30022774272742,0.6599027518380725,-1.70282547834819,-0.03385826934144901,-1.342115504684943,-0.4992973232466161,nm,0.0
56.69342088699341,-146.17520749361418,-24.746058796182147,-58.89209015525652,-0.4777262655992747,0.19199244143100844,-2.343442395863111,0.011489445671702977,-1.589318871690899,-0.31705524922692485,nm,0.0
56.701534271240234,-138.14534434595964,-29.30589854379111,-63.22843515671963,0.5937240773323538,-0.2028272787271451,-1.8934257227085447,-0.09966095590754298,-1.692767686446873,-0.12275877097112245,nm,0.0
56.72375559806824,-115.64125676942044,-38.83115687833041,-74.20452103968982,3.41637937368631,-1.4488406581414885,-0.5483215208629384,-0.22766703747465789,-2.2263793582881157,0.28522468925849315,nm,0.0
56.74918580055237,-81.88896123860374,-41.62711485399345,-92.63572901216936,3.6749447770622203,-3.810269420245905,6.528506800002172,0.2662486327676565,-2.703429526480667,0.4902509485176362,nm,0.0
56.750937938690186,-69.09550055530579,-35.80595643142274,-96.488475669916,1.1216950085412654,-3.5571524277530395,7.747284762811117,0.9888959340307326,-2.0840891038579574,0.8460741816969526,nm,0.0
56.759575605392456,-62.87580127322647,-31.24690716901137,-92.09774235304262,1.2802268553754657,-2.2806204857684174,3.472053628456311,0.8224655776506109,-1.1065353559874866,1.5768469948507389,nm,0.0
56.77148628234863,-56.30710048614685,-29.88649924325221,-88.43069177432506,3.0038281011944865,0.30144215859685247,2.6344666865339144,0.2565549668840098,-1.1377863840554954,1.4119846724502167,nm,0.0
56.776904582977295,-50.80993113542014,-31.519873733083635,-87.22847552090748,2.26169101356041,0.531926648441292,4.7648752837347965,-0.3017066457049363,-0.9622112988394241,0.8111669420879647,nm,0.0
56.78817319869995,-43.85335127730939,-33.493127234829636,-89.15959405455271,-0.27901444191298397,-1.442389079173644,5.160755156852065,-0.3689702248253283,-1.1904790726767145,0.36986273539117565,nm,0.0
56.79598593711853,-36.24253538149609,-33.692982055366905,-91.5025094572227,-0.1543985141028245,-1.8114573161083765,5.17674372353912,-0.059489038097142496,-1.2733388101950418,0.38092018845536685,nm,0.0
56.8209707736969,-42.695859803153354,-32.01817851356417,-83.06646899078382,-0.3031753987775943,-1.5881928427357705,3.434331727413859,0.22566868448289717,1.194743242584077,0.5034201597601732,nm,0.0
56.829062938690186,-50.76659410513344,-28.077530331153273,-75.87442100817537,-0.19340785179044653,-0.2902632306465386,1.5524274211373255,0.5089312634803616,1.5128163562879935,0.6369156248408528,nm,0.0
56.84879183769226,-68.09073187128806,-19.02526124777825,-65.94554752680615,2.4970246075318436,1.1230858083754274,-0.47915362903113995,0.12317299101014449,2.0033775934522073,0.021136988049005143,nm,0.0
56.85559320449829,-77.85521272873613,-15.641684538180689,-65.57435019018261,1.4780050331403611,0.7014547792707612,-1.0358654350220298,-0.15483066407459323,1.972405126089783,-0.496648528568248,nm,0.0
56.87961459159851,-98.70941895422433,-14.421799598106041,-64.30917817846988,1.950358120260091,-0.23062590614875317,-2.6900362967261193,-0.9782024658167511,2.0053250201835273,-0.2633023584904831,nm,0.0
56.889665603637695,-110.83850403246939,-14.79545676407732,-61.582543073803286,1.4535145012472357,-0.6068592855786085,-2.3663119150162033,-1.1337794432281996,2.0546834923331376,-0.05455775667948491,nm,0.0
56.912254095077515,-121.81956171485936,-14.025634441358863,-57.98195643186549,1.28172069626575,-0.2867268864580997,-3.5157635498398543,-0.9351425619892423,1.9144053562381742,0.18549722352661888,nm,0.0
56.91405725479126,-142.9513768858803,-7.44756846563223,-50.911986155037624,-0.6426905903782417,0.5280529121181547,-4.050938988544637,-0.5867910266532733,2.066865086922658,0.2920231148760196,nm,0.0
56.934064865112305,-151.2717763573628,-3.416977997524025,-49.52308822239459,-2.0106163210938957,0.8225700370322592,-3.905272005079881,-0.4319532385913698,1.789778375160146,0.13013528488688814,nm,0.0
56.935908794403076,-158.59730594275342,0.06071525383001553,-49.31615413952281,-3.1122430265248893,0.9517776934805496,-3.2650175819637726,-0.41407116268775535,1.5659430271244992,0.007264288895079614,nm,0.0
56.94031047821045,-164.67565355778964,2.37751221525014,-49.604463682206514,-3.2921776066533712,0.8534434609314224,-2.0058336705665782,-0.4262084726384836,1.22618062469663,-0.02422761924088928,nm,0.0
56.96227836608887,-171.25628441303581,3.3042326587228708,-48.99707006832503,-3.1768524820529804,0.44713724338077293,-1.02039743998721,-0.3073956183274272,0.4138642935271137,0.17416708816507898,nm,0.0
56.9671745300293,-172.25987079693815,3.4882488875539264,-47.51750876852099,-2.783867567299708,0.37662118713841464,-0.7329832014698435,-0.09299063347462537,0.17556231440711714,0.3142069862787598,nm,0.0
56.99112391471863,-170.89201728123382,3.0740528539947922,-44.33036586638046,-2.605303546591418,1.2002778475372162,-0.847225910839179,0.08586055358003458,-0.204794064835061,0.27308443116482306,nm,0.0
56.99725675582886,-169.03600016929147,1.7072938600734844,-43.97582090649576,-2.6208677837688796,1.602179869476621,-1.3904622044511892,0.08827200749883413,-0.4529104770258543,0.062349575635123757,nm,0.0
57.02018117904663,-164.96830123145847,-4.757747775674084,-46.51380207387297,-1.8577197519432032,0.9208794999079938,-2.105378759543489,-0.27858684990081434,-0.8028441392981368,-0.3147913261317604,nm,0.0
57.02403950691223,-163.45736603966296,-8.957045506689948,-48.83956512553878,-1.1063077184470762,0.6100116573398973,-1.0847159781406384,-0.4083560893807372,-0.7866173374922923,-0.42028786126123385,nm,0.0
57.04775881767273,-157.31133586601726,-17.178762090615095,-54.21298258350967,-0.5539548755010485,-0.30042809120308217,-1.8129343308140569,-0.2724363375125798,-0.9772157376802871,-0.358187814665173,nm,0.0
57.05360770225525,-154.04636941096138,-21.322498620621037,-56.70933561350086,-0.3944987900762717,-0.19787200026855642,-1.2140608223966753,-0.3243263408397274,-0.9773789658226992,-0.28420396861114255,nm,0.0
57.078471183776855,-143.8460191798104,-29.927696305933868,-62.48525023415022,0.5114889529290152,-0.37196039458604657,-1.5875288239492622,-0.27484192723292344,-1.294469594710892,-0.12605864278112658,nm,0.0
57.08337593078613,-136.06439562671858,-34.547273164556806,-67.3651225845071,1.0207272160916339,-0.34816909872566115,-1.09043873359582,-0.2737693925284144,-1.5826151503247428,-0.13086915856979336,nm,0.0
57.10609030723572,-108.95835834975986,-41.67777992622744,-84.06238793084266,3.5343834688021145,-1.9373695987550592,0.3106917394664052,-0.12088953782474213,-2.4314937647857966,0.13730010624100183,nm,0.0
57.11295509338379,-90.92063279534969,-41.63659267792417,-94.18043970424765,3.5385422683303043,-3.5638030624843937,5.58281651164026,0.04506942466107355,-2.6902065852073274,0.3973652098680541,nm,0.0
57.13426685333252,-69.5618029654107,-30.48146661483813,-97.20846620212117,-2.7092463948927343,-3.683035853418992,6.082738859325932,0.8778972868643429,-1.226620454946537,1.3216459594232133,nm,0.0
57.139164686203,-63.068330099193325,-28.911015202915763,-91.61402202317187,5.082167102081475,-1.2612146052205033,3.2613898446017973,0.21669807297548016,-1.1537835993770644,1.773764316125286,nm,0.0
57.16627049446106,-51.11007277148826,-33.26861395545122,-93.32582457921086,0.2474931813879407,0.046604573363167486,3.1838906235146656,-0.7668160808194922,-1.2252854047063833,0.2723458115056524,nm,0.0
57.16962957382202,-42.49102409348802,-36.74527898341994,-98.09170710850063,1.922014406188691,-1.5923165378019297,6.218518604441644,-0.8438931963553906,-1.3391063931863652,0.044957372322743674,nm,0.0
57.19181203842163,-41.96676057560266,-38.01656192621892,-99.20206840366403,-0.9038672758639097,-1.5322956345577181,4.452588815402104,0.011605174084235904,0.4661640976266159,0.20097620753430936,nm,0.0
57.195823431015015,-50.4211665550443,-36.57872257463826,-91.31158020978926,0.5104014288511636,-0.9044037457127786,3.644489062042086,0.3981572416987426,1.3118887643743118,0.5609694563591895,nm,0.0
57.22068381309509,-69.10712892907954,-26.255565705610962,-77.0575859599448,3.3668889283077186,1.121037863663511,-0.3283076037163926,0.852756332118383,1.788646944306659,0.3245251234370137,nm,0.0
57.226038217544556,-79.51343967045344,-21.384500207368536,-74.21252615652959,2.5141111109960455,0.9228998340453721,-1.4466406393881595,0.46327237592802867,2.082983047636827,-0.2612872145080567,nm,0.0
57.24791193008423,-98.78063389418537,-19.044512662454302,-73.8925807363453,2.169857129116783,0.16460290522478205,-2.992617835304908,-0.5385435115938119,1.726277557664337,-0.5597584442240938,nm,0.0
57.25425457954407,-110.55034843454769,-20.75177432660124,-71.72415794816109,1.1114728507247484,-0.9421862210179246,-2.566517392543616,-0.9723959766633775,2.0168163925893547,-0.26701684599258435,nm,0.0
57.28070664405823,-133.5855159024743,-20.86617013284163,-61.96703773739019,0.8689042540877342,-1.080687069002214,-2.929817016998331,-0.6756305452143319,1.9360955780625093,0.35335797600717883,nm,0.0
57.28248190879822,-143.65433476003815,-17.232554594096257,-56.925672735001434,0.18990940976997467,-0.4974036561340977,-3.318841506800746,-0.33645458017513397,2.0097974756251515,0.36137456077299973,nm,0.0
57.30446529388428,-158.24606593050726,-6.951271887714047,-53.11337461372934,-2.0785671471909533,0.9670357768387914,-3.6851068482601272,0.09601548302907466,1.6124379783716067,-0.0359114238998591,nm,0.0
57.30883049964905,-163.67303989256894,-2.84247975342013,-53.485936468693524,-3.2353906186091757,1.586932388731002,-2.855606639671222,0.023922696898624727,1.359425910197795,-0.15885973684760554,nm,0.0
57.33408522605896,-170.82914947205015,0.26505991034194626,-52.82632347323996,-3.798997283116315,1.3113983891568075,-1.5838380364021152,-0.22961425368857752,0.5961227391643407,0.1873296695536858,nm,0.0
57.33977127075195,-173.19704265420228,0.5559601091359728,-50.676393242960536,-3.159268616647609,0.8455153562580066,-0.928360525395887,-0.23474314760187714,0.40931178696732157,0.44009316594312886,nm,0.0
57.38247013092041,-174.75516460448833,0.5356442430140782,-46.26587150311005,-2.5058398235115793,0.8067530993385028,-1.399177083370501,-0.06232131923621479,0.018415095328027785,0.38156014341805006,nm,0.0
57.38486194610596,-172.3932939972226,-5.542381081206673,-49.609332205869315,-2.395685299544137,0.9083943087757921,-1.8545204733878922,-0.26208370851024365,-0.6278161183753476,-0.44767152718031805,nm,0.0
57.40254354476929,-171.13108562847717,-9.306658520741447,-52.17849205551691,-1.9468820497742263,0.7003598903209545,-1.4137702739455895,-0.4148000489926676,-0.6684553424247284,-0.4737768293904228,nm,0.0
57.404515504837036,-168.84253905861908,-13.384018033022988,-54.569804758897,-1.5623638372948336,0.5997675693159549,-1.2450861067573646,-0.3756644629371107,-0.8462664692442249,-0.37981320181277095,nm,0.0
57.4159255027771,-165.2941199801815,-17.53302433251542,-56.55945899309687,-1.160603311592079,0.024482760553765318,-1.9475608445476782,-0.28708561397910276,-1.0330504515217829,-0.1991777799007298,nm,0.0
57.4376585483551,-157.22049832301985,-26.119574271582728,-60.1054695845113,-0.1330967934427349,-0.08828871398134126,-1.3834345043345546,-0.3138768069250125,-1.154838892224282,2.2061095158556688e-05,nm,0.0
57.442771196365356,-151.13979025902506,-30.613114804090507,-63.034631965294366,0.3938485055640143,-0.2982212142084427,-1.7545348303958193,-0.2731642080586807,-1.3677742595873084,0.004808443313066054,nm,0.0
57.46782660484314,-133.1478461246549,-39.060117256999575,-74.70810417167252,1.5186233958290003,-0.4791545498990141,-1.13931899313287,-0.21532490701993592,-1.8250763511441188,-0.12964247500656648,nm,0.0
57.470966815948486,-119.10070059274292,-41.8973318318947,-83.99125703804229,2.490081717033084,-1.3217597306998334,-0.71630864974663,-0.15902824770667745,-2.201450846933741,-0.013285893937045223,nm,0.0
57.50105118751526,-85.36044503163835,-40.952739618875476,-103.9251642380704,2.6162777092850873,-4.094625256885683,6.768135921328962,-0.014494504001380096,-2.5910879291083537,0.45466634654729626,nm,0.0
57.5028555393219,-73.23298305238629,-33.256737833000706,-107.36455499541914,2.236643788145504,-4.730815151269326,6.647642057287135,0.9475083106303817,-2.277724415367484,0.7925879719441579,nm,0.0
