timestamp,roll,pitch,yaw,acc_x,acc_y,acc_z,gyro_x,gyro_y,gyro_z,markers,motor_input
42.540799379348755,62.855333165149794,-64.08527946871848,-160.54238511974745,0.19353066658135024,-0.19985498445644176,1.051424549334815,0.31955960864923044,-0.10739454966469757,-0.5750216273369968,nm,0.0
42.542551040649414,56.75338575683347,-64.34862049336681,-157.80416915438892,0.5086048036980232,-0.12520193739800536,0.20343113564142018,0.46359805420471933,0.23496841236247493,-0.5713682301390473,nm,0.0
42.54461908340454,36.219372099791464,-65.43836273254618,-141.07559834531543,1.0743043387469573,-0.09195735178518856,-1.095813146741208,0.7610517576511684,0.5617268560951859,-0.010347464704974873,nm,0.0
42.558740854263306,25.55584357215345,-64.46485608914851,-130.063797740098,1.0438880583742634,0.012044253721004487,-1.564961793286494,0.7668584713167231,0.48918490936429826,0.2708382633350783,nm,0.0
42.567524433135986,19.14722180451627,-62.93197284148914,-121.7407776824001,0.7628919101014181,0.3249629899608701,-1.7112421780180413,0.5681757897915299,0.2757254152651423,0.5178010582941225,nm,0.0
42.58665633201599,17.98385362893434,-61.62055666120816,-117.21088103937866,0.5286439642345023,0.9260047042813837,-1.3240366049881938,0.2688252696008218,-0.04089661923618598,0.7310729394253003,nm,0.0
42.6027295589447,35.62085692798805,-62.06051391944271,-120.03105851183737,-0.5987111988015232,2.7341086666845107,-1.082183103372757,-0.5396423798989185,-0.5839527607531068,0.7972224427215497,nm,0.0
42.627970933914185,52.115556480005544,-65.67916576031449,-129.0467286904484,-0.7296632839018152,1.411407209442895,-2.1332293648169585,-0.7617427807609709,-0.32738275820620794,0.5181098165340888,nm,0.0
42.62973356246948,59.566004451879444,-67.96739179577662,-134.5605818693512,-0.5095870677131972,0.1949363992195146,-1.9430566194459828,-0.7433644435121128,-0.14034565032872556,0.2974895991858731,nm,0.0
42.638925552368164,65.51292127203703,-70.08303697338388,-139.61557040087698,-0.2864584820758189,-1.071099997685254,-1.1611851746686344,-0.6111516169197178,0.012095358482903426,0.13401888892299008,nm,0.0
42.66102075576782,72.69633478061739,-73.11770752509321,-147.53089296223857,0.1303434804888361,-2.2384041907187955,1.9400493030924486,-0.29518377139493157,0.10537378488980745,-0.17968313886940276,nm,0.0
42.68904256820679,74.4170725217834,-72.57670628527944,-155.39201754049895,-0.11244439685677178,-1.4096000436051255,4.0429789963736775,0.03442175960493282,-0.18885507583599598,-0.7120708368910471,nm,0.0
42.69123959541321,75.56191618908807,-70.17208247505744,-160.5169590414973,-0.527541787393698,-1.0794977759257935,3.185972241735933,0.10161765768598278,-0.4806019030510827,-0.8393130596667028,nm,0.0
42.70816946029663,70.13090577482656,-64.90995554928745,-162.36559784799823,0.1075237855983717,0.3935546364058154,1.7294450038806333,0.4880907499654218,-0.32712967289439626,-0.7111328620238648,nm,0.0
42.71287441253662,61.38649498327937,-64.11909811868638,-159.1259644025605,0.021068732627228665,-0.5672103678540744,0.898981271974219,0.7490421715369473,0.09539040883541168,-0.9490149279985103,nm,0.0
42.735987186431885,33.9714732044684,-64.72388800161177,-140.05876054955075,1.075051086472428,-0.346203611097295,0.23310943811169318,1.0706205337880335,0.7639832130770245,-0.38564721777683103,nm,0.0
42.752748250961304,17.66147263596577,-63.47468095299113,-126.26436885047214,1.089324600009613,-1.007513005812139,-0.6673071193365101,1.1407230605560938,0.8635780913730375,-0.1575740007608492,nm,0.0
42.754480600357056,5.679668482429055,-61.19478671434821,-115.0784991906834,1.083112185183845,-0.7852427215924336,-1.386330088747743,0.9455324388661875,0.7199329696776327,0.14392616686886622,nm,0.0
42.77384400367737,-1.3637593595027555,-58.33023833449778,-105.312981018714,0.9525920445013782,0.531362030624404,-1.9955179549408877,0.18095351585861508,0.05555857399037431,0.40614636580484675,nm,0.0
42.799062728881836,8.166900901574246,-60.09761298324782,-107.92379819644616,0.529683605194026,2.5938329465602172,-1.9542202380213218,-0.439395272755347,-0.5557034648602951,0.6193151032877149,nm,0.0
42.800761222839355,16.06856497361568,-61.389573297743745,-111.03856886258995,0.0750158470712271,3.2093004230557614,-2.1065361673341734,-0.5131559620366689,-0.6495745083415947,0.7310153687900277,nm,0.0
42.80981922149658,23.56225506921286,-62.44048614973947,-113.59389575368259,-0.44960213076866956,3.146917631807024,-2.2235156803595078,-0.47457388449952526,-0.580940369774681,0.8015527501641426,nm,0.0
42.818467140197754,29.39728245572867,-63.36923511299791,-114.71900639040472,-0.8831076179600811,2.330995460159017,-2.1617482531144696,-0.3992390466635503,-0.41745473597941796,0.8172814457996387,nm,0.0
42.84192395210266,37.734380957097216,-66.38383228806018,-115.22592618872801,-0.7374076135733685,-0.11627597363803695,-1.0408053224623113,-0.4834163299955273,-0.15126036590897574,0.6430090686454065,nm,0.0
42.84872031211853,42.52080754260156,-68.81038877618435,-117.72911252141053,-0.4506569056987161,-1.2883060219433755,-0.1674144381499192,-0.6084657457412539,-0.11911660206585717,0.40665189968863263,nm,0.0
42.874099016189575,58.60876879733587,-73.21336936060125,-134.25046729403385,-0.08096450826924585,-2.589823490227549,1.71472492151455,-0.6732670789327961,-0.220345215942461,-0.3024727734645821,nm,0.0
42.87854886054993,69.92581902258371,-73.59848097548284,-147.89803741826722,-0.21539756230481702,-1.990660898021153,2.5713444379143495,-0.5615741286047181,-0.3535222429413493,-0.5646117747412397,nm,0.0
42.88612151145935,78.52145197117589,-72.14086253067765,-159.5451774385307,-0.4946700047998914,-1.4494564094344768,2.6787242173897883,-0.3356533954820653,-0.4927791111927652,-0.7154619116856027,nm,0.0
42.89365220069885,82.34043597759334,-69.58957323545707,-166.49898816389276,-0.8310036784299847,-0.869529936442565,2.5780205001667147,-0.10171743072311162,-0.5685879213544525,-0.6986061053683114,nm,0.0
42.919660806655884,75.19489694769214,-65.22203963230331,-166.1901186924694,-0.186262998745922,-0.15723328106326087,1.8100358453771368,0.5153607711596346,-0.2537073182837599,-0.6973402397260754,nm,0.0
42.93314170837402,54.25181537468158,-64.63902399550214,-155.82378601807582,0.28507840607049584,-0.16236191477954856,1.1932001065384201,0.9181789582558283,0.3837741403805096,-0.8422978529494761,nm,0.0
42.95435047149658,39.82704078650954,-64.68411336635013,-145.9623745715833,1.1006918736499416,-0.13946784374435875,0.9070341403985329,1.0591003511314308,0.6047208338989379,-0.6369717663358744,nm,0.0
42.95909857749939,24.35248935170175,-63.90187465037518,-134.5502077514863,0.9739191807578482,-0.8962749006641236,0.021808164977760076,1.1160839325228693,0.7349867194552192,-0.5081702471368674,nm,0.0
42.9608314037323,11.743928412419034,-62.31786447968575,-124.18826842207744,0.8829946170955455,-1.2056953836496214,-0.8555485474887714,0.9535176797372944,0.6777825821571986,-0.1616999387114239,nm,0.0
42.98963737487793,-0.8182994089822725,-58.81041197481367,-111.23440122259471,0.9633226299756276,-0.038623860091846214,-1.8483807534710053,0.4532514944094597,0.2683943689182751,0.2910074769648113,nm,0.0
42.99166750907898,-1.406862562686344,-58.15065848830969,-108.2801038819208,0.893478711960466,0.9934425079309894,-2.2111461145223372,0.1318067837589828,0.009209422467909163,0.49961503557136755,nm,0.0
43.05151844024658,5.904069460379431,-59.235168862783404,-107.2704461099574,0.7068201259892506,3.353111337992617,-2.6379265877644498,-0.3131050937057432,-0.4329600403416403,0.7685556123914332,nm,0.0
43.05412721633911,12.864445449803952,-59.93030332776924,-108.9106161155747,0.502731393089713,3.5607592194792725,-2.8483166959703263,-0.36347952111915693,-0.6341062421854653,0.8590370097441656,nm,0.0
43.05647110939026,30.018031662539734,-60.28266402939712,-116.38939268681959,-0.5495605192470538,2.078523068232428,-2.0664844448267816,-0.3720256426036468,-0.8164462944477909,0.656354384612891,nm,0.0
43.05893278121948,48.574612018518906,-60.3743067628387,-127.79913817600331,-0.7329966723271438,-1.7519217952136292,-0.34744435006810587,-0.5699129908163867,-0.7307685857829157,0.33926479218417427,nm,0.0
43.07453536987305,57.084448854729864,-61.36579851800406,-134.77401278815483,-1.0759225886613804,-3.2782673139275387,0.8797125726037914,-0.7070356035178891,-0.5008161924669791,0.08562447206883064,nm,0.0
43.11550307273865,64.83301342868143,-63.32802053252779,-142.62179653496932,-1.0723590410452806,-2.654132433072633,2.4447605378100454,-0.8111335164963394,-0.18807392732449305,-0.18478084338761533,nm,0.0
43.11751103401184,71.03255806895434,-65.57023298652231,-151.20852851020214,-0.9851487279000677,-2.2301133324191067,3.132603639677543,-0.7051141292586351,0.07681245130082286,-0.5827542158853339,nm,0.0
43.11925005912781,75.5271979277841,-65.30519571972461,-167.14782065322277,0.06402699086098468,0.6217470451039887,2.5289296197021636,0.26878846502502773,-0.24923475496161593,-0.8672565674590776,nm,0.0
43.13434171676636,68.77391565761374,-63.10325562912701,-166.18689733594746,0.393859289082864,0.5452429645469348,2.337043479204082,0.6610576468359092,-0.29534893192708256,-1.0842485992479467,nm,0.0
43.13688516616821,59.286288730066104,-61.2909458442657,-163.78092012823203,0.4627492669426957,0.14683491180354177,2.1581075303059016,0.9353939971763777,-0.1205307439181411,-1.2565667653864314,nm,0.0
43.22209882736206,-24.08044776701322,-61.04874579266039,-92.69123733465402,1.409839538264114,2.535982171502154,-4.320139257293929,-0.31989244887901797,-0.12677733211228076,0.6055815905261848,nm,0.0
43.26450443267822,8.956167903966355,-62.59867140119976,-110.4758987749974,-0.33923175424892094,2.5275137202199507,-1.5720097309578933,-0.14783839388825246,-1.144867888146803,0.7732270200500737,nm,0.0
43.26787757873535,32.80738419616087,-64.26247720800347,-117.00729884260792,-1.2885526107012755,-1.573277721016279,0.7309990172055473,-0.7467815121082628,-0.2795204305999979,0.8942285473044171,nm,0.0
43.282886028289795,39.895237154226706,-68.912978852696,-120.50452747540885,-0.754800904240387,-1.2965935999810452,1.0254766004907614,-1.0982888443003795,-0.054457175893029945,0.6188370873424248,nm,0.0
43.323904275894165,72.76369478234443,-76.48394558361919,-151.7928074313633,-0.3114798742806052,-1.8841098061166819,0.9299281242663592,-1.1762264297573841,-0.2581144847827038,-0.06458703345110721,nm,0.0
43.3278329372406,96.32918735135452,-69.40957765267073,177.9950256364301,-0.701483139188144,-0.3572730316313987,2.124162865062568,0.12521120900186897,-0.6583637276446297,-0.578954078385671,nm,0.0
43.34838271141052,79.36205448541608,-64.7192018785154,-174.07763952168116,-0.7866335403073148,0.0025296929358619357,2.363737654013213,0.8257954535322892,-0.3249657196484141,-0.8993262581745691,nm,0.0
43.42509841918945,5.739786152696694,-68.58114335289254,-124.66104066227822,1.7880544965871206,-0.5137324686669986,-1.4641898282344907,0.7863146566688541,0.8546417554705733,-0.3027515188417042,nm,0.0
43.428828954696655,1.2925116495475155,-69.54071746005495,-114.26865250406385,0.9804916902281878,1.9384290901065042,-2.6362011466577218,-0.3699631574158887,-0.4480212961915789,0.657895973462288,nm,0.0
43.48669743537903,35.38461636065713,-69.70478274688813,-130.35744641828435,-0.7707832492033725,1.6879968448509226,-0.8562845078237126,-0.4467240716229304,-0.5825081522357548,1.0232248853465222,nm,0.0
43.49040770530701,68.451215705999,-73.70147382770989,-150.18919646368596,-0.8743435110017838,-1.0693440554024005,0.14407912031794032,-0.7906050872856804,-0.13574926175866683,0.48873018422242737,nm,0.0
