timestamp,roll,pitch,yaw,acc_x,acc_y,acc_z,gyro_x,gyro_y,gyro_z,markers,motor_input
38.51054120063782,81.10452596078943,-75.03261623356882,-142.86061459674912,0.8412072971634206,-2.764395711659221,1.9052041438429423,-0.2221328122103566,-0.062131320428705984,-0.33236096787351976,nm,0.0
38.512876987457275,79.10787157080036,-75.41453864549804,-143.38837941861973,0.5937140199622866,-1.9330530809453592,3.3149923430915726,0.026338567005929958,0.11223019387370738,-0.5014589878239053,nm,0.0
38.53649139404297,65.55830972548009,-75.82537960614316,-139.19886942357562,0.9046669273246559,-0.7686375668231201,3.6639685511214,0.272757033749376,0.21195714507156968,-0.9470563084824997,nm,0.0
38.53823661804199,58.46308159132161,-74.51367018717653,-136.89353987630545,0.35374691659874624,-0.4068376209842084,3.0239439383684164,0.43468846862117133,0.039099033446906815,-0.9035272168739722,nm,0.0
38.54760193824768,51.29683902637118,-72.40629845082806,-133.69503988265018,0.864416690399243,-0.1995503892995432,2.0415965582273854,0.575175702887921,-0.020527199059033174,-0.7325591870515531,nm,0.0
38.57135510444641,36.723388271783634,-69.1014813511246,-127.96376853403693,0.8264336952514678,-0.7143710457619991,-0.0789880106061594,0.5015181284568477,0.21495109521933897,-0.7759938344867074,nm,0.0
38.57621169090271,30.40805413277527,-68.45474313462074,-124.15420832750638,0.7840643500448048,-0.31104163364215653,-1.0234569812077245,0.3611359207961842,0.2875967496332656,-0.41340991491868706,nm,0.0
38.60078573226929,20.677682883059255,-67.36541496507704,-113.53194130666746,0.836444779646304,1.4783925055225704,-2.196736820056842,0.23375745442060294,0.23271514932908796,0.3237628456556351,nm,0.0
38.6252121925354,26.21516951983812,-65.71418144190686,-106.74668729382375,-0.38251447251859794,2.4809836511984398,-1.2526190792293028,-0.010481768847394738,-0.42799377753848333,0.9451812757742155,nm,0.0
38.63462257385254,33.25390362238243,-65.42026060677377,-108.6395755363241,-0.9735887809448985,2.507272183966613,-0.5473318524764037,-0.13186317101385103,-0.5827985709543588,0.9204041511992701,nm,0.0
38.656999349594116,47.10149174790883,-66.09313294622476,-114.15575136434062,-1.617228247970867,0.9344478091134087,-0.27899841394419617,-0.3186909714957908,-0.4553459530374993,0.6923209525039717,nm,0.0
38.661418199539185,52.154036145625334,-67.46566275505965,-116.34314148118797,-1.357506382556665,0.26357939389827395,-0.44172306815751494,-0.42792784142609386,-0.2539652845169511,0.528528169035408,nm,0.0
38.671438455581665,56.109123838736885,-69.76337579822103,-118.67175631869766,-0.8939184986109782,-0.5997504475711463,-0.40305212564797477,-0.5502893851425055,-0.053798873249963144,0.31139628455913937,nm,0.0
38.68446087837219,58.85613761882721,-72.50079939585832,-120.74048034229408,-0.2543883248277613,-1.1894911315726937,-0.062266836795102046,-0.5729162010347706,0.10750334381869166,0.15836024292783452,nm,0.0
38.70398497581482,56.278567476467956,-76.49101132920993,-119.88778247401311,0.9034688008318346,-1.8708557729240278,1.41044644377296,-0.19737791011110364,0.27242142765628047,-0.22010259532336318,nm,0.0
38.712968587875366,51.56330109508915,-76.43050989785111,-117.8985336508451,0.8167491238429363,-2.2560876610718097,2.7062762941442213,0.10856728251705504,0.17688257824476644,-0.48590112630732324,nm,0.0
38.73852849006653,54.40641337787217,-72.17275855894277,-127.33354579038686,0.3753303731134217,-1.0385232905088064,3.1219214542047014,0.3040964130527399,-0.4903397571238106,-0.7640093846344878,nm,0.0
38.74044871330261,59.18188451183582,-68.67227889170746,-135.60424111853723,-0.4030868635226937,-1.1082051700754882,2.60414366956444,0.30393657517978,-0.7120984837315354,-0.8022559103824592,nm,0.0
38.76301169395447,56.10949993557519,-62.83923200762883,-139.24366532846707,-0.12738659335755942,-0.5451651928505333,0.396464083122396,0.5117332008992556,-0.1393078315836155,-0.723779815368401,nm,0.0
38.792338371276855,42.15431697445284,-62.31921183020458,-129.0288392917362,0.42839095549895917,0.7834158744891049,-0.6449053931464188,0.5056248233149321,0.5565552762029066,0.045988192701716814,nm,0.0
38.79494285583496,24.9114215469101,-60.59403123601258,-110.14838092378484,0.5159726069516888,1.5155759546207714,-1.8163776951999782,0.46655390740996977,0.5320249960349606,0.5389308891158872,nm,0.0
38.8191397190094,24.799396658049243,-58.431102210395686,-103.8724425405872,-0.027749529319907915,1.8902130071624499,-1.441726132055873,0.14497372461717833,-0.27087015433440687,0.5986354636602894,nm,0.0
38.82341146469116,30.578428489519144,-57.81907407314743,-106.06653951456184,-0.38880770118704144,2.071039375128757,-1.0649629117901496,-0.04960034245749531,-0.6318420063218477,0.5333181968262278,nm,0.0
38.84869170188904,44.274098438408934,-58.17405685192898,-114.19620868203071,-1.1969443764634384,0.9153007656085064,-1.2459263766447268,-0.3438855502283671,-0.6148559845580565,0.2771201758780108,nm,0.0
38.85417604446411,49.32547821447707,-59.451211796939525,-116.77498589329444,-0.9085232305264446,0.569815744751681,-1.2548088425257173,-0.4656009479112965,-0.3735290310341109,0.34957211678191286,nm,0.0
38.87963676452637,50.83947933768726,-64.84559050168116,-117.04024862659875,0.2678833819352636,-1.352177011338026,-0.508373059862472,-0.5017049840842839,0.3372903452398375,0.04397784300679181,nm,0.0
38.881399154663086,46.554386860372674,-67.34020091404963,-113.77005429983654,0.8428325140626234,-1.6986439192679914,0.5500621663869565,-0.3100759501726212,0.5181204617574041,-0.07020585047461671,nm,0.0
38.90433311462402,33.006655744217994,-67.02497606095531,-107.9226211853779,0.5427545997695986,-3.4210674593323347,2.987140238009872,0.3569345437528948,0.35220805362538427,-0.8104363917200642,nm,0.0
38.90933108329773,33.35941890072598,-64.59262832117786,-111.83329841514832,1.2646524141913904,-2.347830247360434,3.843157313446402,0.43785412653055733,-0.20162035340110765,-0.733253911023744,nm,0.0
38.93476223945618,40.23765048177346,-58.18010503385338,-125.81376336177443,-0.24425264481767323,-1.9390416079890636,2.28533287947044,0.4032799158523803,-0.6130036098488926,-0.7484437365455635,nm,0.0
38.94050073623657,38.75879082739862,-55.700875025643185,-127.28115759618278,-0.07888873598220572,-1.3983364279180566,0.8760161575303401,0.4829712187078406,-0.17199233137828804,-0.5877635896069746,nm,0.0
38.9610641002655,24.906211530429808,-54.460149527597856,-116.51480828527556,0.42421636823341824,-0.06737840371770037,-0.32229655998927637,0.5682316868921438,0.7864418094310379,0.20417364812253516,nm,0.0
38.9666314125061,14.88952227410536,-52.63451739528556,-105.78076168208153,1.027472894359845,0.5122856748895941,-1.3408538870110882,0.7586951308956758,0.9702259111765728,0.5660793495249011,nm,0.0
38.98912453651428,4.544595057823999,-46.822281256828205,-90.68017027237313,0.8521754678528982,2.4732042424185496,-2.1673377230144615,0.5912856080690672,0.3155765033049973,0.7700273506694383,nm,0.0
39.01700758934021,10.539054713530167,-41.972977385241286,-91.08348935234085,-0.12551092304856376,2.7864044299751645,-1.4352742647740746,0.4428569963629496,-0.66906863411243,0.20655511008350577,nm,0.0
39.01902198791504,16.587850022853228,-40.22665692987413,-94.59434283476435,-0.6666191324543906,2.8439805521994725,-0.523193491724532,0.2956403958528416,-0.9380630953817864,0.037197959441755,nm,0.0
39.02378797531128,21.931213858078774,-39.03638170302266,-97.82763192622372,-1.4104667749986453,2.100712959295431,-0.7655383967678341,0.13931392389480152,-0.8545814608373922,-0.016546900455050306,nm,0.0
39.046204805374146,28.559422639520342,-40.32078762785631,-98.21142849935381,-1.6234970235833472,1.371090153370424,-0.8463620097694706,-0.3536864572090813,-0.3467053795595881,0.4756690579937145,nm,0.0
39.05281376838684,28.950687838960544,-43.31273413172039,-95.45862477946089,-0.9000195035014482,0.29600003223818216,-1.331515196525559,-0.6105268375803465,0.002042030440245802,0.6088651802777106,nm,0.0
39.08063864707947,26.516700350520697,-51.130378954295274,-87.91114246938369,0.9080839836162167,-1.3916660015871092,-0.9697447666735424,-0.7911432393239801,0.1898501208764573,0.5079699075588123,nm,0.0
39.082371950149536,24.361142898471616,-53.95255191917114,-85.54056778178263,1.4408597661928781,-2.3520001952315948,0.04935823044009407,-0.586396365684092,0.21762303479279113,0.145118062153926,nm,0.0
39.091177463531494,22.548953841138353,-54.90583679130168,-85.63990823426445,1.2067602043416794,-3.3488480722670615,1.4791959785036162,-0.21403318131822,0.18377386882251548,-0.291479778385662,nm,0.0
39.11593270301819,24.221616769040377,-53.833123218980454,-93.07289310823843,0.30683753320942386,-4.083694371876264,4.0295048239079,0.13574953252149638,-0.16184645408653645,-0.7206362093058317,nm,0.0
39.117650747299194,24.33330453031619,-52.79359260126462,-96.69423247041041,-0.18031789194304368,-2.9764090730489015,2.3691406952653487,0.19679669957429266,-0.0413579620235168,-0.7459478197687666,nm,0.0
39.144582986831665,19.89053830594468,-49.1106858430538,-98.60144592824022,0.19299054098146717,-1.280268366694191,0.2726327862608022,0.48644449271265594,0.3475541074833702,-0.5340223367626485,nm,0.0
39.146610736846924,15.442304225278248,-46.24278512245067,-96.87886003938752,0.21812067354855877,-0.3113929505396116,-0.5292931419174344,0.6387651736188472,0.5073639017269553,-0.31396782615834945,nm,0.0
39.17098808288574,5.9488849915495665,-39.31565664633721,-90.50158264270483,0.30983111002846214,1.5640334603023827,-0.7314911708037365,0.7740981471420585,0.6665220762022931,0.09644726832584889,nm,0.0
39.1874897480011,0.5912716635581013,-31.2418983495037,-84.74782674348646,0.30145488232823253,2.6097056310348665,-1.2939729773554687,0.7537645337054978,0.3698467156909812,0.277343986762794,nm,0.0
39.204567432403564,0.04552101419676533,-28.214418516752783,-83.42304779105396,-0.06880210829793604,2.9367509917698547,-1.328134428590166,0.5828898663292916,0.14719209074002515,0.19150243127136804,nm,0.0
39.20795750617981,0.9491711221821107,-26.53115552402373,-83.14160025449242,-0.3536682307706241,3.2424232994124575,-0.7477720465965134,0.343636753054036,-0.1298538671774287,0.10220419521851112,nm,0.0
39.21487474441528,2.761508149807549,-25.988991984089974,-83.59671765745311,-0.7210995807122554,3.1411609953056634,-0.5586413767671448,0.13606246379457745,-0.32071322451442835,0.01956434872169978,nm,0.0
39.225982904434204,5.424918040863499,-26.38675064540432,-84.22799578830453,-0.9299292585044213,2.8201847512959466,-0.58408703402433,-0.03690648273879119,-0.49477873511513515,0.042884056561872184,nm,0.0
39.24822115898132,10.861906540648102,-29.79117353460953,-84.57711422325826,-1.085563646487122,1.3000069795170415,-0.9220678980056385,-0.3804120047522432,-0.4834267919259087,0.18189795136663742,nm,0.0
39.26186180114746,15.589640526124718,-35.851803295070404,-82.76794842220814,0.006826584534037443,-0.7546802052091561,-1.3800197939013492,-0.6335987858040308,-0.4431503963300768,0.3918788065694051,nm,0.0
39.27646088600159,16.870328805405116,-39.52827659209485,-81.6566997332085,0.6212759436892329,-2.0051117485511307,-1.3115385287787984,-0.7088171941572059,-0.3149510497272472,0.3142914231413272,nm,0.0
39.280736684799194,17.230403196738497,-42.590191883331826,-80.77031313065032,1.1355031538457276,-2.631035889147491,-0.3490930056637413,-0.6048921523348258,-0.16080020496158692,0.18388900136568356,nm,0.0
39.30910539627075,14.5730677869326,-44.711568418842425,-81.44751448532024,1.034567520282182,-3.7593373554800524,2.1415010122243436,-0.13019428206019545,0.1755117593783684,-0.4073324169324596,nm,0.0
39.311745166778564,13.928912373587195,-44.34328711833319,-84.04573753975878,0.8154903681580696,-3.267899648258393,2.790827834740631,0.05279678137303821,0.08910242922946723,-0.6329724910082623,nm,0.0
39.31743860244751,13.722915448612556,-43.05215379962494,-87.60198154465866,0.3093814097038307,-2.8970321540315,1.9764046317561221,0.24629354393589625,0.038055896054059124,-0.7736250233432683,nm,0.0
39.34166097640991,11.988980957632453,-38.192391593714355,-92.65824111085759,0.23237750969697654,-1.114454605827001,0.5341147641017226,0.5309332958863447,0.21548092956959586,-0.6069977168852152,nm,0.0
39.3653039932251,5.445500610790656,-32.48281626799463,-91.61318812052708,0.05102036178285852,0.7489682886319476,-0.03001243737490821,0.6149630887301973,0.5378966606535635,-0.13025480634325348,nm,0.0
39.36713719367981,1.9731253886353795,-28.793646471065266,-89.01780748166455,0.20640944283629437,1.4691209918058916,-0.9925046089542495,0.7303822505650388,0.5854737153601706,0.1474813656394777,nm,0.0
39.374250411987305,-0.54078974270302,-25.120860072116006,-86.0643404666714,0.021324983515811278,2.000352559196591,-1.396834012098838,0.7046956523443275,0.4703332499490135,0.3615546958802457,nm,0.0
39.401429414749146,-0.013856069177103213,-19.04580683253418,-81.39659037553666,-0.380865389444998,2.981495598925265,-1.4307597196763384,0.5419221497398506,-0.1435068009605423,0.4434423231395443,nm,0.0
39.403512477874756,2.5049478940623437,-18.03868842764578,-80.30999978097431,-0.8022501628818177,2.902106386979191,-1.037073179397893,0.2666164817885244,-0.4499665418697,0.32321000786490495,nm,0.0
39.417577266693115,6.348236674052451,-18.4580295732282,-79.92479384128116,-0.8682584609203268,2.7870978860405335,-0.05197913985376739,0.03614870561103162,-0.7450619359245199,0.24037264768021854,nm,0.0
39.421818017959595,10.013728616713628,-19.7289497213018,-79.90547786068198,-1.1886558355437848,2.104246626229618,-0.7689839204904547,-0.1348628889551366,-0.7388935903680374,0.15606090678214155,nm,0.0
39.44306302070618,18.038650990583935,-25.058720460075854,-79.16973312459396,-0.8482505754330208,0.5679071395360566,-1.5678192589511915,-0.474099774565517,-0.8891175963085776,0.39069600804372967,nm,0.0
39.45789909362793,21.398431527786755,-28.734948652407695,-78.00102791582833,-0.1634989791975089,-0.4998209723441529,-1.9826149008748404,-0.6072625693803383,-0.7476338858883677,0.4813375690290024,nm,0.0
39.46143555641174,23.81130975849779,-32.7323526049416,-76.3195051536328,0.6744825476525516,-1.4160419707093703,-2.2493685242441797,-0.6917851198679162,-0.5978468822831624,0.5108785254223422,nm,0.0
39.48510241508484,25.665340930363236,-39.84500667687482,-73.98691735708024,1.1173343889012408,-2.1459223617334633,0.0035968383938397223,-0.5883148627213423,-0.21691851010640853,0.16816201469760106,nm,0.0
39.49985694885254,24.82072331902937,-40.955535825009754,-74.41880050181574,0.6662392470302207,-2.464823329797698,1.1047309596025978,-0.2537838091118454,0.05001174100549803,-0.19056054126320998,nm,0.0
39.50167965888977,24.700834248503664,-40.158733422433706,-76.84044473018027,0.45418646835401,-2.3169745305228715,1.5084784129661721,0.14470832453675367,0.04406445538279135,-0.49743739337176435,nm,0.0
