timestamp,roll,pitch,yaw,acc_x,acc_y,acc_z,gyro_x,gyro_y,gyro_z,markers,motor_input
6.508459568023682,54.90376511535486,-11.679005761397843,-14.217956436399316,0.23691035540019476,-1.971701433124448,-0.532860281377574,1.259811515283635,0.587499838790398,-0.2822090168473981,nm,0.0
6.510478258132935,59.41269982030376,-6.588280794494738,-16.737306793548147,0.7522406934078446,-1.1225335835400394,-1.4615724666428718,1.1392241355396098,0.7400266168006766,-0.37202287132443074,nm,0.0
6.518914699554443,62.839593362891826,-1.8183877588929942,-18.57318664092095,0.8527155617675563,-0.451169592060617,-1.5284713513853123,0.9500942906680041,0.6976916275578405,-0.2948518636828086,nm,0.0
6.546435117721558,64.92690203207367,3.0748361083213207,-20.269744503880368,0.06313923256059864,2.555499802900828,-2.759505526069897,0.23084315060924,0.22293251604097244,-0.14367408731070447,nm,0.0
6.548507928848267,64.94428157504,2.8434036118929624,-20.608471955494878,-1.2280178506595094,1.877646815778225,-1.311197488397092,-0.006666342834550645,-0.0472624130974998,-0.08075760198188606,nm,0.0
6.558321952819824,62.531944008575465,1.7681300421817607,-20.471051327327427,-1.9290014780993179,2.9092737701137383,-1.323912200739512,-0.5211720535243937,-0.03543220284239775,0.03436340771262947,nm,0.0
6.580941677093506,53.50385022035745,-2.024170319092593,-19.81529025411506,-2.169206227342638,2.3914510178897586,-0.8277394609406807,-1.0555144725728038,-0.06942113682053025,0.038351121234002715,nm,0.0
6.586208820343018,47.789814901960874,-4.213608701448099,-19.447835884811127,-1.7999294668444155,2.106711447343094,-0.5451429025995874,-1.216854253177044,-0.03165373601570415,0.06550660866374099,nm,0.0
6.613027095794678,33.460896862026054,-8.123656113670027,-17.769807967780462,0.13024891570539665,0.8485615701596726,-0.24816716202163258,-1.5247130213957312,0.10777700182678886,-0.0007867415403464865,nm,0.0
6.62283992767334,27.62827001553289,-10.0037002701653,-16.560747579880275,1.1005259356490678,0.19678470814085244,0.10792582509029212,-1.206581779979786,-0.028928558080713207,0.04962377414113984,nm,0.0
6.624971628189087,23.60109804425394,-11.996009672661009,-15.298217355266743,1.8456434496382037,-0.6345079719464816,0.9194467986449618,-0.8640415719833485,-0.1766853907612074,0.09141749652002881,nm,0.0
6.648225545883179,25.04395279059381,-15.75780234426448,-12.361497311363152,2.6893309165847317,-2.5891873907835525,1.978308045759584,0.4871853719115876,-0.5134838807469497,0.43724365803889376,nm,0.0
6.65380334854126,30.358223703138197,-17.668186001315163,-10.920454272382198,0.9584780162375023,-2.5471312894682314,3.6109173890288107,0.930425589831881,-0.5880669988985061,0.5608467703076546,nm,0.0
6.679720163345337,41.93475868533092,-19.96445530378712,-11.70379771664567,-0.6680087738473403,-2.8873427296851504,1.3392399926366145,1.2857774056946987,-0.37152732100111446,0.22130722012332296,nm,0.0
6.6814680099487305,49.17284633579817,-17.915039344676327,-13.51714682019814,-1.434982597912696,-2.5319386994033954,1.5810863826250157,1.4367737542594983,0.0946076641136627,0.09874423487884315,nm,0.0
6.690095663070679,53.81435624528645,-13.40724437819698,-15.734452492527556,-0.23494753567592347,-1.242367678032395,-0.8134060746506312,1.103461529161623,0.6404840857954054,-0.17903043010081632,nm,0.0
6.718071222305298,60.93836244376929,-2.0149466454804377,-19.949104577313623,0.7577142168239897,0.19309848523691236,-1.2111102001981244,0.8956950591967892,0.8970765189568303,-0.32851659989505677,nm,0.0
6.740346193313599,61.28103794476122,2.483410939795161,-21.464644032089726,0.532860824849233,1.2825422475043662,-2.3692928156551822,0.3906026364604885,0.8139205814565483,-0.2629358846249306,nm,0.0
6.74227237701416,61.11545597900903,4.554327438072618,-22.642721675767653,0.09003575122596959,2.0681461969295474,-2.500728394655299,0.13106607434511688,0.39312410210877136,-0.21531010390095873,nm,0.0
6.761091470718384,56.839790908644055,1.9221420230801791,-23.479094330045132,-1.3325343207431886,2.9099719841257197,-1.975592557068079,-0.7452504328866381,-0.1509308337181676,0.01763303858222195,nm,0.0
6.762960910797119,52.64801283080882,-0.9836575494163163,-22.47463057494697,-2.1020943140052335,2.8262995665071142,-0.9582744110874312,-0.9938953719879161,-0.21335069657998407,0.19599475264450555,nm,0.0
6.78747034072876,40.52950398005974,-7.047702299854531,-19.356917548240936,-1.4519474542387598,2.44781839957808,-0.6643869747865181,-1.3716894736960885,-0.11846767279034968,0.18207843732232418,nm,0.0
6.789266109466553,33.6174825469379,-9.070335236091347,-17.994904995723484,-0.9140646180434606,2.014273131790965,0.053565539094150086,-1.421316881710286,0.04652748263455332,0.06919179158001713,nm,0.0
6.794779300689697,26.513373196193946,-10.815339748440572,-17.22663353973571,0.22204400721284562,1.2600206406809225,-0.7564204554979487,-1.4347598156819132,0.08108562852134066,-0.09997800833406777,nm,0.0
6.817966461181641,18.943313375797775,-15.004245225433346,-16.175613916745856,1.933704755143707,-1.0632189441371098,0.8704078675383182,-0.6022524874388531,-0.26068663650537427,-0.0010869788251201482,nm,0.0
6.824799299240112,19.360725927015547,-16.561043976667005,-14.680962765589118,2.3189555316961403,-2.537321871155176,1.2235242546005896,0.0015427828399392027,-0.3330539728536389,0.3159740425740907,nm,0.0
6.832965612411499,24.289328856148128,-18.568480021016548,-12.39825889686933,1.981084518543982,-2.6634906707915404,3.09944712159146,0.8288459189375279,-0.6211464589003766,0.7482425560704811,nm,0.0
6.855886459350586,35.268472497218326,-22.606899955953583,-8.778644111145457,0.08782001312852707,-3.681932795544165,2.3694831843689697,0.9104625130571945,-0.4941077457305167,0.6300171085789174,nm,0.0
6.863572120666504,41.77855650188648,-22.653254007402964,-9.213955280594432,-0.11227325730958762,-2.8818823930047213,1.817028534026275,1.1971430288314833,-0.20413538289334845,0.40691456929943426,nm,0.0
6.8847715854644775,51.04249667289065,-15.910744933201892,-13.850611554582498,0.6464892984475039,-1.4288957514348062,-0.39501864700775235,0.9245064224851595,0.6936132329758967,-0.31623414609171385,nm,0.0
6.8904500007629395,53.971544230284934,-10.54627419755023,-16.84771474244091,0.608517423321943,-0.6556826392492223,-0.4871908242010368,0.8433978385929458,0.8792387358929026,-0.47599319178808996,nm,0.0
6.912967205047607,53.25330417031482,-2.1026370761125954,-21.6869050096358,0.04736495075922488,1.1962672845387943,-2.3351676833687134,0.009431766351855013,0.7180481648217159,-0.41570021974214766,nm,0.0
6.918514966964722,50.769758278571054,-1.2954788557436332,-22.946487306117525,-0.6987778227765752,1.1321273909293321,-1.5609007138221527,-0.39204337754354096,0.3329938653453457,-0.2344211890726099,nm,0.0
6.944582939147949,39.53883074202037,-4.334742763833907,-19.651687195576642,-1.5512048285173536,2.3507473007778885,-1.1205016052079142,-1.3596635580470275,0.10708938504658422,0.47403910186755255,nm,0.0
6.948331117630005,32.505356833663775,-6.258637760414847,-15.790292138984732,-2.005134697333359,2.6792114869812576,0.06228033828912558,-1.4468194025042596,0.05190691351492804,0.6388903112535896,nm,0.0
6.970004081726074,13.909336862639913,-7.480209256157027,-11.079147335516568,-1.0077012400191774,3.167332184344686,-0.34281566036186767,-1.949786492743317,0.39800827966030605,0.12670981932011685,nm,0.0
6.976250410079956,5.057581038912869,-7.663862635113302,-11.160879371908093,-0.31052695753398557,2.8178419532869623,-0.7643792803274814,-1.724530071926074,0.2945472543565754,-0.2030411339812879,nm,0.0
7.001206159591675,-7.5595890863152695,-11.505138771403729,-13.345501117858468,1.8841027272826034,0.41200526081947025,-2.10274040974154,-1.1097148811854605,-0.25152403365451964,-0.5146966862834691,nm,0.0
7.008737802505493,-8.79918089327681,-13.923732553928536,-13.970681279545994,2.4600361342790498,-0.775173515246679,-1.3072205045990288,-0.3433382060766366,-0.4282162875109292,-0.26347333142725665,nm,0.0
7.033273220062256,1.7530204167809793,-16.50018643871231,-11.520381611249014,1.49846797711481,-1.440156794557897,3.344367792593783,1.3517592507783334,-0.4699372961000343,0.7798255526912732,nm,0.0
7.035136938095093,12.528026591470079,-16.674550478984237,-8.47351139960496,-0.4173024488236354,-1.9079217963280142,4.353537009420272,2.038768685336153,-0.40460970578874517,1.2194702457705338,nm,0.0
7.043510675430298,25.09818541187561,-17.788971577839213,-5.98466066656997,-1.7709920103158596,-3.2555987459455658,4.431642700519145,2.3668119056141927,-0.5322927199274414,1.2355449722534622,nm,0.0
7.066082715988159,50.34653440935892,-18.2236809836073,-7.431906323821965,-1.0354685673756456,-3.5053858962976965,0.8037419554941249,2.3503615200598436,-0.11366883439516236,0.4318061886233867,nm,0.0
7.090003490447998,69.08432496491339,-8.987318614592622,-12.12414458687027,1.6049117225853515,-1.2813378339250043,-1.4144329951823664,1.7741364540062217,0.7964616670812235,-0.10763589359949527,nm,0.0
7.091941595077515,73.97288563926976,-3.220175958013256,-13.722149307926973,1.879910934388096,-0.35808286671352124,-2.1442666288956325,1.2153762729486377,0.9068520646202668,-0.22738640111640931,nm,0.0
7.11864972114563,79.62854369935208,3.704950747820776,-17.462423042899392,0.6951365359372119,2.4951255200603466,-2.934342243689929,0.7012905425373716,0.29583878964090915,-0.46452809728073374,nm,0.0
7.120331525802612,81.70201141043243,3.837002926957916,-20.010497340256233,-0.49896304154954263,2.597064632495852,-2.20776223879909,0.4081481030071768,-0.10720925828220808,-0.549895377599615,nm,0.0
7.128123760223389,81.66091000814887,2.1796291152859606,-22.07884707627811,-1.4213594394711646,3.880567825300676,-2.3592593866992173,-0.1191768233807585,-0.30637373678469265,-0.4258875402394535,nm,0.0
7.151609659194946,77.45353443711807,-4.019537450592227,-22.94068912722328,-2.7810153315449324,2.902396054862683,-1.7124324035977667,-0.8115385517078859,-0.38526175453337624,-0.02222871767778387,nm,0.0
7.156319618225098,73.09308543949312,-7.450063236208803,-21.788218984457494,-1.977176916318103,2.088493071032671,-1.6662399791199585,-1.0558449421687301,-0.3062575674927169,0.13216824082793996,nm,0.0
7.179263353347778,61.43413080466792,-13.659594085148347,-16.65440138274814,-0.4408755801243663,-0.9169268392520663,-0.2628465412265972,-1.3784218737783618,-0.1617285733401663,0.3292872388551988,nm,0.0
7.18770432472229,54.59375881967411,-16.380579080774226,-13.09553811598187,0.825519124336829,-2.3594550216437447,0.5705925508124795,-1.4086032452719195,-0.19107205680599001,0.3471970689009009,nm,0.0
7.193464994430542,48.350432164681976,-18.801219024412987,-9.180547914815644,1.6735115743248157,-3.9480044833091923,2.3694731839149132,-1.252727867085177,-0.2502871476126424,0.3965318435661794,nm,0.0
7.203905820846558,42.956293201049775,-20.680668558467694,-5.179338259884227,3.1989793378244786,-4.046936838869117,3.406847711651182,-1.0451937412490422,-0.2518298263086842,0.4277518534534028,nm,0.0
7.213122367858887,38.511135223025455,-22.006376388315513,-2.6262309909809414,2.0957931530257583,-3.4795959007236874,4.149352469349236,-0.8344303355045086,-0.21448245672107352,0.1796367909658052,nm,0.0
7.225615978240967,35.82519687442271,-22.378258024226003,-3.0310980091991486,0.8193156323159625,-3.246094649688409,2.732994202032219,-0.49047786934728743,-0.056613952597207653,-0.2912884225483468,nm,0.0
7.232943534851074,36.31305332128146,-22.30909021131701,-5.945988009212075,-0.26550936871850533,-2.371322693681893,1.9392271311393785,0.10138139130440345,-0.000560411573818558,-0.5536991930577941,nm,0.0
7.24220085144043,38.144517860367785,-20.85514600864762,-9.792916228330617,-1.1662976508454905,-1.872785262071296,2.1806814535317525,0.3873530690137509,0.23409817796785518,-0.6429513868797859,nm,0.0
7.25141716003418,39.73863813004759,-17.646779264462936,-13.498991927931582,-1.3641402987562683,-0.9049204023736042,0.252685527402583,0.4337341098915262,0.5605861544345492,-0.6450177996004531,nm,0.0
7.260591983795166,42.360102241718266,-13.829200911385078,-16.860636409310818,-0.7110326383190994,-0.07244943426328093,-0.8344092790521287,0.6958827389824672,0.5976800399616573,-0.5396973051102202,nm,0.0
7.270064353942871,45.346679360936605,-9.745957283053299,-19.190495982826498,-0.3122514967653573,0.13024264117594675,-0.26343660870904206,0.8170524134078399,0.5889386603586895,-0.35429031674106415,nm,0.0
7.292863368988037,46.883837756606695,-2.6188963950805,-20.39181359280001,0.7933573578731401,2.0142504070928555,-2.4105474186981986,0.26465017610626834,0.5385960061591006,-0.0637280840031322,nm,0.0
7.299138307571411,47.18202468896977,-1.4902406654436622,-20.869386367901296,0.6197523178010822,2.289210688110097,-1.998624792925992,0.14124505528897305,0.1839769759797376,-0.10504708807828261,nm,0.0
7.3094987869262695,46.58976160153425,-1.672771461784073,-21.580894332479474,0.20545908629766452,2.5635188205461943,-1.5851369548994918,-0.11805967835511136,0.002136921686499023,-0.15721581622073225,nm,0.0
7.332147121429443,40.28361460810972,-4.163613446289447,-23.49857756689846,-1.537075408982837,2.9317663177424746,-0.8789632360764957,-0.8632438494061553,0.0040118891943060776,-0.3096501530375486,nm,0.0
7.336028814315796,34.33102777660468,-6.342895685269938,-24.437682568128235,-1.8736738617524715,2.593415881175964,-0.29010448568773656,-1.2568016047269095,0.07315599531114776,-0.32762458162280456,nm,0.0
7.3604819774627686,19.10694087088364,-11.056799808295889,-22.680427237996565,-1.0146925854863957,2.236952422365101,-0.11565504299747797,-1.6335370953467376,0.1685050505701837,0.008621973374372793,nm,0.0
7.36766505241394,11.075493575255667,-12.881639253246883,-19.656820243271998,0.22249102049728114,1.495687018509635,-0.8381345886722223,-1.5939803962321963,0.2154313882282574,0.2656315656655566,nm,0.0
7.389528751373291,2.9528807343177617,-13.920346746583924,-11.1146293225686,2.214824494172297,-0.5229622095458895,-0.9010729556433769,-0.41819322165565176,0.03479573718519925,0.7821938945435244,nm,0.0
7.399041414260864,6.325864934834625,-14.511132134346093,-7.043038704651515,2.9511704457803987,-1.714673275394578,1.221147692488384,0.6354392844111934,-0.23186526533826599,0.9767434635372432,nm,0.0
7.419564723968506,24.13522139412023,-20.162966312005747,-0.3778534937278868,1.2545327176598589,-4.151806310021449,5.72001265068972,1.700760237125846,-0.7870144617677438,1.1705987745657467,nm,0.0
7.422657012939453,33.35002618373196,-23.730678735089477,0.40203276153720097,-0.9719232203933026,-4.359673715936214,2.722693557474302,1.723707228267815,-0.7175450668705255,0.8170882310097282,nm,0.0
7.447503089904785,56.15559901037933,-23.46625077704474,-8.84535219142046,-1.442728286805025,-3.69789560412911,0.8783226435046038,2.00062919715229,0.2175289754471485,-0.24731335301107454,nm,0.0
7.4522786140441895,63.83384938466772,-17.246239209422896,-13.26054589713771,-0.3290790094561839,-2.033890341985208,-1.2119201997008675,1.664474050167469,0.9401911805238367,-0.34484389695512135,nm,0.0
7.475381374359131,73.22176184255915,-2.8387508583267906,-18.43523093515796,0.8279189299710497,0.16142275858417365,-2.2519130726075987,1.0563622364404903,1.071449776629581,-0.34874124371376425,nm,0.0
7.479582786560059,74.53067150604294,1.1220645659690145,-20.356752996892173,0.9648154810090385,1.1418230506964615,-3.0443608317405073,0.5191201562128158,0.6593369456239385,-0.3527842592243633,nm,0.0
