timestamp,roll,pitch,yaw,acc_x,acc_y,acc_z,gyro_x,gyro_y,gyro_z,markers,motor_input
25.519448041915894,-58.442646632920024,-17.864377755671175,54.97581292793748,1.5355247564540524,2.981983847407869,1.7963363343847545,0.9037910461211431,1.6816105516308992,0.06806486713263704,nm,0.0
25.52236771583557,-52.03646368758115,-16.502269261820743,55.125322471318555,1.7862186058597451,3.383244228576772,2.122042187404888,0.49534436862827314,1.156938468828423,0.5061053757152203,nm,0.0
25.547515392303467,-47.12182498095335,-16.738688194555227,60.52849542385365,0.17095567316739044,0.7533409055512948,0.7949576261985506,0.3518092159257316,0.2269960530348123,0.7750552190702875,nm,0.0
25.54930353164673,-47.22658725310392,-18.58972995473738,63.00907776485488,-4.754662159192779,1.0989065421078095,1.497089124335846,0.32956553959109536,-0.193707617061953,0.5286289326935071,nm,0.0
25.57559061050415,-60.70148752504003,-22.16067609931033,62.93377272236232,-4.44036728903926,0.5334625148219949,0.02696528775223188,-0.30849808627594405,-1.3646751580869108,-0.7780748771942537,nm,0.0
25.5851571559906,-68.95039422023244,-23.50702704861155,62.45039426463116,-5.9855351303930915,2.573057748084525,-0.8002933056015161,-0.4425455981287363,-1.4796728219957613,-0.8422911975586918,nm,0.0
25.591434001922607,-79.5889193809259,-24.017104901651646,63.06693848505613,-4.091559851981951,3.9813468593158006,-1.2099334590846318,-0.7836480621356665,-1.7855926599375203,-0.8610313648140274,nm,0.0
25.61101460456848,-96.5871799679871,-20.813986740202463,63.22910171228534,-0.7398488287224301,4.325955592852591,-2.7513970969390926,-0.9973915038736363,-1.0561032840860909,-0.686063144833477,nm,0.0
25.62043523788452,-103.92196366157292,-18.577245636933625,64.329166971042,1.1087726951715409,2.6121513170208117,-1.9767016468446696,-1.0042346449329405,-1.0452927117415434,-0.3617479252622281,nm,0.0
25.637784004211426,-114.02351255086066,-15.275305034168582,68.10191663341448,1.6814476359739607,0.04776288019203879,-2.119397457738332,-0.6246284747674353,-0.770574712715437,0.11054921869218486,nm,0.0
25.643017768859863,-119.59776926813193,-13.959649904463786,70.66404028046117,3.059048079078942,-2.088920541453343,0.034730098284341995,-0.6247588137730465,-0.9147221906440215,0.20537407196184512,nm,0.0
25.668692588806152,-126.27978348687961,-9.397951558080237,74.72237080964905,3.4463948777122546,-5.13973234350194,1.8845688965061762,-0.6715945089507829,-0.39262361085896647,0.21543743312407818,nm,0.0
25.671425819396973,-126.74148930496811,-6.86145063583788,74.47296630227454,2.847426673411376,-6.3648986795223035,2.3025550309698737,-0.5150062459115816,0.053591443845936726,-0.028359258371033164,nm,0.0
25.697538375854492,-121.4662747711264,-7.469558382184838,70.38050254625547,1.6449106678410037,-4.487385852972082,-0.6288221455463613,0.512494749903833,0.44331104886689776,-0.3702272244276509,nm,0.0
25.700974702835083,-118.70904863818262,-11.776974499842106,67.3488660957911,2.1349547594367206,-2.972577837102824,0.6694124626590283,1.0017073046738307,0.20058857366757243,-0.47768012356256984,nm,0.0
25.72362780570984,-103.47094950225294,-20.203198571940003,62.147517669646085,0.9716880323571708,2.905917439488636,-0.4328029541560484,1.4248059758852232,1.1184317767672451,0.14682206771081202,nm,0.0
25.728880167007446,-95.45479956312636,-22.274494893234603,59.87447936680072,0.9944429151783056,4.06737706581429,1.1055083401729715,1.0957833673987567,1.1038553058524725,0.2255521675469068,nm,0.0
25.744351863861084,-88.23401061153768,-21.590836548480294,59.047864788804766,-0.24326148767306757,4.151492855078452,0.6086246795522313,0.5747089551040616,1.221795368046264,0.48165849908155517,nm,0.0
25.75988531112671,-81.82169323473262,-17.24205914402742,63.5488378197039,-3.1736983519382096,1.7762981103497335,-0.15514338691111879,-0.1553475680146758,0.5616014473009492,0.8035297829781457,nm,0.0
25.769942045211792,-80.35122951235941,-16.476692988986468,65.86618955353256,-4.96185986529235,1.4258329555535019,-0.9516957296542787,-0.00920846001881169,0.32131476795143976,0.6283160075952462,nm,0.0
25.7760226726532,-81.50965668375837,-17.316694535093955,66.96810653780408,-4.509368653147107,0.6842214560194356,-1.0040977225769012,0.07291947055090399,-0.26968831553204897,0.17769655236768445,nm,0.0
25.80533528327942,-91.08532456696388,-21.508016208427623,67.59928736817774,-1.7595614596379603,2.8043515508886148,-0.2769180512425438,-0.19441362195917747,-0.7841268666005157,-0.28896725880565505,nm,0.0
25.828120470046997,-100.53045378976559,-17.36843559101125,69.61710727113733,0.6009247935234033,2.1873089792912475,-0.5682370855259604,-0.8550999196650936,-0.6266335928978681,-0.11233320742323341,nm,0.0
25.837810516357422,-105.29313472238428,-13.585037591373247,70.85209259169629,1.3125314163821185,0.8417326392102225,-0.9614428429383182,-1.0188631789222364,-0.6076217897337296,-0.04253750308300035,nm,0.0
25.84262752532959,-110.53997385336964,-9.841050649098321,72.03941149635327,2.367845353849582,-1.181004650966717,-0.711528279887032,-1.0335085712435925,-0.7346651639574066,-0.017021548313153598,nm,0.0
25.86471199989319,-119.32439435060039,-4.6623652551512516,74.8943583043978,3.885603399287925,-5.501454569887421,1.586356158620543,-0.608362040173487,-0.5730041946601826,0.22864205532749154,nm,0.0
25.880762815475464,-118.97424485910885,-5.260129038209719,75.24266577855275,3.3081406204027486,-6.512230121949468,1.917849839034383,0.3257156056911963,0.259310956144549,-0.07601858134415518,nm,0.0
25.894307374954224,-114.62120218468719,-8.245638967842535,72.83331707994907,2.124037836686839,-4.910625565255383,0.4398415466270716,0.8147993362620557,0.6722618201056663,-0.3387005196957702,nm,0.0
25.898814916610718,-109.20071199857905,-12.4013885168625,69.24844118077503,1.1138951936173385,-2.758075999403862,-0.2924452333047239,1.1371331336111772,0.7419422394498131,-0.47185179517337517,nm,0.0
25.92538833618164,-94.0642950038458,-19.623532913882674,61.36050233402529,0.37867172172961466,1.7027290189566364,-0.03276141545203717,1.2998417894620635,1.155646312283268,-0.19881759209853997,nm,0.0
25.93368697166443,-86.65879920255978,-21.605107116808703,58.517689219775335,1.0454624096203549,2.813529291780772,0.7505967397049627,1.046915637385649,0.9993364180277069,0.026191878344792044,nm,0.0
25.95413088798523,-79.12692480225886,-22.758089434533375,58.76929381577262,-0.769644374472049,2.5092031738032405,0.5807391161498455,0.3153878411320543,0.3588562857708775,0.45266691911002144,nm,0.0
25.956002473831177,-77.52310752662186,-23.13273627712563,60.65113857497696,-3.445483180229219,2.59548854588162,-0.30014733354797407,0.22232340374151946,0.21595239255832369,0.5652049462999595,nm,0.0
25.983215808868408,-83.43480621807883,-24.303410800755948,64.42967625264103,-4.4329554655332855,1.92549489743123,-0.7896462793951684,-0.23347459198390952,-0.7407512697445585,-0.07924292291741898,nm,0.0
25.98712420463562,-86.9816750372592,-24.39645360490278,64.91176791418088,-4.290259294468328,2.4392004679911294,-1.1864772754761788,-0.25280082247029784,-0.5936472243058531,-0.2268289963882876,nm,0.0
26.007672786712646,-95.0766668703666,-22.540971968066856,66.171195995744,-1.6598182469736131,3.198493467789613,-0.9121639762730548,-0.5566270087711737,-0.6182958664202534,-0.23153147499255844,nm,0.0
26.028128623962402,-100.59738602335716,-18.353218892683316,67.4004281118063,0.2533579170601339,1.9498577423176946,-1.3605088940797125,-0.6084781166036944,-0.2958777950325989,-0.016599408062439463,nm,0.0
26.0333993434906,-104.07393101876575,-16.24224816254742,68.72345933053388,1.2548151066751172,0.6598236626302869,-0.9547213515307049,-0.6364779552888932,-0.45653945634875515,0.0495349862844111,nm,0.0
26.057719230651855,-110.32392751880198,-13.266829538124606,70.45637010740057,3.045045714019946,-2.7262958252001055,0.01872309870505933,-0.4384287701852559,-0.45062150678809476,-0.023932604203532732,nm,0.0
26.065743446350098,-112.5791779482994,-11.927531535503228,71.29555642439416,3.8108038717852275,-4.460685744234214,1.1754238042004148,-0.3955969367915266,-0.3245328935257708,0.060622149079729286,nm,0.0
26.09500288963318,-109.33859761653322,-10.61616697211244,70.3785677475695,2.60004491765702,-6.0738417110084635,0.6328083190587903,0.1605066447585939,0.5316393958189044,-0.09757896550138967,nm,0.0
26.096763134002686,-104.20534118044262,-12.221774020945256,68.21831575554887,1.7563233764488135,-5.264930047283016,-0.26078638150202466,0.6622500500561945,0.8307840986190098,-0.16104558496179577,nm,0.0
26.100646257400513,-98.20536637066107,-15.276073674607153,65.49656362070333,0.931024011484698,-2.701750100698406,-0.30659586069958095,1.0271096329541116,0.8327754256359878,-0.19170480741161555,nm,0.0
26.124924898147583,-79.20583625810355,-20.304610276860505,57.20262193413095,0.2512101859415109,1.649901475707022,0.6411465743020304,1.4212968789107951,1.605797547592554,-0.08149369198551923,nm,0.0
26.13279628753662,-69.70966651578298,-20.991006441335543,54.422781293628745,1.9451053047449445,2.5430943881268595,1.8732187155705193,1.1272028897663249,1.3885590800460634,0.2083513382328904,nm,0.0
26.151430368423462,-60.22334395272997,-19.717135148022017,57.14653192166598,-0.009429429242489696,1.7520666057623515,1.4474572052536907,0.18302028296585723,0.5336338539504031,0.7558570298641449,nm,0.0
26.156789541244507,-58.48994207376334,-19.50774058921175,60.20734092994916,-1.8133764918602944,0.8081334668556858,0.5636299220329837,0.14638553101623414,0.29965557880426746,0.811352320300064,nm,0.0
26.182253122329712,-65.21420447773816,-21.230665220997984,64.00508234149828,-4.123566381068086,0.5111981296756252,-0.27172766884744304,-0.26744379201409907,-0.9984667833932271,-0.24724318971728976,nm,0.0
26.205336570739746,-78.01691116018313,-23.10725278133513,62.67699428114499,-4.349248537110089,2.6336681418168437,-1.2928804791838118,-0.40319259394445434,-1.2175930853607213,-0.7300335322079753,nm,0.0
26.207093000411987,-85.94162628087614,-23.399056846074707,62.82680961025548,-2.7922067235670327,3.8833009596364696,-1.1512651404427543,-0.6034075395187044,-1.3259967650009576,-0.6856589529477002,nm,0.0
26.216474294662476,-92.64928624100524,-22.626583346098148,62.41257201290259,-1.1289722539918738,4.003838400547707,-1.2603711230332126,-0.6969684833631272,-1.0291342313004264,-0.6765387482330681,nm,0.0
26.235394954681396,-103.30202466035584,-19.33174128612205,63.38425964835551,1.4633132084480058,1.8641330882842162,-1.1051449834212055,-0.7531768860109194,-0.6949515444083636,-0.1508059303459285,nm,0.0
26.250036239624023,-106.90086313268476,-17.547786832351157,64.69814142677978,1.4531136338835307,0.8687081007569769,-1.5122211954917022,-0.6170338043292256,-0.4564446120011446,0.028467266310562674,nm,0.0
26.251936435699463,-110.84420836464541,-15.846849383185265,66.08979454750194,2.519238370588105,-1.220063299687072,-0.7483351156611694,-0.6218116613953872,-0.5431476683114274,0.04682044277051754,nm,0.0
26.275593519210815,-115.79329241966705,-11.207660910463122,70.22197048609053,3.0095999219561307,-4.3602915834628595,0.7776173468800441,-0.5825516871870398,-0.07470615903775871,0.4098539050117902,nm,0.0
26.280107021331787,-114.99953385720828,-8.879292743852401,71.70672296322053,2.923370652591804,-5.908026593202592,0.98768027290657,-0.3875006474559622,0.30611273801081035,0.3915551335457161,nm,0.0
26.30513572692871,-106.30113192251265,-9.371924384111209,70.7464970388914,1.0491712268257298,-5.2598726588576,-0.9168845187516735,0.6257233593788492,0.9295302511641548,0.011716995326667026,nm,0.0
26.311885595321655,-100.6062978185882,-13.280733319943138,67.78800417175586,0.6191782162732893,-2.7807797448189375,-0.9618011499122006,1.1332410124757624,0.7694586778158282,-0.30348910190853506,nm,0.0
26.334285497665405,-83.64992298961698,-20.303071917017103,59.24414561317927,0.6481193230604059,2.3500717374993525,0.573251326437111,1.4174669992043276,1.4142225120953948,-0.1853648458551032,nm,0.0
26.337048530578613,-74.68541237785612,-20.979023918058257,56.04261182713482,1.4599852461946472,4.0073722831983485,1.8885737377029412,1.0254466334077164,1.341803541205903,0.07513195598646745,nm,0.0
26.360236883163452,-66.46751489302869,-17.841756349265513,58.06188006850045,-0.3369438960755448,2.3053854608296986,1.0441384466624204,-0.03127911115321384,0.5828059848312351,0.6981658945061604,nm,0.0
26.367481470108032,-64.86613071809916,-16.895581522429996,61.002772998191,-3.4588955842241993,1.6176726509228962,0.49590098867101456,0.0033885491118004225,0.35948760587345335,0.754606815136335,nm,0.0
26.389830589294434,-71.22418079854504,-18.739882192768928,62.53547824066291,-4.581883878338266,0.36661885572306496,-0.7458118608839385,-0.14708552530910796,-0.9506734440439726,-0.4218148969776092,nm,0.0
26.39574360847473,-76.14686141095687,-21.038917659060846,61.03635060486889,-5.201905799069486,1.7200504201092985,-0.9938831835965287,-0.020778674361567488,-1.0352467784186499,-0.7070755090582326,nm,0.0
26.417819261550903,-88.98862046885388,-24.31668551613656,58.99384642233845,-1.6424326978892387,3.627995838510093,-0.6782392990962011,-0.4423235971668986,-1.1654777390320732,-0.7829458391595812,nm,0.0
26.42749786376953,-94.8424291022737,-23.438798395117395,58.229957231332506,0.22032773131211328,3.5811583827485314,-0.8789280580122645,-0.7008159497634406,-0.8262198182894019,-0.6922679937070529,nm,0.0
26.438830852508545,-100.61973831710309,-21.018340519819816,58.1195933256529,2.237548482682089,2.047246169114294,-1.0618163213416805,-0.970989816446675,-0.6558420363911086,-0.49443385344851426,nm,0.0
26.456672430038452,-109.48797441248524,-14.749512732574013,60.345982893612195,3.845205317116796,-1.6050094029042765,-0.3225625745370529,-0.8894947908467383,-0.2807189337207443,0.05026514153770433,nm,0.0
26.46049427986145,-113.17194443401402,-11.866405393486518,62.50743326043802,4.510680180851195,-4.163882370716193,0.5980627107633298,-0.8476478059763192,-0.35066303275982785,0.26637054880517563,nm,0.0
26.491783618927002,-110.39823659480925,-8.366785754905688,69.49651579944894,2.429550472682392,-7.237089105237071,0.21735659331894489,0.4329626609297315,0.6421562791897416,0.2558036161312063,nm,0.0
26.50107741355896,-103.63682429869446,-11.8512829468183,67.12810524096889,0.34733597007068384,-5.138105065269645,-1.506136186630737,1.146355018170522,0.9817357804010681,-0.16706960284742753,nm,0.0
