timestamp,roll,pitch,yaw,acc_x,acc_y,acc_z,gyro_x,gyro_y,gyro_z,markers,motor_input
32.008286237716675,-49.02485972735248,17.49613658096437,57.441365117652325,-0.0315221373151046,-0.010598188847981683,0.02716370546497766,0.024093374104381966,0.07130485938673287,-0.014165382019591131,nm,0.0
32.02851319313049,-48.30582013146504,17.622899459235615,57.153828822834974,-0.057999364284170685,0.012739098584164055,0.018516830733077964,0.044293818759441855,0.04438067776585361,-0.03363005006048845,nm,0.0
32.03482747077942,-48.011688955702084,17.54068604332347,56.95078803967368,-0.024300497694234244,0.027203263685110182,0.030211824069462354,0.054084325816238614,0.030412330200826725,-0.041320400978942164,nm,0.0
32.04836654663086,-47.71394552027213,17.406127584911413,56.74545348078077,-0.03672300177517305,0.041470441213087024,0.046386005948792865,0.05873915255776799,0.02416329861566695,-0.04212825484285949,nm,0.0
32.052716970443726,-47.468236980506,17.288040210908825,56.560153460826264,-0.025961301104199277,0.029539636747465382,0.033233657479349664,0.054147350242765055,0.022079058104271566,-0.03367713547207749,nm,0.0
32.06755042076111,-47.18556060449667,17.229334160202008,56.4887590168986,-0.03699875140646169,0.042347673605265146,0.04798739241233831,0.047015410401711255,0.02967574975217958,-0.02093092431167684,nm,0.0
32.07476568222046,-46.916722908844704,17.251196492744157,56.458583964131265,-0.04832183934098691,0.01510754601241064,0.051997086086196076,0.0,0.0,0.0,nm,0.0
32.083027601242065,-46.65286444268628,17.337112687190448,56.41588308059772,-0.05362723789880941,0.0019824353821318646,0.05400585896180727,0.0,0.0,0.0,nm,0.0
32.091245889663696,-46.39032484873495,17.44118032569697,56.36390665215018,-0.08256040876548817,0.004335817139097862,0.031545006281638595,0.0,0.0,0.0,nm,0.0
32.112637758255005,-45.97428729247906,17.491307271755208,56.11988499440113,-0.0671344625342077,0.009905849398537276,0.013703670835111861,0.0,0.0,0.0,nm,0.0
32.11964511871338,-45.7949794809771,17.38710416439671,55.95552593121161,-0.0464772452030814,0.03512377674346464,0.009848917884923657,0.0,0.0,0.0,nm,0.0
32.13064384460449,-45.67296675701838,17.2206360217592,55.80845121269267,-0.011945055709157775,0.014398241727391238,0.016767541604463188,0.05170248841487927,-0.0027197577438274408,-0.017923047959022165,nm,0.0
32.154794692993164,-45.385962357526836,16.881752066630682,55.584494126644074,-0.01600433309536489,0.019348049527354444,0.02278894752853222,0.0,0.0,0.0,nm,0.0
32.15805983543396,-45.23830157150341,16.78201252324006,55.52616812432635,-0.02505220136721357,0.030339293131314327,0.03591461449032615,0.0,0.0,0.0,nm,0.0
32.170366287231445,-45.106076197169166,16.738231886465098,55.525258136888255,-0.012273812029665642,0.014881273300212357,0.01769044660071918,0.0,0.0,0.0,nm,0.0
32.17733335494995,-44.92548587273206,16.718610114673343,55.5684640798276,-0.03417676156431176,0.004460253764111382,0.03684938449886877,0.0,0.0,0.0,nm,0.0
32.198436975479126,-44.62681112162948,16.62312043373093,55.48560590028318,0.0,0.0,0.0,0.0,0.0,0.0,nm,0.0
32.205254554748535,-44.49128503266093,16.50377672251959,55.43253917041099,0.0,0.0,0.0,0.0,0.0,0.0,nm,0.0
32.217082262039185,-44.3292036350694,16.340906439260735,55.36362739286816,0.0,0.0,0.0,0.05420645835944238,0.008519144667053422,-0.011180567653847139,nm,0.0
32.24185013771057,-43.98400648271984,16.00616844288587,55.13347701791839,-0.012106428115164672,0.014849784583879927,0.018347506307709822,0.0558549017505113,0.012372091480308585,-0.01033600925263176,nm,0.0
32.244489669799805,-43.80355146000189,15.890486475432677,55.06726723044665,0.0,0.0,0.0,0.05198326048785624,0.018595069292734277,-0.006845693657681032,nm,0.0
32.25398278236389,-43.57991491993625,15.824582250988653,55.0269336359722,-0.0170715952617421,0.02105391948569409,0.026343775038205296,0.04736219953566105,0.025558310272292693,-0.004262200304565384,nm,0.0
32.27641797065735,-43.12525252777466,15.778426565960261,54.951239817614834,-0.015525066457304414,0.0193354628232321,0.024467332881115286,0.042504077238966,0.03334611694624276,-0.005641990786056077,nm,0.0
32.281227827072144,-42.89542543952771,15.747981132112987,54.85754601715496,0.0,0.0,0.0,0.04142031696416522,0.030543629043482713,-0.009001067446545614,nm,0.0
32.308281660079956,-42.44133405765755,15.60587191923122,54.603058437757525,0.014794868647634967,0.02082075625784277,-0.007134266849995277,0.04847428542190093,0.030337932291075103,-0.015474476605003342,nm,0.0
32.31035900115967,-42.21838553688586,15.510607064017394,54.49962686807557,0.016673552136988908,0.023375135981315655,-0.007968389458301106,0.04860076157865808,0.02822584565819776,-0.014791004919782155,nm,0.0
32.33759593963623,-41.749438654739784,15.38517978225748,54.37600133442921,-0.015301112883411386,0.01971111537155832,0.025838707668523427,0.046293425434597045,0.03278210897148303,-0.010559096860475766,nm,0.0
32.339967250823975,-41.528389521275706,15.36661290748753,54.32470040518027,0.00659277728047786,0.008540152509679756,0.03923422748330769,0.04227105753907062,0.03231798386023719,-0.007329559728912694,nm,0.0
32.36441493034363,-41.120851729409104,15.394977788479576,54.25744205191855,0.022137535562904587,-0.009257736248568894,0.019674750057198175,0.0,0.0,0.0,nm,0.0
32.36735010147095,-40.90897869148956,15.41697728847645,54.16302978312461,-0.022222641483023362,0.0293760642780921,0.03917774020590692,0.0,0.0,0.0,nm,0.0
32.39236044883728,-40.660804933977985,15.42431600053902,53.991909409101375,0.0,0.0,0.0,0.0,0.0,0.0,nm,0.0
32.39460563659668,-40.503779351930916,15.413965237393946,53.91493830516999,-0.02318428948637613,0.031182530435506763,0.04187306190467138,0.0,0.0,0.0,nm,0.0
32.41818594932556,-40.392802345234124,15.396045280039056,53.722503353980585,0.0,0.0,0.0,0.0,0.0,0.0,nm,0.0
32.427229166030884,-40.23573177693833,15.4085041874832,53.67292334997186,-0.02920599391529279,0.03984675648563961,0.053703634504971655,0.0,0.0,0.0,nm,0.0
32.44732618331909,-40.15138418346644,15.466632247943071,53.471650298953165,-0.04010544821444301,-0.003087137708419814,0.044668496761107394,0.0,0.0,0.0,nm,0.0
32.45352005958557,-40.14400735648892,15.490836386557909,53.388161603135956,-0.03244838330003035,-0.007225199138411925,0.03371578736383826,0.0,0.0,0.0,nm,0.0
32.464004039764404,-40.1364861009194,15.505081427937393,53.349289400900425,-0.02923305077780751,-0.0005426935579751613,0.03342945356628586,0.0,0.0,0.0,nm,0.0
32.490994453430176,-40.17228692575105,15.498229896400908,53.30734997066878,0.0,0.0,0.0,0.0,0.0,0.0,nm,0.0
32.49274802207947,-40.191316892007606,15.482413016489637,53.31231006302407,-0.010056128609273416,0.013955091594217128,0.018710083840711326,0.0,0.0,0.0,nm,0.0
32.501898765563965,-40.222023069068605,15.46496911093986,53.32821677821519,0.0,0.0,0.0,0.0,0.0,0.0,nm,0.0
32.52272605895996,-40.252878397308976,15.41557032973054,53.377913544171555,0.0,0.0,0.0,0.0,0.0,0.0,nm,0.0
32.5284161567688,-40.25428930016623,15.380087826442056,53.39846210954396,-0.017657451122099276,-0.02377444490671815,0.008146079651782722,0.0,0.0,0.0,nm,0.0
32.5536253452301,-40.23581679796906,15.28311729182075,53.365075457466574,-0.01623152135674385,-0.0218279526944134,0.007432875017323946,0.0,0.0,0.0,nm,0.0
32.55887818336487,-40.22015899284862,15.224448775649103,53.32834196656025,-0.01036746390542499,0.014229081229300163,0.01918408249753911,0.0,0.0,0.0,nm,0.0
32.57907152175903,-40.19271470155344,15.091102247424779,53.4015829032711,-0.01107323612786874,0.01508873846139895,0.020440475197105422,0.0,0.0,0.0,nm,0.0
32.60279154777527,-40.180858924377354,14.945317941436233,53.467946415044146,0.014468495998319343,0.0195301902528562,-0.006487829265597461,0.0,0.0,0.0,nm,0.0
32.604862689971924,-40.17100679138339,14.864653543846531,53.47590460097234,0.0,0.0,0.0,0.0,0.0,0.0,nm,0.0
32.6144917011261,-40.165762233411954,14.786545810511619,53.52664672461244,0.0,0.0,0.0,0.0,0.0,0.0,marker_3,0.0
32.640177488327026,-40.12358883466832,14.685812906761862,53.581401292176196,0.0,0.0,0.0,0.0,0.0,0.0,nm,0.0
32.64420676231384,-40.09093394012542,14.682353568342158,53.607317260703724,-0.014716405827544564,-0.01996618530192359,0.006498951961046491,0.0,0.0,0.0,nm,0.0
32.66643834114075,-40.018008874701785,14.676117783413305,53.667391070215864,-0.04078339633604021,-0.0038213696118405828,0.04479662086753516,0.0,0.0,0.0,nm,0.0
32.67032074928284,-39.96703752739713,14.703755947788968,53.63382644528692,-0.0333717969954632,-0.008026682515501794,0.03416611548710548,0.0,0.0,0.0,nm,0.0
32.69470262527466,-39.88088481775528,14.685371059627865,53.515763235749624,0.0,0.0,0.0,0.0,0.0,0.0,nm,0.0
32.69911479949951,-39.823571834647225,14.63752792236664,53.478020668030645,0.005709929205557302,0.05360744522353653,0.021716356438562297,0.0,0.0,0.0,nm,0.0
32.72146439552307,-39.7120262680144,14.573200954642015,53.54726544720031,0.017869941160533108,0.024191550737445833,-0.007819191690267534,0.0,0.0,0.0,nm,0.0
32.72779870033264,-39.65073484528463,14.550040771782594,53.618493441589294,-0.010994910596765864,0.014721434732157371,0.0205366530624842,0.0,0.0,0.0,nm,0.0
32.75252842903137,-39.531087440401144,14.600654616621647,53.74616178533539,-0.029138278966597726,-0.012589560747024551,0.02723376714101454,0.0,0.0,0.0,nm,0.0
32.76077365875244,-39.476806873096066,14.635034933949113,53.792897391300606,-0.03324159163496645,-0.012200247750524352,0.03231195406294933,0.0,0.0,0.0,nm,0.0
32.77937626838684,-39.38082764496261,14.738920657535878,53.82162583137704,-0.01841051270132174,-0.02517470739141392,0.008204757379859725,0.0,0.0,0.0,nm,0.0
32.78668928146362,-39.33922405372485,14.779916914654242,53.75526589733368,0.0,0.0,0.0,0.0,0.0,0.0,nm,0.0
32.81441378593445,-39.242198130960794,14.827353119107311,53.6332170299573,0.0,0.0,0.0,0.0,0.0,0.0,nm,0.0
32.81623029708862,-39.18449594949574,14.832399120439112,53.60525056761131,-0.009956963147616696,0.013619276137655723,0.019088301590964606,0.0,0.0,0.0,nm,0.0
32.82508206367493,-39.13338221667479,14.822882071692431,53.60483911085632,-0.011526264214866546,0.015777336260726964,0.022146238476903564,0.0,0.0,0.0,nm,0.0
32.84779930114746,-39.03417582642432,14.826963634747603,53.63807854860773,-0.012422135814310216,0.017021872665515806,0.023960215579696433,0.0,0.0,0.0,nm,0.0
32.851186990737915,-38.99200033955353,14.843391472255828,53.67201708514585,-0.010835520444327524,0.014852469925546714,0.020929205442797763,0.0,0.0,0.0,nm,0.0
32.88152480125427,-38.91064262609073,14.918428277571117,53.73201363481025,0.0,0.0,0.0,0.0,0.0,0.0,nm,0.0
32.88330888748169,-38.86344988735034,14.962248235523354,53.760968677982056,-0.009853810433149967,0.013564508904849315,0.019141478983178212,0.0,0.0,0.0,nm,0.0
32.89893198013306,-38.77171960770993,15.021955638942815,53.70200268700697,0.0,0.0,0.0,0.0,0.0,0.0,nm,0.0
32.91351246833801,-38.73105394532091,15.036554904924534,53.587319719139835,-0.010629081266745796,0.014812353086606172,0.02088735265170414,0.0,0.0,0.0,nm,0.0
32.91773772239685,-38.694331075357695,15.032255603724307,53.46882249946883,-0.011830378568348676,0.016569243249915447,0.023354012303619904,0.0,0.0,0.0,nm,0.0
32.942628145217896,-38.641688869333734,15.015989454503467,53.51300959754802,-0.009730041639480073,0.013612342629763515,0.01922971543781707,0.0,0.0,0.0,nm,0.0
32.95112347602844,-38.62416733914185,15.017055169664912,53.5474146997564,-0.009663444545448978,0.013507857413215836,0.019098131905195347,0.0,0.0,0.0,nm,0.0
32.96912479400635,-38.5897460874629,15.045492504788106,53.638663987596274,-0.009568386788367326,0.013355567310077279,0.01890732489717451,0.0,0.0,0.0,nm,0.0
32.978477239608765,-38.572543274129245,15.067380827608568,53.59472860354745,0.0,0.0,0.0,0.0,0.0,0.0,nm,0.0
33.000903367996216,-38.53592226471129,15.088391500704462,53.641594817557305,0.0,0.0,0.0,0.0,0.0,0.0,nm,0.0
33.0044367313385,-38.51919456154508,15.078806925781425,53.636661264301424,0.0,0.0,0.0,0.0,0.0,0.0,nm,0.0
