timestamp,roll,pitch,yaw,acc_x,acc_y,acc_z,gyro_x,gyro_y,gyro_z,markers,motor_input
20.519835948944092,-77.58715344441138,-17.44164001030759,38.11682946441505,-4.884869337924989,4.303611789322864,-0.9700418792220907,0.5043823708139887,0.969067508404219,0.8170598178010444,nm,0.0
20.52161169052124,-75.30519642725099,-16.929756598194615,39.08020243075021,-5.044815937139754,2.542211109049849,-0.6468826792691816,0.28642002680122475,0.34831122930249003,0.40346461192691596,nm,0.0
20.53044366836548,-74.40822524387775,-18.29955912844581,39.073143864603374,-4.240094206629429,1.7291012430815673,0.08686400077842299,0.31380405350046553,-0.10888156377681947,0.08401307424243765,nm,0.0
20.555806636810303,-76.12502801429034,-22.57094231435348,36.69338655667407,-1.305107641255721,2.385945029600816,0.5687792047990079,-0.0857513938005091,-0.5810331708881291,-0.46379325190227166,nm,0.0
20.557780742645264,-80.7014209018518,-23.369882417451464,36.752363975643284,0.8264872911985532,1.1590183639372535,0.7896544428648937,-0.5729833576503155,-0.6377569427500094,-0.38444367111526245,nm,0.0
20.56617522239685,-86.2880343946258,-22.281509593132146,38.58220015381281,1.8171014757898158,0.7662000093759234,0.3217178238250296,-0.9425168074642067,-0.46222423574024657,-0.09796279658906855,nm,0.0
20.589958906173706,-97.99122804245665,-15.523857730580923,43.17259546065481,4.0626169971085435,-4.851561812578166,0.32551952984586685,-1.2739381652856185,-0.10698562936693341,0.13112091548149438,nm,0.0
20.616503477096558,-102.10868135811735,-9.142482380044214,48.47651086316938,2.1179310197687973,-7.10385922090375,0.677224901153721,-0.45546478990689176,0.2544123900566917,0.5509046930049648,nm,0.0
20.61949872970581,-98.85054170567614,-9.467568597478307,49.31938866246803,-0.07332969027666054,-6.412707734962102,-1.2381766512177896,0.47885345938603435,0.4435334353714005,0.32145981223479253,nm,0.0
20.62355923652649,-94.70224779057166,-12.86265892877805,47.76520363982545,-0.41970493238100576,-4.769975574221548,-0.824699270510479,1.0550262012760243,0.16084304649716766,-0.12185184443268547,nm,0.0
20.631414890289307,-88.46970744814912,-17.656274513974306,43.32107666824981,-0.342396735716905,-1.9451516344267004,-0.2691918086413953,1.534186532914535,0.18663466827096015,-0.5472051334859374,nm,0.0
20.658519983291626,-72.69244228994114,-23.04348888564668,30.982577568857877,1.4333081557509506,1.4968086973060557,1.5879370611460366,1.3785135899432244,0.5407157667167406,-0.6032215585242641,nm,0.0
20.661126375198364,-66.88843482799713,-22.409254828627216,27.579095511741812,2.193236557451853,3.3942443702971854,2.1376236250547658,0.8805390635090428,0.6280990151169316,-0.20848395409096018,nm,0.0
20.685287475585938,-63.69885555628906,-18.816325644508616,28.033718760107302,0.22592844224396286,1.9446779151570834,0.834959443235434,-9.966220027220646e-06,0.3591861586169036,0.3865144633861088,nm,0.0
20.688241481781006,-64.39826159812397,-17.98094250515396,30.88128004108158,-3.7808489557538643,5.38374874073228,0.34142782612185885,-0.18901537253298994,0.07488863721132392,0.5803543638185851,nm,0.0
20.7084903717041,-70.38186358882356,-17.787538073927166,32.674608268798615,-4.008165138480882,3.817105540417136,-0.5396954651356642,-0.9814265961015869,-0.5722605580748087,0.0057622993826931534,nm,0.0
20.72730302810669,-82.14115955502366,-18.912773844915666,33.959278605677724,-3.962421713565803,4.013704054612565,-2.045271914231123,-0.7370148143172772,-0.6899303537922706,-0.24493056537378702,nm,0.0
20.729080200195312,-89.15965734759799,-19.57709141548517,34.66880505136154,-1.3772102624942746,3.121612256894772,-1.807986136841735,-1.012692547678424,-0.8631725071461755,-0.3775870200989529,nm,0.0
20.735939264297485,-95.33460682926832,-19.369623879347483,34.811129319347344,0.517906342501154,1.4670862708233654,-0.9782403701383786,-0.9750180167149209,-0.6342035647852716,-0.4309919921203607,nm,0.0
20.761464595794678,-104.29098142702233,-15.73429302221497,37.33245708973188,2.781273245270132,-0.8632832157908428,-0.5966637741224105,-0.9851670601306117,-0.17048716891338242,0.09588145897585959,nm,0.0
20.76593565940857,-108.3204932231808,-13.12843219730438,39.59206706896956,3.701775314120157,-3.3802091083256576,0.4584945371629716,-0.9320576021867791,-0.07549673185521395,0.27086010100568575,nm,0.0
20.774486780166626,-111.14685894399578,-10.476434696796552,42.56388253804028,3.622188698828435,-5.018615259274497,0.8558940248061473,-0.7623000285468204,0.039772035852458955,0.5109333212160585,nm,0.0
20.82265877723694,-109.01443891036085,-6.124533777195882,50.762412881075576,-0.424108719051146,-6.312743037423691,-0.32923633437365024,0.45605088272076977,0.5212588469185075,0.31740975797212956,nm,0.0
20.824442148208618,-103.87824919770321,-8.555854804887362,49.01367773613019,-1.1670558252159213,-5.118140747286506,-0.9623782587686677,1.0348690656785047,0.4684351578697032,-0.1848023537119707,nm,0.0
20.826663970947266,-97.54694172202102,-12.685962895547808,44.8397057442431,-1.6023200999365423,-1.2738670017923321,-1.6998618745081107,1.4603384796842425,0.3469392974159988,-0.587763840591289,nm,0.0
20.831021070480347,-91.47123584123283,-16.688122402074836,39.329295695160425,-0.11339003267811744,0.3455175899281424,0.030260816321934583,1.4161513440257032,0.19347109119547712,-0.7804703897015365,nm,0.0
20.85689949989319,-76.46241365277673,-19.289186583237214,30.747023377125167,1.9055462525014748,4.369347257530403,1.475695195961224,1.1775593309676695,0.6694009788218382,-0.17066229764873467,nm,0.0
20.86044454574585,-71.60817588479897,-17.668173267725198,29.274922765681037,1.3656648361154564,3.992448967860436,1.1635055781948993,0.6443459599605978,0.7363049136099329,0.04230543171680468,nm,0.0
20.885243892669678,-67.89511741488599,-14.90903472247113,32.98046390336411,-2.8834726508495154,4.230037754245294,0.4363786234154588,0.12308686079964441,0.28253943731565223,0.6651971458938822,nm,0.0
20.88864755630493,-70.02835223080037,-14.862868615028617,34.985508985048305,-4.396267487184324,4.436427827581796,0.007748205850043106,-0.33866411798317286,-0.22711206664779057,0.3187110129310753,nm,0.0
20.91390562057495,-78.41763219798686,-16.879284207301577,35.37830180473046,-3.9074358116015544,3.4658759692146948,-1.1178980465525095,-0.48976831985433483,-0.6868440292766533,-0.25726685905787405,nm,0.0
20.91648292541504,-84.36101927884631,-18.226470660132453,35.82626738176937,-1.8013582245455564,3.0262478188557447,-1.0523474276208589,-0.7560726171331622,-0.8850764969644029,-0.334524898381503,nm,0.0
20.94165849685669,-95.54385796424444,-17.625793718336855,36.86689067249035,1.3266522175895363,1.062868045028894,-1.1164760577225257,-0.9061139472422524,-0.43732734149663055,-0.23341001816699988,nm,0.0
20.94528889656067,-101.36308158138073,-15.571365286007484,38.310406242339496,2.7669265271316097,-1.1326788657689282,-0.5413449689072083,-1.1302459106252485,-0.35668024999443465,-0.06205818752515363,nm,0.0
20.97426462173462,-109.81235577100254,-10.43695851687667,42.07818012976753,3.722864629090601,-5.837006224185696,1.0131464878471166,-0.8355443274445362,-0.04683134155948579,0.3158528948373761,nm,0.0
20.976470470428467,-111.8191358031389,-8.284888970948353,45.1392907567895,2.5323340079454075,-6.150491065384997,1.147714345249468,-0.5799755748004419,0.04269687171048945,0.5832562557589486,nm,0.0
20.985082149505615,-111.02988408371849,-7.499276405383801,47.8410542317858,1.353465535069752,-6.256813037445697,0.494982535365018,-0.0017197293713081016,0.22563991635099523,0.6011511756346115,nm,0.0
21.009114265441895,-103.28806918040024,-12.743800037953458,46.26394341254073,-0.8046221762821942,-3.877443503565514,-0.9960922858920781,1.181304311999544,0.20166278843996915,-0.21169004315972434,nm,0.0
21.0115647315979,-96.5736990063434,-17.09277280083131,41.804304717601184,-1.1910432308347525,-0.7078992550477241,-1.2297106539344873,1.5437753242562606,0.277960908395674,-0.5390339650152604,nm,0.0
21.023683786392212,-89.49451393044647,-20.52089232154008,36.36648731943246,-0.37139138174049063,1.7750376130043775,-0.028405641557254575,1.4792343169197035,0.31161663027887526,-0.6171974539700517,nm,0.0
21.031309127807617,-82.15523166457231,-22.0601057047559,31.479310737711785,1.01347540471424,2.6906320410998905,0.9302172857101685,1.3136725511339902,0.5047345820263066,-0.43128674462204303,nm,0.0
21.039578437805176,-76.14964410765035,-21.63138120375039,28.49732965841616,1.2977840103678377,4.615142348713231,1.3078813715486586,0.9306706002110631,0.6263512606371022,-0.12026516767192791,nm,0.0
21.06511092185974,-72.3671140790205,-18.83954743339855,28.934198356522163,-0.9796620897236006,3.2094104326103476,0.45658421739392574,0.06884051683593409,0.32364430449122056,0.3691515369705136,nm,0.0
21.071449041366577,-73.60597069663213,-18.307772919410965,31.337675361381418,-3.9706046995849955,5.406335241773924,-0.45694320963581075,-0.24914935033018173,-0.03052974285849751,0.43285086022892366,nm,0.0
21.092865467071533,-84.69275155609246,-19.613783979548465,33.71227368848283,-4.019593904862792,2.676618087504999,-1.8286800601530404,-0.8060886348114301,-0.7743863680366441,-0.2720241868514416,nm,0.0
21.097350597381592,-91.01958294609202,-20.80767586224134,34.59626298687399,-3.2092250762111503,2.8970594575661845,-2.562149839834169,-0.84126189961593,-0.8705713790453546,-0.3338433666873916,nm,0.0
21.10729217529297,-98.46920656751016,-21.541460760307764,35.27185387658086,-1.0539418130102176,2.0199323141741794,-2.1553301795218327,-1.0484239364877972,-0.9223399024769833,-0.48467992030894624,nm,0.0
21.134078979492188,-111.791960351923,-19.92986620100782,35.65879844575063,2.202996624292409,-1.3462363216337625,-0.7587059124695811,-1.1167465557754033,-0.46422855618477665,-0.4353609836548767,nm,0.0
21.137245655059814,-117.87300066588999,-17.814919942012075,36.2910635185584,3.470583634071315,-3.4151766907828147,0.7858018089112079,-1.1784538845041639,-0.332685266158987,-0.27189315372445416,nm,0.0
21.160757303237915,-126.59074576789038,-13.73200493118813,38.94531379159274,3.3608788356549826,-4.509078644060231,2.2905927519784255,-0.763587477098885,-0.1078991271896408,0.1799356006329753,nm,0.0
21.169585466384888,-128.66072520416506,-12.383774728616947,41.161058889813425,3.147549370015819,-4.837007199725882,2.4190347970619266,-0.4813322381432651,-0.04715593842437526,0.39086286594154174,nm,0.0
21.189260005950928,-127.76063229535009,-13.288760199323676,44.69932555228015,1.3104460158327405,-3.713211288445929,0.9246939553290936,0.38713240999677206,0.053728877210684936,0.3928871607326338,nm,0.0
21.192597150802612,-123.77804893326986,-15.540267192559435,44.76818113365807,0.33560895265981394,-2.9500486963790213,-0.14000296752800725,0.8674223105238866,0.22617741134857475,0.2639764736470747,nm,0.0
21.2022442817688,-117.733500511953,-18.051146549505773,43.644752913004744,-0.39671423035415815,-1.2813501777131808,-0.9365861655104094,1.1832910389417266,0.448373637100967,0.18143965406489032,nm,0.0
21.212550401687622,-109.75491751098112,-20.302467382764753,41.215698929488454,-0.5974670951744996,0.31331443944328513,-1.1013892393790492,1.4210198905365239,0.6841778714052827,0.09594115223819048,nm,0.0
21.23713445663452,-91.2633092093094,-22.223569041490336,34.74326232046552,-0.67845245264006,3.5339649372933652,-0.2723567682410642,1.4143585184088645,0.9190722926521767,0.10515537970986481,nm,0.0
21.243335723876953,-83.53644073415438,-21.771050992439072,32.64097252185874,-0.14993294060279908,3.5604635303839944,0.7921089029930526,1.1502567500600942,0.8655691766885161,0.20521880247050064,nm,0.0
21.267224550247192,-74.44186363814441,-19.960617785368466,32.08017618193579,-1.5883923339514974,3.486661199210756,0.8347061178903296,0.40361806822709745,0.43146601153313036,0.3366842455240937,nm,0.0
21.26931667327881,-73.79924070618789,-19.772818405518407,33.333829759958576,-2.786769482567912,3.7270791383195703,0.5929321758381613,0.08924333044421723,0.09225620855687344,0.3458972903459125,nm,0.0
21.277466535568237,-75.59601281064894,-20.119785642876103,34.593891971566315,-3.3881388467165316,3.702004863122546,0.11408914807331029,-0.23440927202868864,-0.25074611422667303,0.15155472818478233,nm,0.0
21.304149627685547,-84.18001680380591,-20.871726516645865,36.13724006129192,-2.002101559503404,2.170887389989457,-0.8314233774653091,-0.6980924798809055,-0.5745363000196692,-0.21384980553025001,nm,0.0
21.305891036987305,-89.93872371766406,-20.425435879911472,37.53608024030259,-0.4645437426770801,1.2677187895933852,-0.9334620196470467,-0.9100084927966685,-0.5800109893992629,-0.1747381349178718,nm,0.0
21.331125259399414,-101.56453054859448,-16.747285425001476,39.95549647716009,2.566881214824645,-2.6233036621328925,-0.1359811043756948,-1.1039485713326214,-0.329767483078168,-0.13905630827928184,nm,0.0
21.335201740264893,-106.28228565879255,-14.048766979774811,41.49231685930026,4.094894624453352,-5.540726873973826,1.1104078113928084,-1.0381693517275166,-0.1838070073005277,0.06028087680512885,nm,0.0
21.359872579574585,-109.15374207318705,-9.33805884701374,45.70924329302067,2.1682290225023846,-5.4840869030003,1.0030137175566036,-0.29709149764233667,0.2665682449600678,0.4600622769667143,nm,0.0
21.36822748184204,-106.38998726905584,-9.037648164490822,47.11853618305175,1.5066606474363902,-6.140895046023177,0.36092710350313467,0.33877019111564105,0.4393261715833387,0.42741179680703917,nm,0.0
21.39295482635498,-96.84937514253676,-15.372839783015708,44.66495894125767,-0.3857382536347565,-2.8141621874048206,-0.47676212958215874,1.2865584301600597,0.1357795545656644,-0.21816077025100059,nm,0.0
21.394657135009766,-89.87224366746997,-19.586495032121395,40.97060613123881,-0.5110171426051565,-0.015325006755988638,-0.23906914229540252,1.5559389434744528,0.2859802281071532,-0.3058343354735463,nm,0.0
21.40372347831726,-82.92449535814038,-22.472473050204755,36.5961954853822,-0.32338016062387676,2.0235264050566357,0.49330925675243537,1.3796790230920157,0.3600340875230723,-0.36297649948986055,nm,0.0
21.42693781852722,-74.28502727055297,-22.26463544434307,32.06762047240039,0.8082586422857262,3.6160319001633416,0.961261968294006,0.4121212064725103,0.5005290784022566,0.060569676013031384,nm,0.0
21.431321620941162,-73.48174059776042,-20.42248113950402,33.035189643087,0.6269681498938877,2.984106172291219,1.0082331868677645,-0.0643886055007354,0.38683595800882775,0.28381544565794575,nm,0.0
21.45529317855835,-76.65613283473776,-16.896367831536647,37.15388558289728,-3.6542638187898775,4.491583940343707,-1.0484637213053911,-0.6751616459232235,-0.1501386368964553,0.27954469919358926,nm,0.0
21.45901846885681,-82.31804126679633,-16.616601783991328,38.742925379160596,-3.3618730149750897,2.7400347172555164,-1.2020654133032904,-0.8823950072555431,-0.6269110653177059,-0.02245344941659052,nm,0.0
21.484298944473267,-91.38131651779746,-18.77493016698204,40.19362782546105,-2.6882238017058095,3.1185549454898114,-2.4592084996225294,-0.5013316512197513,-0.7975359331130483,-0.22059728003078477,nm,0.0
21.48792576789856,-96.78620244444257,-20.00090279743998,40.97850672125495,-0.6019795746901561,1.8883949926210313,-1.3410690707309454,-0.6083076047120866,-0.8532079933118293,-0.2612314993230626,nm,0.0
