timestamp,roll,pitch,yaw,acc_x,acc_y,acc_z,gyro_x,gyro_y,gyro_z,markers,motor_input
8.553311824798584,9.334796807527994,-17.88214112292135,-16.72030329965596,0.26437761913304975,2.411604962524325,-0.7739896383072186,-1.5970191291662574,0.7140525352460739,-0.23783216065581514,nm,0.0
8.555025100708008,1.4793638954833987,-18.077229570238135,-16.360660354621377,1.3124621938591867,2.2532860979400735,-0.5232101396453289,-1.4395851434242481,0.3773811667507712,-0.38412243430693166,nm,0.0
8.557127237319946,-9.488375588802265,-19.790226491840944,-15.501148759915614,3.2946071852767935,-0.6353103240096414,-1.1800262241356343,-0.7422569748176006,0.01786527301278832,-0.20336701205622243,nm,0.0
8.558685302734375,-8.958240752074063,-21.01758482389861,-14.029702757791407,3.319730058740471,-0.6229747122043645,0.6617551755533183,0.03904412947679957,-0.2765404744561542,0.28413807960907106,nm,0.0
8.56495714187622,-5.157547505942648,-22.55145085211292,-11.746679777420573,2.6510956270992914,-0.7274655701759488,2.6487713448371673,0.6268653035518293,-0.46952097010939975,0.7128891120694282,nm,0.0
8.587598085403442,14.204550886816508,-27.131164592937655,-8.147288035855016,-1.6110482664670496,-1.4071404192976027,5.24045874409789,2.01173609587094,-0.8707453053300248,1.2309183311985292,nm,0.0
8.59209680557251,27.483619626842092,-29.561346840367065,-9.243737495560678,-3.309883644930295,-3.341642132602439,5.247571570394932,2.250425987061623,-0.8399838768924731,1.0182282423197695,nm,0.0
8.644274234771729,61.569583947864764,-22.14310285194202,-17.45905789212395,-0.6152115450809578,-2.8049703366535854,-0.49378103400001155,1.9348250069006234,0.4230649268326784,0.3046554646988285,nm,0.0
8.64728045463562,72.1924603999183,-11.747033537073134,-19.063274499734213,1.1409209519483743,0.2952578164130362,-2.474211332836413,1.1023792710745273,0.6542314848534734,0.12408614397982938,nm,0.0
8.64907193183899,75.06531733041369,-8.461018919846115,-19.63963834781736,0.7933861928212296,1.28023181458049,-2.624951743425178,0.7619260435053801,0.43121271481973894,-0.008627294009286437,nm,0.0
8.671253442764282,77.11285696797822,-6.504123446178212,-20.252228885676555,-0.3913331656146375,3.3064457571957107,-2.6188392477942353,0.12245654898119139,0.030286995613094468,-0.026548667998880275,nm,0.0
8.698080778121948,75.1356480878065,-8.039493121659145,-19.450934284109128,-0.8543357820746106,3.5333250186803085,-2.376981252596667,-0.34642564305491486,-0.0937537387965095,0.07302952652214688,nm,0.0
8.69982385635376,72.97300512134082,-9.46346696663102,-18.549352520628446,-0.8214360515166044,2.556569147277834,-2.075968734893334,-0.48815500519597055,-0.13177031202313919,0.1037204833285433,nm,0.0
8.706385135650635,69.68315946405635,-11.244632184242471,-17.54290755657186,-0.6496293331290616,1.2968337202875486,-1.581824663483794,-0.7171094342986977,-0.1404349278892743,0.07240732520973482,nm,0.0
8.734231948852539,60.249444338338215,-16.823721408660422,-10.970319621953372,0.5391032673130971,-1.2056155813496638,-0.6580737450937681,-1.041276219273213,-0.43128808487488945,0.10802736032529846,nm,0.0
8.736133813858032,54.91759910945267,-20.53726644543106,-6.029698632442023,1.1242909633024902,-2.3513605357127427,0.4716161034478322,-1.0891896886122416,-0.607705027229762,0.24744792448831707,nm,0.0
8.745195388793945,49.175222593098766,-24.295037674061966,-0.012633264574995277,1.5297892614856945,-3.564187783168774,1.9050178068826022,-1.0778496482176756,-0.7165345546033002,0.3754766474563056,nm,0.0
8.766042709350586,37.489631833010186,-29.71394539027951,11.527304837176743,1.7418314338121175,-3.0280605972705237,4.153838036676218,-0.9447192267887935,-0.5979684128079371,0.17933825930193495,nm,0.0
8.792469024658203,31.703463863572278,-31.28319530700233,11.18261616255635,0.07345825983906278,-1.889142985937619,2.5136445498952886,-0.1512814069055689,-0.14334317960542553,-0.5420683336918463,nm,0.0
8.794723272323608,32.29181463790878,-30.723008907837766,7.100180658931141,-1.1091767230342573,-1.2158854016111302,2.351819659592487,0.09388655382253887,0.12157447390879896,-0.8254055287178984,nm,0.0
8.81961178779602,36.40600339059653,-25.97367426624962,-3.5106678358958425,-0.7002361307677867,0.2079320717885508,-0.5950752426320162,0.6229956889076798,0.542045491230744,-0.7197276027290742,nm,0.0
8.821534395217896,39.47747794300708,-22.81803256030727,-7.688630857240659,-0.8351882526140981,0.7236977590697155,-0.20960309925631054,0.6302526307295027,0.5661924161862558,-0.5569114589501422,nm,0.0
8.843519926071167,40.15640590629213,-16.981351455973627,-11.36459674507,-0.06637133930636575,1.6118612642523058,-1.6225134208664809,0.13298570707600887,0.5079312413549512,-0.1644216215334329,nm,0.0
8.849105834960938,39.68874116547247,-15.558761750052888,-11.741951841123402,-0.10608363520836954,2.3177297734060143,-1.4528686837894915,-0.021727637621085698,0.2896876910489725,-0.07098608166159685,nm,0.0
8.871894836425781,34.989177216231155,-15.266606552071583,-12.738498284189184,-0.46117719936796003,2.705040309407465,-1.6286226786681477,-0.4983729885849017,0.08556879330024952,-0.23909921527445438,nm,0.0
8.878227949142456,31.54918271511796,-16.06404746706494,-13.922010629719713,-1.1894497572266143,2.8503671631607603,-1.170527767583783,-0.6742503775937703,-0.011301220314397361,-0.41904458803277683,nm,0.0
8.90027379989624,21.620994336072968,-20.350919212004374,-16.834319593719954,-1.2857288196099963,2.0490561949322577,-1.1509846627354172,-1.0625139395188818,-0.20492176244438126,-0.609475762458695,nm,0.0
8.906201601028442,16.33430104129302,-22.67729141400699,-16.426087683491776,-0.9165516848310414,1.698903279019034,-1.089240567578312,-1.0698135982720507,-0.1779085796379267,-0.35069457177019686,nm,0.0
8.931362867355347,6.468799781732113,-25.837853095493617,-9.784276757847964,0.8994879067372149,0.1603371895924881,-0.8148846701719998,-0.8159848433642103,-0.07411554960831555,0.512669707555254,nm,0.0
8.934709310531616,4.76048040021969,-26.00516986798714,-4.173259064188918,1.2916320618996522,-0.4508507854784414,0.22203393543377406,-0.30102198386008217,-0.006676657007311583,1.0249377195162457,nm,0.0
8.957086086273193,13.866168589263706,-26.640478933567373,6.650196051952134,1.6007626575218004,-1.5657624694856376,4.454988642948837,1.2083898926680032,-0.05967573525707137,1.6451964568801087,nm,0.0
8.964117288589478,21.015524845484197,-28.708031246063094,10.081781808923976,2.2644317098652658,-3.449062371365496,4.94730292020043,1.3268743363697453,-0.23407217680552653,1.392825025406527,nm,0.0
8.989237070083618,36.102404171148414,-32.559359255321695,9.180367128386111,-0.4169910110021359,-3.0590918252215418,1.6797489272588835,1.40145057784347,-0.02865414543944393,0.36633311887585496,nm,0.0
8.99523115158081,44.444230915877384,-31.335089826755674,3.0254942188474816,-0.1621608061175996,-2.472779336140735,0.48033086451237483,1.3955070107736987,0.3899290334524234,-0.3530377392063906,nm,0.0
9.014768838882446,57.239340094566856,-20.593787594021272,-9.893565560320917,0.40820055499743607,-1.0593968741836408,-0.887805595427622,1.118419656527449,1.1261256318228368,-0.7275573199298329,nm,0.0
9.020625829696655,59.94290062198288,-15.03927555455387,-14.582500818318556,0.7910906398935078,0.12357692965424474,-2.1756519260243303,0.7516198145085824,0.9719346345509705,-0.7285510305505885,nm,0.0
9.042989492416382,60.20212074123509,-12.134173208333536,-20.138679425292555,-0.13617759288267703,0.7136852522123209,-2.076389905229467,-0.14490550880032296,0.048965674463107865,-0.41830970861364797,nm,0.0
9.049108028411865,57.517481923770234,-14.240008007376252,-20.205886868502937,-1.0492680242272225,1.9822956973261365,-2.2177678382566466,-0.6275679309246444,-0.22104719762128613,-0.16562388707657236,nm,0.0
9.074053049087524,47.250788881103524,-19.756932435790173,-18.297500338285083,-2.862752849139525,2.808238964223128,-1.1861482568176538,-1.2373757230746543,-0.09993326592493158,-0.13354907803339358,nm,0.0
9.077472448348999,39.50295511595723,-20.81193698048463,-16.719971949006,-2.2360166903467373,3.0980309338659566,-2.043016931393348,-1.4421129232889212,0.2293048801132708,-0.21262841293029602,nm,0.0
9.104343175888062,24.450319964428218,-20.99717149168017,-17.83593602546755,-0.9654619989969958,2.4675191841471777,-0.06632241438802698,-1.3965452671512621,0.4444138216236218,-0.5638337226809703,nm,0.0
9.105995416641235,16.06457291452294,-21.527519350796876,-18.83115346844539,1.0413606176793255,1.1103504447205303,-1.231031321128559,-1.5097750814225797,0.3902064727386353,-0.6500384877010721,nm,0.0
9.130651473999023,6.720672245726116,-24.00074276154536,-15.728179812373284,2.931160947674195,-0.8846091568588828,0.6566133333697568,-0.6920378530700219,-0.06771868623144651,0.21409827323195077,nm,0.0
9.134429693222046,6.524029474218412,-24.86463044682961,-11.316727735860946,3.1049250266268915,-1.9250675297131055,1.703618683314259,-0.06818815819460919,-0.1721737982629359,0.8644684529444518,nm,0.0
9.163966178894043,16.743278711937677,-28.558759392814604,-0.37980625381846533,-0.600358467140794,-2.0427822225584578,4.728219020246466,1.0370531621742354,-0.5253969133744139,1.6003626198628567,nm,0.0
9.165640830993652,24.34597108106308,-31.020530128886968,1.8469058902283575,-0.8888406500889208,-3.379277552567105,3.6245828300499308,1.3390770546228343,-0.4839109165269979,1.208219254002307,nm,0.0
9.174280405044556,34.95467451635793,-31.91433670403417,0.055877033733434944,-0.9868532942684403,-3.4209593564990572,3.14956421568881,1.8261002903939973,-0.1552116825779125,0.7516703620292435,nm,0.0
9.195626258850098,53.836338852828604,-25.377998670936897,-10.844699102472795,1.4071041137595448,-2.4100394049801035,0.048940419251312595,1.661042696608359,0.6846071897059327,-0.3694875324513677,nm,0.0
9.201242446899414,60.528295840826516,-19.591770376032592,-16.08593758706001,1.6625980780590368,-1.116041761980616,-0.7309359795724303,1.4854834412187168,0.8307454185037585,-0.5122493220695418,nm,0.0
9.223666429519653,66.52372631700695,-10.949188252617759,-24.0811846008304,0.17684797614653877,0.6433148095349202,-2.7953352801087825,0.6814352203680015,0.42788412861246283,-0.6439009656699495,nm,0.0
9.249223947525024,66.49085816979596,-11.591857220640302,-28.381951125917606,-1.8223354258210467,2.891419159220059,-3.2516289955139084,-0.3495243948275599,-0.11627894583045699,-0.32779523311466097,nm,0.0
9.251059770584106,64.06930263700826,-13.83049676448243,-27.369375247744948,-3.0218049159444504,3.3170613907664044,-2.419086378522372,-0.6188050392822724,-0.18022279376757266,0.08039805268146534,nm,0.0
9.26002049446106,59.58780278425461,-15.846270215158437,-25.18969396792257,-2.6263832830453233,3.2900869939939286,-1.899059136519646,-0.9474652559998363,0.01712106869865663,0.2084551611114564,nm,0.0
9.267762660980225,53.76568880488169,-16.863216353632804,-22.874826299201594,-1.5119597089152115,3.1395932450350523,-2.4120462673601337,-1.095053279258942,0.26582252151585245,0.17976005003568898,nm,0.0
9.276734828948975,48.139950584353144,-17.045197116925532,-21.92452006613192,-1.1851973397340863,1.898237448623016,-0.6435697703890244,-0.9981642626698739,0.3787027459115623,0.06251346425863474,nm,0.0
9.297650337219238,34.25466219124157,-18.057162302226477,-22.405453487168877,1.3063973100980326,0.36377422995338093,-1.0495895839757619,-1.27448501957483,0.31525810177960567,-0.2949718720967739,nm,0.0
9.30597186088562,29.153387543499395,-20.168717400042492,-20.980438630024505,1.7124905763884362,-0.6566928176748759,0.6736753394310498,-1.0459283269459647,-0.04794865154054119,-0.08749046277228001,nm,0.0
9.317273139953613,24.87249352260198,-22.557235361297913,-17.944873051413616,2.109646835941569,-1.682613905198385,1.4059171838513593,-0.9042009610454657,-0.19761949296949252,0.24123181237505367,nm,0.0
9.325143337249756,22.958462097246873,-25.058319644907446,-13.366359660950137,2.0064966700989664,-2.4285062392272017,2.4219643255544456,-0.46384072120368525,-0.3991275294579832,0.716262979565599,nm,0.0
9.347733974456787,25.038045798819297,-30.70535389256945,-4.324132104927929,0.6578455561859136,-2.767580493464334,2.9775613637211937,0.20996359804204673,-0.5875357985294843,0.9134708517536754,nm,0.0
9.352837085723877,29.02251282371602,-33.0717255164514,-2.7595910364318987,-0.6646693948236211,-2.8423293355436323,3.033138529021739,0.659114467035931,-0.5216084182178965,0.6922222129638567,nm,0.0
9.36884593963623,34.55315146015386,-33.81475846251274,-4.659839459806939,-1.1110820082218134,-2.772542857300447,2.335081458552306,0.9242152910312423,-0.21421118165992165,0.1903374715047834,nm,0.0
9.3721604347229,40.768528105960314,-31.71623426413894,-9.269523892165681,-0.45294432262764195,-2.0573613468026553,0.9933834585430763,1.1004748198210754,0.2835837537085416,-0.2767358499849688,nm,0.0
9.383411645889282,46.86872725389109,-26.98134337564066,-14.888141208273098,0.048559203273698,-1.3127970435604916,0.26891718467307935,1.2499915979035876,0.6963334885429439,-0.5319672239169818,nm,0.0
9.391640186309814,51.4270864532129,-21.03133535934258,-20.158730211836534,0.4717402378798284,-0.7366631234212376,-0.4427218569317049,1.1640616882264612,0.876866861421065,-0.6762197333819632,nm,0.0
9.400970220565796,53.94098579052482,-15.64547195102946,-24.36162542978799,0.6637850723206042,-0.21197108280199528,-1.424868010213058,0.8601865186071902,0.8093239891027174,-0.6667708621249653,nm,0.0
9.411600589752197,54.88270484163574,-12.236503540461147,-27.117048030119527,0.3466765188947145,0.7195817451196439,-2.2436853552212077,0.46974815276791887,0.5280804268975325,-0.4823455152671408,nm,0.0
9.419813394546509,54.2367320689449,-11.330781451263096,-28.30727990304243,-0.35613383886720684,1.2819472111305312,-2.0783274517493644,-0.020186088306631766,0.2126489618209852,-0.24418422662069023,nm,0.0
9.442205905914307,47.69696468689298,-13.916409834840708,-26.075157897795023,-1.5244173895427975,2.9547704798216317,-1.9247766148027519,-0.8150449554675239,0.04553963610522689,0.22790773966474376,nm,0.0
9.448456525802612,42.22903644092389,-15.338300139726979,-23.387257979288176,-1.665755859264092,3.165045656681069,-1.6519541825725494,-1.0739079648443106,0.17620953062559205,0.25235573707610315,nm,0.0
9.470537662506104,29.29049468279313,-16.698691928611282,-20.64926544556102,-1.174176542184667,2.578727139290906,-0.34461138827895066,-1.2422618709622735,0.38176918143134886,-0.19658439677480494,nm,0.0
9.476603507995605,22.00040515376048,-17.351399218469602,-20.868432497155222,0.010783020893342111,1.7288009665107404,-1.0781251242005192,-1.3446027082896865,0.3641241742094604,-0.4269322356096395,nm,0.0
9.486756324768066,16.251385035179954,-18.94596095025178,-20.76562861209692,1.040347250711875,0.6858958751934141,-0.9761549715594862,-1.1303514582948477,0.077626144022059,-0.356757189068792,nm,0.0
9.495973825454712,12.149276625924857,-20.988223482950744,-19.317821451995027,1.8017847699452927,-0.3670601585611069,0.2758844652199331,-0.8594377744853309,-0.133927328526,-0.04494246499064358,nm,0.0
