timestamp,roll,pitch,yaw,acc_x,acc_y,acc_z,gyro_x,gyro_y,gyro_z,markers,motor_input
53.521729707717896,-79.55033428228394,-41.00939794757181,-93.04770025228589,2.7810169440571126,-2.3208310823136498,4.688728521943086,0.977976090869058,-1.0493275228848686,2.1156080301411087,nm,0.0
53.524662256240845,-73.23154509182082,-38.644310053716815,-88.43905181918399,3.806551163067896,1.3930939657830512,2.1481724256075285,0.45264123193286243,-0.9787424572476133,1.7445728530889937,nm,0.0
53.55465316772461,-34.36819886083292,-43.95570090216929,-92.20078609533552,1.0652637350884757,-0.33656870805527134,8.492811654586689,-0.06337574562270314,-2.134398846578509,1.3357150060794711,nm,0.0
53.57796835899353,-30.219261591222047,-40.39974148116364,-79.51949407599714,1.1142732865508609,0.4553012941411815,5.109942121780061,0.33585637795935763,0.32311591360602626,1.6989884244874467,nm,0.0
53.58172845840454,-37.000662191438394,-36.55587328295902,-69.35308630459926,-0.831300318963254,0.6571970808370083,2.0824271165683155,0.4456296916787263,1.2223205941371864,1.1951490820340345,nm,0.0
53.60557246208191,-44.5542867665713,-28.297855803389314,-59.06434890487853,1.4063487566987596,2.8882661842224064,0.9202275059619212,0.3170200680460247,0.8769597828680397,0.3083428880548483,nm,0.0
53.61062812805176,-51.116960387228325,-25.56493467387754,-59.89810264367028,0.12639577651056105,0.4841452470302222,0.7430657111350657,-0.1314829847138847,1.2779029581241228,-0.7535893896076454,nm,0.0
53.61953663825989,-56.76744703831496,-23.636853736174423,-62.756827182706516,0.8225870153753055,0.16357392863873801,0.4715207172523015,-0.1625148674711825,1.0796841341957053,-1.0337891434855853,nm,0.0
53.63017010688782,-64.82681755688417,-23.342793686882953,-64.05327882735105,2.597800310380672,-0.20070054518313513,-0.27481503639423366,-0.6169237044754261,1.3426180382037838,-0.8920429363379867,nm,0.0
53.65484046936035,-89.51776917803006,-21.537182324875474,-59.586322555740324,3.1443449737670264,-0.36749961144377735,-1.3347717327806776,-0.8009938780627239,2.1925102668527474,-0.36217640241797133,nm,0.0
53.66009306907654,-102.9814663288648,-17.540472887729752,-56.05107191850561,3.2088961900297686,0.8191515330289079,-3.983929609770911,-0.6789502308958659,2.569982425926381,-0.18300909692949346,nm,0.0
53.679423809051514,-132.2043541572409,-7.572573774915146,-52.169034962285664,-0.3024301288824837,2.0987085118962514,-7.512378016639477,-0.9793042717445564,2.8330830056947724,-0.2915781057363077,nm,0.0
53.694966077804565,-146.54888986230375,-4.290945678342708,-52.03672741320061,-3.2726237044193773,2.150685602091898,-7.961512494754753,-1.2295179973687747,2.6546891536303394,-0.2594378117403729,nm,0.0
53.69672989845276,-161.68418006528978,-2.1899097403795125,-51.746799814264044,-4.939816378822393,1.0298173971921534,-6.515298599196202,-1.5263013704016204,2.6386553554725785,-0.10493611152316598,nm,0.0
53.72049331665039,174.1902903582568,-3.8561222603695584,-52.63553365858314,-4.145473477089664,0.3061323383899337,-3.390017726917285,-1.4382966734912637,1.3204897240166364,-0.23512137733521274,nm,0.0
53.72942757606506,166.87429310916113,-6.263118762524046,-52.97951307806602,-4.4755956140495465,-0.801028226314984,-2.9489300401748695,-1.251375211915693,0.8729271334813444,-0.1948110523864934,nm,0.0
53.74961042404175,155.03738757346736,-10.694785901366386,-51.17139711768301,-1.967225383772056,-0.12947632621482316,-0.45574139049656054,-0.8772001544796889,0.44116968315813027,0.08702996523177547,nm,0.0
53.75516057014465,153.9358909266076,-12.30434882733799,-50.30613679151957,-2.5627210072415187,-0.7850430173845204,-0.9106293898427894,-0.37206326042991505,-0.03438453591736487,0.13041922599741507,nm,0.0
53.78580331802368,160.16127083040632,-19.16996285300498,-52.1239211170239,-2.3674074067721937,-0.13096208945844592,-2.10403274366945,0.02181584100118979,-1.0939129219271373,0.0034230703818197645,nm,0.0
53.807697772979736,165.28679171514435,-23.061840161968313,-54.20883969189517,-1.9088418165930972,0.44942539896141287,-2.2544911965153065,-0.03599535535889409,-1.2308194843377018,-0.04264046825781901,nm,0.0
53.8098566532135,172.094764693451,-27.230782295382024,-56.763054221288506,-1.3741411596624735,0.5432080303902953,-2.325605597532198,0.024782526968123567,-1.4867239639168885,0.07491194653469822,nm,0.0
53.81160640716553,-179.320424376029,-31.9425683175348,-59.399466864408005,-0.8686622869279121,-0.134813174152906,-3.0619852621570125,0.002474535418687416,-1.763725442074984,0.3300983631896157,nm,0.0
53.83331227302551,-158.9859928536078,-42.744338272545434,-65.48470672635536,1.376444065450481,-0.7610909777830652,-2.054630847448029,-0.23290717968264357,-2.0133820060398864,0.7604753422788884,nm,0.0
53.84213185310364,-144.670997510326,-48.41488103421629,-70.96240234926341,3.1303497402151743,-2.080421699323582,-1.7713983021273352,-0.29937799648803104,-2.2749187527652657,0.9665281371746343,nm,0.0
53.89448070526123,-103.3800808407136,-55.09802355533131,-94.1783647101692,4.234730835946555,-2.195824518697229,6.552537224816652,-0.18925169661403188,-2.749046327043696,1.0822678997204165,nm,0.0
53.896366119384766,-76.41373872533883,-42.90621939745278,-101.38732666975643,-2.123828334794765,-1.5767274719025415,6.413090149165727,0.9880648447686861,-1.2325000626504243,1.612150955905934,nm,0.0
53.898475646972656,-69.11513168104965,-40.934726672609855,-95.3500701345474,4.4257968567720285,-0.7555546433193243,2.9520307865821653,0.22323800863556936,-1.1337733339033633,2.1957647419119533,nm,0.0
53.900068521499634,-61.29861488653111,-42.111430621937714,-93.74795945901229,2.4370937813538047,2.076397482104617,3.2548356316643132,-0.3374770414150527,-1.1495852981226944,1.3684983623561828,nm,0.0
53.90596532821655,-49.65041051455226,-45.30997106035698,-95.5035739541744,0.8692608626536096,0.6756959092606407,5.314976825471581,-0.7832345161245938,-1.6289634713026215,1.2699617038963418,nm,0.0
53.92843723297119,-25.068173776296693,-45.941702189848996,-100.33973153745718,-0.3385104149142477,0.017191918166555988,7.519105745518777,-0.055154169342305534,-1.3028350563615427,1.2496978972289636,nm,0.0
53.95125603675842,-32.20756271850373,-42.48897163745841,-81.69405189775448,0.6657073990607124,1.0307089144595765,3.4361356448895544,0.4184126503147229,0.9373259283708272,1.3947343711443312,nm,0.0
53.954862117767334,-39.82342787092069,-38.67592208236026,-72.31865505944585,-1.0986564077904988,0.7549077172465949,0.8841487622644377,0.4721309973383105,1.2927677822258692,0.8901277813770266,nm,0.0
53.963085889816284,-44.043708157976496,-34.897482098694326,-67.12652159467832,0.2255517806148274,1.8152150448405069,0.3322668230253254,0.46550114509525053,0.8890792931870813,0.5407303751140906,nm,0.0
53.97156882286072,-48.47456080874155,-32.27519172593404,-66.33528853790835,1.402803250988358,1.8871458799566214,0.8423470043668705,0.18123016606425174,0.8786044079107687,-0.32405828820669025,nm,0.0
53.99031901359558,-59.56791965763303,-30.951077178694355,-71.00203936446572,1.7006045777710452,-0.42794144597379474,0.6608177206173189,-0.3383825209461456,0.8951205335340038,-1.0411005557417683,nm,0.0
54.027724266052246,-79.10249045062345,-31.09790336099238,-68.44349934013604,2.138336034081407,-1.6144859660165687,0.577354223011918,-0.5516495631694486,1.7757056511885563,-0.6074673809933238,nm,0.0
54.02948999404907,-90.29941040242451,-28.138046271321763,-64.7227770763202,3.03461934769307,-0.8436284988598719,-1.0606196881399848,-0.2364187687704969,2.019429399048742,-0.35134645138457343,nm,0.0
54.03118538856506,-102.14423601762846,-23.15820143441438,-61.096100759530366,3.075799026972603,-0.16179858406411057,-2.8345721625098954,-0.0904553134833612,2.352570707650801,-0.2888650065609689,nm,0.0
54.05357599258423,-124.62373428964868,-13.37253505152709,-58.701582211215914,0.17129631718550112,1.0397808909452373,-5.486279218818756,-0.355677257265744,2.257814804460004,-0.48558672399690006,nm,0.0
54.06038236618042,-135.7348515302163,-10.693699473975933,-58.08919748858922,-1.534538980906058,1.2418744046530739,-5.616804534043196,-0.678110217807111,2.13126904651938,-0.3287896274586897,nm,0.0
54.08580994606018,-156.45970707830193,-8.855526310935158,-54.076822005664994,-2.8722237080285775,0.3081858078198127,-3.9124302023227764,-1.0244179071575894,1.650498040218874,0.17553575101023178,nm,0.0
54.09671902656555,-165.29668588295343,-8.51778381349887,-51.38525728932614,-2.856489685394788,-0.022107937256369618,-3.4868883396386883,-0.9938381306323041,1.4337451513830741,0.27947990958430924,nm,0.0
54.11717700958252,-178.6108063077959,-7.838323203053579,-47.953051461814816,-2.614887099001077,-0.16445146373649897,-2.1370608466060883,-0.720038464093711,0.87783930057618,0.08584455516238046,nm,0.0
54.12143802642822,177.31570196035696,-8.477319114126278,-47.85956405062105,-2.836746006004017,0.19527297500584498,-1.5046647800823916,-0.6229710147667298,0.5160663255805904,-0.09146477067690066,nm,0.0
54.12699031829834,175.2783168245499,-10.013443984681787,-48.4125312449679,-3.062492979544985,0.5659413609258257,-1.202938693714588,-0.4845918349768231,0.09739680390573024,-0.17092934455460063,nm,0.0
54.134055852890015,174.99484449633414,-12.322919602699296,-48.76879676762845,-3.314547325455941,0.2283919068713113,-1.782392942014294,-0.37064873639653945,-0.2611951638285019,-0.07681270290846945,nm,0.0
54.14427208900452,174.93995923613016,-15.219260008843934,-48.3416513727565,-2.848269909094936,0.30399952605140607,-1.4173698974869275,-0.42899333949301105,-0.37264545671655663,0.08870375375178532,nm,0.0
54.15336012840271,176.01955478304515,-18.294187742647274,-47.320225230252376,-2.235707981241805,0.47146789791122945,-1.226987911015544,-0.30497628635762825,-0.5630585525482185,0.2731190112843983,nm,0.0
54.182352781295776,-178.69263795265232,-24.692078279917602,-44.5847357288756,-1.2067375383631276,-0.08428410548776373,-1.9008306514614444,-0.12311612642762552,-0.797283926828586,0.4896739702788328,nm,0.0
54.18709421157837,-175.52096742792142,-28.38469210787044,-43.703764574050936,-0.8046118114567589,0.2194171760160923,-1.6504970340208114,-0.09697298356851233,-0.920894173008553,0.4686942373179283,nm,0.0
54.1948766708374,-171.18393820008313,-32.400035009574836,-43.862981572463696,-0.5238738362323158,0.04013552865352322,-2.092466409614607,-0.006182758379147943,-1.0928500790972655,0.4170194358330122,nm,0.0
54.2145357131958,-160.02391249408117,-41.322199250940415,-48.22122152170779,0.18838862310414092,0.22835169008664685,-1.9768983281310841,-0.002166700400556776,-1.3402268676084792,0.19681793356402044,nm,0.0
54.220250844955444,-151.71137463342163,-46.25792421044302,-52.97083451381722,0.9970257095036423,-0.20843030050788341,-2.153489914239583,0.005165735300885915,-1.5479083352016056,0.21408417231983973,nm,0.0
54.242631912231445,-127.51767472882777,-55.867969689758446,-68.8228210408173,3.324142042108249,-1.3147935093752223,0.10030847725007933,-0.11531218351779439,-1.867666049116911,0.3988452403154038,nm,0.0
54.251179456710815,-108.68372296743043,-58.94586728100748,-81.53325437193486,3.7888384071390036,-1.8925710214744824,5.34795382888959,-0.072701700013426,-2.1062516916419476,0.6513644822443241,nm,0.0
54.25871253013611,-89.95922979265491,-55.91009505048156,-93.35804738326165,4.220222587869544,-2.4632322794694255,7.15615328214148,0.6855443902283457,-1.977557606635066,0.8117488397156116,nm,0.0
54.27952194213867,-77.99742787474406,-45.925541949702264,-86.75003884049109,4.396484455702651,-1.4948724267838585,2.918031631045155,0.797074005546191,-0.7523612570853178,2.158659374052689,nm,0.0
54.28937482833862,-71.95435930599324,-44.46995084063015,-84.16306969091957,2.678548759158852,1.2720114200313255,2.835468356348373,0.3495693002789519,-0.8269699344067085,1.388179633521496,nm,0.0
54.316752195358276,-46.22793532036902,-46.36011892397312,-81.78076638674942,0.2547752225942284,-0.4897585730700327,6.170906250204959,0.23643809066634672,-0.6981646028978787,1.0540874738645245,nm,0.0
54.33266854286194,-47.425186160914286,-44.710032203216684,-75.3188109925603,0.15649444928785533,-0.11274259387459665,4.118968435311759,0.28001789271646893,0.22545575447904737,1.131497021790706,nm,0.0
54.33437752723694,-52.68057034479785,-41.748891866533,-66.87345869061551,0.4601037968446846,0.6167216924251543,2.5779970589076915,0.3027725852714975,0.9116144076255325,0.9787694040117626,nm,0.0
54.35750341415405,-62.57429756570333,-32.91778535194384,-57.14107099130077,0.42332044002387825,1.6227179078673786,0.16336589400703552,0.35601011351765877,1.0864680641617661,0.20526299717307048,nm,0.0
54.38044309616089,-75.45053132565938,-26.955699108426334,-55.48761911141365,1.4194050888464884,0.5787284576577759,0.21053406793054158,-0.25165143006433066,1.2810438975196232,-0.6459922665554222,nm,0.0
54.38411736488342,-83.02921385639216,-24.824612041828022,-55.82262711356789,2.079788484137167,0.18735825979162132,-0.653339298468861,-0.4223726873241382,1.362209179205239,-0.7167367626199304,nm,0.0
54.40444326400757,-104.12958381338176,-20.149878001019097,-52.320874986193424,2.3402212143189574,-0.2215461952307444,-1.9211454251797668,-0.8108234573308174,1.9893997876844407,-0.33581534585630024,nm,0.0
54.43223690986633,-126.87861000154292,-12.593893202637553,-48.22730269027229,0.7465392485046153,0.8488395100585617,-4.877828340148818,-0.8369550616252462,2.1999266152286627,-0.20009156777258813,nm,0.0
54.433987617492676,-138.6858703234003,-8.550798924503122,-46.727583420432936,-0.9775300513732805,1.122272319448613,-5.5436776401093075,-0.9685313546299867,2.2574721969568334,-0.12230462111223311,nm,0.0
54.45855474472046,-160.78054089078054,-2.380033757320784,-44.78132232696144,-3.9556694576097082,0.77446178175707,-5.112793858445162,-1.1122173388637957,1.8909893233177122,0.03364152965273108,nm,0.0
54.46748089790344,-171.32230770339845,-0.9915787865773743,-44.66358873777287,-3.871775695510232,0.5442902660885106,-3.1695371801526933,-1.2911991108403609,1.6836745458008953,-0.031761867734085215,nm,0.0
54.48284387588501,176.85300103458846,-2.7304426217068025,-47.17714528553422,-3.6716972521447673,0.019051349930235727,-2.167024866591237,-0.7758642676990163,0.3986482852557108,-0.3355422423106192,nm,0.0
54.49527859687805,173.20383104161257,-7.317635609027804,-48.14863279533032,-2.8740784694447035,-0.14007966134711333,-1.2859620990079108,-0.46945550500827293,-0.1593653489061569,-0.0030586623790880107,nm,0.0
