timestamp,roll,pitch,yaw,acc_x,acc_y,acc_z,gyro_x,gyro_y,gyro_z,markers,motor_input
5.524704933166504,30.356775760253726,-15.974218492102755,0.15693548012631073,-0.05363650316637656,-3.9128757367606677,3.440531157189647,1.7801929178438982,-0.5869912160662424,0.614791845119793,nm,0.0
5.533565521240234,41.50987083345025,-17.28338392479486,-2.1147572518810933,-0.840756565584725,-3.764046500381677,2.106238735877548,2.1450928053119087,-0.30338044975658507,0.1770001497859849,nm,0.0
5.540047883987427,52.573462042432574,-15.528714559622014,-6.321080487671329,-1.2609939154012932,-3.3436369909037866,1.3489206440163657,2.154909874671252,0.18890362525919893,-0.22376395517732003,nm,0.0
5.553394556045532,60.50495729370195,-10.456980602979026,-10.273709163148732,-0.3653312486503408,-2.1345477056399345,-0.8354895137588086,1.6872454338612353,0.7770145828055195,-0.4434917309773226,nm,0.0
5.572741270065308,70.59331071230207,2.396992625320355,-14.092626435446451,0.39966919409360807,0.20225661778484158,-2.3732131322654326,1.0905141739408055,0.9998838592304649,-0.24188757235623162,nm,0.0
5.577464580535889,72.62846261958222,6.177869962756739,-15.303914028319506,0.5181662877659808,1.0704992902144328,-2.8770679477384293,0.592521433352405,0.627826348936962,-0.2449296840063518,nm,0.0
5.601916551589966,73.46409493871465,5.695065362849733,-15.785781774315952,-0.489484914066737,2.55682917620858,-2.0193046108244284,-0.08790529287237178,-0.26241045222529186,0.003205119572572901,nm,0.0
5.606142997741699,71.9481957922378,3.123370509452329,-15.406036484680058,-1.5590699820608531,3.2841284318001858,-1.5787257916913995,-0.42199234591495555,-0.4163330149519461,0.024202457303335048,nm,0.0
5.631242513656616,64.7517361919904,-0.6931003110271421,-14.710359157782804,-2.5505137545474597,2.895059851331634,-0.8337039185217273,-0.9232232057581377,-0.03548909128314493,0.024432952703636244,nm,0.0
5.639895677566528,59.24618048098352,-1.1569804121847194,-14.54083894525834,-2.1412193141861313,2.8925780778049437,-1.8767852366283013,-1.082408027422718,0.18801313032511147,0.06387644853004275,nm,0.0
5.663776874542236,47.90505725143327,-2.4600931384355507,-14.909970104551322,-0.04800315484875141,0.12455871684087495,-0.10104045428475841,-1.269736241293947,0.16796565284022297,0.04358032607462433,nm,0.0
5.665519952774048,41.59459877497347,-4.155445168305243,-13.523608618658594,1.2622670131894806,-0.7328452579995528,-0.6164914525310422,-1.299391322440115,-0.025826976637432948,0.19369849334743672,nm,0.0
5.674032926559448,37.65806568214725,-6.899884246876695,-11.115914174025509,2.0173859972279486,-2.005172762236216,1.3234016726634135,-0.8764510161434683,-0.3767115369514498,0.39600057672307315,nm,0.0
5.682317018508911,35.02912509599637,-9.885208967074233,-7.832239607440981,2.746690907390328,-2.7852979357198597,2.3074571797297723,-0.6039859144212837,-0.5113872680251482,0.5712650009365305,nm,0.0
5.694173097610474,34.06552993370436,-12.611705416078314,-4.589466326564082,2.079534742126568,-2.6541433045685143,3.1572795535824216,-0.2382520414550575,-0.5296013502901779,0.6029473806455227,nm,0.0
5.720844984054565,36.690381188153864,-15.648089295642421,-4.050308928119342,0.3296135778365247,-2.616784806362738,2.4130062782570834,0.4538715300560606,-0.1937805673579037,-0.03759656311723723,nm,0.0
5.726890802383423,39.90663877049185,-14.449553453902269,-6.307182305401183,-0.45562460044043795,-2.2677724520257483,2.346617420617406,0.6501339692762577,0.17698287986408054,-0.3195397509311546,nm,0.0
5.730824947357178,42.7126677795329,-11.468039910484007,-9.699558112543464,-0.26965856373990676,-1.1986160788326905,0.3147745003945399,0.6339812741737685,0.5083896159208476,-0.5627359788373969,nm,0.0
5.739305257797241,46.088848871075356,-7.474090295683035,-13.06725588908432,-0.23850187974237544,-0.8573788536409364,0.06412066405030784,0.8193562787200607,0.6460360705661159,-0.5732886502508181,nm,0.0
5.76393461227417,49.923573913539705,0.39359571047766156,-16.429482028988566,-0.0858468974120597,0.5206227006261792,-1.4948564936584097,0.42155477729365665,0.6223303182304482,-0.18015109762930617,nm,0.0
5.767812013626099,50.67744677052918,2.5306383002550863,-16.061448253553692,-0.26861044936090056,1.2146835207341715,-2.087826649378279,0.2705728957584891,0.3633539025851338,0.0750440326625302,nm,0.0
5.777825593948364,51.61190424011172,3.228310317486696,-14.553006836493175,-0.6486687712936339,1.9299287749966154,-1.5045455439345428,0.22286105191272954,0.08075218116252408,0.2802150869745523,nm,0.0
5.788007497787476,51.218423088639895,2.9910413372623657,-12.709769672225795,-0.9306906934554755,2.7486878665839867,-1.6868848122613722,-0.08174399737043489,-0.03219147793568408,0.36100388004579576,nm,0.0
5.809458255767822,47.14875143373417,2.054362552114472,-10.13877088438435,-1.404562858977269,2.8650949444323333,-0.9766806053899567,-0.5196461078341513,0.010426609502526716,0.19799962569401117,nm,0.0
5.815946817398071,42.72550402424251,1.6743951284695815,-10.22220689404182,-1.2301853895583745,2.686034820450084,-1.0199192796105712,-0.8786322712267665,0.07551579835205657,0.0005197777151104923,nm,0.0
5.838778734207153,31.283086076756895,-0.8104535667040567,-12.30277278617956,-0.28191050132597406,1.547844693052462,-0.598618323330038,-1.214264094736218,-0.09646927142026596,-0.24018847755052283,nm,0.0
5.844553709030151,25.479546245689512,-3.447961357440387,-12.999793986454854,0.36073767506978216,0.9522225605275684,-0.4712998145355974,-1.242835872024375,-0.27017657864593253,-0.1915346585268073,nm,0.0
5.871342658996582,17.86419999545996,-9.878160848093746,-11.423119153168074,1.4227696524121567,-0.7134567531543794,0.41036025679589955,-0.6690217296943226,-0.5183233235010393,0.1739507493216505,nm,0.0
5.8731019496917725,17.882866703845337,-12.673208118301925,-9.53389782622104,1.4897289735745645,-1.8144965817575127,1.89250308611004,-0.09079024795000322,-0.5616490925820641,0.37253052645857604,nm,0.0
5.898499965667725,27.137719702387713,-17.234870143406198,-6.446595845531657,0.6801545674058668,-3.144586083029002,4.219726141533331,1.0442958441529302,-0.5591432478578101,0.5270176917479202,nm,0.0
5.902629852294922,33.190861455292456,-18.735514490602995,-6.605255147018208,0.450536210727561,-3.6420587152120714,2.3848859966506044,1.1207989111410224,-0.4371805107975768,0.3350532223470493,nm,0.0
5.925462961196899,48.00127035360195,-17.189607476151206,-9.553673981347352,-0.33913481080844776,-3.06059962727758,1.4383823132007298,1.3829457589614031,0.1453011965874005,0.09064597081075981,nm,0.0
5.9342756271362305,52.70544847890059,-13.603277694445415,-11.211209926140782,0.38533854891283587,-1.6290957434900584,-0.7504739849072917,1.0320050601392288,0.5374931482636605,-0.09156276323020285,nm,0.0
5.95732569694519,59.904131895531584,-4.915889355578004,-14.277486222728228,0.16050101615333862,-0.06933551497938961,-1.148043530513791,0.7719216531766774,0.6943581512846798,-0.24824923991241085,nm,0.0
5.959687232971191,61.024105550923565,-1.3335904676182975,-15.365164055871626,-0.019032880890965023,1.3339998118148646,-2.2010756748778317,0.40711568322683184,0.6330417314478314,-0.21775049458030601,nm,0.0
5.981554746627808,61.25663318859253,1.7841731563755898,-16.151520919873025,-1.3457027112322621,2.5406251923923766,-1.7604633892304276,-0.014426045688879821,0.17205375926847039,-0.02574932976930475,nm,0.0
5.985837697982788,58.73990889281133,1.4066022595512564,-15.945289648706051,-1.3765663433353956,2.7821471629382186,-1.9090110915251854,-0.49850218638966604,0.06384657598811466,0.07491999575262588,nm,0.0
6.009589433670044,51.202811263191705,-0.9151797972176858,-13.613960859779864,-1.7003966853067873,2.1912404799829144,-0.5612886291915281,-0.8491542588498434,-0.07293988745769779,0.2654903134983482,nm,0.0
6.017376184463501,45.16285154109133,-2.5328990361928625,-12.893579301930352,-1.0800432601011065,1.8887839467873417,-0.5738122900605414,-1.244246985631121,-0.04116619621375004,0.14699374741785973,nm,0.0
6.041232347488403,32.43413902062559,-5.341465692430834,-10.75631566431936,0.10720455995300661,0.8966410371032947,0.2660770476471452,-1.2518988230386638,-0.033951805781239304,0.1329562780212652,nm,0.0
6.043458700180054,26.460809248170218,-7.143564292847702,-9.57043003262555,1.0875285384668603,0.41361432456586555,-0.19818481201585966,-1.2268890133801613,-0.15426288172985228,0.09862413381101538,nm,0.0
6.0683534145355225,21.174974076402012,-10.785609168850533,-5.931963063114433,1.9501243399214634,-1.7709822516231826,1.7550430123428682,-0.2649918497094161,-0.31568135323065943,0.33947055768071854,nm,0.0
6.072397470474243,23.12841887931377,-12.603987655370469,-3.949785193205019,2.0213500486893543,-1.8756390527589835,1.5335435085620779,0.3589160089976621,-0.4047972731725877,0.4689044872009736,nm,0.0
6.097816467285156,30.656857469507266,-16.651342909448672,-2.6710075970013367,0.47042085353433644,-2.873798950409658,1.6251553441242983,0.7347272812722633,-0.3932557598230221,0.19971234012671957,nm,0.0
6.102675676345825,37.196677246295685,-17.14609050511675,-4.185977857041937,-0.8022755996769354,-2.8772652474546625,1.9127128262380815,1.2545664946829527,-0.18045535562545106,0.0694041157895584,nm,0.0
6.123429298400879,48.310133509467754,-12.068622742320551,-10.132781657552862,-0.4983461984197595,-1.1283792904060468,-0.6436007684598766,0.9797591091068707,0.5879629475712412,-0.41666806450049926,nm,0.0
6.128652334213257,52.272380313271505,-7.168203306033886,-12.65939535545176,-0.17415183719223531,-0.5530785970765177,-0.8709396156211394,0.9688447890893954,0.8020956243767323,-0.3839457665644434,nm,0.0
6.152944564819336,54.70894908586961,1.0892021984206108,-15.422937033313085,0.5438712483898852,0.8889779020922334,-2.1992744234462727,0.224953435041137,0.6541627151983384,-0.21858616184733026,nm,0.0
6.161463022232056,54.360747877103975,2.570796686110129,-15.770013645329525,0.4364850332271308,1.5600804458406212,-2.0615597664390206,0.018554636494102862,0.30019324634201794,-0.07976648178640658,nm,0.0
6.1671302318573,52.55995264909395,2.3060676777227984,-15.594320338546353,-0.008475317801319245,2.0865851090292304,-2.0215373456773014,-0.35528155919753057,0.04169434984801654,0.0381720704766458,nm,0.0
6.190159559249878,46.26388276230119,-1.0791818006784042,-15.010176411887798,-1.555300906043186,2.435251187341903,-0.6890591934225493,-0.7829336434054123,-0.20004928126007127,0.022477708706021154,nm,0.0
6.195422887802124,40.51426862081831,-2.9972329513811777,-15.333947513086851,-1.942808285656082,2.528712410704602,-0.6911312353222223,-1.204645879251629,-0.07651975202882101,-0.11647705992220586,nm,0.0
6.218761444091797,27.039030706246333,-6.231495306518609,-16.079678174255854,-1.3915904811665742,1.9039825878118597,-0.12512829707636214,-1.381139364511241,0.06306447123597347,-0.1824009110497513,nm,0.0
6.224102258682251,20.060384769914496,-7.813970935449574,-15.51851762646639,-0.26183794127126286,1.2549780845936462,-0.45864785262793334,-1.4149010339137185,0.0622169385798543,-0.06614786372192848,nm,0.0
6.251561403274536,11.836646623786718,-10.513672020448437,-10.71654728689905,1.926171914822833,-0.6466498350859975,0.07261207236392661,-0.565319944684377,-0.13761130740625166,0.5018426866861303,nm,0.0
6.25568699836731,13.069890952661328,-11.674277825763806,-6.997945825406454,2.745696949253356,-1.968039766301218,1.3894606953070785,0.21121721076268393,-0.27787383967797363,0.7862750397820824,nm,0.0
6.275859832763672,26.023928115090502,-16.795277627008282,-0.5547106393768717,1.8633284723529664,-3.6844836118304163,4.925692361980167,1.3344420153737697,-0.6853878596923195,0.8908277980853249,nm,0.0
6.281638860702515,32.37945884618553,-20.108436019531435,0.2167587132463377,0.16445836978866188,-4.068530458987271,3.3329381785093726,1.216000731087155,-0.6731840773464598,0.5500435737960556,nm,0.0
6.303546905517578,48.47950021291102,-20.250322423181878,-6.106141918493697,-1.332219727434007,-2.7465797464709096,1.1760861766359785,1.5494340388697478,0.16920484536993338,-0.2883783471430624,nm,0.0
6.327136278152466,58.51888920274109,-9.137369652123958,-14.088387730908693,-0.3580460324629847,-1.194137775673091,-0.9032774914452283,1.086267294614216,1.0850977400324495,-0.5044794417509152,nm,0.0
6.349462270736694,61.02048527313492,0.7983789453178066,-18.096098729347705,0.20721523971127864,0.7359082556184126,-2.268779368149234,0.29572112930135075,0.71573633848156,-0.2760632808611611,nm,0.0
6.351253032684326,60.25154884176708,2.0401975840554756,-18.328394751078527,0.12534557643428657,1.3733283496901667,-2.2232398416760786,-0.06176202237392392,0.2810454223457405,-0.01384431094241807,nm,0.0
6.359703302383423,58.406233722776584,1.3680525106871373,-16.888137510533216,-0.4109478338839527,2.5709123670273284,-2.0441016876364775,-0.3864057144151008,-0.02023860107083078,0.2830482830624655,nm,0.0
6.380549192428589,51.74169378780197,-1.9154243462145826,-13.37470817210686,-1.8130551202078191,3.0800626979524903,-0.7713842792351039,-0.80078803205878,-0.13281756691334545,0.2461682579872624,nm,0.0
6.387386083602905,45.9560865573014,-2.544323973697947,-13.323144950783673,-1.929992746359508,3.1751890152490065,-0.614569227061398,-1.1481763008898762,0.14255998333793465,0.027146592018357982,nm,0.0
6.410284996032715,31.317061940240166,-3.1755022607289227,-16.56498510123802,-0.8147136851316757,2.0226429958206755,-0.1621868393346686,-1.463546947182025,0.28323712260300077,-0.4422890928523158,nm,0.0
6.415255546569824,23.993102596782926,-4.809920650366559,-18.22435846617957,0.43193656855731577,1.2625111410490324,-0.5579026310808437,-1.488774202575756,0.11503213657954424,-0.4424532978123458,nm,0.0
6.441413164138794,14.910145262495032,-9.202722999231783,-17.150682579271397,1.944907106670064,-0.7386258307321879,0.4254405358030471,-0.7379990040680033,-0.22446565107406155,0.18608093393949068,nm,0.0
6.444820165634155,14.897779734768838,-11.154381753457226,-14.218047294446226,1.7775402901684503,-1.7482161357030617,1.9197887368643405,-0.10135214696398426,-0.3872863819770992,0.5495913546379642,nm,0.0
6.4528727531433105,18.96853053944237,-13.320371685771836,-10.911884322465943,1.8848916015797426,-2.2678938359133385,2.5282422007925596,0.6911924548839515,-0.606645415779823,0.8085269909987103,nm,0.0
6.479076147079468,33.33776096153369,-17.611904680702402,-7.660851275808709,-0.23930475161050346,-3.2837187395371883,2.9154854883156376,1.3150438781883809,-0.5792501046747627,0.5358024736155227,nm,0.0
6.481068849563599,41.27239875349999,-18.071418868400464,-9.107310980419653,-0.10602659091188912,-3.308449000779459,1.5669375673248163,1.4923143398887422,-0.3182128052658783,0.1891674889764103,nm,0.0
