timestamp,roll,pitch,yaw,acc_x,acc_y,acc_z,gyro_x,gyro_y,gyro_z,markers,motor_input
60.015501260757446,-139.59040512056532,-28.504869906131596,-79.92959467209555,1.285576250161208,-1.817631072377597,-0.5706882561312457,-0.19302614972160972,-2.0435313279549505,-0.13612265658252498,nm,0.0
60.01979088783264,-126.60693100536726,-31.369403716156846,-85.74879569885155,2.25431581083203,-3.4412156266703406,2.0205989715256933,-0.28291626790684643,-2.3047534106503607,0.15017243657361387,nm,0.0
60.04405450820923,-100.31643395426254,-25.087411212922223,-98.15380331920797,1.470907517087097,-4.021439783636588,3.2875346688544878,0.9903971310204978,-2.1515450947884824,-0.015014175067788573,nm,0.0
60.04981970787048,-90.75752469673225,-17.751084045687904,-99.67558314227587,1.324410084525358,-2.2366490437578177,1.0125017189271321,1.1661945484551381,-1.9909473786360314,0.4092258617550758,nm,0.0
60.07220482826233,-71.87790848627616,-14.587162507379116,-97.51457080985914,0.045229610635263345,-3.662416782499663,4.713127512767014,-0.36784413500629276,-1.899298936063293,0.6913661810067131,nm,0.0
60.07751178741455,-65.52984849711665,-13.318010513299242,-93.62688526393154,1.9574079674516602,-5.305431219368568,8.431665474128813,0.12327842724066661,-1.2575664096265107,1.0938326269668648,nm,0.0
60.10067343711853,-68.46934312883509,-6.169165530125575,-83.07443232412604,-0.5544395898766477,1.4096144139975684,0.3647758722299798,0.29063118091445267,0.22196800767403266,0.7919561913502152,nm,0.0
60.106024742126465,-70.01765412065568,-10.956355076552223,-80.80603004297895,2.9854431444680576,0.9913906720091117,0.36640156263211804,-0.9998047545078713,0.16232293430553427,0.4177478715397214,nm,0.0
60.13233304023743,-76.55735605424326,-28.132493889258782,-82.54057000331652,0.3840433715078101,-0.5879539439527182,1.5152457444166287,-1.7974152011042002,0.2292756897079812,-0.4152895910123913,nm,0.0
60.13509941101074,-82.60694582893751,-34.21244975224263,-79.08491249519263,1.1446259063977575,-0.7821274781041857,1.8929010277717233,-1.3726045207584836,0.827755716925848,0.0760902144166005,nm,0.0
60.15830206871033,-102.00379429268463,-27.457136185176687,-65.64069380165155,3.8925638669567566,-0.5589791892516619,-0.03685257155691139,0.7132669727183937,1.9343646476810779,0.24851869153257397,nm,0.0
60.165897846221924,-110.9437557698048,-16.49264119851164,-63.35330791764049,3.2999460526752085,0.43661075438771707,-3.6806601349320545,1.2628369267447477,2.4399094091066162,-0.20052816279801966,nm,0.0
60.18898916244507,-130.90085160141655,0.8306030616372152,-66.02647651833549,-1.2630235581525975,2.5155400800943135,-4.1514600120384975,0.39360347562088155,2.2735473391175507,-0.5025174044560599,nm,0.0
60.205414056777954,-148.35970634106928,0.8694399256746842,-62.99169035016461,-3.4519579880569857,2.3147359110672414,-2.928229342366122,-0.9818484106321689,1.4826403259618355,0.8008707578900381,nm,0.0
60.221691846847534,-155.68609698120804,-0.518503327943719,-55.71107256063099,-2.613896030956471,0.7780574105267059,-2.3377720910940623,-0.9762445248812226,1.1196412989078006,1.4695561229227938,nm,0.0
60.23050284385681,-161.71580836189844,-0.954636060255865,-47.92594485595699,-1.7194966140409178,0.06361550174350102,-2.3321117354149195,-0.8036561646519115,0.8962109309505425,1.5503502963731066,nm,0.0
60.24762296676636,-171.37536895039602,2.584785540185946,-41.26393266370974,-0.9044154838875204,0.31097323350157335,-1.9635228535011697,-0.3103505628949987,0.9123764478631038,0.26856984827881547,nm,0.0
60.249858379364014,-175.2206995016788,4.035629496148285,-44.505404470043295,-1.9805869969177194,0.3253477604788141,-2.0334590689957754,-0.3523134472336643,0.73816472788624,-0.5989169948151949,nm,0.0
60.27447056770325,178.6323878416794,1.6789302704241278,-56.1282537556079,-4.412498818677063,1.328216938691541,-1.577094092156733,-0.6148249181845874,0.16585651149211872,-1.1186760003397742,nm,0.0
60.2765679359436,176.53812929137104,-1.1073114376302002,-59.66235280533524,-3.9502384995891915,1.596097188926396,-0.5925371613372805,-0.6817799364466348,0.058227030093764336,-0.7008435589176992,nm,0.0
60.287832498550415,176.30583206158445,-3.8579509881931275,-60.54764125126221,-3.0672053185099752,1.3500106761630029,-0.2865020528085461,-0.48705052332207005,-0.23470996886708362,-0.17446160591481555,nm,0.0
60.30101251602173,178.15626989374195,-6.713740700689722,-59.2355113506786,-2.6842184182174336,0.3790424163428691,-1.3733675578608708,-0.29625162021361945,-0.6059594707161992,0.302275892779532,nm,0.0
60.30464792251587,179.99669603311563,-9.850834110403238,-56.93986964665012,-1.4855990393664524,-0.08508652056625131,-1.1763064593620858,-0.3274540839578099,-0.640840145100704,0.5187993478994402,nm,0.0
60.32972025871277,-172.85725635953744,-17.099884966163277,-56.89392372957571,0.06790538253518673,-0.43973740788883386,-1.1637776840648928,-0.14760592125071037,-1.1575691710894456,-0.01624280906411315,nm,0.0
60.333909034729004,-166.62907548291244,-21.32983302288806,-61.728830307276866,0.05051189796198222,-0.20245379665380697,-0.9820610041139224,-0.1160148968820461,-1.443564878848805,-0.5467714560763582,nm,0.0
60.348150968551636,-157.7211364647646,-24.939518110594555,-69.87976286807772,-0.18651105942911572,0.15929064783937288,-0.9016285356731866,0.023329073171215842,-1.7915797233619886,-0.9168557867519631,nm,0.0
60.36836624145508,-130.79527897382422,-27.772846572021923,-89.43295110963022,0.9284240983689293,-0.5004291832909383,-1.9578405851246068,0.11049771107155919,-2.6137239562298475,-0.5382269491202907,nm,0.0
60.38775157928467,-115.4268988792975,-27.789210711751277,-96.75324259122793,2.6747309137111848,-2.311924482499054,-0.40078622001986414,-0.1496008212030732,-2.7168647462302724,-0.010259264089438771,nm,0.0
60.40196108818054,-84.57271911234255,-21.09551151067553,-106.40567075017896,2.28728122272251,-6.178973310593092,5.25202644215164,0.4459987878721201,-2.833438392161304,0.40279737861002024,nm,0.0
60.45599007606506,-62.31681474143156,-14.4037531318084,-97.56675240680039,0.3246195268977395,-3.961832047586544,7.016668942083268,-0.5910416896156124,-1.2469364991172527,0.7729356495013711,nm,0.0
60.461058616638184,-72.73564087564364,-20.01379016496159,-87.87317059392483,2.542747403897336,-0.6309008707275057,0.367814525286286,-1.5140458039597802,0.9110773619804386,-0.14940909894924884,nm,0.0
60.46720576286316,-79.08706088260213,-29.52276984192158,-87.9205719207509,-0.5940618694602545,-1.0492165104779059,1.7750223234004592,-1.9504524270560974,1.083749108365361,-0.5308092711002821,nm,0.0
60.49082827568054,-93.20614587344369,-41.45914948061612,-78.244655167005,1.6952551030312446,-0.8485351549828454,1.8053538785403733,-0.948211050721813,1.309857649419061,0.3143387841018955,nm,0.0
60.520705461502075,-119.17130449420674,-21.113927688597148,-66.26457228783856,1.6024079775823992,0.46845481103225967,-3.9550744154086757,1.216086435719978,2.0148972241110985,-0.5809242520350274,nm,0.0
60.54663324356079,-140.592736625725,-10.49509760898738,-64.90868950458348,-2.718980207443338,1.9788946269177239,-3.693393793626604,-0.6242403763229527,1.1434904909336363,0.2972860531985311,nm,0.0
60.57361912727356,-153.19351011139148,-13.54856327335079,-49.27828799535159,-1.3763930703408325,-0.1337202393559513,-1.6543602134310051,-0.8358552438267577,0.758229875557722,1.5327597525392942,nm,0.0
60.577001333236694,-157.38643343042972,-13.449191041851122,-41.581685499323335,-0.5011834468241793,0.025546018776562446,-1.2709378989495597,-0.5494542211646524,0.5986322361380241,1.355056373543217,nm,0.0
60.58137130737305,-159.7695746389891,-11.764069377357748,-37.45954213613106,-0.34826096768427306,0.6590368815894267,-1.231847908183525,-0.13470601018419137,0.560312581980465,0.7311138934330657,nm,0.0
60.64221930503845,-160.866453675026,-5.368442017613412,-46.485079262183554,-3.96467902140401,1.9664594709822312,-2.701183140212637,0.10809770551243109,0.1994522223986132,-0.974484661282734,nm,0.0
60.644105434417725,-163.2940848614105,-7.775350946766429,-51.74073312642756,-3.302546843323875,1.53319422334331,-1.1936138995398309,-0.37608066594110434,-0.10970689263702228,-0.3365829198921349,nm,0.0
60.64590120315552,-162.67853378787896,-10.749779129762066,-51.588889004490184,-2.560525816568123,0.747514308273732,-1.9120842571768542,-0.38086949988440305,-0.46355961758108977,0.059613719521282756,nm,0.0
60.64785671234131,-162.33111230952616,-14.45330972530398,-50.3307731163788,-1.7296471580232318,0.35204056098919845,-1.591275074833182,-0.5228657147556351,-0.5178933964817071,0.2767772734973878,nm,0.0
60.67104506492615,-160.04928156756387,-21.335006366594484,-49.82041000957584,-0.3632145839888857,0.09318940269639975,-1.2071166521038579,-0.2740733900375616,-0.6761913755403807,0.012573563799531824,nm,0.0
60.67605519294739,-157.22497133292634,-24.436217608927542,-53.10797595668662,-0.3678713031337213,0.27816156332323594,-1.029013817991792,-0.15251314760519405,-0.7915944929193454,-0.42690801243831317,nm,0.0
60.70398187637329,-145.76559427456544,-28.91063867218695,-67.27688405002566,-0.5419867711061881,0.41179001606997423,-1.4575369741664193,0.21772532926659433,-1.248401703571827,-0.9610704445827962,nm,0.0
60.72862267494202,-126.99019229359155,-31.35021121510427,-84.7120419673657,0.4931379760843503,-0.14108305894293988,-1.1215052103954803,0.08199470246086396,-1.7765143798408984,-0.6469430981130695,nm,0.0
60.730350494384766,-114.75481689467985,-32.283919746729936,-92.4920651952072,1.7944014804231385,-1.5764817459357194,-0.7085543258168598,-0.13495768085219387,-2.083818860981844,-0.247570203089286,nm,0.0
60.733102321624756,-101.15201424480321,-32.886927364072406,-99.87988562696954,2.5047472334323024,-3.2785821820484045,2.24472724666459,-0.3689175578225272,-2.2658889375916007,0.006661040869397952,nm,0.0
60.75887417793274,-75.88419044240077,-23.050466080297454,-110.05660945649424,0.7923253120083759,-4.597776958374949,4.150631078629604,0.8233301898569454,-2.2557251820319313,0.3054903342698699,nm,0.0
60.782044887542725,-62.01699273876653,-13.997838256989501,-105.88410673046985,1.1019203236361217,-3.490222468312706,4.161424434915351,0.003084187432827434,-1.3928000488820165,0.905457553054464,nm,0.0
60.789989709854126,-56.272421218703165,-13.657095616134743,-104.07009835577053,-1.37054282390879,-4.921826231784533,8.375011840418763,-0.2343944341050634,-1.0996249928618147,0.646011907211165,nm,0.0
60.79171848297119,-56.91996526862075,-10.874052539339797,-99.30782470356871,0.49296042548245617,-2.830251683409828,4.272714301841262,0.5601997232171602,0.006931878396950717,0.9338340375772234,nm,0.0
60.81688141822815,-60.70337657579074,-11.740693138182017,-95.68096183514352,1.822097099038233,-1.203327939930175,3.1019978360084886,-0.43042833286479676,0.5022892337849949,0.18198229499804056,nm,0.0
60.819931983947754,-66.69632751981463,-16.075890557776443,-95.21052145560726,1.9107186730237151,-1.3749024677474486,1.160631665880629,-0.7623561132610109,1.238155686677917,-0.18444506652309706,nm,0.0
60.85064077377319,-78.58920850977498,-28.505960720870245,-92.9593241450442,2.0879738320679744,-1.5945112529118528,0.8686386134054801,-1.200278567011005,1.183515486558744,0.0865711259701665,nm,0.0
60.85256361961365,-88.9137320411419,-32.23678909820119,-86.21749190045345,2.114030442021902,-1.4941417164941346,1.4261449947848441,-0.7630876276875711,1.77709707100341,0.3145462860918668,nm,0.0
60.856133460998535,-99.27815606533296,-30.97194566102493,-79.2480509602666,2.8971825293561846,-0.9048299562112055,0.6474525579858685,0.02377187233360835,1.7835989226880051,0.3193254712500234,nm,0.0
60.88631272315979,-117.96853578635115,-17.24586799367519,-70.90833769869687,2.1265141155926837,0.6030923430505608,-3.5668647711277393,0.9632477779736102,2.200540297236786,-0.07906630043675504,nm,0.0
60.88799786567688,-126.51726179700547,-10.516872096092369,-70.38485688896158,0.5448943913182829,1.391763538095643,-3.9122421132749934,0.7222936301334754,2.010263199266862,-0.2928618952892698,nm,0.0
60.91576623916626,-133.73799890730228,-7.001055716672412,-70.45491179532179,-1.0321357903478343,2.15722658619436,-4.394985480428361,0.18952674152476268,1.5777521565353028,-0.22159293994962737,nm,0.0
60.92643094062805,-147.95042088584847,-6.518740302838188,-62.9432277632866,-1.8660888208779718,0.9239134148277909,-2.748234627976873,-0.6217821864816714,1.1914747019348852,0.9128041909933977,nm,0.0
60.94230771064758,-161.6768366926017,-4.005121135615695,-44.42007249577604,-0.5927652089145726,0.48827173129418694,-1.7230478263276496,-0.09739274298298105,0.817968202139379,0.8973460418370588,nm,0.0
60.97310280799866,-166.2969192044831,1.6699227969710635,-44.61078257158796,-2.487412328247568,1.7770999063662822,-1.3845425139042993,0.0440634637551434,0.7027754227292974,-0.31337693094248026,nm,0.0
60.97705268859863,-168.28794700355778,3.1482612953738442,-47.714775083437324,-3.8235696011732716,2.2941624714993583,-1.5014077834690975,-0.049601148156709456,0.49335133570750367,-0.5978663691286829,nm,0.0
60.993690967559814,-172.7571322173673,1.1510886442895902,-51.332517392369354,-3.7357077845089717,1.716065699357175,-1.1109625023507292,-0.5594406062153687,0.11961864172810324,-0.1783049478022203,nm,0.0
61.00039219856262,-174.61282534921088,-1.4631258568478436,-51.04597562646027,-2.834542998175308,1.2032441086999055,-0.6391785783198064,-0.6277530071324864,-0.03741260857543059,0.0626047569972201,nm,0.0
