timestamp,roll,pitch,yaw,acc_x,acc_y,acc_z,gyro_x,gyro_y,gyro_z,markers,motor_input
18.0292649269104,51.3917731370313,-6.969047222063886,41.17024440847138,2.7646664069646105,-0.9481912486177675,0.645057107884032,0.3059674679143768,0.6898032281184737,-0.31854470505109955,nm,0.0
18.038779973983765,54.5294961354053,-6.767768328028816,40.15697214955504,2.3138790334435972,0.751591051640535,-0.5318667353522589,0.4552308620622771,0.4407757002368943,-0.1389114841040438,nm,0.0
18.046531200408936,57.49443415506895,-8.675184567319631,39.710539759778726,1.5279931403901525,1.411861193075543,-0.7849272895549411,0.7044731865678516,0.08926278833850168,-0.020562244219247634,nm,0.0
18.06397247314453,61.72346073159812,-16.668319431206033,38.31507817555218,-1.2046145478249104,2.1018231250419106,-1.349193577698754,0.8127859193620312,-0.43908064213281467,-0.08642878793203568,nm,0.0
18.079407215118408,62.79080695910332,-19.872078610123516,37.223492564247664,-2.3354600894307214,2.210785616877238,-1.4780451170413664,0.5626999339264386,-0.37662885420434183,-0.16054132791207465,nm,0.0
18.08287501335144,62.59916550377267,-20.976987989309066,35.94486436689889,-2.958688840226348,2.4636122340037008,-1.6802510793485161,0.11263359003479165,-0.1930750964661948,-0.278289420400127,nm,0.0
18.106496572494507,56.75137419255251,-16.90523434787779,34.03639314865631,-1.9084014866056587,2.3767147390959766,-0.9205111043051516,-0.9468078103869877,0.04714228621688894,-0.40270630629323423,nm,0.0
18.11177110671997,49.741949329358604,-13.778654837900374,35.03142661298749,-0.9761914390432538,2.0882168421239475,-0.09815584434254548,-1.4566479540657196,-0.2649870644521758,-0.4258362401626419,nm,0.0
18.12140417098999,40.073497114104505,-11.883746381467546,36.74942286067098,-0.12858178104504567,2.148856474037129,0.4997988137310905,-1.7304203679278378,-0.8198539852797498,-0.37480063078450654,nm,0.0
18.145187616348267,18.567947888352506,-11.534451098563327,42.77210147967511,-0.012639133994494003,2.6212325072604554,0.3828591429134289,-1.55591183542366,-1.3875748883619476,0.21063198754527604,nm,0.0
18.150695323944092,10.165916017770673,-11.225311771440715,46.895954362885504,-0.28964670981275503,1.6918568484052716,-1.105417646306474,-1.1998760463519984,-1.1198142912016618,0.48696352576132623,nm,0.0
18.17422389984131,9.007812721455766,-11.887692507063743,53.1718953542946,-1.1893532890275427,-2.8714230402129166,0.9244024116360625,0.457114641276794,0.286778910845482,0.5869689123897619,nm,0.0
18.178073167800903,18.35756807542162,-13.924208197424736,53.340156386920135,-1.1249539001026927,-4.93883313654807,3.758462623081445,1.430717097843087,1.220903911806244,0.44550285551172963,nm,0.0
18.20197296142578,46.72693293920845,-14.148450710006708,47.35927935493038,2.8959466771988556,-5.994849136512996,3.479108847230613,1.6690437559380957,2.2632403114855983,0.012692066037294237,nm,0.0
18.206977367401123,59.30628355536838,-10.97397145536041,45.075536187059086,4.566380742173837,-3.7721760995821305,1.061940629311987,1.2519521054062968,2.2187932770739085,0.08167933054896911,nm,0.0
18.229536294937134,75.76818748288113,-7.657074072659394,45.07604061274586,2.580436113196323,1.4768402673434577,-2.305506636253583,0.9087157532929022,1.0135315544004753,0.28615168665833857,nm,0.0
18.23558521270752,80.79195340627221,-10.465449525257334,44.27826764005983,1.1017501237719505,2.6342612307433573,-2.223757960632009,1.1061239593433592,0.3077000118109054,-0.011557116637443797,nm,0.0
18.258087873458862,88.38270169852534,-20.54740074870118,39.04785374205313,-1.2624513907345418,1.9096706717621117,-1.1705981853439782,1.164370532005805,-0.36111944888849246,-0.3642495902089963,nm,0.0
18.263172149658203,90.1935307061456,-24.02018396249589,36.498957397986764,-3.151569662917752,2.299635577872827,-1.3913241007020962,0.6973236224992189,-0.33334941476837143,-0.37989538864302047,nm,0.0
18.287368774414062,91.75405021462443,-21.96660314815096,33.86891603074397,-3.6698705610014097,2.7095941690323526,-0.8016537474359918,-0.23284992597432114,0.4748339186912051,-0.1044273212738993,nm,0.0
18.292027950286865,89.97653204544831,-17.15108512138129,35.04972087473471,-2.8308709516602906,2.8464495193891195,-0.8395954120301365,-0.8165254049400592,0.6153376095298925,0.10828751143022775,nm,0.0
18.314339637756348,81.73250197987375,-7.6826411043788365,38.71230229182571,-0.2419088959516086,1.9878381591622172,-1.4449964220351812,-1.2410136921660844,0.07865083339823448,0.1675518121844239,nm,0.0
18.32235884666443,75.47717676419661,-6.041614129524149,40.264698483703285,1.015382279984977,0.8820053877519383,-1.41536650867323,-1.1631773463741828,-0.5302645254781988,0.1494305461708752,nm,0.0
18.349974393844604,61.97245202953559,-8.863563911596517,45.67538698008383,2.535521566745142,-3.5852953125111973,0.2544915087570246,-0.6451241767573979,-1.188623786808432,0.4514246378360356,nm,0.0
18.351752519607544,56.45606047673329,-10.507316750232569,49.158117925383316,2.8574193854067858,-6.586486996935998,1.841459797641475,-0.486905725799898,-1.0184258228434737,0.5003186130828408,nm,0.0
18.371471881866455,48.00942347939842,-9.703191896132173,51.07863529666715,2.2857138333844618,-5.622298419504128,2.6038983029730107,-0.6336533833498522,-0.4507049420883219,-0.18852244159134546,nm,0.0
18.3796443939209,46.1051599308779,-7.829072985046142,49.51122701541671,2.5421292857101663,-3.565105498699873,2.630599108097546,-0.5204275624279262,-0.04620338788860156,-0.38248778966403363,nm,0.0
18.40347981452942,43.65134491779513,-7.4737833942052365,44.50696010516051,2.0145255474921204,0.8264850714924722,-0.21660427685990374,-0.02403148959012313,-0.2716858855981861,-0.5655335011503824,nm,0.0
18.407264232635498,44.80023683493588,-10.2564869071251,42.65997353583338,1.3792452975812841,1.357105019189456,-0.10972167019406799,0.5587655004166284,-0.24391348407886784,-0.3442898082052308,nm,0.0
18.429263591766357,47.87570833443427,-17.977993291857704,41.51057380451383,-1.6753065752559773,1.6171915536143586,-1.3627587201138454,0.708846036172957,-0.41915907699722327,-0.012640606674104781,nm,0.0
18.438322067260742,49.37609761846726,-21.058087872898977,40.69188890193387,-2.889537296898042,1.8791432479633343,-1.9076222350783585,0.6296507898560219,-0.2740000112784522,-0.07184041651995163,nm,0.0
18.46215319633484,49.448286063906835,-20.927745812803664,37.43570345141834,-2.849606890089894,2.2408145914071005,-1.4411699344430018,-0.29422816345804725,0.10872567819564619,-0.41569386901398003,nm,0.0
18.46384835243225,45.96482486761639,-17.707038310334532,36.016711810683475,-1.9868164771845986,2.3050496290087272,-0.6990217332647809,-0.9021692686240342,0.1258392126662814,-0.5236837510767608,nm,0.0
18.48982310295105,29.08592547542588,-12.083430824578173,37.2770389736346,-0.3933350109418508,2.7687554873130886,1.468387181707385,-1.812605090826727,-0.8540852149000442,-0.5241292558805156,nm,0.0
18.49174451828003,16.561421563172956,-11.540504911908899,39.72179530653465,-0.45848147313679904,3.5339037622188636,1.615384667714032,-1.9580898392234138,-1.468741573322193,-0.30748152736592427,nm,0.0
18.51541495323181,-7.210080825065088,-11.238302729935825,47.808521336279554,-0.4933881358792996,2.600531441109286,-1.2981909629495447,-1.501929945472504,-1.4658420864174762,0.30507495219506625,nm,0.0
18.521368503570557,-14.534098697202584,-10.489582615211738,52.12160797542257,-0.5480639264845232,0.9665316608030556,-3.1395714557211245,-1.024889477740495,-1.0099719144938735,0.5420454432962319,nm,0.0
18.545449018478394,-11.184981879906092,-11.087065509056893,59.06029551642306,-1.79689718938125,-3.0389628338114454,-0.8011906291865425,0.7984786477506074,0.8946702942020985,0.8972405679482506,nm,0.0
18.551227807998657,2.9039977625430797,-13.141677947569798,59.937252609542895,-3.453549887191148,-4.966849168600158,4.471943680735594,1.7778388561645118,2.1622439589379074,0.8785270365769847,nm,0.0
18.57325005531311,41.02974943889547,-14.651391450684775,52.29969408571425,3.437738552443932,-4.581129639137606,4.584758966877188,2.1339968273239074,3.1539454834294296,0.14179298913490612,nm,0.0
18.577295780181885,58.94714954639492,-11.127247983572587,48.90514099601997,6.564184914281424,-3.0742352499657826,2.26803217484644,1.7042294270986116,3.1432618251101516,0.24472308414565538,nm,0.0
18.602489233016968,86.04810201352348,-7.34807555433611,49.85804978207043,2.9205679016607577,1.3913728076178662,-2.1420354184973425,1.5760673368338658,1.9065256893577702,0.5895536903372315,nm,0.0
18.619369983673096,96.35394023578303,-10.803307607208383,48.89661413462929,1.0041938106867818,2.4036891671874083,-2.061371178204623,1.8518982048409798,1.108572247736737,0.12453464508832227,nm,0.0
18.63533616065979,114.94949858457237,-22.116285948315273,40.27131508724804,-2.118633097657357,1.3390896298947776,-1.0253818683663314,2.056678800410789,0.37978704560250975,-0.39941645416226,nm,0.0
18.637232065200806,123.98097363254922,-25.535807797885084,35.339198040329386,-3.822384744756076,1.3327059087552435,-0.5710423480068961,1.7273633635658017,0.4880368684939723,-0.2577332681187958,nm,0.0
18.664748668670654,141.74915083016273,-24.25531173589737,33.967485991743764,-2.541376653920714,0.8654862764226076,-0.2756739404219701,1.1556603910154986,1.16636272903163,1.011757461439618,nm,0.0
18.667418479919434,150.28143491150303,-22.190696470082692,39.112432041921686,-0.6996832566662525,1.2874215728606908,-1.031674539139859,1.0142345420195669,1.281451060861886,1.7036596632484584,nm,0.0
18.6868953704834,168.00078800052836,-20.76580863884429,52.25404875151323,1.3824173677770402,3.805439097350471,-2.2823500340579606,1.0866796916669346,1.3288554868237852,1.8732073469154498,nm,0.0
18.692238807678223,174.93513377671374,-21.11684305805864,55.7383856467929,0.3220213094968316,3.9163217836352575,-1.673089963437884,0.8126181471664303,1.0190984406739063,1.1995008472333848,nm,0.0
18.718044757843018,179.64681168271505,-15.881966173495663,55.32086594524943,0.25089426951976174,0.28412405922029504,-0.7297420518379268,-0.7100326264920597,0.4994535582688434,-0.19065218947656365,nm,0.0
18.71989893913269,171.06194061201663,-10.03156569535167,53.90332353893342,0.27505194293743546,-1.8139602027025157,-2.448160661782957,-1.9295160878399977,-0.676429141682545,-0.664205661902479,nm,0.0
18.74363923072815,136.0444806683463,-4.497346825700386,51.928660901117354,3.8308510477666045,-9.474298736569603,-3.955546979008743,-2.5862053168596537,-2.921320352474584,-0.5003301580993182,nm,0.0
18.748790979385376,114.4013763800511,-4.567777883717143,49.867858296017566,4.511132780922728,-9.971061076162671,1.057892524678814,-2.715706224368035,-3.3491884395308515,-0.7577911248703759,nm,0.0
18.77435851097107,70.61422303509046,-11.996558953528332,49.7072649549603,3.7336923144664778,-1.3059157067896372,7.824813643656321,-2.1772611924878507,-3.8850490651996146,-0.42842522191704296,nm,0.0
18.776747941970825,48.315984971744356,-14.839566376568149,54.15858978671846,0.9443322586661402,2.8067268437058255,7.8167894732481935,-2.225787833334106,-3.758637250554208,-0.16517825738395397,nm,0.0
18.80366826057434,14.241000889279318,-11.82306757005476,54.11391836041839,-4.113015577044498,2.8439347974536573,3.261532425022159,-1.971524931784588,-2.15554926760074,-1.1991019107272278,nm,0.0
18.811821460723877,-1.7930870813550939,-12.377069792024866,46.33618783745007,-6.880229752637138,3.356798659361334,1.5567150416054507,-1.9125617610110572,-2.4888876525264916,-2.22360560436324,nm,0.0
18.82767367362976,-31.852634129443473,-25.000231567742613,30.0820187716145,-7.19696950385174,4.547455770185733,1.3018827721225332,-1.3025361114476228,-2.6418759821827895,-2.3303125545322128,nm,0.0
18.837050676345825,-47.95950633590342,-30.475053832697853,29.02223021937663,-6.08515237782258,6.645254368969745,-0.051691727270433356,-1.9386163536714507,-2.3644424224889695,-1.7045714819051125,nm,0.0
18.846231937408447,-67.60392721948233,-30.404402311244112,33.207180494184726,-1.7160921872374209,6.421648105054548,-0.6945021220895109,-2.9014565954314597,-1.745422095881279,-1.149758711825273,nm,0.0
18.871737718582153,-94.4267315060397,-13.24352386318337,35.71596422677861,3.4649521008663906,3.127949913594026,-5.391154609881183,-2.9377568331368504,0.3042391327497755,-0.8489852741933361,nm,0.0
18.873519897460938,-104.21930188253155,-6.205410192873539,35.737094382647285,4.575293981776867,-3.75679249286011,-1.3099904408458554,-2.3845461760283695,0.014093100328715307,-0.31405274137962336,nm,0.0
18.882254123687744,-106.19738820598282,-2.8883920920672135,39.61277565506796,3.4107347075850147,-3.3150290355355034,-1.8930327899537642,-0.7121942829694324,0.2873657212188604,0.7570902804007776,nm,0.0
18.90565824508667,-115.74952950667468,-4.672367290342712,54.09186286000897,2.4271933355216126,-8.503321236898824,2.1189408518489246,-0.5953765384314637,-1.244428257286265,1.6377408757758576,nm,0.0
18.911356687545776,-116.07850479263496,-5.975102898834797,62.093581233833675,0.11482274289106584,-6.9125719587506635,-0.15226678386790032,0.18953964419383654,-0.1881828331390779,1.6090763699976651,nm,0.0
18.934221744537354,-107.44162324681474,-8.593620242875602,54.93998890798012,-0.8227733980512503,-5.053119137821079,-1.8088759849839116,0.8756019135912768,0.9184925417080175,-1.1132255565988443,nm,0.0
18.938838243484497,-99.69579398288325,-10.255705970364545,46.35385017486975,-1.0356129799735194,-1.6272887161607736,-3.012682122994612,1.2334534663626378,0.9746814032891323,-1.4494767339107493,nm,0.0
18.94841766357422,-92.1843536975515,-12.060525116184603,39.69611450091544,1.3707638367816082,0.4127125842740764,-1.1609716955248734,1.3323471384461858,0.7419656071900885,-1.0121156080020637,nm,0.0
18.97519040107727,-82.52394953606452,-13.916422090481184,35.837249893026545,2.609833650702364,4.954178845232986,-0.2314635289472981,1.7255750911971703,0.8564745010827824,-0.2935228154665254,nm,0.0
18.98706030845642,-62.69534287748564,-13.702846524145953,35.77600528207267,-2.8382449641798435,4.381859853653909,0.3838747038474858,0.7093469913426028,0.5106186863709433,0.8315895366562744,nm,0.0
19.003621578216553,-60.78164010518653,-14.745486456356424,37.924928546216705,-4.511480303550464,3.505556561492191,1.2479484944275092,0.43292989766123735,0.04991883914783624,0.5969849094250509,nm,0.0
19.00542974472046,-58.79261078704354,-16.260725662091907,37.82402933577307,-5.332866514266551,1.8958840837843314,0.22344793459197204,0.49948997110069265,-0.009459684737261621,0.1279448140733156,nm,0.0
