timestamp,roll,pitch,yaw,acc_x,acc_y,acc_z,gyro_x,gyro_y,gyro_z,markers,motor_input
2.048543930053711,40.06233944700823,4.3363053107424685,-3.6653253201512515,0.30662668513842284,0.15476001024442487,0.44562564400763693,0.2541159206197042,-0.08118805591982131,-0.010881444349797485,nm,0.0
2.0521657466888428,45.25893556628702,3.852685070454544,-4.685132660982219,-0.2148091890377288,0.455580371264848,-0.30893070995374083,0.3790544531693708,-0.03562594341599862,-0.16663177050960665,nm,0.0
2.068319797515869,47.20360459316104,4.041923359407842,-5.289481208992497,-0.3646873907282368,0.5217319014584328,-0.5821156252380625,0.3965118028690153,-0.00043238728960103457,-0.17319339558420543,nm,0.0
2.122436761856079,49.14970470672867,4.330268336537779,-5.78456495252518,-0.4829526152694877,0.5854747830047866,-0.7830615233165377,0.39853609126411677,0.01587902413458516,-0.15068070374874637,nm,0.0
2.1292293071746826,55.00940102474036,5.001518760876616,-4.279249782443784,-0.360156187607343,0.9031928345948232,-1.34034214204516,0.024798206107333475,-0.0036194564023874156,0.06712262634295156,nm,0.0
2.1441562175750732,54.71571552081262,4.917601053089761,-3.9795625843341735,-0.24087351484136646,0.7084677475811935,-1.3246797075378898,-0.053491115311545004,-0.015440174859451813,0.04035469520623684,nm,0.0
2.1889967918395996,46.485025054101094,2.049550827634583,-2.143822153626673,-0.1343650015724709,-1.4642086198476771,0.8308155054232188,-0.5431506807489666,-0.10914405092102482,0.13907814964337123,nm,0.0
2.1934914588928223,43.098359269003524,1.8552453420425725,-1.3813440159064296,0.011949895870255023,-1.6353770398855234,1.5859090393362216,-0.6718035402106434,-0.02301202709269025,0.16412647289037538,nm,0.0
2.20764422416687,39.3430813549065,2.1442610760656895,-0.9221173551573753,0.23462411953050524,-1.389812644420238,1.8454312560507367,-0.7433367166829576,0.06789086514976302,0.1251149918615667,nm,0.0
2.213064670562744,35.873780849586765,2.7329317141345935,-1.0075076994239252,0.5343653192394582,-1.0221157199259923,1.8232600129823107,-0.6851316975232584,0.12413606541364382,0.03312084883209457,nm,0.0
2.2250301837921143,33.141309239766606,3.4741584620347297,-1.5185712131771762,0.7714773623278034,-0.7768720333265287,1.8024937454732743,-0.5362149500359209,0.15430687942624577,-0.049519256427140494,nm,0.0
2.2443079948425293,30.72313633558643,4.569437794119784,-2.788491336445076,0.7269290095860502,-0.2809069646402833,1.413286587574257,-0.12262909086943716,0.07738833094326177,-0.09462039810938672,nm,0.0
2.2563178539276123,30.88305417589259,4.621685523263074,-3.020827797882161,0.5419625475015712,-0.10301585745347842,1.1709823487551205,0.03859734462376769,0.0013384213035280614,-0.059804784509474095,nm,0.0
2.259657859802246,31.85925435476796,4.474740676650283,-3.0155790249340546,0.28065797669060305,0.02547915310828446,0.9063439674152173,0.19925488215770687,-0.047094654279663827,-0.009439201562780199,nm,0.0
2.2677066326141357,33.543574907264336,4.265051065681962,-2.8322443700849935,0.05840921675298484,0.09266106069797664,0.720856642964941,0.33999795608691946,-0.0662933259930087,0.014835518109153298,nm,0.0
2.2964425086975098,37.91306757886805,4.189596994346008,-2.850533112419593,-0.11632345815284041,0.059754763484449885,0.19526181834435702,0.4661593479582433,-0.0158442037404777,-0.06363669666842865,nm,0.0
2.298748016357422,40.07618420194377,4.515161862537029,-3.2524432630171014,-0.08588702812314791,0.03409971648786147,-0.027855817361775666,0.44100750098209357,0.03629505436138734,-0.12507756838181913,nm,0.0
2.3075673580169678,41.91323752070671,5.0226295603274975,-3.876614991835389,-0.033766464713598475,-0.0058679791610324415,-0.3788115560309009,0.37827555004354624,0.0731128072419732,-0.1675357459549251,nm,0.0
2.3452796936035156,44.72604712921891,5.9810547817368445,-5.033204135081101,-0.06856796203567471,0.09313229205555525,-0.7299264147211301,0.2552715586474233,0.0581288204869893,-0.13789051622819581,nm,0.0
2.3480637073516846,46.16089524721884,6.122255108901208,-5.29732773444099,-0.3400571165423149,0.47393749802652674,-0.9685711706539872,0.12252254123361346,-0.023153229761549276,-0.02445287557262795,nm,0.0
2.366793155670166,46.46024934939252,6.021624883616538,-5.009985522895738,-0.5060692664944567,0.6919308636495266,-1.0026914845211756,0.06332908625945304,-0.030073392888820525,0.027314480201726127,nm,0.0
2.37178897857666,46.51543998828318,6.011518820027058,-4.63105825951304,-0.6320979305972999,0.8916387549654606,-1.0570206211126756,0.01657161551337627,-0.007556356395763194,0.05451019299480828,nm,0.0
2.3740901947021484,46.39729183046944,6.185779498693566,-4.299150628213178,-0.6596311415798647,1.013068057127024,-1.0581651574276985,-0.01496271172542892,0.03202023167311876,0.05656792159928567,nm,0.0
2.408155679702759,44.93162601071349,7.296221048751411,-3.59671113947673,-0.29028214726233065,0.8623030606072063,-1.1206686531057946,-0.12212610458738539,0.063310597364566,0.04615541850807332,nm,0.0
2.426236391067505,44.07550944126447,7.283865716645048,-3.2941052339501806,-0.14059595880203077,0.6003871300997606,-1.0404991648044346,-0.16429481419441874,0.0027864956977626675,0.07001228947429193,nm,0.0
2.428225517272949,43.100756390752416,6.887308243341581,-2.8121712566700565,-0.054118305730902594,0.2638746874669568,-0.8204809487731013,-0.19193948516541087,-0.07410019450918015,0.10839117322755537,nm,0.0
2.431781768798828,42.004461853548854,6.140655411352805,-2.1690153800568623,-0.0024674777271556907,-0.13490582036996304,-0.4739757082261893,-0.21847481292060478,-0.14517922069837866,0.1416950999128632,nm,0.0
2.453535556793213,39.491348815022604,4.3506920831637705,-0.7824157080987939,0.10178631230740033,-1.054268861184829,0.7550089398772093,-0.25948708676734483,-0.1728810160815207,0.14369162191045917,nm,0.0
2.460728645324707,37.87864896370728,3.773702125682295,-0.35565652892649935,0.1914064508129626,-1.2928589795000762,1.3113741803680725,-0.31666291630944327,-0.11823498609107416,0.09697218631692225,nm,0.0
2.4688382148742676,36.050034794369296,3.5343598737272908,-0.39680502874956247,0.31516023465951964,-1.3009199076325606,1.5051084349682236,-0.3591156810739073,-0.051591941896591706,0.016071532963054327,nm,0.0
2.494783401489258,33.26965614137415,3.5817923798490416,-1.738939378974754,0.5258632330172622,-1.1170138212743517,1.5954626747819418,-0.22444442632938053,0.011824291613522693,-0.14980728312707975,nm,0.0
2.5193145275115967,32.59391153330322,3.6344094465190584,-3.2926665484388233,0.3777129248643654,-0.7096895222358539,1.374848569201522,-0.014217562172862774,-0.00838032624846409,-0.12971624836069987,nm,0.0
2.5215842723846436,32.815298195481304,3.5007606860701777,-3.6619917417229724,0.2312918824015165,-0.41735545613453157,1.0186607382206267,0.04884508866630034,-0.036660030320314486,-0.07477526249183136,nm,0.0
2.5374648571014404,33.51085318888302,3.31409854057901,-3.74150670877552,0.100631086766054,-0.1592389451110463,0.7443926497554282,0.14267427666734817,-0.05345009739111076,-0.025482589147723663,nm,0.0
2.542553663253784,34.63855379093827,3.2062499236968405,-3.695424296323682,-0.002703145493644253,0.06136442521048783,0.5561257916373847,0.22996712158487712,-0.04315778170754631,-0.005632608714541731,nm,0.0
2.548125743865967,35.97024587674811,3.246621890346719,-3.739398578979213,-0.052013629690440495,0.20547229546965445,0.2912764595373432,0.27260905870624774,-0.015907507043223114,-0.029933520294443513,nm,0.0
2.566934823989868,38.8825577572639,3.8643682628902245,-4.559044504861356,0.01255953574068333,0.2905842419527726,-0.15659433993343555,0.3021332259208057,0.05228855155920637,-0.1338423563576779,nm,0.0
2.5749850273132324,40.280765339872204,4.362904584030841,-5.1956562033412945,0.00038128921926923925,0.32943678038112756,-0.3860446470763434,0.2927988522610776,0.0697405254502245,-0.159307826091729,nm,0.0
2.609281063079834,42.823287713490075,5.093941378301029,-6.179760829594654,-0.16594272727622522,0.3798225165934597,-0.7128335425233814,0.25105381927479065,0.02709187751413833,-0.11074820273538621,nm,0.0
2.611903429031372,43.90854403583927,5.219788578597152,-6.261817974969301,-0.3132612187033166,0.48215213901581433,-0.8328259544976306,0.2237011522254247,-0.003747370786771818,-0.04809190016209794,nm,0.0
2.628162145614624,45.56421578729094,5.259406124239493,-5.680078502289803,-0.5513481805009227,0.7455958828139133,-0.9982781338115084,0.14945399868088477,-0.015215884563044695,0.05059833550788312,nm,0.0
2.6303067207336426,46.04949993778216,5.410832806549561,-5.236191871010139,-0.5895573072762317,0.8494170065528032,-1.064254141573503,0.10507342997309281,0.01620486577813516,0.06755535554999566,nm,0.0
2.660390853881836,46.13754634100492,6.205104945958608,-4.515627986628726,-0.4755135925094562,0.8742026574088292,-1.1647243852763358,-0.009192336124036457,0.08931318639658992,0.053190839476273157,nm,0.0
2.662743330001831,45.70482928437822,6.672022528891104,-4.259461558470111,-0.3564676012599623,0.7562106961638927,-1.1424341078037956,-0.07303667834252071,0.09508974952279604,0.048586628353774024,nm,0.0
2.6677846908569336,44.94521349078635,6.979656630514201,-3.9919127611339724,-0.23434101995440665,0.5779274657778717,-1.083972320067608,-0.14060201947036935,0.06745851087485077,0.05926235667708235,nm,0.0
2.6911258697509766,42.572788018786724,6.677927606524132,-3.110842856842539,0.005884591668356573,0.0476940020838628,-0.680605393454537,-0.2600469485788336,-0.0530392676617097,0.12340296086932456,nm,0.0
2.697437047958374,41.02495626913235,6.079372729135777,-2.4464272119829715,0.093526018474507,-0.3053627284932868,-0.27478756525445996,-0.3075706798393182,-0.11028164471501362,0.15556752243658387,nm,0.0
2.719774007797241,37.3421065584654,4.588566844232841,-1.14725772961797,0.23047564445734073,-0.9751848654977548,0.9154285895714473,-0.38505226058092484,-0.14181411685932382,0.14152386859429095,nm,0.0
2.726552963256836,35.245558017870415,4.085227341696498,-0.8942283482503914,0.28186798191858836,-1.082770862265891,1.3636176394906436,-0.4139312871718267,-0.09953677706821956,0.0842283382705915,nm,0.0
2.751481533050537,31.691062355416936,3.711983863033962,-1.7498052826192634,0.4817695564156169,-1.021477640262036,1.600053402356113,-0.3012267937466401,-0.02399236225652919,-0.11040608849441637,nm,0.0
2.769148826599121,30.431516316057476,3.375935669867739,-3.7728057401874127,0.5033501972519374,-0.7496832192588986,1.385029494448793,-0.06826618696302236,-0.04671755055038491,-0.19990917128711108,nm,0.0
2.771315813064575,30.447973958876393,2.9718968201118474,-4.673593596599589,0.331996506283363,-0.5341979301298825,1.1477670816178391,0.003533737252968217,-0.0887365502554435,-0.17578452748010726,nm,0.0
2.799440860748291,31.475702761827982,1.9818320259545457,-5.651901901287352,-0.08355324189357777,-0.11963171714351177,0.6485089586424424,0.13682260315109507,-0.11317827019802099,-0.0733397371521919,nm,0.0
2.8015713691711426,32.3694250633575,1.7082889964622856,-5.849041080960658,-0.2123603948846754,0.059623596266268473,0.43771558646857234,0.17883344800668471,-0.0800933734503216,-0.04499252458897974,nm,0.0
2.8195862770080566,33.33580998537409,1.6457636880194275,-6.056816253586995,-0.18735555228394737,0.19580410977403412,0.164542319145512,0.19746626221590063,-0.04000197235836415,-0.051411961037843824,nm,0.0
2.8238275051116943,34.31339692991197,1.8075188206123556,-6.366878054692873,-0.072755589275091,0.26351850833156054,-0.00937556366035531,0.20435917316620633,0.003700584845138393,-0.07362103618963065,nm,0.0
2.878204822540283,36.93247996495491,2.494717855289746,-7.7187406214638115,0.024599958048055048,0.3733353526132487,-0.5913831671639568,0.17757846112368814,-0.00801215722317699,-0.1083546295151387,nm,0.0
2.880702495574951,37.70965092232434,2.4322127231238526,-8.015355137140132,-0.11474514251786826,0.4645524764621916,-0.7789303144704988,0.15837139590864657,-0.040501677824953876,-0.07731585587362602,nm,0.0
2.883563280105591,38.41709750893235,2.2257734251725974,-8.052778498344178,-0.2835325155622204,0.5700926810035132,-0.8856633852103963,0.14052824769900993,-0.06733870812511589,-0.036601886491377626,nm,0.0
2.886315107345581,39.39263716536264,1.7746926918216273,-7.58944033311823,-0.5059772455980784,0.7325981515789592,-1.0387915661382492,0.08306404742281318,-0.05499972605960316,0.03095527619368528,nm,0.0
2.9020190238952637,39.6458316165974,1.7314255986892317,-7.2461749013428625,-0.5244559040683257,0.7563404847392281,-1.0493717790149033,0.0554645022277383,-0.021469875307615443,0.04456175792937478,nm,0.0
2.91076922416687,39.701969053147444,1.8283258253834156,-6.937018732052843,-0.46028530226253517,0.7399757341278347,-1.0672462217258287,0.0,0.0,0.0,nm,0.0
2.9337973594665527,39.135991786761835,2.1638869742401696,-6.395862423087548,-0.21913453701800273,0.5686766083479357,-1.0217165156187513,-0.07140179926680874,0.03395088706789427,0.047370206760428094,nm,0.0
2.943188428878784,38.48795235591102,2.1633224535742537,-6.070116573501016,-0.11144477444804121,0.36884640930301227,-0.9007581281823956,-0.12259391886660076,0.007529749873409498,0.05887244123477942,nm,0.0
2.9454867839813232,37.645741568821535,1.9402354913621016,-5.668510841246181,-0.014296655097889048,0.08518590993522841,-0.66833455824435,-0.16582919192582424,-0.03376462003868362,0.07532628050900232,nm,0.0
2.9539599418640137,36.65626369618137,1.5327846151274975,-5.180185241635951,-0.03389514656138134,-0.3060105240505949,-0.22899542935220238,-0.19836250730808166,-0.06920646562182152,0.09282116759345245,nm,0.0
2.979543685913086,35.536363004522585,1.0517784202888925,-4.643516275783072,-0.0549169377533238,-0.7673395020013292,0.4022004098167584,-0.22497638039311418,-0.08362817839205772,0.10173942861862599,nm,0.0
2.996549129486084,32.85595055624073,0.4404739457454793,-3.8682076313362614,0.015465394314036795,-1.3994109872577978,1.6701196330191759,-0.2810420377435205,-0.027874858538117973,0.061546405125665775,nm,0.0
2.998774766921997,31.300366341093273,0.5095097253705612,-3.8837785556044997,0.1562852092627215,-1.3791499091110173,1.7941656536659811,-0.3030271020607085,0.02761444092680397,0.012435014833133005,nm,0.0
3.002197265625,29.976957671811512,0.8079085449716028,-4.161687554790376,0.315757571782049,-1.2426024180752084,1.787279432877133,-0.25338470975651073,0.07065353015779764,-0.03892510356015148,nm,0.0
