timestamp,roll,pitch,yaw,acc_x,acc_y,acc_z,gyro_x,gyro_y,gyro_z,markers,motor_input
7.516381025314331,53.513553567795135,8.585148118765199,-5.297918727204867,-1.09893518722976,1.3672679284508966,-0.5785472602161335,-0.07630323204263578,0.06988902264004031,0.05197062060194612,nm,0.0
7.527023077011108,52.958748691268745,9.42483416156003,-5.05676969429885,-0.8226383724315401,1.2323594506918876,-0.5714797800291117,-0.08905281864272135,0.17413164334988487,0.05250595509786043,nm,0.0
7.590333700180054,46.62697596256346,10.835194148802026,1.6832845560510892,0.17737806950989266,-1.2249756581890667,0.8893181610200716,-0.27613260299293513,-0.05246008661949988,0.3379862626152737,nm,0.0
7.5998125076293945,45.01641553459744,11.242501925235935,2.8496081453095288,0.4040267804693352,-1.4784837084409888,1.1768229633638732,-0.314352499192342,0.06484450367739408,0.2825184655769626,nm,0.0
7.603903770446777,43.39907962674821,12.18196965695718,3.365610761669181,0.7294070194375446,-1.5065856492515581,1.2413765152349432,-0.3216874532686417,0.1664444102816458,0.17212942838466244,nm,0.0
7.630414962768555,40.984044085180216,14.154583991868336,2.85096266554186,1.2227893867062234,-1.0933752423652319,0.6820990720920044,-0.19045311553938193,0.16088906394081764,-0.04311611396500397,nm,0.0
7.637024402618408,40.81836118962,14.49569994488276,2.4763012129886977,1.095741565155339,-0.8318201466983669,0.5097459597652467,-0.030693131372173478,0.06163736032492139,-0.07956412953504928,nm,0.0
7.658012866973877,42.59437876536323,13.05865268191937,2.2444594128167465,0.32713079003888734,-0.307739305602564,0.2846342413542263,0.2528947972219011,-0.19888284714321616,-0.09746477712282818,nm,0.0
7.673478603363037,46.52110438898039,10.949299184349504,2.2446429897424953,-0.40157955358621034,0.16037783906508143,0.20804156482947386,0.41496025675872833,-0.17742981719558154,-0.14496514423395174,nm,0.0
7.691234827041626,48.55094168641218,10.449963403902945,1.6545751085733558,-0.4402234347749659,0.33479346039626234,-0.11592163714621617,0.40796698304865475,-0.08951550721271634,-0.23287262758639962,nm,0.0
7.693138360977173,50.583288580107165,10.509510802014486,0.5269994266138102,-0.27506229307953994,0.32947231062615956,-0.185845455470362,0.40506372969336657,0.016434389471030632,-0.3255621458813901,nm,0.0
7.719175815582275,53.49134286785664,11.394442621641259,-2.5837795655968514,-0.07123966136534692,0.47410008303695544,-0.7752972146477649,0.26037741237386197,0.0752845077503819,-0.41346732594762875,nm,0.0
7.733802080154419,54.79293350296143,10.938708139848618,-5.444738260425725,-0.41168888102574613,0.6572421450879526,-0.9091243340525282,0.07779241604307766,-0.10931808207330627,-0.3046200904972482,nm,0.0
7.750166654586792,55.01135037144401,8.58972020679203,-7.017186654748914,-0.7081402926637019,1.0825462259125693,-0.8110006615317437,-0.02857783766337281,-0.2635265417090647,-0.16196687296566517,nm,0.0
7.760031700134277,54.76214687696783,7.392420058478548,-7.353440095230447,-0.720932570567689,1.2011689938123415,-0.7705312830122175,-0.07327713405042384,-0.23503095834342727,-0.10565613606586664,nm,0.0
7.766333341598511,54.271534248375474,6.488083692073176,-7.7496078577186,-0.6451549203912537,1.167475460907546,-0.6229079242470529,-0.11472887474028609,-0.1702084970940447,-0.10332284571600582,nm,0.0
7.7877442836761475,52.33912816680616,5.390538640234067,-9.42091004027171,-0.25125423049898626,0.7419467395353521,-0.5454998176832023,-0.2181210723342463,-0.06022725190754309,-0.20034989472232514,nm,0.0
7.793871879577637,51.10279524756155,5.030299509970557,-10.369448366379812,-0.2841995638014384,0.4074073960941976,-0.43181175619023004,-0.24964222515452117,-0.033116268231538855,-0.1861080877684877,nm,0.0
7.821264266967773,48.02633308884419,3.9663901993525403,-10.992883529703521,-0.7422631014199584,-0.5651942032972551,0.5007885850904822,-0.34206869043182375,-0.05739240291143724,0.014663071027047132,nm,0.0
7.823421239852905,45.94902988782433,3.5422966535902294,-10.075213145121047,-0.8484726475054086,-0.678007540129604,0.895258294351695,-0.4178315532927962,-0.012556057236901326,0.21904103046303341,nm,0.0
7.8482513427734375,41.55502520258712,3.9102388486770447,-5.961324523488016,-0.3501955066171224,-0.4733597869657855,1.1388693974341986,-0.3971627671329114,0.1278223206510346,0.5150213164585299,nm,0.0
7.850722789764404,40.07140769183725,4.791266448807436,-3.6690906361389026,0.1650445338375387,-0.4913604753523065,1.1090504141209951,-0.2739013572430652,0.19561505543805366,0.5214641984585756,nm,0.0
7.877812623977661,39.89812396902755,7.404500440938578,-0.2964288151160962,1.1392604173804741,-0.7067202143853423,0.8323315613535655,0.0871042337917584,0.2641320747845369,0.29686032573522336,nm,0.0
7.904856443405151,42.44571977233472,9.275571027324126,0.8615643954165728,1.41462033046894,-1.0544273674258826,0.5937599624943197,0.30045679869771313,0.14259841822174313,0.019257133022835077,nm,0.0
7.974308490753174,51.09486327968816,7.823840934045173,-0.4384791488852388,-0.16742904475926412,-0.6040224625256233,0.03746206170515342,0.44505307889569923,-0.1153374193301032,-0.2096158226544819,nm,0.0
7.977538824081421,54.3861909656292,7.7521639424986235,-2.288937323568954,-0.19210369816617556,-0.12151768960395534,-0.38130461397112,0.29528207506998266,0.024565559326369522,-0.2834659413066651,nm,0.0
7.981161832809448,56.31483943298826,9.120060207120638,-6.2927154063369555,0.06688417298500823,0.5826731019596688,-0.7731504707278293,0.06594945763793326,0.052196559706063406,-0.3039458415659226,nm,0.0
7.997442722320557,56.218086003878405,8.236806569019018,-8.674565019129522,-0.5007194529362421,0.9977532736582142,-0.6411482100594762,-0.045908985062822615,-0.13204935740893844,-0.2540512921647337,nm,0.0
8.008970737457275,56.051700251222464,7.361210828692884,-9.43203349493801,-0.9140503160242539,1.2282438403108789,-0.4825927290554712,-0.05460203336181857,-0.17120997622912412,-0.19351772639173268,nm,0.0
8.027328729629517,55.46322738660734,6.150777886097729,-10.268518928642754,-1.3431655572911356,1.6240170458635177,-0.45167797502970713,-0.07336293405328517,-0.07832654780171713,-0.07772693354828354,nm,0.0
8.063349962234497,54.86554664916949,6.557617635387239,-10.10337366173614,-0.9061454058657751,1.567611255823776,-0.5663365882240599,-0.04002396604216656,0.08380414963167061,0.040319992523821076,nm,0.0
8.065519571304321,54.12955070775182,7.291627014195144,-9.131466106494914,-0.23841133300673864,1.0334434322034294,-0.6651344922703579,-0.06426474808997716,0.06108119333394011,0.13377751068203386,nm,0.0
8.093159675598145,53.089459539647365,6.687576747603958,-7.095682177482762,-0.12174446071966473,0.23257107551887274,-0.44867270385706565,-0.12268481780271702,-0.08558436395369541,0.23938099857068224,nm,0.0
8.095326662063599,52.26148527034196,5.9765214480015265,-5.741753139105436,-0.2445180732908308,-0.2539265364498338,-0.1499732024356265,-0.1739430200502218,-0.12652886577073594,0.2834708995285398,nm,0.0
8.121808290481567,49.41765961659936,5.323961551661934,-2.362434601402589,-0.2878791542815182,-1.1939244593088374,0.7670228119306545,-0.32895060624539874,0.0007804842361304942,0.3969933198011792,nm,0.0
8.124090909957886,47.12648122176986,5.931295530523167,-0.4225113001844322,-0.05448526263677853,-1.3931091360985457,0.9329860265657992,-0.4474499364552585,0.1287169040772795,0.42100650077606233,nm,0.0
8.15734052658081,42.79335519110714,9.004472921151644,2.893658958764437,1.1764762774623327,-1.5935559580046508,1.2438182637540387,-0.40423409646817143,0.34135111686280967,0.3523177061406133,nm,0.0
8.18747615814209,41.161586479606946,10.850351020373756,4.063133912595138,1.6321046893191382,-1.3130673392764822,0.9107195214589598,-0.33826026798911224,0.34468028458529,0.27800201995202245,nm,0.0
8.18960428237915,40.02467514062878,12.436296058595964,5.1746119116062665,1.5967201053272724,-0.8400175016981617,0.5996264113376688,-0.03481719688984894,0.06173060387819315,0.07464213389967382,nm,0.0
8.191590785980225,40.638456091741816,11.99309302562263,5.373248539966981,1.0489229009226853,-0.700821398588717,0.5948187248215566,0.13318363559094473,-0.0821850791608847,0.0012966344647349815,nm,0.0
8.194000005722046,43.89391194264807,9.787410925155289,4.700081062037425,-0.19061123565161914,-0.28689354402799555,0.3787797793851003,0.393154067125795,-0.2117812102931839,-0.1929326424377983,nm,0.0
8.228147268295288,48.87268173023742,8.595821643918178,2.6615785984054914,-0.638578427619858,-0.0020062939297614147,-0.01318471147310453,0.5357854566865169,-0.03473793824231754,-0.31908750143040754,nm,0.0
8.231103420257568,51.29728547374429,8.708207504946042,1.330442529746936,-0.4756959701733959,-0.09833791049882105,-0.21038326360505386,0.484546790604401,0.03632719443149939,-0.36321291088292024,nm,0.0
8.248393774032593,55.430171324381575,9.059018915854915,-1.524880351481738,-0.10195132823437358,0.06409472191456751,-0.6499028350994719,0.38460837065567854,0.012174421931405464,-0.3652461189034945,nm,0.0
8.250925779342651,56.61849615521851,8.692743026669323,-2.8353686443385206,-0.07477325496402383,0.2924487914903364,-0.8423906318273718,0.23760559781543245,-0.08446027585967814,-0.3299038734275067,nm,0.0
8.275897741317749,56.73199899933881,6.628314013177981,-4.929024563675049,-0.42716493316172055,0.6329721508897052,-0.623959877209453,-0.07272396477035155,-0.23230479889074498,-0.19896803831969392,nm,0.0
8.300955057144165,54.45763382565322,4.32055475339333,-6.5596956569103355,-0.7404388353688135,1.0180882719731894,-0.30223633154531904,-0.29668724117703194,-0.18411084777771344,-0.1707964070426377,nm,0.0
8.310263872146606,52.84178329032598,3.6801342778071575,-7.475560785203368,-0.683186812169607,1.1984607546944297,-0.29759610857339025,-0.3298628095127774,-0.0915877605742887,-0.1733371797066418,nm,0.0
8.325942754745483,49.5100501359674,3.3702628148143225,-9.35216037029794,-0.4988683368786038,1.2034720761236184,-0.22832856075240146,-0.3246407994482714,0.030770512047712698,-0.18491014485124874,nm,0.0
8.32790994644165,48.0064361124582,3.2625348751281398,-10.162027119053409,-0.3834261611908571,1.0454767141691992,-0.15145089765955183,-0.2939845636632651,0.024666176053579403,-0.15696636204399908,nm,0.0
8.345003128051758,46.74358873675431,3.11594302047382,-10.50391909739605,-0.40408384127747055,0.9290419026704795,-0.07573560423506583,-0.2477835332488504,0.011121262098567779,-0.06648801519205828,nm,0.0
8.352585315704346,45.702911503296484,2.9143774829833053,-10.246853692216717,-0.5319981389258454,0.6970683974053822,0.12592228892829718,-0.20605724297692493,-0.007675835483255578,0.05046426920234768,nm,0.0
8.362195014953613,44.82903108457675,2.731109183915397,-9.455420827094342,-0.5962714555712796,0.39772969841695993,0.2784493570937711,-0.1724821285704036,-0.011661802147257268,0.16999045472927643,nm,0.0
8.371198177337646,44.161756642011866,2.7818833863625607,-8.102733929442062,-0.5594340342927361,0.04682573053007723,0.4213297314551808,-0.12421215241258297,0.025067656994066632,0.28714325704582444,nm,0.0
8.388442754745483,43.22921720906133,4.02945349246572,-4.578911312048285,-0.1415325053671635,-0.5604058448116106,0.6564245678355907,-0.07130561992529372,0.1654809236479549,0.3809351182702359,nm,0.0
8.415572166442871,42.97209716119907,6.555663695625259,-1.8962981379725143,0.7099304201467361,-1.2500027146245032,0.7294113272572066,0.029286470777604462,0.27401999882218747,0.25632131157526183,nm,0.0
8.417715549468994,43.40865006132285,8.03148875331672,-1.1129726115833611,1.0943616410338388,-1.4323188290040458,0.5961352816465533,0.10050980855901329,0.2882269462007257,0.16616288811710075,nm,0.0
8.420682430267334,44.19512178221335,9.279998175836143,-0.6964912445259807,1.3157271965096586,-1.4188425509418583,0.34951302363078096,0.1652991889324098,0.24273244538827668,0.07147287388284859,nm,0.0
8.441784858703613,46.341392735564085,10.14293949386937,-0.6923304000064137,0.9605854145905094,-1.1841435259309565,-0.03497994741017002,0.23355887728424288,0.015531310273800076,-0.08161321411117647,nm,0.0
8.47839617729187,50.54638905085142,8.510473197970253,-2.184652626728145,-0.3289521316389059,-0.44044825285425737,-0.14677421406377245,0.27862173096437637,-0.12335807024933396,-0.22359096999551725,nm,0.0
8.495195627212524,51.696025073598875,8.314138134348408,-3.1332575332994557,-0.447187807387683,-0.22288977721783543,-0.1943659016209819,0.23116588083427603,-0.053028763445424267,-0.26277877556907486,nm,0.0
8.498409748077393,52.91837439497427,9.14083789838036,-5.549337085551175,-0.21246023130764413,0.23174749599574526,-0.46481346756522457,0.09573963996058882,0.10130999975883136,-0.29391123998634283,nm,0.0
