timestamp,roll,pitch,yaw,acc_x,acc_y,acc_z,gyro_x,gyro_y,gyro_z,markers,motor_input
30.026753902435303,-16.785885552574445,31.715095787552176,120.57120508100373,0.21620484564380432,-1.2224078358667396,-0.38708461315123416,-0.006201042908719402,-0.08284879276020427,0.1550237589809964,nm,0.0
30.028844833374023,-17.253750826027115,32.060255810498425,121.18711495002704,0.11984195770700606,-1.216611026573791,-0.4701273881929969,-0.010830543226104829,-0.09268684991329322,0.17677538602694023,nm,0.0
30.031299114227295,-18.212303741317697,32.701036897066594,122.24545388589212,0.0157209990720146,-1.1124351721220112,-0.8046757152807201,0.002385613718279044,-0.0804852660209943,0.15585891935214294,nm,0.0
30.056580543518066,-19.03909060775841,32.54960286807432,122.74711796100202,-0.25179611276496994,-0.7701345843113268,-0.978638396564193,0.07558256858038619,-0.02867655293636249,0.062336385359881764,nm,0.0
30.05871343612671,-19.31707020819998,32.09551279631417,122.59636804740614,-0.30003118350022284,-0.6198698286977375,-0.9663603388887696,0.10928422284692575,0.02100523325076856,-0.00522207381543614,nm,0.0
30.097320318222046,-18.779413843809284,30.355488031076174,121.8344080948965,-0.2688774374512272,-0.26499849038519935,-0.7944867854005108,0.12314832635798736,0.18233251167899245,-0.11690171925205324,nm,0.0
30.09935235977173,-17.721788303689927,29.507208073803348,121.53501190231181,-0.1120389365564119,-0.1486039616949894,-0.6078669453408828,0.05581777708315519,0.2568212181626056,-0.15387217959622365,nm,0.0
30.10129737854004,-15.931086422625848,28.81493126992584,121.52757693127845,0.03892444044452599,-0.05459601457884886,-0.35599781309805023,-0.03801503213851049,0.35073550078101035,-0.1758535040034064,nm,0.0
30.118529796600342,-9.775632700244648,28.215881859948194,122.13951923264833,0.13383070179452183,0.10603475425146344,0.15006728033361008,-0.30162002579538166,0.5561897901967372,-0.24034932219761063,nm,0.0
30.13287615776062,-2.5119175761551125,28.87647372593006,122.80151374721301,0.5141260785437912,0.7262726702409996,0.5438741721360209,-0.4023344712325538,0.48076340125757405,-0.24263665939795154,nm,0.0
30.149789333343506,1.4832477693274266,29.524647509173235,123.26879139168149,0.3607016671874368,1.1212861019877796,0.9820132796317215,-0.4823108819242452,0.5241656259736444,-0.30515376045872883,nm,0.0
30.21289873123169,9.736374957026198,31.667799224225213,124.50535387634794,0.6851329559518732,1.839757751688645,0.9389217766004062,-0.30934420835157306,0.2370222448591407,-0.14485083041352018,nm,0.0
30.215187311172485,10.793966610420926,32.14136877564172,125.12882870160703,0.6745258966957443,1.759220590216528,0.8865154791643656,-0.17373077331467443,0.10122401794607619,-0.016658699628961562,nm,0.0
30.217729330062866,10.754682696116186,32.40601792691217,125.8130606760498,0.7059084517511871,1.5448068352636863,0.6666661449756403,-0.03245054890756922,-0.028261463279747434,0.11413372689436935,nm,0.0
30.22103786468506,6.079699220700449,32.57784584972384,127.84206417991123,-0.035138989705198076,0.7781675403055266,0.7188052142900359,0.2452187233664334,-0.30129378089079967,0.34483515921272734,nm,0.0
30.240856885910034,3.5754461043124626,32.53192431577561,128.28975579636457,-0.3343405025204221,0.5206254972603094,0.7495768982849024,0.2748680952877119,-0.31768671020008893,0.3323120905018809,nm,0.0
30.24904489517212,0.7784320828111504,32.41754505991214,128.47146508537665,-0.4569092626547363,0.262786695561322,0.6251061631184656,0.31831625115283396,-0.3463346464265195,0.31319569058983227,nm,0.0
30.251079559326172,-2.167107462851944,32.19720043820881,128.41393657258612,-0.2878594469819147,0.07130109158885212,0.28004713230374473,0.35155747445902097,-0.3526623928236211,0.27592538126532284,nm,0.0
30.25450897216797,-4.458201899771581,31.870149456968235,128.22017629392553,-0.26526932925977376,-0.10929730430568696,0.12585990815953738,0.2994766595501163,-0.2538682757612506,0.1760376360314758,nm,0.0
30.286932229995728,-7.751349492590348,31.08172368372433,127.73554983698793,-0.22332026214597323,-0.3573387050249289,-0.12795691279639762,0.23672157987805734,-0.15598261196932955,0.09903115114484039,nm,0.0
30.3009831905365,-8.535217803096904,30.732691795620724,127.62834076572365,-0.22843429262350906,-0.39019213729664504,-0.1444061100541247,0.14428608200453855,-0.05285847465419061,0.05255242070680266,nm,0.0
30.304612159729004,-8.833528583505613,30.33053172760969,127.97855838075122,-0.10194006776713671,-0.4158523849684913,-0.20871623379546117,0.03496010583132528,0.020782115221064153,0.04900735593255663,nm,0.0
30.32322382926941,-8.538680419650506,30.279184520371867,128.30805771913404,-0.08476588306107312,-0.4916986936600601,-0.11698513069945306,-0.016941498268877475,0.05757756117282946,0.029573783955666122,nm,0.0
30.32778787612915,-8.338899100895771,30.255427128932407,128.52409249668645,0.03697608747344251,-0.5682412283529105,-0.12591942296988093,-0.01131125599688944,0.04117472725690545,0.02843199101830909,nm,0.0
30.346919298171997,-8.580506159753956,30.33618437048047,128.7117279398282,0.1963103849520923,-0.7376870203461484,-0.05750557286174828,0.0,0.0,0.0,nm,0.0
30.354591131210327,-9.15279103838573,30.470970985836225,128.67343435965532,0.38632664867081506,-0.8581434574215084,-0.3566788732062252,0.04717500962246066,-0.08277958008445709,0.026592559239133437,nm,0.0
30.388869047164917,-11.828371143072603,31.937840632380023,128.82566662004828,0.36531475619321635,-1.1193646015419192,-0.6288211855400304,0.02217187034917763,-0.2017594391568958,0.11995366581753274,nm,0.0
30.39188241958618,-12.835337943917322,32.4805174809397,129.02573676502283,0.22005243394813234,-1.143790862186448,-0.6005317089620951,0.029067254169162535,-0.1895307346174026,0.13318936469425394,nm,0.0
30.407644510269165,-13.888161500721901,32.93282483258799,129.16159287261252,0.172201718943102,-1.192533055166494,-0.6348635789070374,0.04797305139192826,-0.18320237809607098,0.12284913944791855,nm,0.0
30.409852981567383,-14.963264797059592,33.20304851152641,129.0663850668201,0.1745595705536681,-1.2116257731113769,-0.7228544693217525,0.07818831486801113,-0.16241706099959854,0.08334438443866082,nm,0.0
30.437360763549805,-16.989450532181003,33.029488136152985,128.05651451507046,-0.0047914997389667206,-0.9946409024273704,-0.763935750512881,0.1397490829571134,-0.09314609129139277,-0.03266339663513895,nm,0.0
30.439483165740967,-17.694907165118394,32.64187937372522,127.34252535938933,-0.05189004850114497,-0.7911546198391457,-0.8035856115999375,0.14048172021082184,-0.034525776318232955,-0.08029030767929315,nm,0.0
30.44862985610962,-17.913646509387537,32.1101237501403,126.72859655047162,-0.09798817704942535,-0.5526340705661779,-0.8030286597130055,0.11383904478065401,0.046488659063762164,-0.1045035447948253,nm,0.0
30.45472502708435,-17.544984553953963,31.55519171498703,126.43086699937584,-0.08219353116634798,-0.3268227792640696,-0.7615576210903964,0.05846536159993312,0.12845028324328947,-0.10363310967242052,nm,0.0
30.474373817443848,-16.51052889926158,31.058141257023657,126.53827827057272,-0.03613352825443263,-0.1759073719970778,-0.6388543627134378,-0.018609763224106565,0.21329093654115078,-0.09139095613907863,nm,0.0
30.491689205169678,-12.734352925742444,30.2496289043086,127.76888437077739,0.0010574018491376507,0.049723559445684795,-0.18282844873469414,-0.15888662240283025,0.3476532273270887,-0.07383958035526345,nm,0.0
30.50252938270569,-7.018476053599077,29.896223272511712,129.1964016886267,-0.24574136717231973,0.2715105730224724,0.6361039170871136,-0.30394285830831247,0.4381737475951389,-0.15997684286702094,nm,0.0
30.519394159317017,-4.479020897110239,29.840242267940674,129.7036790857168,0.14078750817996277,0.6756815330759699,0.5174993830721794,-0.26521901755304816,0.358657991443141,-0.14844865701257065,nm,0.0
30.522583484649658,-1.5189677100845236,29.889270363012336,130.13169866029327,0.15042224296259163,1.0040572488855304,0.7105566726735728,-0.33117538886704445,0.3986205294580206,-0.21058992915434144,nm,0.0
30.53215217590332,1.5334123483463458,29.98174673519701,130.50644879247162,-0.10823823052886455,1.3635006431928904,1.2475733948569505,-0.3507373315217727,0.40217874266347353,-0.23244027701973446,nm,0.0
30.539385318756104,3.849330576290372,29.999563316138676,130.8396139575533,0.13063240669347703,1.6474646610516621,1.0134465353610704,-0.2585415149849053,0.31221822822453643,-0.17389899084171254,nm,0.0
30.55600094795227,5.768457844007119,29.876815970826257,131.15129077122742,0.07652737321675132,1.8095642395653164,1.0442500207781606,-0.1940482210616134,0.2771516126592128,-0.13847825967263455,nm,0.0
30.55826687812805,6.838708600213954,29.59660858390321,131.40161984162972,-0.017441841154466876,1.8320414712363,1.1088163809223959,-0.07479856784493237,0.18643753831468005,-0.06540781378567026,nm,0.0
30.5830135345459,5.954347700558418,28.539878834136417,131.55494019201404,-0.056464598865454255,1.4309672082295606,0.8602484197081677,0.1909111702305651,-0.016828705695704972,0.0730471943058718,nm,0.0
30.592854738235474,4.322704093518887,27.86519812636074,131.4320976546856,-0.18099312897933337,1.1476730433467415,0.8985983211673401,0.29771017105625613,-0.11611040832368255,0.12119064562385168,nm,0.0
30.619271516799927,-0.18943829908339635,26.58143919359922,131.04304248409238,-0.23620646698930145,0.46925449379094936,0.6696759642752715,0.3715163654659148,-0.21848617063727005,0.14453270857047976,nm,0.0
30.621447324752808,-2.55274172843014,26.03070707087617,130.83419477018626,-0.21285773962685578,0.20851725078757344,0.47167596939662937,0.3671887221842304,-0.23696320593702716,0.14710077983743863,nm,0.0
30.628838300704956,-4.643918803572216,25.6230398913227,130.72448993660134,-0.2357716549187583,0.05038918074001697,0.40034345942608773,0.31389263304809073,-0.22058498725049394,0.1382383809934752,nm,0.0
30.63858914375305,-6.488677931003347,25.408291569606362,130.75189707076814,-0.26342086847704127,-0.02545650363648443,0.321407999789988,0.2560207298195964,-0.21279860701929768,0.13973272970330658,nm,0.0
30.661259174346924,-8.65666739576395,25.355296998538734,131.17254228646357,-0.32113782199140983,-0.17460339038844014,0.052752271757332075,0.09117191047943841,-0.0888613894894276,0.10211197513735742,nm,0.0
30.67739772796631,-9.738183066386425,25.437659705569814,131.8494346343943,-0.08796040070556244,-0.3832942946981248,-0.3115728748970414,0.0537462333520576,-0.05518349952921947,0.10742418708165331,nm,0.0
30.694658756256104,-9.883015984656092,25.442643480080537,132.30462907265462,-0.10330414585929629,-0.5734083943321828,-0.20073757734240474,0.02209694189024748,-0.008027435620509442,0.09767505097596083,nm,0.0
30.698344945907593,-10.037606024587019,25.47462432896956,132.82968292351765,0.07060388501348311,-0.7178081158707253,-0.3492642742444054,0.01936678602291974,-0.012777030974978964,0.11253378123479076,nm,0.0
30.714843273162842,-10.11337179748031,25.679327952982835,133.41948041278346,0.19023708438002285,-0.8636592410222437,-0.44063778681587074,-0.015506594547773261,-0.02582967510431025,0.11873600235930469,nm,0.0
30.73258066177368,-10.419993914700825,26.617552314855054,134.6546910788063,0.26836920286844695,-1.1108794324771434,-0.5224592634536823,-0.040837019056675125,-0.09266241309896033,0.13746843350854557,nm,0.0
30.85980796813965,-10.479410604458256,26.369945354407708,134.41581852043558,-0.2890672124734828,0.027137089767147717,-0.20048457645625503,-0.15317913882364295,0.2530663196735114,-0.09914157854664572,nm,0.0
30.861934185028076,-8.656269663378213,26.14275404678067,134.65713798262547,-0.2905091960325316,0.18220189921984065,0.05740340429954099,-0.19239235394762955,0.2774616675897803,-0.11945042449176273,nm,0.0
30.874939441680908,-3.9891555172979616,25.909794546202033,134.77600527076177,-0.4059450213537278,0.4649688053140058,0.7289256657476552,-0.3105507780689783,0.3533216347043635,-0.2359913273458253,nm,0.0
30.89236807823181,-1.696632249678271,25.872195308918506,134.57345203847214,-0.28212243709096463,0.8152395577330005,0.988970107927954,-0.28014570860103405,0.3104014608974559,-0.24850043034053323,nm,0.0
30.898850202560425,0.716954798561139,25.9133580627173,134.15996602971182,0.05554043257957575,1.1629125240455347,0.8537457488263771,-0.30462397858573026,0.31651900290836266,-0.2750865329094738,nm,0.0
30.920684576034546,6.211061568392624,26.184415031025747,133.62437014085043,0.09188423243544808,1.6503374582285424,1.2759085991499763,-0.3299907983526143,0.31903119993071993,-0.27356208983845154,nm,0.0
30.92276883125305,8.398898483890893,26.251963455181787,133.4341201143135,0.3112190912273007,1.7437721817521206,0.9468658204162709,-0.27550500787378646,0.28561704290713585,-0.24089881261489685,nm,0.0
30.932812690734863,10.19217918516595,26.210705113930498,133.20609557548036,0.2497942744276291,1.759344363489402,1.0638233218630329,-0.20999812979714413,0.24972014997791273,-0.21391251877451214,nm,0.0
30.94228982925415,10.89460937128583,26.064566005162384,132.83393745502124,0.4151224184734041,1.6250325905097232,0.7845677566731248,-0.05971478705174151,0.12184979644774736,-0.14609107372995367,nm,0.0
30.955108404159546,10.712425686019602,25.824789687760614,132.30580114369005,0.483920448467444,1.4205797590797624,0.6375327205742346,0.06268937612027596,0.017874373643884247,-0.09932770116965224,nm,0.0
31.004902124404907,5.712951546694577,24.994621853837067,130.80439111060787,0.2169787265343589,0.6075818186242181,0.6117478116544569,0.31174989911189943,-0.2569632852641092,0.07975025722678257,nm,0.0
