timestamp,roll,pitch,yaw,acc_x,acc_y,acc_z,gyro_x,gyro_y,gyro_z,markers,motor_input
27.04728937149048,-22.22900285286039,26.450819617645905,130.3934008226623,-0.22117511895775963,-0.5557032998729361,-0.8716444048775832,0.3027607825052848,0.21365221573790827,-0.15762237001338164,nm,0.0
27.050427198410034,-21.91024255468769,24.818465048614488,129.80613119619375,-0.11648184559504188,-0.36266728081581434,-0.6875908577349916,0.2184047422330008,0.26754849640044687,-0.14293693792713524,nm,0.0
27.052401781082153,-21.026151838049802,23.543204200508846,129.58530276389402,-0.06125713978957653,-0.26252303349170164,-0.46065354408729536,0.0988498542211734,0.30034234082435124,-0.11130895334567886,nm,0.0
27.07460355758667,-19.70901989067639,22.670136214969293,129.61845615967863,-0.02158367909199791,-0.17212289503123435,-0.2844750528526635,-0.01421081970370498,0.3113279500201462,-0.07545839147191279,nm,0.0
27.07973003387451,-15.60925506424393,21.887508578187177,130.15696604797427,-0.18851021459878922,0.09389991129549656,-0.0687923265332893,-0.23610662649926878,0.38376278786106266,-0.09605865353098243,nm,0.0
27.081623315811157,-13.272945027626704,21.71637789419486,130.37954513532745,-0.27074495117784253,0.3642654414779738,0.13412868038337705,-0.24892638951768833,0.3664092462721645,-0.11096397627172296,nm,0.0
27.10883092880249,-8.086352387931985,21.458353295556204,130.38635202550137,-0.2805375740119925,1.0549901158422537,0.6800571806544385,-0.32139823991735156,0.4311882547260887,-0.18138315937057448,nm,0.0
27.11105513572693,-5.4916049733600865,21.383635004606834,130.25048266405904,-0.19685764895465396,1.3552434109196199,0.9917213016148148,-0.2951976444958158,0.3911121997210445,-0.1643056586370293,nm,0.0
27.121406316757202,-3.2155113602983136,21.314163988330687,130.25764638724482,0.05915809999140016,1.6319542814028256,1.0216350145704558,-0.257658714459929,0.3451005007350724,-0.12616638325905294,nm,0.0
27.154461145401,0.49063371542413103,21.15284765557466,130.9245063088747,0.1786768261601065,1.8251737500191934,1.234166177531535,-0.172309596613869,0.244322352113392,-0.030516366812569005,nm,0.0
27.156736135482788,1.4590879790203386,21.050994710894855,131.4140847675383,0.2684526812587263,1.7839451413601024,1.0238784920780621,-0.09869165125942009,0.1607934307851695,0.016688404482288175,nm,0.0
27.159425735473633,1.909503945220074,20.926336748792924,131.873310917445,0.18213770111731978,1.657958704236003,1.0084824899714462,-0.032361066763345506,0.09067548789086391,0.0398342392738594,nm,0.0
27.185479402542114,1.1056611279901536,20.653636971109087,132.32327219277036,0.0366228428335364,1.3018203180662786,0.7357410525988448,0.10062825554310216,-0.05536639070357528,0.045188660519436104,nm,0.0
27.18760085105896,0.1940510492285178,20.56985128386254,132.30987126130327,-0.06837397512674905,1.0414903544485137,0.6163056560758357,0.13247187211578373,-0.10351460807260482,0.032774484402158174,nm,0.0
27.196446180343628,-0.9550092975023257,20.50925167532845,132.16302743352762,-0.06665794210093141,0.8396285989757832,0.3909501067843714,0.1589187124055264,-0.13972158101062943,0.02586353210820827,nm,0.0
27.273012399673462,-3.703614377304527,20.92420493439881,131.80429619329593,-0.13976817932588503,0.45287175412634156,0.029916849001992752,0.05352928008105258,-0.13006680131297552,0.02317108431049993,nm,0.0
27.275352716445923,-4.491610142114455,21.88997467197337,132.0021818360686,-0.17832323176453163,0.32929569846454565,-0.13883017151793856,-0.03865047108436677,-0.1016186875323217,0.01579419416488748,nm,0.0
27.277883768081665,-4.615383743102406,22.485555956939464,132.02940450785843,-0.1907389143769012,0.2153216215498508,-0.15229893127952226,-0.0680434608361418,-0.0851857775374559,-0.005536135125062485,nm,0.0
27.280418872833252,-4.7773013819845005,23.543446674683043,131.69722630605364,0.02727466382880265,-0.08754088299711546,-0.19165569918713948,-0.05918183142885804,-0.06658192030308423,-0.05343317096422503,nm,0.0
27.282410621643066,-4.907567038293071,24.044380056704792,131.40855476003097,0.10874264887697807,-0.3119032921697679,-0.15999674147362317,-0.05381378395661145,-0.07283909920925484,-0.06294125147507273,nm,0.0
27.303180694580078,-5.253469692432205,24.575016709815344,131.15778680814145,0.24833077920607513,-0.5759846188284398,-0.18802179316692344,-0.03264917461862222,-0.10602266639837667,-0.04171023255375014,nm,0.0
27.305468559265137,-5.967294084737857,25.146188486924814,130.99607332165098,0.25050923474068715,-0.8126658874041708,-0.07943352789455145,0.004634480514009647,-0.16138040833263725,0.012155081191784427,nm,0.0
27.378366470336914,-22.01481656517065,28.792436560134227,131.38250037378072,0.03912672961087362,-1.997159163528199,-0.8807950815844012,0.33006995829149977,-0.26087867830592953,0.05868574982904229,nm,0.0
27.39451265335083,-24.02864782634983,28.08936784326971,130.33594796523323,-0.09969426282277476,-1.6532436384187263,-1.0895432463902939,0.34379563996779944,-0.16288905381440866,-0.03443159857366285,nm,0.0
27.39712166786194,-25.44877284826248,27.037676993155998,129.1755631038632,-0.13987656109539645,-1.1724193270292447,-1.2731527838317072,0.3285189172098283,-0.04591820895398171,-0.11382708844329947,nm,0.0
27.405235767364502,-26.029912135838927,25.80145578937979,128.03955897332293,-0.3134191347336788,-0.7780394857548444,-1.1743468536353245,0.2640248760403572,0.08611104768749006,-0.17848923664328303,nm,0.0
27.43080711364746,-24.926450875385406,23.31730954254585,126.45751472809381,-0.19658523927946125,-0.12863427591872884,-0.8738110641170426,0.09001703333522616,0.30278270194551465,-0.19291054243758743,nm,0.0
27.436187267303467,-23.143153787299163,22.33355752926201,126.1802854700833,-0.25390486262790135,-0.030968591926889874,-0.51718965598886,-0.02996686240302095,0.3947754579838121,-0.1812287256986612,nm,0.0
27.439206838607788,-20.86774849278853,21.62373868528022,126.12457761081407,0.019394140730834522,0.0921404484543049,-0.42032671360448287,-0.12797875669373845,0.4379151348714993,-0.16032958850278403,nm,0.0
27.450982809066772,-17.79726318413305,21.16815929546691,126.23303073794024,-0.11702114364739027,0.07656859442253186,-0.06761444064525869,-0.2575357446121067,0.5288578251392931,-0.176634600558115,nm,0.0
27.47525978088379,-11.904287886933478,21.004168550437445,126.37229439728915,0.23581896364109797,0.6308539693923436,0.2524673455290339,-0.3151221042223913,0.43705143160539933,-0.17646225895639717,nm,0.0
27.498917818069458,-5.723184872566049,21.44006961885069,126.13605876699323,-0.08269182724004484,1.354200171018105,1.0924452140574823,-0.35093088196769895,0.41721540131753,-0.21473791357769648,nm,0.0
27.518831253051758,-1.0444279228708468,21.520490145566608,125.89833744360048,-0.05473600082089332,2.021544772307346,1.2131742642796557,-0.22574321927274624,0.3600560274013297,-0.18312418214896278,nm,0.0
27.521825313568115,0.45954824021259405,21.119042219600736,125.76542289465833,0.01291542747184491,2.1154615469156863,1.1142502164421415,-0.09278552909155123,0.2853298760824674,-0.13543894613560764,nm,0.0
27.536484956741333,1.280284484069161,20.427367111121615,125.61810680511068,0.15562053857038613,1.9906280100536162,0.8941474749167061,0.028997013966328443,0.21634240750272235,-0.09534336186605408,nm,0.0
27.538591861724854,1.58473295576615,19.517614158786316,125.40253312560702,0.14274226385780175,1.6971283727171418,0.9680309344748835,0.12115167524463699,0.16322210838672677,-0.07150838327405967,nm,0.0
27.565086841583252,0.4830175625615893,17.664308545769583,124.86081596482056,0.21105878162844582,1.0652935595208317,0.8607274655305895,0.22758412112918983,-0.0034373193059373374,-0.026568592289824212,nm,0.0
27.5723979473114,-0.4137895612933824,17.105126157841692,124.65800956985863,0.136122955670489,0.7895356345419264,0.7340433557290736,0.1959398666332163,-0.06576745841906005,-0.006535592389466312,nm,0.0
27.60888981819153,-2.7855368240752023,17.36899371320596,125.24335130382251,-0.14505897476046847,0.5851899778541677,0.10049155616964521,0.005550160389640245,-0.11542886905976574,0.09762427399758064,nm,0.0
27.6111159324646,-3.059802220401878,17.896879224843598,125.85189913882583,-0.20693480591335014,0.5393903938732746,-0.05884926955014691,-0.049481243973001965,-0.09269064235179943,0.12372784437608768,nm,0.0
27.628471851348877,-3.0493957977927355,18.46538535813202,126.52620966863016,-0.2111761542443346,0.43049882076293355,-0.1526292780861401,-0.0870913911420609,-0.05422466720816255,0.1277994870269652,nm,0.0
27.630597829818726,-2.8298536498766858,19.006794856309995,127.17997917588393,-0.2026000901821591,0.26710952154384887,-0.11548119517335333,-0.1058677520513581,-0.02031126746149224,0.11011802781448293,nm,0.0
27.63280463218689,-2.5757776260249305,19.53837807638343,127.70516640701145,-0.10576989299145627,0.04473189526078613,-0.11058886501589392,-0.10793543772005322,-0.015204601581870428,0.08160940326759007,nm,0.0
27.651684999465942,-2.3844141768242064,20.678039114557713,128.31043513478247,0.1472633520453199,-0.46739179185858454,-0.14232139235025756,-0.08813830657486184,-0.05901354839821033,0.04132085273367086,nm,0.0
27.66865563392639,-2.6892447031428293,21.307812267308194,128.5636004392588,0.1597806951723606,-0.6468817821516846,-0.04187042882605994,-0.057606426575826965,-0.11174049526342673,0.06568507625567502,nm,0.0
27.675049781799316,-3.5123567501640602,21.973839363872788,128.9698477453983,0.3700534943154352,-0.7570732954907006,-0.29192075234821263,-0.0023136210744003566,-0.19162477664846458,0.13534763744942468,nm,0.0
27.757632732391357,-7.03677599132638,23.991169583693612,131.85312051644667,0.1259938285860696,-1.5010545010053387,-0.1752973290415826,0.11382746776107461,-0.31477048252263484,0.33207836090845394,nm,0.0
27.76031756401062,-9.054057839324837,24.595777225372302,132.71492445167394,0.060429065263859306,-1.796972371206271,-0.1625376052910384,0.16357008094158568,-0.34173661964166707,0.3188683569534813,nm,0.0
27.763058185577393,-14.514377477748207,25.208241239518333,132.94429461760018,0.013642036465786083,-2.029027325174927,-0.5087867224346917,0.3510732824101396,-0.4087660033963723,0.19010497284856112,nm,0.0
27.76773238182068,-23.54870343199755,22.993005522012936,129.14697460931123,-0.19764098246120687,-0.929521855276075,-1.2126837653697584,0.29109277012844137,-0.06669275629858834,-0.11293753629300674,nm,0.0
27.78440546989441,-24.132561428965907,22.159635984831105,128.3826675174503,-0.21277173768858093,-0.6161304248935582,-1.1250279228173474,0.2031740867520444,0.03349296581903844,-0.11954047045842275,nm,0.0
27.786494970321655,-23.978837868437633,21.39638629649255,127.88557430266397,-0.11967376213268704,-0.3225956749298153,-1.0224934502238563,0.10812644294233874,0.12995976705583026,-0.11365947118544509,nm,0.0
27.80376887321472,-21.569282397805534,20.222792887681138,127.46727122307432,-0.14464181397938497,-0.03789728095968435,-0.5290360440192051,-0.0760079016079474,0.2915726899283455,-0.12427714396081882,nm,0.0
27.821478128433228,-19.60902247242089,19.81314373313274,127.31744237100418,0.009517730802656646,0.14474766926015206,-0.4693654497697118,-0.15273100026219416,0.35583752846036304,-0.14773037387362906,nm,0.0
27.851938247680664,-14.78142390391738,19.368157860253337,127.0603965857439,-0.03865340994760318,0.5111933716082866,0.13292794674699923,-0.22816215365413062,0.3718199283919714,-0.168058170583479,nm,0.0
27.854174852371216,-12.180342534558406,19.410051298621156,127.02448819043212,0.162916216773905,0.8084166876710492,0.2534277377324632,-0.2964568923040963,0.3996293928710645,-0.1686341872118464,nm,0.0
27.85623526573181,-9.12761285383848,19.629260758234786,127.1749911691875,-0.057900938558624486,0.9774923749697833,0.8791234009243998,-0.3761982260588283,0.44550040442975575,-0.15644535352573535,nm,0.0
27.873326778411865,-6.373222789047132,19.95628160129925,127.57986720946597,0.16760369887552135,1.2960965006028622,0.9450167052423741,-0.3609672756883522,0.3847135938846005,-0.09520629430169285,nm,0.0
27.89210820198059,-0.8624351575887772,20.558182205419456,128.8207679493871,0.15072864458653135,1.6796426157345017,1.312847938564213,-0.3501694700136242,0.3766423745874517,-0.03643291334729178,nm,0.0
27.89418315887451,1.2002075494833193,20.67205376525373,129.45993878427296,0.28385463438453895,1.7856106371000848,1.0984597445019642,-0.25613800238716616,0.296698864913188,-0.011767550439244882,nm,0.0
27.912094354629517,2.7657442465833015,20.614302423633493,129.86392611533122,0.26537334374015137,1.7695366733419238,1.0154592579667068,-0.17287337934609884,0.2443159103225105,-0.020110805614780274,nm,0.0
27.92036747932434,3.619559135008749,20.394362021577184,130.03773987336317,0.18736479442707232,1.6674868435578762,0.9911442608820392,-0.063796098721762,0.16195545303467382,-0.026353019649974135,nm,0.0
27.922553300857544,3.673541771552909,20.050731718404023,130.05368358549185,0.2007736615532837,1.5137729034671736,0.7913413226002352,0.051342947642571635,0.0629672021096336,-0.019088531735903396,nm,0.0
27.935363292694092,2.450453534914549,19.2515192404125,129.91113552721788,0.0007370216960847662,1.0626180537521928,0.6853199718130709,0.16553895164321328,-0.057203097498334916,0.035753604204401344,nm,0.0
27.953303813934326,0.5002465279201024,18.637341392329922,130.55398791863828,-0.0477074314937836,0.5826837639089331,0.3149769253866251,0.15819028926968434,-0.08692464370392798,0.13624149109241998,nm,0.0
27.9623441696167,-0.2698763556528845,18.526440932691127,131.22097647869072,-0.09788786229272155,0.3957513886736599,0.24246539158424327,0.11748669891639257,-0.08439878379420661,0.17117358373658179,nm,0.0
27.991135120391846,-1.179240362414019,18.784846347515916,132.71326049381253,-0.1130304324901407,0.12051631668500486,0.010518686267684214,0.017222886470653564,-0.060064490934369476,0.16110155159539113,nm,0.0
27.993700742721558,-1.3009790287483616,19.068801881217887,133.38390082164835,-0.12452282532088794,0.033745229033613704,-0.0396613809209729,-0.021191715984218484,-0.04388069207801917,0.12235320136335578,nm,0.0
28.002702713012695,-1.31597401602909,19.407509410388766,133.86384939491654,-0.07607073662801943,-0.059480250411903544,-0.11844449042938877,-0.04261000666009739,-0.037053334069817714,0.08015211737539411,nm,0.0
