timestamp,roll,pitch,yaw,acc_x,acc_y,acc_z,gyro_x,gyro_y,gyro_z,markers,motor_input
35.508915185928345,-9.987456187681763,37.086926365296215,139.12836568802052,0.25863720168930016,-1.9425108301459963,-0.015536295690878457,-0.0005807050156595996,-0.17454697530475088,0.30506014200887177,nm,0.0
35.51287388801575,-12.549783530316727,37.49400304087984,139.2932584504661,0.09820613354031614,-1.8192934936466938,-0.26086298322276497,0.18363709892505323,-0.14441271757425747,0.11690897327984873,nm,0.0
35.515318393707275,-14.296470167178073,37.1896997150591,138.35150320194285,-0.03321944389114254,-1.5908943739472297,-0.45771940378060033,0.2541647065689065,-0.1248692435434206,0.005335562200067233,nm,0.0
35.53164839744568,-16.09897822520271,36.55710225295264,136.9451828089023,-0.15466088219795346,-1.3078202771730347,-0.6567558642906748,0.3035786015797683,-0.08833586054573568,-0.08634172536038508,nm,0.0
35.53383708000183,-17.718182641738792,35.58049845316875,135.35416321559538,-0.24218838289501088,-0.9419696982259742,-0.8246567766237609,0.3294428649790987,-0.027955805333056992,-0.13961299449675887,nm,0.0
35.54485034942627,-19.520677712252095,33.21129926896014,132.7687441940258,-0.2856780184262705,-0.3922673200722029,-0.8191435016154491,0.2515997982449937,0.1008727568528429,-0.15880183862597633,nm,0.0
35.56187891960144,-19.575604438626062,32.049154563246084,132.0732506116663,-0.2505616969627974,-0.26708684461918103,-0.676847178903758,0.1833792339713903,0.1627910968148074,-0.13808611395649045,nm,0.0
35.57935357093811,-18.43013191576791,30.138867224435938,131.40471667595833,-0.15808163144827525,-0.11947133083504412,-0.2840613180222562,0.04925873711332591,0.22238498654232638,-0.12783258579766132,nm,0.0
35.608208417892456,-15.56713260380951,28.912700129402786,130.6165059096918,-0.1114007374936197,0.04577448393037379,-0.010255610656052384,-0.10703550077904553,0.3127512210798416,-0.25390813736822504,nm,0.0
35.61089205741882,-13.530344201824747,28.453223452661998,130.03440027252324,-0.2436434372483136,0.22573128675537002,0.25257587168772694,-0.15550484807110604,0.34450060373313657,-0.309353135862741,nm,0.0
35.61310291290283,-11.389626981429513,28.113777846840357,129.40881926221516,0.12871089572189204,0.6461324261343401,0.1907137999226667,-0.1828898289121225,0.3457139676945621,-0.3257179483088262,nm,0.0
35.629735708236694,-8.365537380536066,27.872584274794832,128.92254756271888,0.053310747759948034,0.9598534377128071,0.5758995217134681,-0.2938469026369067,0.45682407325839386,-0.37017838156768,nm,0.0
35.63919734954834,-4.962698647537399,27.69763116454156,128.67688174997824,-0.01304410037245575,1.2795025021669857,0.9520908991151089,-0.34381441077312536,0.5032281009881855,-0.3512128399352678,nm,0.0
35.64099478721619,-1.7802687313955872,27.599533385298958,128.67406590295303,0.29675077062321853,1.546459378325826,0.8438158650976763,-0.3308869239177911,0.4639931233555943,-0.2838740716941772,nm,0.0
35.650856256484985,1.1900621107079763,27.520877369829726,128.85059197575518,0.36204085157519056,1.6989662596283737,0.9875783011661129,-0.3115632572888563,0.43154608997333305,-0.23642447054129925,nm,0.0
35.67432236671448,3.3121900247858345,27.38246463133623,129.00015097635875,0.4056245086176511,1.7918125264995752,1.0477499887161632,-0.20928078282586782,0.3209214301463021,-0.1697531289213517,nm,0.0
35.677656412124634,4.195854911472245,27.095208578437493,128.74476096051455,0.40178819411862715,1.604326300153638,0.7615583269318523,0.03286465644720115,0.017974519825117944,-0.0496578650733951,nm,0.0
35.693111419677734,3.1014868683766625,26.934184604770063,128.35424362128032,0.2548821061832252,1.4289217910132406,0.7241357259793858,0.15306526643297377,-0.12257513675675688,0.013007300081541363,nm,0.0
35.70630145072937,1.3138152765056637,26.72784069087785,128.0504120981229,0.05508059298409402,1.1970016026764492,0.6820559025506318,0.2364516139246995,-0.2150944751394188,0.07658093693093025,nm,0.0
35.72178316116333,-3.1776706205277896,26.387370703702576,128.06195858424678,-0.16517892811103352,0.5855803190285227,0.37083583205244636,0.2839164184387729,-0.29662044669260945,0.2193803244616432,nm,0.0
35.73327565193176,-5.189993299098315,26.33877557532999,128.52634917853456,-0.27857908649443597,0.28938581074530906,0.2649961081784473,0.23769533518262465,-0.2662122322482582,0.25771035675262444,nm,0.0
35.75161528587341,-8.432015465140442,26.660477429127777,129.85951328874305,-0.2196850548755028,-0.1696331374723748,0.021080718367696035,0.15063347694211432,-0.23026318330087622,0.27162685258107633,nm,0.0
35.758151054382324,-9.424573520363857,26.86788388533062,130.5457391457626,-0.12216799404265813,-0.3332491298773044,-0.1151578043260932,0.08861556517309269,-0.15063904351027022,0.22077102333717016,nm,0.0
35.76385831832886,-9.87758729553052,27.069748192141446,131.22291227037135,-0.4098445610360562,-0.5514326751680372,0.11812422287671392,0.02799235509702205,-0.07575506318348754,0.1706511952785995,nm,0.0
35.79150414466858,-10.594946267656944,27.468037888174575,132.9233463228287,-0.06542333236308524,-0.7652255289688599,-0.1886611929987731,-0.004961924985724062,-0.03215981421465859,0.20354197576284302,nm,0.0
35.79403638839722,-10.34130301086,27.66775357513529,134.27895622826287,-0.15689037681279933,-0.983015978148026,-0.038200863096810325,-0.054983798195618334,0.01714968438742243,0.24181885336448283,nm,0.0
35.79877519607544,-10.118185507242169,27.921214289609598,135.95131444929626,0.10146497566677998,-1.1770533831251715,-0.17476360802980923,-0.05911250411141457,0.0041458370306048315,0.3078262084039448,nm,0.0
35.85070586204529,-9.39993102124324,28.26189074043198,139.3277540812416,0.31701035848310466,-1.6898961694086487,-0.11278649623110601,-0.0537085072732687,0.03181304971522158,0.2980792001407634,nm,0.0
35.853105783462524,-9.502744283125102,28.403101518936055,140.4034995833131,0.4321210282211038,-1.7650234339857,-0.18471700523125179,-0.0005734707861427096,-0.020849560288863825,0.22496330210598145,nm,0.0
35.855820178985596,-10.748340580155926,28.600507316378664,140.13482801133952,0.19659500760926832,-1.6076681668676311,-0.31271577405629297,0.11347024421194069,-0.08470829566244914,-0.04975014465109095,nm,0.0
35.873929262161255,-11.998223308831298,28.40073354702984,138.85455021661906,0.02289525131018572,-1.2575374455035706,-0.5664016309874342,0.1972968726226564,-0.09968977030430873,-0.1588245475197683,nm,0.0
35.87672829627991,-13.387743019859062,27.986555109188682,137.17199021723854,-0.20258073600079274,-0.9077971950106442,-0.7339786395320448,0.2420922369000679,-0.08959529222027522,-0.22443296424858608,nm,0.0
35.88120985031128,-14.799318707783618,27.33185364839582,135.51966591179925,-0.32694137688015673,-0.563866168887941,-0.8824375799113094,0.27621863888457115,-0.06509578399224106,-0.21769165810572907,nm,0.0
35.89864802360535,-16.79944483157424,25.624967880888324,133.34189664926268,-0.43521168421193396,-0.2154711510479091,-0.8791954489601417,0.23243644012319123,0.025554304695344563,-0.1111702034636775,nm,0.0
35.91427969932556,-17.464259901658323,24.770503714529024,132.83958732478004,-0.3520664308816629,-0.20614964112710615,-0.7963381184299727,0.2121319078735262,0.04187585336414236,-0.05397653377206655,nm,0.0
35.9211688041687,-17.92987289022893,23.957216114515496,132.46504659595655,-0.28314849885147586,-0.21231361953552588,-0.6822422133960605,0.18224214607207673,0.06083204261079014,-0.04073024929973841,nm,0.0
35.94857120513916,-18.28476946561453,22.79963316176985,131.29629005581828,-0.2579744450582645,-0.10647195845669227,-0.4361650029389814,0.09060478259454693,0.064363252517015,-0.13654407910657068,nm,0.0
35.95074486732483,-18.099397207797036,22.433017767536718,130.41271857058254,-0.2491777598240337,0.10344708596582076,-0.3901452516235958,0.03836266613279956,0.08681586705977204,-0.1951490397333735,nm,0.0
35.96794414520264,-15.933734550999477,22.177149632338804,128.83215839661966,-0.3201082834235624,0.5244545699660611,-0.22384422875391438,-0.16596972212629754,0.23390168873867212,-0.2552740871575863,nm,0.0
35.9715461730957,-13.902298762142637,22.243293601183467,128.52497934687065,-0.47729212969963497,0.6769963367743471,0.22167337826878605,-0.23996596093886524,0.2981270156413193,-0.22008276293718995,nm,0.0
36.035749435424805,3.6665269525762563,23.156484244947656,128.39727508639544,0.5321857118547174,1.5818457936842552,0.8902314770393313,-0.27020069415128045,0.2768574434804456,-0.2759367326193149,nm,0.0
36.03897213935852,4.617947285538535,23.488617095250536,127.69174684033067,0.6455964800468678,1.6329997508495036,0.5579550197730426,-0.15435135052593218,0.1069714114275287,-0.2302017749915722,nm,0.0
36.04766798019409,4.77603044738875,23.85218111860905,127.1118714953325,0.49182955524139726,1.6325407751554672,0.5766550875643662,-0.0694167500892735,-0.011170951734585969,-0.15011750957365563,nm,0.0
36.05643820762634,4.1400986408771,24.213568375089263,126.87081605880064,0.33131256967157063,1.4811168443674207,0.524313601275118,0.018403212040578005,-0.12639342965930378,-0.01941013412423496,nm,0.0
36.08339500427246,1.5099245654129705,24.76971973404038,127.76945392894727,-0.03804996049874633,0.8286924139690283,0.42265110224693836,0.12830517037980618,-0.2322791419419954,0.2353384459080176,nm,0.0
36.110199213027954,-1.69880404700595,25.441315220623864,129.7823835680608,-0.18561985822828878,0.16704244720013287,0.18996048540987012,0.1263996368599904,-0.2554765338935632,0.3294021924517784,nm,0.0
36.12688755989075,-3.135452805236042,25.876657878004355,130.74935430498303,-0.3100224046709365,-0.043890117733362766,0.15895756737033206,0.10688249659553306,-0.24311521331475155,0.30590073848268906,nm,0.0
36.129093647003174,-4.58156291225062,26.375826022996325,131.56185164013982,-0.18012048171912334,-0.11616888045404113,-0.14211435790833502,0.10155989158317381,-0.25021370131253984,0.2741012105775884,nm,0.0
36.131369829177856,-5.478341529470908,26.90295588252344,132.26235331666697,-0.21591331969124347,-0.23475258462085802,-0.2579399251624496,0.034228780624156976,-0.178522343446596,0.20510693865383156,nm,0.0
36.155290603637695,-6.609121309860103,28.142423913124833,134.44830882035836,-0.12062851075633446,-0.7045371918559625,-0.30731747105247625,-0.03658835529242536,-0.04421898939552305,0.1733376800621813,nm,0.0
36.244850158691406,-5.98853679063484,29.379263711775128,137.6736328398154,0.30383147987425196,-1.5205496275156465,-0.014934185185222808,-0.10176526401424793,-0.03648099677527756,0.17935357618627995,nm,0.0
36.24763226509094,-6.403058670273081,30.738591074023706,138.8620160641599,0.4528150121242621,-1.895938624557951,0.19932835195278392,-0.03275548685593604,-0.1463817878780793,0.1149230188855438,nm,0.0
36.2519154548645,-9.591310085583107,32.23559093075799,137.6114812192537,0.22136130430877016,-1.7521960423796594,-0.010791396947682193,0.1364718623937981,-0.18509813450308035,-0.028019419368045646,nm,0.0
36.254542112350464,-12.52092730083419,32.15125368799776,135.784310102788,-0.06618291228779617,-1.2247134207524035,-0.46063486479865867,0.210004511748394,-0.13417944002535576,-0.05084732036340169,nm,0.0
36.270395278930664,-14.902392954916113,30.846814063203144,134.0921708998589,-0.24849445876818566,-0.7218974337741708,-0.6886267005389386,0.24797310419871516,-0.009160244203522587,-0.05931188386804349,nm,0.0
36.278942346572876,-15.745225554132437,29.859996750878597,133.33084479199243,-0.17344877341709863,-0.5424854425970951,-0.7134078622139145,0.24863995599556105,0.043768098787883535,-0.07235184703332097,nm,0.0
36.312957763671875,-16.324830551033287,27.70219497442551,131.95900354932428,-0.141050244647776,-0.2648193356552027,-0.41898099576616876,0.17542035770169528,0.1392001214110107,-0.12768664685426706,nm,0.0
36.3294997215271,-16.034055576031946,26.864008448089947,131.3375795988018,-0.06642904807954213,-0.11648361679789848,-0.3023473972073105,0.0964046919723935,0.16276301427500534,-0.15599456961818162,nm,0.0
36.331584215164185,-15.226114935744452,26.309157569047844,130.83105602140503,-0.06572192689697608,0.04264666746169012,-0.16442246143187036,-0.0058694660855891,0.19453520305739186,-0.17880524027856914,nm,0.0
36.334269285202026,-11.631689672822308,26.10086774329091,130.34655226643045,-0.4039057596375975,0.3862936712163577,0.3240245336039749,-0.24733022681147307,0.2968462384418661,-0.20919259394491527,nm,0.0
36.34416127204895,-9.605188127227168,26.33459139974731,130.35852768307,-0.10389197361451043,0.7858432350428911,0.21279202110800916,-0.2655515866088103,0.2591599999880529,-0.16903406929088416,nm,0.0
36.369033336639404,-3.9382955349642605,26.813353914309683,130.66880100854442,-0.3120016134140532,1.2908301728461762,0.7949053745790259,-0.3727079824901514,0.39134037385855863,-0.2246445334551429,nm,0.0
36.38151168823242,0.699192441056894,26.785638859771957,130.3947178178825,0.14099766649659856,1.6562486859784553,0.618353790461203,-0.23565542656117608,0.3235327048114821,-0.24324041014517006,nm,0.0
36.39951229095459,2.324523269082425,26.548552613333772,129.87340959206378,0.1517821130789075,1.6973195616686874,0.7776825046373784,-0.14524066624583315,0.2634514486302342,-0.2477839556987855,nm,0.0
36.42507600784302,2.131902588220933,25.733523939245273,127.72086005072627,0.2696091508836852,1.3558858355566246,0.6291460567410323,0.12765624425978572,-0.06816695129196206,-0.08918610940539579,nm,0.0
36.427897691726685,0.7751168371034637,25.613281404172344,127.18410480570446,0.19876832944922762,1.1332013062285515,0.43641994707551507,0.17437817599416544,-0.16939642872805244,-0.0017622242514867873,nm,0.0
36.45231819152832,-2.683985565746337,25.749416187556623,126.79341597529788,-0.10744510966465157,0.684842218941739,0.16226219727741015,0.18559454721214247,-0.2688900494583171,0.1357997251251977,nm,0.0
36.458632469177246,-4.439295139341117,25.946295798518975,126.89222805335996,-0.17490960727165616,0.5020502906825689,-0.022920236500626738,0.16461084032035442,-0.2659580826485391,0.16610176659898393,nm,0.0
36.48342943191528,-7.2232260066962235,26.429329765076567,127.34427134935456,-0.269881237774716,0.16772786930807176,-0.25797646513059647,0.10828889473096777,-0.20251285347415424,0.1572616176614671,nm,0.0
36.48652148246765,-8.184288336691143,26.65340058840674,127.60896705461467,-0.2820197531858924,0.06340610006323194,-0.34796914210042057,0.07550846755031974,-0.15264089985625637,0.13267687785015203,nm,0.0
36.502992391586304,-9.525575081925025,27.036899652033085,128.25922595168078,-0.025389558501766704,-0.14696407765229694,-0.5730003884125408,0.04544252400603842,-0.09077240475813635,0.12027620453979035,nm,0.0
