timestamp,roll,pitch,yaw,acc_x,acc_y,acc_z,gyro_x,gyro_y,gyro_z,markers,motor_input
17.013858318328857,22.903273890004336,18.353358551490125,-101.79297508278721,-1.7348055476129702,0.4262693258892866,-0.35327330097436344,-0.19798448791828846,-0.07701254149935129,0.42113842422756653,nm,0.0
17.016181468963623,20.76660302750305,15.10519596865981,-94.84687038875522,-0.686071850084737,-0.9157495253215521,0.02663071625342132,-0.3434601080178869,0.3821353888763698,0.8221532579981482,nm,0.0
17.018462419509888,17.866317454263235,13.037695397733582,-91.2016214702734,-0.07996114128804543,-1.473756053554668,0.28533713492967755,-0.3930763403339849,0.5795743593571898,0.861195235766194,nm,0.0
17.020852088928223,13.620489775774674,11.274256678372243,-88.46730000394486,0.6504894298451623,-1.7486912119331126,1.2322668343450114,-0.36155117981593726,0.8260076131724183,0.8162836827124121,nm,0.0
17.039114713668823,7.687750260179142,9.985850501606716,-86.87931327164455,1.231450193107209,-1.6988731648034014,1.2236463576440548,-0.30822177054070327,1.151720227162707,0.6684647594011514,nm,0.0
17.041297912597656,1.1481112862311753,9.456061216944715,-86.50311121358295,2.0421902241525816,-1.8365405932268912,1.668904609664135,-0.18452654052330983,1.276585989903273,0.408500864067998,nm,0.0
17.059622764587402,-5.764209985734417,9.930474677819154,-87.61204932770558,2.5109414265984844,-1.6730396658208428,1.0405762835811916,0.018848293762200454,1.360498293756567,0.10041563460619736,nm,0.0
17.076912879943848,-16.846769418009924,10.834610023623148,-92.48264094062641,1.8612178956352163,-1.0084373300333398,-1.067935277522439,0.04452856043429175,0.9208799286356304,-0.38240185417298794,nm,0.0
17.079161405563354,-19.856504751412658,11.04607709029509,-95.19918993487728,1.4492403961982083,-0.9608738001696526,-1.2309874661981264,0.06899097035586314,0.5817152908360048,-0.43164323506671826,nm,0.0
17.08843183517456,-21.141079184312446,12.1281434776723,-97.33933444424234,0.9050368482227439,-0.6132730181172191,-1.3499958492548951,0.22980256828873616,0.22136168182812901,-0.37890555718597435,nm,0.0
17.12611484527588,-14.832926391518615,18.45298846177376,-97.88352160636558,0.5185307617624301,0.6781932042662926,-0.5309982154583233,0.3055808201047153,-0.7578477293948787,-0.11392740059327686,nm,0.0
17.128262758255005,-10.285268176158628,19.644763919255045,-97.65338266679342,0.45744920944367756,1.094411534043113,-0.23082907054509308,0.10726128889664488,-0.8896473339360106,-0.2564833139952366,nm,0.0
17.13093400001526,-5.327659715073843,19.856916824508858,-98.605540518453,0.417536289758778,1.1632266449117845,0.23216616151997266,-0.10258540579710192,-0.9350290887825835,-0.5323120442835607,nm,0.0
17.14774441719055,-0.8102668226583566,19.741704462613303,-101.10223143347635,-0.04811204995195994,1.138595809287913,0.5533323342641392,-0.18067703263568233,-0.8380334423897625,-0.8131776605744153,nm,0.0
17.153712272644043,3.3969281033296723,19.931108820878176,-104.62789579726166,-0.7955329856258557,1.310844505617778,0.31756487115855386,-0.15153556999309614,-0.7835860418649698,-0.9993868953756437,nm,0.0
17.17732262611389,12.213096377276804,21.562366093573203,-110.53618600740619,-1.9282223197863249,1.3744514867228619,0.5992618646272381,-0.091212799343162,-0.8167818034446254,-0.8013300360484705,nm,0.0
17.179579257965088,16.131649941929147,22.403841748052695,-111.19132040756375,-2.1818741930405,1.6467664723262416,0.11279638352059125,-0.11201825437551512,-0.740218886286234,-0.43514530676288976,nm,0.0
17.206440448760986,22.330517685636387,22.019065283513523,-107.42925768701323,-1.9721685612630757,1.2065064847746647,0.02522840381124118,-0.2674653680018106,-0.4134829459435107,0.31182501274788077,nm,0.0
17.20852828025818,23.536597272410294,21.053325118418986,-103.94786531564746,-1.663651968468606,0.8132733523863112,-0.09706722572323188,-0.2559100522164071,-0.1654769070871627,0.5971141816974738,nm,0.0
17.23871898651123,21.656865003098495,18.424982538998005,-96.70248412633886,-0.6969982589060771,-0.44639163314801233,0.29903615175200454,-0.23762605577959256,0.3767071487745486,0.8056786501207642,nm,0.0
17.27042555809021,13.126103665095696,15.7624767073206,-92.39703906036316,0.4789937680106967,-1.7077827246018875,1.2263346691411805,-0.20513922316157784,0.9813922026492679,0.7749582005932708,nm,0.0
17.273093700408936,6.165962759057885,14.807024949480223,-91.10848903312407,1.0818466536056994,-2.1508986621860635,1.082829180768943,-0.15413166470333978,1.3455111582856278,0.7297290944262395,nm,0.0
17.275903463363647,-8.426274491199802,15.383228441087825,-91.09307618235135,2.4249465746842414,-2.313786912319528,0.2759173241402836,0.16006542518512942,1.3855760748901789,0.34329900990811335,nm,0.0
17.292901754379272,-15.044134489719063,15.731608693720506,-92.81241635079046,1.8935689575465973,-1.3876962504032089,-1.1829062014711396,0.10350970680786405,1.2674492287442662,0.05971560691789252,nm,0.0
17.29618787765503,-19.62068544186275,15.3331765184555,-95.07152084309071,1.7313156370825802,-0.8682928069505029,-1.3283222557213723,-0.03174327982951606,0.8807031416884047,-0.20948022583357662,nm,0.0
17.30262565612793,-22.445057030117617,15.071428773415532,-97.69587235818703,1.5106251889062885,-0.38357808464779897,-1.2426943845250715,-0.004570985539118374,0.542939638360592,-0.37922052821715824,nm,0.0
17.32839584350586,-23.072284055365245,16.593641696752204,-101.62903605546177,0.8396343723504034,0.6149369769034642,-0.629069172364557,0.1764440388759635,-0.16811657805896005,-0.34446778364794073,nm,0.0
17.330920457839966,-21.152490006137608,18.265361387124496,-102.2323681620808,0.5066200094569953,0.6630796084483453,-0.5463030882730116,0.238180284653076,-0.4322389185753864,-0.23882627310578336,nm,0.0
17.3564236164093,-13.464032473265307,22.059354311626013,-102.22828271489325,0.1559361124163696,1.3282733524811756,-0.6710965091745967,0.1240903094473154,-0.9029792194570062,-0.3171307137880822,nm,0.0
17.364750385284424,-8.168967502070608,22.4888284787117,-102.54110951762067,0.25998496508621066,0.8612292849490559,0.125443916414042,-0.1393907284633607,-0.9798675667996769,-0.4705313599946412,nm,0.0
17.38915729522705,2.0514037915856584,22.073891272865094,-105.8045018358547,-0.768099076806214,1.4151438605885678,0.287857030363086,-0.32085388740547754,-0.9446619755322725,-0.8143096505939594,nm,0.0
17.391265153884888,7.502020559981882,21.673917714353646,-108.08002076365135,-1.1782886683952758,1.3667506940437681,0.9369432094631087,-0.38337743378043915,-0.9470258483529502,-0.8707160922344619,nm,0.0
17.39800190925598,12.258977926177872,21.5008070595195,-109.89494351197798,-1.7910692565931041,1.7028704668135575,0.47445776827319674,-0.33195042144456427,-0.8271469191225093,-0.7232194082936294,nm,0.0
17.428740978240967,20.56706448730845,21.36710335937048,-109.43399284773933,-2.075915940077527,1.4537673824222606,0.3388939110734525,-0.2837554844695308,-0.6422626943319081,-0.0813785667478841,nm,0.0
17.43080973625183,22.591245059614554,20.761314382432484,-106.80193820125425,-1.990253030405694,0.7720853700868444,-0.2182328341237464,-0.24213364618421146,-0.32291503420925016,0.3701469967767395,nm,0.0
17.493712902069092,12.090205448707895,18.053479018057235,-89.5167926070929,0.881386048937008,-3.288745765460468,1.819431106501097,0.06474988610747227,1.1661196704600358,1.1222833349494525,nm,0.0
17.495861530303955,3.7106241245524174,19.51288592540933,-87.97989285745511,1.8506323911606055,-2.834357251920007,1.0393919503031368,0.24623868276331318,1.5897984680592157,0.8396709339819998,nm,0.0
17.51686406135559,-27.80673994545662,16.87051469213487,-103.76700654366,0.9038910246345001,0.2403356974705267,-1.4790350677821942,-0.3420849710236741,1.0890243614255963,-0.43554139000471226,nm,0.0
17.5242919921875,-30.059178211841143,15.675080248158183,-105.87248982357427,1.0076343375340806,0.25593775544841735,-0.9117076484322831,-0.1345324844745969,0.4760011433309979,-0.29578199043438885,nm,0.0
17.550957918167114,-29.17001140898858,20.52526849330214,-104.96927735279047,0.30873196934417707,1.3733303429090498,-1.3798233430388425,0.5511581937416038,-0.4796471819405882,0.16165850285167746,nm,0.0
17.55310845375061,-25.03356263081121,23.98626729782049,-102.35785492777015,0.7177687684180644,1.4517867476656545,-0.9681546673073218,0.47851805176087203,-0.912780179100764,0.20586338108847616,nm,0.0
17.573662757873535,-13.031783504059735,26.433489485474148,-99.14189978114408,0.6554767614454805,1.3681760795237363,-0.012336712111077126,-0.14695217584826148,-1.1464254439812946,-0.4192403654100049,nm,0.0
17.591872930526733,-7.073244922932863,25.3678390761902,-100.85454197271048,0.40141842216403,0.7006041671595045,0.7868329991971105,-0.4091054845381937,-1.0232890153852643,-0.8703353953197251,nm,0.0
17.59835124015808,-2.045503006044765,24.221665919553814,-104.53236686815976,-0.7154844057324408,0.8224265148021752,0.5819417015792385,-0.4372523217677678,-0.8436789261659123,-1.165427606690001,nm,0.0
17.6004855632782,3.487581940102522,23.695406910478944,-108.55646785330529,-1.3721998064181378,0.902896697241149,0.9356009960250193,-0.4014560210655849,-0.9420940119657992,-1.2632943241594738,nm,0.0
17.615952253341675,8.989920453693305,23.65139902371583,-111.36981150540431,-2.013657729299113,1.202519623899749,1.0484783086134424,-0.3642210599284255,-0.9459903138219043,-1.014495802436386,nm,0.0
17.632983922958374,18.58710565840983,23.20014720827449,-109.88960555917247,-2.2345130657766714,1.3870752517561127,0.26025908936743597,-0.3918913542382604,-0.7627469064420228,0.02635597343016382,nm,0.0
17.63508701324463,21.73030854439928,22.13835903967725,-105.99210770099523,-1.883813006464493,0.7969146918523038,0.03954735584854138,-0.39043009733802403,-0.4881260166054503,0.5264800127602453,nm,0.0
17.66584300994873,22.76434737406996,19.347065985664557,-96.76018438592868,-0.8295987621480527,-1.0716978321703188,0.25761541359838036,-0.26323316820150927,0.10727080302130264,0.9153320329524695,nm,0.0
17.668039321899414,19.78076741993261,18.549200195677805,-93.40949362152405,-0.3251293750732739,-1.930927604954739,0.8338669059349288,-0.11820078958927087,0.5735720996150149,0.8542896352200297,nm,0.0
17.675842761993408,14.164976251172282,18.492480249736502,-91.80553360413025,0.3595379121298728,-2.5622437335489754,1.4242766690811048,0.027306461244074903,1.0617820035769048,0.6685761717984458,nm,0.0
17.697094440460205,-2.5888336145110946,19.367901691729934,-94.75890401458469,1.5855522314376056,-2.323687433188714,0.816822068556365,0.1662992803263372,1.6464192711402157,0.07963513758094463,nm,0.0
17.715246438980103,-18.45402008922416,17.85182498579572,-102.40282294695177,1.462562584142859,-0.8617161945177368,-0.7355482979025351,0.023766107445727113,1.4154962389498476,-0.24262894172330565,nm,0.0
17.7209792137146,-23.486060337443003,16.980757889610473,-104.88042905754172,1.2443291138119914,-0.28541435272938787,-0.868595651648382,0.043614730544291935,0.9719156602971218,-0.19631676485099034,nm,0.0
17.747963190078735,-27.965940527434363,19.345664181319773,-106.00506821191782,0.8455660991642936,0.7946538949075705,-1.2149243991680556,0.43858239285118095,0.15188802818841138,0.09315983048307745,nm,0.0
17.754015922546387,-27.31064600663712,22.24963420957298,-105.24371536132837,0.7808313432555194,1.3431709300055994,-1.35696852221901,0.5132627171617361,-0.27842585025749356,0.10368069011087079,nm,0.0
17.77006459236145,-21.449525658460843,26.302781189238964,-104.24236072846963,0.5607448326176072,1.3762336385657439,-0.8966998197092478,0.10705064655926984,-0.692572865651535,-0.2821404571297812,nm,0.0
17.790287017822266,-16.941604816096167,26.371155742001168,-105.41611330801192,0.37319761503499443,0.9655754404184688,-0.5763620490261767,-0.20732775880466645,-0.7883051841976271,-0.6400912541297297,nm,0.0
17.792969703674316,-11.965824674720894,25.61322122137266,-107.89085567873455,0.2102902742110008,0.3400261818491794,0.11576773878628692,-0.4154227306463076,-0.8165851272871762,-0.9374426540687677,nm,0.0
17.815961837768555,-1.538635588174182,24.193640806928563,-111.62854630590411,-1.279351812620523,0.8441648196104709,0.4447802638113739,-0.48000214072403274,-0.9267754471179446,-0.9718048443413198,nm,0.0
17.826114416122437,10.256560189470257,23.32107066304432,-111.29657161176235,-1.8460727503953338,1.6649678649885207,0.52888665379421,-0.48305547906997137,-0.9279802064960205,-0.3434029177983206,nm,0.0
17.84431481361389,15.426062577047752,22.589608032403444,-109.28346015818866,-1.7642225634017337,1.6663907819157238,0.4052674452497649,-0.4781792792904375,-0.8438295812458618,-0.011126998153516011,nm,0.0
17.85043954849243,19.216380343730044,21.714570053598084,-106.44218192679702,-1.5852104517707546,1.282575957111559,0.3441280360791318,-0.39209055548137967,-0.6164606084705208,0.2717857456056723,nm,0.0
17.879552841186523,21.168556554347695,20.33745717711203,-100.4290925596638,-1.0795605746466759,-0.3070592083337835,0.08958539758264744,-0.13120782373506729,-0.007300441512074464,0.5641646063178329,nm,0.0
17.88183903694153,19.08698806412386,19.908949034941177,-97.98347552388105,-0.6286551792313896,-1.365150066372474,0.3710850887657484,-0.031575553937670454,0.39746250142497364,0.6225486485001562,nm,0.0
17.8991801738739,14.558214973895458,19.67077961672717,-96.12275895919984,-0.16958235236875566,-2.203906489491037,0.8709490844360485,0.04739921869360302,0.8497044274845684,0.6697064344412447,nm,0.0
17.902358293533325,7.856533296219016,19.603681132929342,-94.95647849628845,0.6895059765271431,-2.6889272971844576,1.3789154649236166,0.09777747060420292,1.2558682086698307,0.6757128308130287,nm,0.0
17.904711484909058,-0.3617954964387964,19.6787699363197,-94.65001772279597,1.3599829092581437,-2.47483280051133,0.9266602701721867,0.13301018690331592,1.539245294266075,0.6073796802240565,nm,0.0
17.912870407104492,-8.575319657047023,19.82896742100704,-95.30117003863586,2.067416357034995,-1.9992670627904416,0.6904130486184432,0.15174707514185945,1.5350314080901684,0.42023069711106004,nm,0.0
17.937329292297363,-22.070805137089696,19.342283128908758,-98.57729176106275,1.5095329511923206,-0.17213479481582014,-1.2290174205864572,0.050840585804224986,1.107322464440851,0.03412853234261203,nm,0.0
17.946354150772095,-25.65905429130671,19.019080073807217,-100.14488395319106,1.3076313656324476,0.11829947740727334,-1.2621157958707674,0.03312982864333708,0.6753718310181718,-0.07969165312456833,nm,0.0
17.963043689727783,-27.377045367884854,19.611224071828335,-101.34739129643016,1.0738219696146853,0.4158745336196879,-1.1296225280700476,0.16352721074859947,0.2922216463573753,-0.12869628051785276,nm,0.0
17.97964882850647,-25.64281141728394,23.00968970218306,-101.87223594548385,0.47689473868513116,1.2302087486407882,-0.9838264986181858,0.27586111271847286,-0.4026661970575058,-0.11272968584465022,nm,0.0
17.98330283164978,-22.269552690876655,24.511161267821905,-101.3549984133556,0.3359761186371161,1.421679098221268,-0.8258851826688864,0.15654745496748626,-0.6702253119888748,-0.17209758389534574,nm,0.0
17.989748001098633,-17.698899758393082,25.429556122848158,-101.11927760982803,0.18320032161320426,1.4598871835300231,-0.5524594517240161,0.0053283331726891175,-0.8534060165803301,-0.34369136313925813,nm,0.0
