timestamp,roll,pitch,yaw,acc_x,acc_y,acc_z,gyro_x,gyro_y,gyro_z,markers,motor_input
33.53969645500183,11.180567702356482,29.392824572204294,130.117346570858,0.21806766667669816,1.6272529922888983,0.5864522868926819,-0.06220738883688818,0.03168388214565131,-0.018844637641705082,nm,0.0
33.54244327545166,9.655048886047611,29.300695936172286,130.16047305431084,0.02302896133207706,1.1601492507269875,0.6677785837656699,0.13760724448334546,-0.11289976105372808,0.0912935485609086,nm,0.0
33.5446240901947,8.034674630600367,29.150562213854258,130.16130233968894,-0.006774584837234605,0.8679694895438324,0.617555290798872,0.2115866702279504,-0.18777837482399115,0.14928203362743103,nm,0.0
33.58441424369812,1.1951328614655494,29.442350379081756,131.0417226790495,0.03803244954753832,-0.04239955210553705,0.07867764088692517,0.15321908213104854,-0.24216864407869032,0.22565219131082107,nm,0.0
33.58662748336792,0.526231128162933,29.800566290683452,131.5316880642259,-0.2194901805029934,-0.17451697063825963,0.22899874586161995,0.028830226259619486,-0.12448621611644319,0.15616741113084295,nm,0.0
33.60206174850464,0.05332479868180739,30.213500438997944,132.03275513282608,-0.3603159535092938,-0.27553176022014036,0.21601429493105934,-0.0011787586591088318,-0.10583189083763067,0.13959429458879158,nm,0.0
33.606504917144775,-0.31121086362690525,30.650093875901206,132.47219800762358,-0.08463181865374957,-0.3491717493160539,-0.2496655862535602,-0.01659600586487648,-0.09490821730335688,0.11690605589111581,nm,0.0
33.63217735290527,0.20805968904434638,31.413880420817584,132.9685513853892,-0.22844359978500026,-0.45041771186571933,-0.12828399791789818,-0.07505962814278296,-0.0084502553185313,-0.0045742686101011495,nm,0.0
33.65548515319824,0.7384064077634805,32.073212752368114,132.38017243092693,-0.16035433922308592,-0.5518638202300562,-0.07092345589756796,-0.07294302742152699,0.004225328612142085,-0.13058087664220727,nm,0.0
33.657782793045044,0.717036542262995,32.286535619459805,131.53991430834068,-0.035958559435351437,-0.5582155748164149,-0.11233588731780712,-0.02325773960702027,-0.02113793339965934,-0.1742303369201801,nm,0.0
33.67487549781799,0.490242420133252,32.54850553272301,129.03478516919702,-0.02104758335011398,-0.6123782252769984,-0.013710729688930761,0.004744732999376976,-0.027210235596834106,-0.26091625160842763,nm,0.0
33.677778244018555,0.2265994807615778,32.73871579665606,127.66586743870349,0.03839494963782839,-0.6832197652728945,-0.08233243677730803,0.004503038576101391,-0.048786815045912285,-0.25379312576237,nm,0.0
33.69412589073181,-0.022883393383409226,32.97338075966502,126.4695025742568,0.013079001119981927,-0.7733483658395084,-0.005504017088199194,-0.005184518151514909,-0.052245834186837106,-0.22060027117243763,nm,0.0
33.702669858932495,-0.27490219798396653,33.19639104221857,125.60493074986607,0.10468001561694304,-0.9733506423407184,-0.1620988909004763,-0.004047239805615363,-0.051009492422318066,-0.15371456405670675,nm,0.0
33.723848819732666,-0.3133656243021316,33.8417587226224,125.20540951987822,0.11194763080685648,-1.228397219146129,-0.31261653621877766,-0.0637317918173833,-0.023137061487091548,-0.012871578619635438,nm,0.0
33.74901056289673,0.699693045831558,34.387656956305,126.17424177286338,0.04224333195239112,-1.2437924378436376,-0.533351396216939,-0.08769587847362025,0.07645834823455278,0.03347407437197111,nm,0.0
33.75161051750183,1.5110595614176041,34.38388773891709,126.75084884144192,-0.007682586608909346,-1.1415757850133972,-0.6646989002593826,-0.07196278477242155,0.11748165165476519,0.015049496408667356,nm,0.0
33.757718563079834,2.3680761449768837,34.10742682615374,127.14469243965424,0.02713686755176193,-0.9861741681153836,-0.783703841566894,-0.034002732081511645,0.1558264739822156,-0.02648470296243327,nm,0.0
33.77463245391846,3.3098550441238834,33.45099335013125,127.27222798627207,0.004023445161167253,-0.6960970285259609,-0.6920392621622373,0.016842112035073676,0.2134961239915833,-0.0882021523309804,nm,0.0
33.79232883453369,5.300731981832779,31.43455423582375,126.92168667177756,0.19509552841718739,-0.28022514308594965,-0.502181626743577,0.07415284255617163,0.2763323023767849,-0.16413416401951728,nm,0.0
33.81127667427063,7.539824013134569,29.312896695724966,126.66024366957431,0.39461498575735443,-0.023147425414920108,-0.29031441647660317,0.04758305276647764,0.29415195282359463,-0.13650562456851875,nm,0.0
33.81343984603882,8.782559449929614,28.511113181614142,126.83905317005774,0.21809237529713787,0.15028698925294756,0.18008822595755417,0.004682840278406891,0.27957664650759756,-0.09399805248883195,nm,0.0
33.83051252365112,9.427088421518256,27.944657051211912,127.197211767629,0.4026769899118873,0.32353989746047335,0.02691227655482521,0.028349216070958527,0.1680499185984114,0.0011204174586831356,nm,0.0
33.83266615867615,10.090915551836694,27.57444829359757,127.72804844230726,0.4357260624329398,0.5088352448636262,0.042500966540715626,-0.0066173435559535995,0.14742207469136767,0.03473900197649177,nm,0.0
33.85146737098694,10.91199632087279,27.332649132614403,128.92233940210247,0.24643614730853272,0.9758022582841052,0.45268796350528373,-0.0032993298975816333,0.03643352071282287,0.09106001423534622,nm,0.0
33.868664503097534,10.607068186209103,27.456817451386165,129.7050616151427,-0.06561623637515775,1.34210064422643,0.878542162437753,0.02741054503136519,-0.04874635333424893,0.08310168505770564,nm,0.0
33.877922773361206,9.78052924191647,27.64550893652553,129.84462243120174,-0.09464884417608203,1.4026846877738677,0.8412409021728297,0.07062453853556168,-0.12779345587276214,0.09497603797309392,nm,0.0
33.9041109085083,7.331645783483757,27.915108718302527,129.72024292133483,-0.36708608799682996,1.298980858486928,0.7122267365038872,0.14806910815447816,-0.1929607221911542,0.09790998485879043,nm,0.0
33.90639853477478,5.8267700829727005,27.979884168603206,129.63088337202254,-0.3658022804689625,1.1129786462218298,0.4417638609249386,0.16608150755150367,-0.20344745495536057,0.1025809532542021,nm,0.0
33.92921328544617,3.2101794305254527,27.958959113260626,129.4241605995356,-0.3329577945760033,0.6963098937639053,0.2791723403170117,0.15094179655323783,-0.156549945356812,0.07666208770517792,nm,0.0
33.94525957107544,2.240221033083531,28.036651774852885,129.25901444412122,-0.23924551596858157,0.4716312317503808,0.23548873746464552,0.10287964980047604,-0.1323639885264835,0.03988269787682417,nm,0.0
33.95270538330078,1.5473691746916767,28.283797766327922,128.94019311038676,-0.14624605277213698,0.25506439359141264,0.23640897516093204,0.04496856622110423,-0.11600088774383444,-0.01241940365377283,nm,0.0
33.97250318527222,0.7300900012796246,29.321816989328628,127.70941504640304,-0.0065876476484660685,0.13678814057360267,0.19984101939375956,-0.05962605686447053,-0.11068955358783493,-0.11709268057503909,nm,0.0
33.97471809387207,0.5383168690725426,30.178583716181485,126.95477828405826,0.0641847789565399,0.09614187407518937,0.1512138844174742,-0.10952702550473745,-0.12072378070371304,-0.14012630450683364,nm,0.0
33.99579334259033,0.363229350910807,32.09554718316187,125.88911917906717,0.10053196834650223,-0.019057103457779313,0.04612006859872321,-0.14313378358970036,-0.11345115309277758,-0.08247171908392564,nm,0.0
34.02275276184082,0.10248199794866264,33.92990165463421,126.21491755607133,0.06593079229660741,-0.45558917972180585,0.07134209002534632,-0.1157669457362002,-0.11821364957316195,0.08401532857948545,nm,0.0
34.02516579627991,-0.5940723396311455,34.63467497598793,126.87558062092198,0.20917469295088897,-0.6752785961841804,-0.027862215535299665,-0.03762374864341755,-0.16722950444585935,0.20260707636041933,nm,0.0
34.04364538192749,-1.3253354419924366,35.16779117363505,127.76303194378,0.40578028807069244,-0.9784193614744735,-0.2589710367315513,-0.0050438096125528286,-0.15068217722685232,0.2533026811529263,nm,0.0
34.05294609069824,-3.329025744408496,35.70518829960187,129.56647109229402,0.14822145139374024,-1.4863347502946849,-0.09285587369519821,0.12345009522891458,-0.19041622064115427,0.3223553889506544,nm,0.0
34.07029628753662,-4.8422365042314635,35.65254125392455,130.23233595439888,0.1809818610296741,-1.6312854368646297,-0.18136647718738438,0.17263643383746205,-0.1717793129503063,0.3024377559470007,nm,0.0
34.07222890853882,-6.305936592382261,35.37169313633731,130.71705151844847,-0.06898844939433417,-1.7702935991185784,-0.1091327251908132,0.20416453797478754,-0.13439183227590404,0.2599526726018446,nm,0.0
34.09597706794739,-9.37748241810415,34.318737895701155,131.0541445599423,0.06257956946722072,-1.6839579516372383,-0.6759529564173481,0.23897619109158078,-0.07736672389425632,0.15959712429305092,nm,0.0
34.098082304000854,-10.296827504154079,33.63544574043818,130.88348506372142,-0.15063633903930942,-1.5468880867706534,-0.7044112001762924,0.2095996758028494,-0.01422528858692725,0.06217401411730049,nm,0.0
34.12690019607544,-11.113813791530541,31.75432069991689,129.70107210894687,-0.21267077521034106,-0.9680560503123796,-0.9109383938264674,0.179174127401347,0.12851627814053146,-0.1357935650842591,nm,0.0
34.1289803981781,-10.803338107535126,30.61251494567461,128.80745351524163,-0.243138795265353,-0.6227456366175896,-0.8624481017625261,0.14972902965164392,0.1973686991317505,-0.2173245149182059,nm,0.0
34.13741612434387,-9.999945849461211,29.446276302286126,127.88951775684389,-0.1689672344656971,-0.3081747029714133,-0.8100795877894084,0.10318029922954389,0.26555553929339104,-0.27056802762521276,nm,0.0
34.15781021118164,-6.972930721840219,27.29645192476738,126.61720313563733,-0.09850438966726746,0.1894507915372203,-0.4210467029878844,-0.00878489039105946,0.3693743687224762,-0.2642528337186586,nm,0.0
34.17411184310913,-4.93254537342164,26.508235489000324,126.35187310500541,0.1063157857496516,0.3341171289845973,-0.42534960438524977,-0.08300148220554147,0.39778827348111445,-0.23334044023864964,nm,0.0
34.18089699745178,-2.374002468588674,25.954266128802793,126.33605428340202,-0.1892344779587683,0.42896823693069125,0.1685290856659145,-0.17626518817689144,0.44672131052062825,-0.22300740284634024,nm,0.0
34.211735248565674,1.4958406934734665,25.564204336919467,126.48505548623314,0.30284874857743993,0.9452971485799355,0.1566371260847683,-0.1857008525132221,0.29340057213030035,-0.14452431467875568,nm,0.0
34.2156183719635,4.988249593674222,26.11144978422923,126.40325753011064,0.12608523706261388,1.5045193331558437,0.7204654474441836,-0.1993649586595431,0.16366004681007124,-0.138888489055575,nm,0.0
34.23196864128113,5.95963552789974,26.58677009451617,126.24570409100991,0.18207360763256764,1.7095674221032826,0.5886318008845205,-0.1735902923904275,0.09355072569087493,-0.1267247520039892,nm,0.0
34.236814737319946,6.603078123523295,27.075357240773695,126.02736712522179,-0.02141735734782954,1.836546541010655,0.767665679850878,-0.14040880240176076,0.04447454467508882,-0.11084731385244176,nm,0.0
34.24047923088074,6.462461952979083,27.495930612922088,125.75041235625743,0.05345244546059355,1.7907091444386671,0.47193047383492404,-0.047041811238455036,-0.06041850732753521,-0.051503335304129996,nm,0.0
34.26323962211609,5.188198518407829,28.014399065319942,125.15016030869187,-0.1329106672676282,1.4251011964740643,0.485302347981389,0.05381268342504093,-0.13162087769727038,0.004422995342600709,nm,0.0
34.26843333244324,3.98756009570466,28.2256571999703,124.79667001252109,-0.0716268932545268,1.131944021487563,0.3246137053485009,0.09373852412711504,-0.18867627083834096,0.03397177183791407,nm,0.0
34.29154872894287,1.5919157483907478,29.08190329937157,124.16803317109851,-0.19064156460781778,0.6704308652806261,0.32355229492447063,0.03738770658618552,-0.2243764097687027,0.030567119834814763,nm,0.0
34.307236194610596,0.48585173931105774,29.831811334326844,123.88766942499251,-0.14069141463775586,0.49462976430018796,0.09920853059287799,-0.009194888398305207,-0.23440629180127442,0.03197481036042544,nm,0.0
34.309298038482666,-0.26520975654474044,30.71818933332475,123.72577746100296,-0.21489294736048964,0.39819875042783864,0.0439491938395529,-0.06783505814109204,-0.19726945496394338,0.02617248402081457,nm,0.0
34.33387589454651,-1.0329192825470794,32.60379364256912,124.09849644249314,-0.2356906934035572,0.1878872113374296,-0.041534876865836755,-0.11956159987494554,-0.13730456489235363,0.08824921813437765,nm,0.0
34.336103439331055,-1.1745013043287915,33.395630799652864,124.76504237892377,-0.03255370996120068,-0.030278239325108647,-0.16454658979292977,-0.10998384721489529,-0.09989242535117186,0.14081828071889804,nm,0.0
34.352988958358765,-0.9323789164832064,33.96754890048878,125.79143829103016,-0.06304956428554072,-0.2938767907942231,0.018971518593390788,-0.10955087207837771,-0.02379284266737352,0.17042211555971595,nm,0.0
34.357662200927734,-0.7679661099857567,34.35216218284337,127.09574501675557,-0.00091774936116753,-0.6236586020915063,0.14413031439646024,-0.07105863823629935,-0.014331934897556478,0.23439601360799833,nm,0.0
34.384395360946655,-1.1820880535035294,34.2472702243185,132.0544971746911,0.3474601653110657,-1.6086795560857827,0.2882200528490513,0.08276689299213404,-0.0019181142378984178,0.38617431406603214,nm,0.0
34.392239570617676,-1.8214348059951733,33.883651580578835,133.84412095076053,0.4322017593932175,-1.8623490472318112,0.30188979910209196,0.131497620234241,-0.017558562486011568,0.4219163570108249,nm,0.0
34.41719436645508,-4.0178278630524495,32.987860398517526,136.79348916538896,0.35024392990509184,-2.2112023747022906,0.23892205308528197,0.22596251524188166,-0.07574437923001387,0.4105152186652621,nm,0.0
34.4264919757843,-5.553348615092751,32.61054094195925,137.62414459952265,0.13360752389278538,-2.2242246941735933,0.27095285469493813,0.24598119574599947,-0.10870324792976746,0.32555540886507633,nm,0.0
34.43838810920715,-9.277974521451139,31.580770833805634,136.9881651741241,-0.02776714348253912,-1.9689290821787881,-0.4875749909530031,0.3311916112170872,-0.11756088823473114,0.053867548075502855,nm,0.0
34.45590043067932,-11.032845368790035,30.740185287788936,135.6630489932585,-0.2528676341994291,-1.5824190607052855,-0.7442533416913486,0.3387235542688883,-0.07358303010536899,-0.10417425159320169,nm,0.0
34.45954728126526,-12.464158508565335,29.666047325892727,133.96072568035166,-0.34251145083718115,-1.1020590882255623,-0.9752727192677305,0.3323369552496184,-0.011699483821201416,-0.21736986809228542,nm,0.0
34.48320150375366,-13.123133060261885,26.946979613270003,130.88213738151674,-0.42588840610272205,-0.19335002023354475,-0.8973441187460719,0.19959759095065774,0.21224547487668619,-0.2926482494436848,nm,0.0
34.48732018470764,-12.224633586837468,25.73506925299542,129.99665356242383,-0.3110528456344867,0.026455078604118085,-0.6991915178570893,0.08583040637300307,0.2923086769483665,-0.2626303670772938,nm,0.0
