timestamp,roll,pitch,yaw,acc_x,acc_y,acc_z,gyro_x,gyro_y,gyro_z,markers,motor_input
38.00697994232178,-13.123070450585852,24.288179534112825,131.45576031986963,-0.16901897864150447,-0.31574688554041014,-0.38875309314617223,-0.05181366605633666,0.08222250415545639,0.2676332488624443,nm,0.0
38.032432556152344,-11.711218870102098,24.14696905763811,135.24841137362301,-0.03941231793476257,-0.7889624166269753,-0.270037205857127,-0.061084468290387633,0.11090938137048388,0.36864619528723785,nm,0.0
38.04716491699219,-11.021349997769104,23.796139316005164,139.54649809658562,0.26974392046781215,-1.375355899946645,-0.1773383405863245,-0.003434900300206248,0.06785518247348724,0.4204497405787677,nm,0.0
38.06225872039795,-11.266769336178337,23.3715646057028,141.49987204464026,0.4693091683720448,-1.6841293907607573,-0.0819842073845728,0.09198421657117914,0.04998128808263679,0.4162545562569819,nm,0.0
38.06444835662842,-11.962881201612765,22.709944555523983,143.15793720532525,0.5811946282104369,-1.870938333653593,-0.0388582891172721,0.18520694622722494,0.039693557501505515,0.3811778144741587,nm,0.0
38.090134382247925,-14.327856508372792,21.58209415644279,145.0354122119365,0.6993724254328971,-2.166465443632115,-0.10801158032703076,0.26444895540676466,-0.043532013607083524,0.23300465943052903,nm,0.0
38.125733375549316,-18.091952148502685,20.461409637276045,144.32596677911522,0.15023634300932284,-1.5361732980111653,-0.8115526448735192,0.18738030552978985,-0.05680389107583092,-0.09313795779583953,nm,0.0
38.17160224914551,-18.84318207466862,19.785145817711616,141.95624990216612,-0.5372667901666988,-0.5527773439805437,-0.9217670234347808,0.0637111651423509,0.05991850392346446,-0.2710240434393785,nm,0.0
38.17430591583252,-15.311197169050793,18.292120993674153,138.57649145838838,-0.6169053544390837,0.28273829202495476,-0.19188470986606573,-0.19073305865822157,0.3219745237727498,-0.2910573258821372,nm,0.0
38.17677044868469,-12.840438645524745,18.007174972740952,137.95261366863824,-0.3586502624711152,0.3684892242382978,0.05017426775194516,-0.30931744764306474,0.36902765751012806,-0.27375434270726595,nm,0.0
38.179784059524536,-9.59178086365004,18.041972269585763,137.48840886216774,-0.28909078596421356,0.3234604877651107,0.3989639736683593,-0.45856892296399243,0.42440792309582365,-0.2834262877360053,nm,0.0
38.19563698768616,-6.392396106881288,18.388438755469345,137.04541701682035,-0.2863872660586867,0.49847381280303305,0.8538228285964622,-0.49019275822017483,0.37504155654123855,-0.2810429881695047,nm,0.0
38.1998975276947,-3.576091871623031,19.05476487194489,136.56188807711055,0.14242218925575517,0.9886597448522457,0.4934466257814009,-0.47682695543292825,0.280804722595662,-0.27991417399890167,nm,0.0
38.221174001693726,2.332259000039841,20.92061149051882,135.57994146044078,-0.020150437189841906,1.6077503647072426,0.8780581872953166,-0.49627075443293295,0.22650937998602358,-0.29307690363179534,nm,0.0
38.23766493797302,4.369869038368946,21.841204761764036,135.18152005309992,0.2300996474600893,1.8668858818856888,0.47072213582573225,-0.39564037123265,0.14676286243228845,-0.23672682138996426,nm,0.0
38.239959478378296,6.099629740249018,22.60979868194882,134.9404341076711,0.17113871000174627,1.8835186802083093,0.6477328420032306,-0.331302714110856,0.12832252023108823,-0.18786943090616057,nm,0.0
38.242960929870605,6.895296782989949,23.174619768143575,134.79629953460793,0.22288934500155758,1.7778893233157682,0.6499400857113764,-0.1792316756882115,0.03480950102994921,-0.09959499059608626,nm,0.0
38.25695204734802,6.770135479824474,23.57053955453542,134.68129533231428,0.3302451808161619,1.5439281338033877,0.4826616051174059,-0.03554285819946008,-0.061631571188039316,-0.02183582445886762,nm,0.0
38.27843999862671,4.515458689420266,24.104311318789804,134.27813387311215,0.07571238224576939,0.9370692797473242,0.5985045533165044,0.16578063921070924,-0.2219653193155346,0.06467575767327657,nm,0.0
38.281978607177734,2.525974518618854,24.302065649205424,133.94984348457493,0.018308156743475683,0.7073922484863214,0.40408980973109165,0.22944049325621377,-0.2775695201750465,0.08957739980301656,nm,0.0
38.2904589176178,0.47533282836925184,24.434437243296184,133.7330696292336,-0.1562423405270342,0.5225448720795532,0.3539058985707437,0.24520427539833536,-0.2768744452090917,0.10130965685160437,nm,0.0
38.30522084236145,-1.576307193137967,24.48221274485987,133.62241682175102,-0.22721596513403447,0.40505066138693285,0.1691893763281361,0.256555391087192,-0.26560906107801835,0.127804057557459,nm,0.0
38.32560062408447,-4.637168917185525,24.378604764472936,133.98163741624688,-0.36741069237134827,0.19916999566944055,0.028472544164246688,0.17983216465455423,-0.14797835316464394,0.15858156280176927,nm,0.0
38.339922189712524,-6.457401874207484,24.1593407412104,135.00457770519307,-0.10831599554253561,0.060192918481067476,-0.22974811150828817,0.11485848676589827,-0.06675285292970942,0.1658666684708423,nm,0.0
38.35692644119263,-6.538101623292477,24.03219622401955,135.61624636587973,-0.24724886980557115,-0.16657320055823158,0.021365632571065912,0.03294197528401736,0.019857502700993828,0.12262398578460985,nm,0.0
38.358864068984985,-6.653289937156462,23.92737218020082,136.20801768005873,-0.14158324820391702,-0.3007834458121184,0.006800407993095971,0.034154987872681196,0.012609873565481851,0.12145174952376156,nm,0.0
38.36634874343872,-6.754098952985354,23.921531726162293,136.82012583137097,0.09251772030222873,-0.40169482443594073,-0.12331063277018338,0.018469285484773494,0.0004002790546109135,0.12435656300010814,nm,0.0
38.41998076438904,-7.545124948069927,25.18556217174269,140.15619460839036,0.542255323089607,-1.5687415991295222,-0.10170940528457072,0.01913893612935542,-0.11871783624393947,0.21870464645096616,nm,0.0
38.423216104507446,-8.58425349375852,25.78302295097746,140.840366549745,0.6122308029078187,-1.8157204696807259,-0.06703155755430873,0.07236133213412016,-0.19927097130320065,0.22033116412890566,nm,0.0
38.43935680389404,-11.738095061632023,27.382186460608246,140.80426793581736,0.4887112216442818,-2.1388993709573954,-0.06051826309873073,0.14007094596581748,-0.3069025866116525,0.07730157420226248,nm,0.0
38.46486735343933,-13.887798703145691,28.054426759273284,139.80099542344655,0.3011450112838086,-2.032927906263005,-0.21938435133825376,0.21108426799704463,-0.3340366127467973,-0.017862935016867056,nm,0.0
38.46796751022339,-18.334955033067406,28.635065896687156,136.25374236349148,-0.1861080508333018,-1.4642399272903341,-0.6395315958896426,0.2631831636657989,-0.26162311838174684,-0.19745408571918216,nm,0.0
38.47173476219177,-20.256892815686868,28.398383691353107,134.3189727958167,-0.3379644186942439,-1.0164888172451083,-0.908403711676222,0.27830672105285564,-0.19108952819522876,-0.21947592907642333,nm,0.0
38.502384424209595,-22.5307468600241,27.251605667130196,131.3878795148544,-0.5027571721848345,-0.36676497099249805,-0.9030838691809088,0.2017890936061955,-0.012159110719474484,-0.1885699267530596,nm,0.0
38.50461435317993,-22.889982630317977,26.53246509446905,130.51239760155497,-0.41469171896255663,-0.18341144914235102,-0.7712175577510496,0.15599291290797115,0.059010590726719894,-0.15217445628841517,nm,0.0
38.522255659103394,-22.701735460852092,25.84955874794212,129.8613975991023,-0.36944332045061923,-0.11385599746475072,-0.5358610189892307,0.08799057579706562,0.12707890920233358,-0.14485421600022835,nm,0.0
38.524341344833374,-22.117661283070877,25.319546687768685,129.2595957094594,-0.29797943238401775,-0.10162326216410725,-0.2757125724015886,0.020181099259162043,0.1618585290255515,-0.16086062225491699,nm,0.0
38.528348445892334,-21.182118687509618,24.998338163282792,128.63799593823296,-0.16349593820047906,0.013295392363461823,-0.15691698436467144,-0.0508694195375419,0.18516853520734367,-0.1957917922911242,nm,0.0
38.55449724197388,-17.63244002496252,25.30836290743002,127.25684338029771,-0.4339455624176712,0.3323855775927744,0.3846365478159893,-0.26617107523534494,0.2606164416065038,-0.2989215115828611,nm,0.0
38.579211950302124,-9.447744059639595,27.394088058839245,126.20342301661803,-0.3342818872992296,1.371407095417357,0.8850194061895622,-0.4619162357396156,0.38715761734274173,-0.299097134807769,nm,0.0
38.60694360733032,-3.6929726798005307,28.375301433891824,126.23644202409561,0.08845483184943256,1.6298214290709687,0.8494010227061974,-0.34299689625612517,0.3678069724147174,-0.24694108494230552,nm,0.0
38.60912203788757,-1.646340481567612,28.50496771580808,126.1147671545964,0.1342952661835943,1.592905993790159,0.9468149135272734,-0.22688850677796646,0.2859242860868584,-0.2203858677778847,nm,0.0
38.62600231170654,-0.681235025651777,28.36012891012809,125.10462029245019,0.33521093471163466,1.268465444135241,0.6841567490418632,0.020847032038374683,0.034772132015559856,-0.1372365289595381,nm,0.0
38.635515451431274,-1.4732563395755216,28.17134847982758,124.42592678846083,0.17644493146091686,1.1333523344407679,0.7124817505671033,0.11775034505309832,-0.08317480634157938,-0.06840903359905866,nm,0.0
38.663108825683594,-4.552035579053327,27.886263261116355,123.66854680141057,-0.09966013157481302,0.7256271193705511,0.443548429700934,0.18997316709251727,-0.21848119495436058,0.10311402868530835,nm,0.0
38.67367506027222,-6.271845658720538,27.775200958128313,123.80127451841174,-0.1888390860695023,0.5115667562195021,0.2423728682456925,0.19483060748509223,-0.23041343004916276,0.18059891479545262,nm,0.0
38.74344563484192,-10.188919310175693,28.29560696570118,128.47935589621883,0.03918995121746602,-0.7084543602448676,-0.22738967826412051,-0.09010643240126992,0.009063203840452911,0.14599511851232527,nm,0.0
38.75356578826904,-9.918863123305007,28.786824163592442,129.5857821509517,0.05834512622951197,-0.9283574128259785,-0.20249735199844904,-0.10025841485303978,-0.013516797478580363,0.1894475333044135,nm,0.0
38.772486448287964,-9.854612096735174,29.361759743447433,130.7757775512716,0.21625075170006183,-1.122612687569658,-0.2981971444714382,-0.08934171033319778,-0.054108303751661944,0.225707420102487,nm,0.0
38.79022192955017,-10.352154061416549,30.652270483974405,132.74353118567996,0.23965107359250076,-1.5410257824362326,-0.1444507882313592,-0.03839829151853793,-0.13198868690345447,0.2089008002639081,nm,0.0
38.79238247871399,-11.21749269456716,31.239766603603314,133.18939771826652,0.26215026993652535,-1.6791756638626987,-0.1448871627827337,0.020679928382444274,-0.17712412120354162,0.17222744287929206,nm,0.0
38.794278383255005,-12.5110451300179,31.73932049281615,133.16240837916692,0.20295629568752677,-1.7452704247094808,-0.16869966778272463,0.08364717266636724,-0.2176150246711476,0.12397737837569023,nm,0.0
38.825639963150024,-16.018839307288484,32.4423642039809,131.84577489717793,-0.01469445322199688,-1.5274272762855805,-0.41296887124326326,0.17003355897121533,-0.25666222985422554,0.023433110977246308,nm,0.0
38.82757568359375,-17.856151871829972,32.58513798927337,130.85979775013675,-0.12919394522019736,-1.2883235029207505,-0.6269721182522962,0.18936339459992527,-0.23945705285124688,-0.0175224387084924,nm,0.0
38.87307906150818,-21.8910083789322,31.7557441444289,127.52433153382209,-0.2807777443441816,-0.5061512230371358,-0.9590506817206949,0.19170600217801212,-0.0632268149393898,-0.11676641830781224,nm,0.0
38.875190019607544,-22.341866161994236,30.272086956472464,125.55737946217708,-0.1690358573704482,-0.1707563070828142,-0.6623881998916245,0.12792973392853582,0.11564217942632575,-0.19832288977836962,nm,0.0
38.894526720047,-21.646970725579013,29.54051634480093,124.73991849921751,-0.07895845889214083,-0.04265043335738631,-0.4176323730373331,0.056978697712204644,0.19519098127982892,-0.2371550024556835,nm,0.0
38.89689517021179,-20.205443684554517,29.04053352253353,124.00266138507699,0.09410845124848617,0.08188910912111524,-0.25257118604188,-0.05246315239166319,0.27641538275429944,-0.275218550551358,nm,0.0
38.91909670829773,-14.839554458782699,29.076271847579946,123.29191859466,-0.14997149279835945,0.3789224345663056,0.48449796210116947,-0.30305412475908416,0.4107901037997203,-0.3090582495590952,nm,0.0
38.92123103141785,-11.804845428702432,29.596364848756846,123.32987884333376,0.31921283595289973,0.7257454561638833,0.3300326052667044,-0.37035353651524744,0.3969718015177646,-0.2733292755175639,nm,0.0
38.92711853981018,-8.003053829107024,30.315995635351147,123.64593178162112,0.06761418919627041,0.9878432337686703,0.7562427633536216,-0.4762351334408702,0.4818386037782139,-0.29412305667654215,nm,0.0
38.97276282310486,0.814991356425962,32.424236943494314,125.30044014697465,0.26235931660741807,1.5374057502169234,0.6994055306438528,-0.3282887076383649,0.27840852646758396,-0.13580159310617085,nm,0.0
38.983768701553345,2.547474207294533,33.12086816639014,126.28060183384831,0.38396768312411095,1.29695516202558,0.41602707506585196,-0.07572828138855578,0.03118788890091676,0.038949371792233685,nm,0.0
38.99991464614868,2.336250464440395,33.265981959132205,126.69386547804731,0.1411982432013055,1.0808785645991452,0.6085211148484533,0.004712489497394766,-0.036564775545871994,0.09723519762944083,nm,0.0
