timestamp,roll,pitch,yaw,acc_x,acc_y,acc_z,gyro_x,gyro_y,gyro_z,markers,motor_input
8.521991729736328,52.51848782721877,9.659061152573608,-8.24602924572739,-0.08653560845666211,0.4568473203155792,-0.46625838501993677,-0.07663169197731383,0.01691502014018463,-0.28356870851983595,nm,0.0
8.539421796798706,50.5084398649328,8.109025951039007,-10.423481123383503,-0.47312856228498995,0.8229322490853137,-0.35871714751195155,-0.25169998758353096,-0.16937005354509752,-0.20094156650737488,nm,0.0
8.556364059448242,49.152227254121314,6.892102559760978,-11.091628985124741,-0.674007142703473,1.0387427752907523,-0.2585879966675426,-0.30464705715895624,-0.19434292023627564,-0.14331738133079358,nm,0.0
8.5626802444458,47.53103859467144,5.8626455142753935,-11.525938211948505,-0.8630185496326551,1.1255047389247181,-0.09108614927913128,-0.35141145537935553,-0.14442749478921044,-0.0892551407217331,nm,0.0
8.564876556396484,45.69871313857792,5.185075047337457,-11.949307422158604,-0.9135296247643803,1.2168785764894992,-0.05595081752371216,-0.3799008750716191,-0.06423851513128824,-0.06901881411406435,nm,0.0
8.591130018234253,41.72913071330014,5.12197910504041,-12.559283559872908,-0.5988177477439156,1.0588894810068832,-0.08142810810839173,-0.38226858884772724,0.12063900818189986,-0.015645732145911986,nm,0.0
8.59326720237732,39.774455980091886,5.581945091474307,-12.475772102380372,-0.5216532697848265,0.8523376686757551,-0.04858299900870282,-0.3554639725794908,0.16789879028593926,0.05531136777690929,nm,0.0
8.623363971710205,36.088867653588096,6.450828617904481,-10.823175984832591,-0.2932527030069714,0.2622702835008195,0.34276407025719335,-0.3382933228852749,0.15035846764914373,0.2908159979050164,nm,0.0
8.625435590744019,34.572757991427174,6.958729992355248,-8.921274555303073,-0.21543643921771205,0.11237950672813826,0.40192302984851674,-0.2744928131518219,0.14500808161319587,0.43338678928763336,nm,0.0
8.653790712356567,33.216451177894015,8.21561347382869,-4.370559302881761,0.19094734947590744,-0.37370596131458717,0.2987389617246534,-0.04284163443010265,0.13790243446760053,0.4667314425176115,nm,0.0
8.655965566635132,33.961079205862134,9.265540416087449,-2.485749438513688,0.5369046693267621,-0.8322919277764015,0.719196677705178,0.16513650125239623,0.19425628173441362,0.3555960228783009,nm,0.0
8.65865969657898,35.2272130552088,10.573587271741966,-1.348099110907104,0.8145168047123191,-1.1910168766738234,0.7914233915146178,0.26370556033704995,0.24690487401952332,0.18391234941084428,nm,0.0
8.675508499145508,36.84430250471241,11.82356165851162,-1.0591225754643174,1.0728744085397628,-1.4670935264503,0.5903514516612406,0.32780448811427976,0.2374702654492936,-0.01719400123055635,nm,0.0
8.677603483200073,38.98586041850303,12.832961842266814,-1.436729245378663,1.11424564788838,-1.4931013621332019,0.37034207592306284,0.4279470275106154,0.18719227645831876,-0.17965492338880093,nm,0.0
8.706686735153198,45.026239731286374,13.031555788138647,-3.6848338094508915,0.2861020104572781,-0.9205443618507768,-0.13767919764454994,0.33770426242862006,-0.09463514704403908,-0.27545047941818795,nm,0.0
8.736724138259888,46.59288166967496,12.188153338306922,-4.853745128768405,-0.3156935131186795,-0.11188161950243741,-0.15805259780709485,0.0784310367711125,-0.09385466080558577,-0.19587329747476406,nm,0.0
8.75434684753418,44.62308660522193,11.896993792196472,-6.896105413920867,-0.5137308829803221,0.6038241037826988,-0.6299676235469371,-0.2534997289433741,0.016411149345201576,-0.22673696388338346,nm,0.0
8.785516738891602,41.445092743078774,11.730536262710599,-10.321234888662062,-0.33435198620692885,1.072563632319365,-0.26956205068083433,-0.386873047910613,0.031538718933865804,-0.31956118689290486,nm,0.0
8.7877197265625,39.20650562434206,11.398142943663158,-12.12078998232737,-0.40510251833109673,1.2096811824884335,-0.36904302744503986,-0.4400104585677887,0.013174028440853299,-0.301789112898171,nm,0.0
8.790056705474854,37.10677393382151,10.718183901992367,-13.647877797739424,-0.45558215987191986,1.3889551715974109,-0.10620983985924876,-0.42896091223689337,-0.04818257823663897,-0.2538376605118458,nm,0.0
8.811163425445557,34.710719503050555,9.79680706662466,-14.708870947349856,-0.5252415012519058,1.5545879548548316,-0.19278072515023922,-0.49928225133280485,-0.07131198974990245,-0.15651875435148938,nm,0.0
8.815733671188354,32.44407033637041,8.875232435630092,-15.182044988508498,-0.6398737093720174,1.7131146105687511,-0.37609634158826916,-0.47661517731712044,-0.07126909643875252,-0.04814052334288063,nm,0.0
8.817832231521606,30.589830837283376,8.068448634255898,-15.137692062962822,-0.633021726648947,1.6787063445381991,-0.19958445011951917,-0.3929021263183564,-0.06869848972956837,0.03493442561096573,nm,0.0
8.838103294372559,27.946036142763216,7.2595621038266,-14.199469634614019,-0.5227203696174153,1.1762895540602072,0.05922239589175171,-0.22110347745838738,-0.004321902702512649,0.1201383974325194,nm,0.0
8.8413987159729,27.084921789560912,7.188591946312027,-13.590447363616452,-0.42767009045684096,0.743878393103468,0.25728159708873055,-0.16536344815782328,0.01827717406823852,0.13316908525455048,nm,0.0
8.848671436309814,26.423977962603132,7.205483512284983,-12.836353793535004,-0.2550707172429436,0.2685014677264112,0.20821325479391448,-0.12284217133022865,0.02425086678513157,0.1572074628436869,nm,0.0
8.887288808822632,26.52262046043401,7.893960357337652,-10.101402282775595,0.1304325764423874,-0.644236772100198,0.5488377485665697,0.08081980356611122,0.07570909887296105,0.304439646559731,nm,0.0
8.889450311660767,29.042623392209002,9.44634787996679,-6.046847016269024,0.522053163949661,-1.2504152366523038,0.5566970817821049,0.35422759381323726,0.12748887535431194,0.3593411513119755,nm,0.0
8.899488687515259,31.624333153288863,10.647378146784828,-3.8818977375104216,0.805227350738709,-1.500441277404338,0.8168039544224499,0.5329404906522276,0.18826506277310742,0.3318513110252066,nm,0.0
8.926270484924316,34.52441657328025,12.000857011049533,-1.8720360814585888,0.9475161579362907,-1.7109026334606143,0.46584318727353463,0.5872269316321161,0.23552886293094963,0.27646187017367496,nm,0.0
8.928213119506836,41.27980671010857,13.7592395781524,0.7641124141568266,1.0083334886018338,-1.7522016115497205,0.04047530352751423,0.6752458300510201,0.13136140664418836,0.026954574563878463,nm,0.0
8.945525646209717,44.205149185646064,14.078172318769589,1.2823221171848793,0.6632046083090475,-1.5018006057539826,-0.45249572915418046,0.5718125355791028,0.07015581239507444,-0.07648398467288171,nm,0.0
8.947867155075073,46.745727925528946,14.081064641494043,1.1979355240729308,0.2966992880538737,-1.255158620394386,-0.6043230955915116,0.49779022725881633,0.008040228886170415,-0.19141649888310555,nm,0.0
8.963630199432373,49.696318245362015,13.746454896121474,-0.3267533500622738,-0.33612561430705495,-0.657806347463757,-0.8290154052036814,0.21356314308271077,-0.03196207975105637,-0.3031349668207305,nm,0.0
8.98066234588623,50.341836721422226,13.772542793947258,-1.2101629946586119,-0.5788799272211026,-0.33086002138120335,-0.6958567838845372,0.1299123119070042,0.0003540031554890158,-0.2816151521648039,nm,0.0
8.982776880264282,50.207948336523266,13.88659962156902,-2.100007216825621,-0.7390358320423467,0.017041738559599097,-0.634159386309914,-0.021204173864971598,0.01991767996612644,-0.23854721186516017,nm,0.0
9.01318883895874,47.75049440952252,13.89719501227295,-3.618850333060576,-0.6702305142933838,0.28622687076973957,-0.4273711118696411,-0.2895736960874078,0.0019759407585342443,-0.11679339089815172,nm,0.0
9.017062664031982,45.43504959417796,13.665025414461365,-4.032235214136442,-0.6628373994930526,0.5329424354562516,-0.7703886444377831,-0.44827603526447696,-0.021819221600468564,-0.0243190135836827,nm,0.0
9.022477865219116,43.14190174713917,13.085088231285578,-4.221133278090435,-0.5770086659116941,0.6700248225908159,-0.37849459249363654,-0.4495867994912964,-0.08957923837233288,0.01956976057807378,nm,0.0
9.043214559555054,40.271212190244064,12.221519419518224,-4.264445716886696,-0.5284443831725547,0.8372029614613841,0.14862368707855844,-0.5675358287803449,-0.1376063493280617,0.0688200389945854,nm,0.0
9.060102462768555,28.28171857937099,10.09956739591335,-3.9883567445060404,-0.748217654137869,1.6843783314701148,0.3766995909646325,-0.8571661375804841,-0.05194097151464578,0.14439726019734156,nm,0.0
9.077678203582764,19.924731688384714,9.617387691948684,-3.769074636357434,-0.38262709973043507,1.7537396546890838,-0.1468193676364665,-0.7568165750085738,0.013509958139784261,0.15861998575555725,nm,0.0
9.096823930740356,16.64072371559221,9.534097977647662,-3.2338111603599065,-0.1552151134269808,1.6474355672967194,-0.24014139680008437,-0.6429554235097847,0.013229156052928116,0.2074082638342679,nm,0.0
9.106604814529419,12.653282644033956,8.766626899269447,-0.909992025294297,0.08726652275612966,1.086977789089968,-0.1158148536765807,-0.284957201833837,-0.1023207484363653,0.3116314567538502,nm,0.0
9.123708963394165,11.987477849781312,8.15360062918534,0.698122064172604,-0.034427572656712084,0.6520729098905887,0.01740103633211184,-0.12572394100946865,-0.13248773752500906,0.3334483225737143,nm,0.0
9.125775337219238,12.38265382452123,7.58961582096143,2.3131565141568498,-0.12821453670995242,0.10843691844764523,0.18077941267583364,0.08810153575273712,-0.1205725040652789,0.3043718024527301,nm,0.0
9.134994745254517,14.048080672557772,7.390152456121208,3.741962057862614,-0.08117655054840107,-0.3633744101286994,0.8271973542373676,0.3393424157878089,-0.03174741647092067,0.2341488649515664,nm,0.0
9.158106803894043,20.2070542048204,8.475291121718874,5.524175579489432,0.530015338573859,-1.3578446216474132,1.474099398840092,0.6907021801025539,0.20170395067860553,0.028887636183227646,nm,0.0
9.166287422180176,23.877560393118063,9.462234758872016,5.900363360023382,1.1742420432738483,-2.0195878052652345,1.2149157619322324,0.7094935659499041,0.2612140622672054,-0.04959637553962433,nm,0.0
9.19310450553894,31.743956559702873,10.886189340359243,6.558544404192893,1.7746053458146651,-2.216127970792716,0.3531677157260507,0.7475357156680048,0.16984761509754434,-0.08622480262226931,nm,0.0
9.199265241622925,34.676790972864204,10.488565573560145,6.760214023522422,1.4395846215183188,-1.9732823477959758,-0.3275473079888881,0.5886010268381422,-0.017931659012686053,-0.08029305187272706,nm,0.0
9.222980737686157,38.049720364355764,8.21432228300706,6.40006912750505,0.09442128051812237,-1.362645458331306,-0.22418613905580329,0.2695527402424668,-0.21439480237369868,-0.11430359481370511,nm,0.0
9.227351188659668,38.11984388051678,7.461492157583592,5.688041043853747,-0.6265578055980373,-0.9012210875458658,-0.26859092263436857,0.03619101615122235,-0.15370910296684118,-0.1563188505179849,nm,0.0
9.229541778564453,37.17623513436693,7.420989346970994,4.575016849767854,-1.021983060735727,-0.44798032893463907,-0.09044978127291031,-0.1794951763255327,-0.030388331405881784,-0.21016893910722526,nm,0.0
9.238157749176025,35.00901280753143,8.070389550424597,3.1741831662579054,-1.0741826550071554,-0.18068187850596645,-0.04911873372073414,-0.4316821309538834,0.09456773595815367,-0.23362069856914655,nm,0.0
9.311278820037842,10.783461813738652,8.594359930659774,5.082816692029958,-0.527686940852058,1.818007652761814,0.031156069213906623,-0.8536872331590191,-0.19971868775269488,0.5144111990390301,nm,0.0
9.313485383987427,6.326046282522901,8.129318693833804,6.704543260443112,-0.9690855652972015,2.155223697875287,-0.07545754223754847,-0.8614085037509961,-0.1933725111073834,0.4423310831935372,nm,0.0
9.321494340896606,1.85430860881069,7.82495329633918,7.453946047069076,-1.2416434924369735,2.1854837881441993,-0.43144202598605264,-0.8647124568545542,-0.17999687161895972,0.26795856687483777,nm,0.0
9.332218170166016,-2.134890982690614,7.5557744198976255,7.218893770789981,-1.2208302591778215,2.150796540200017,-0.6767138284893291,-0.7702920082507406,-0.16513972694509188,0.05432008642255679,nm,0.0
9.346365451812744,-7.980022501178106,6.97242207267942,4.968606062870444,-0.4360508717066531,1.4674433765600277,-1.2057303143519293,-0.4711429852539415,-0.11343532264379291,-0.19441037568781866,nm,0.0
9.353833198547363,-8.844472381446488,6.912053883253244,4.067002051781495,0.1006227213688107,0.9778528524333028,-0.995222040410221,-0.16257603729424366,-0.03703724075899318,-0.1637447727338385,nm,0.0
9.42137885093689,-4.5720807059316595,7.64803965585814,4.897417105444208,0.8147504851957202,-0.03251742885831031,0.24833629899188253,0.6462777995050238,0.13736724635432918,0.0944356753843599,nm,0.0
9.424190521240234,1.0125934741498175,8.232237167411913,6.646244818387878,0.8743836440144191,-0.4799630446637015,1.173144365595221,1.0982665325372685,0.21731321269905726,0.18924030184567667,nm,0.0
9.426948547363281,15.982607875065673,8.620516705651996,10.400101689889565,0.9748429034994731,-1.9468152533075813,2.493333331314027,1.4870277611294251,0.2504353488434033,0.10253978335216747,nm,0.0
9.429471731185913,23.744419838149387,8.751667065740042,11.39240651647007,0.9464130126994865,-2.626989917916317,1.9698914888783812,1.5114746303452824,0.3092378389017725,-0.04651717843936682,nm,0.0
9.431860208511353,37.41708627104835,9.919253636585932,10.966095670146341,0.7611129492797775,-2.7638952741860563,0.3722003891373908,1.172095838417576,0.377603755748309,-0.3366046684732175,nm,0.0
9.446292638778687,42.01552296010768,10.979106577172592,10.081000487070176,0.670158966604627,-2.398933259129514,-0.5555040797425825,0.8576501448194003,0.369895669258736,-0.3567784021653295,nm,0.0
9.450363397598267,45.09093337403104,12.151547138002252,9.385430046993545,0.3989598685607118,-1.920941664726271,-1.0919477871822219,0.5605210569620088,0.3297786898921855,-0.27569653193107746,nm,0.0
