timestamp,roll,pitch,yaw,acc_x,acc_y,acc_z,gyro_x,gyro_y,gyro_z,markers,motor_input
15.526195049285889,-5.394031536229958,11.83399110235931,-81.09954346538788,-0.09109882746680238,0.9986550061433674,-0.20931766924422476,0.22009616183435854,-0.6038564894618134,-0.2223116259533081,nm,0.0
15.528371572494507,-2.3139221068899056,11.945383928598169,-82.1222809812393,-0.08642934621506236,0.9350804416526546,0.4350104838049976,0.10110143957477463,-0.6015420694299961,-0.396309947241611,nm,0.0
15.545217514038086,0.018743474120014907,12.026669009307408,-83.92641790774891,-0.8813456571410274,1.1119160719377608,-0.25883634382943926,0.062095387002642326,-0.4589177558456032,-0.5177684047658897,nm,0.0
15.547319412231445,2.821549852621344,12.138250408854647,-85.92206802859951,-1.0847623226712992,1.1712337199404055,0.16583626595865947,0.06135875384194231,-0.5515767461986729,-0.5726561348950663,marker_1,0.0
15.572950839996338,7.335994512324389,12.712093146583419,-88.62786590034004,-1.7235218948684352,1.4059388185015735,-0.04918284002905084,0.0735962438608238,-0.38401233632456416,-0.3022748690910438,nm,0.0
15.575141906738281,9.276695747114525,13.11792448928501,-88.63063792567274,-1.6816802903002197,1.3617467060368547,0.186403231214008,0.08007244051008316,-0.3827313123080346,-0.09573931436980065,nm,0.0
15.60086441040039,11.274873917380384,13.80449264650056,-86.23567828093302,-1.452073839744924,0.941363493118152,-0.0595062193001642,0.05752208577545712,-0.131360209443318,0.26016373626494915,nm,0.0
15.60470724105835,11.599501054505307,13.95479025633926,-84.5730120531669,-1.0436291935596687,0.5025941634567982,0.012821872927015502,0.025472574387352034,-0.06690169614710584,0.33794020250296813,nm,0.0
15.629676103591919,8.939748101431356,12.630742550610266,-79.31986321255339,0.2230223611526073,-0.9141873903314076,0.2415556427242527,-0.2341925005618434,0.23747403015005616,0.4697398622009177,nm,0.0
15.640209674835205,6.3299365560064,11.046923803358599,-77.44714570255785,0.7707908250573491,-1.4247584464059122,0.7376382500646356,-0.42195671950063907,0.42991975128117293,0.5215177030264977,nm,0.0
15.65250277519226,2.5860077646380684,9.118215477661378,-75.55145848610718,1.075198361897326,-1.727365059506726,0.4722558712216279,-0.5557642592245815,0.6199546634679461,0.5508657735944097,nm,0.0
15.684549808502197,-1.2029911894695726,7.3868975234948495,-73.80687882245083,2.0488052466266478,-1.8697563595876896,1.4973062424005898,-0.5408167455648409,0.6241092856704986,0.49237629805183974,nm,0.0
15.686729192733765,-5.693403453823459,6.482322635337913,-72.80235235914431,2.4441603391864763,-1.6364871079205754,0.8062264986059706,-0.43815425883534376,0.7936143020921039,0.33384220068907,nm,0.0
15.690536260604858,-11.412376728463954,5.776321213158208,-74.80740188036026,1.9166985384475337,-0.9214184322833516,-0.46706016205121365,-0.17967362978767334,0.30613770499673637,-0.2539622296100514,nm,0.0
15.707601308822632,-12.302599070296921,5.657140497720275,-77.16095210374307,1.4392879633297135,-0.7939471777221582,-0.6130481284016372,-0.0763589359021061,0.1567019671087133,-0.45670896067572875,nm,0.0
15.709826231002808,-12.008558542592237,6.360917354880591,-79.73711416756026,0.5667797207211229,-0.5062886660415057,-0.8274774059313347,0.13919753873885005,-0.0383017926613331,-0.5253440567382726,nm,0.0
15.759333610534668,-5.191314818932448,12.29623801682612,-82.9408964911265,-0.33525841523079053,0.4489731532504459,-0.429999830238977,0.5333958312061567,-0.5035225199491081,-0.1799574461646374,nm,0.0
15.761799812316895,-1.5827196432267268,14.398502942424392,-82.90804371456318,0.16701746171124557,0.8321721050446884,0.5919307042307009,0.49484488800769805,-0.652551223492109,-0.20740198907696414,nm,0.0
15.764461755752563,0.5890143920105725,15.11727200145688,-83.67747306812988,-0.19934718909406832,1.3192000617416555,0.014247417401947382,0.18230863278167828,-0.40759875818531444,-0.3172599652643947,nm,0.0
15.766456365585327,2.032596318056343,14.492765346677611,-85.65053139671542,-0.7254621232780192,0.9016578897239695,-0.5710914090117147,-0.10864107139866751,-0.2968610274558049,-0.5227002203538342,nm,0.0
15.783095836639404,5.216573892955,14.460717097833943,-91.80918164013876,-1.067958183636628,1.591225864479939,0.03748280563039834,0.0029008532510830473,-0.2577807061606621,-0.7133626447136954,nm,0.0
15.80577039718628,8.325308645786288,13.60333521027226,-95.97795450022038,-1.5969255347393292,1.1315602753351415,0.3717023090179401,-0.08405202825097609,-0.34283332839407654,-0.3765312245529182,nm,0.0
15.832095384597778,9.69514000963877,13.97501588416957,-95.88059083681947,-1.5361648911475378,1.432565802420517,0.0812782726160885,0.03567444275420764,-0.277157449613708,-0.054365857295390375,nm,0.0
15.834320306777954,11.323027024077028,13.601324727869732,-92.76170843850578,-1.2250927693664309,0.5628896957539393,0.2317809856600765,-0.07840147942590003,-0.11869989258338474,0.3475741379016231,nm,0.0
15.837665557861328,11.108699810859125,13.475641222109646,-90.61623292389078,-0.9029646248690969,0.42533244212297355,0.01282845935527698,-0.034066946065889524,0.037092852648706064,0.4602109781785553,nm,0.0
15.8472900390625,10.175113391031116,13.032716476382987,-88.53717467308687,-0.5403133610578954,0.12573060199451655,-0.025377610370268394,-0.09994527680344358,0.175589490676507,0.477831884010446,nm,0.0
15.873985290527344,6.020223853246986,11.268957873870887,-85.10402392064144,0.10132787561312044,-0.8040412598044959,0.3902371250965859,-0.22298586690838615,0.4567580659254912,0.48745265582069414,nm,0.0
15.876255989074707,2.847110440104481,10.14072150417838,-83.44045384500131,0.6229253328984145,-1.0094853512766582,0.8830545160231665,-0.2953437494815081,0.5923486786384875,0.5234969949295185,nm,0.0
15.907953977584839,-5.1835560158004075,7.087007587496497,-79.87797324274344,1.6174884136039736,-1.5763673792308683,0.8517630467455231,-0.4216456880947058,0.7145496128242829,0.5438695349026262,nm,0.0
15.910149574279785,-9.393264348846422,6.354213162266395,-78.39485292373084,2.164845103685348,-1.5649695871103875,0.6133337282942815,-0.31016025266431596,0.786270243299007,0.4528468902543507,nm,0.0
15.916368007659912,-13.282296915185377,6.023573325898443,-77.78506253892618,1.724845967810149,-1.2452425965350171,-0.7195000280056705,-0.23330567125711213,0.7350262538626126,0.25556191946281104,nm,0.0
15.934916734695435,-16.02524372112649,4.458682636730854,-79.46102144861352,1.6161709509103257,-0.9054815547020717,-0.7989185848927605,-0.1996859771245017,0.09190571210632877,-0.2766725681446914,nm,0.0
15.952471494674683,-15.642262481966757,4.190214048318348,-81.72581005332515,0.8003797783957655,-0.7036177292844692,-0.9942191969778577,-0.05161106722334277,-0.09320688504165264,-0.4615811017010632,nm,0.0
15.954530239105225,-13.62174318392519,4.644630364411841,-84.02664067365914,0.512833591539057,-0.3400152068770946,-0.4597852534563654,0.128995574335203,-0.3975496313433761,-0.4946085408494148,nm,0.0
15.987392663955688,-3.4260481990928286,9.92155796924769,-86.93670595105961,0.008054486479794527,0.740883590357119,0.48803657821489915,0.4658550412492214,-0.7840975677639751,-0.18790170355108965,nm,0.0
15.996694564819336,-0.4685927169656072,10.831615720452712,-87.30804220941837,-0.24170831710687327,1.0339482615520919,0.3394777141330579,0.2001849267673032,-0.5796581284158631,-0.18727450318972438,nm,0.0
15.998920679092407,1.6019497001760852,10.710953214892324,-88.3681360830458,-0.8265942482865303,0.8028299789371535,-0.36156271007811525,-0.019793512295936434,-0.41464279631035283,-0.29636078401980864,nm,0.0
16.025874137878418,5.428089263569556,11.37284775387103,-92.46234005816457,-0.951727361787203,1.4006938807726028,0.020054142630814658,0.04772984108457483,-0.301214927120243,-0.5342179335816055,nm,0.0
16.03583073616028,6.425926833460599,10.89371100071134,-94.9345107258306,-1.406373571256399,1.1789197467924526,0.10465934662081458,-0.11963455009073039,-0.19468882876938975,-0.5410807833219794,nm,0.0
16.058242559432983,7.472509312744331,10.539649259778216,-97.17491840309981,-1.3689006802561459,1.6429176070399156,0.06288987577290946,-0.018825672530372782,-0.030358175919165693,-0.11463675842340325,nm,0.0
16.06036114692688,7.172373176683434,10.133271071615885,-96.3948072131551,-1.2645036761657205,1.4419507647197722,0.19921275703509428,-0.0850734064561844,0.06340432583082874,0.15936692746801862,nm,0.0
16.08473777770996,4.970531696625078,10.131987826603753,-91.53107560533186,-0.4544104760983269,0.7512789145628035,0.3493286760631974,0.05950480507969918,0.27923510422878856,0.6140684740621164,nm,0.0
16.104228496551514,3.117811453086593,10.403035119461157,-88.76959952010661,-0.01634129726441961,0.2107783188667825,0.25922110752290994,0.045250180100747904,0.35843722654080484,0.6689686956643969,nm,0.0
16.1063175201416,0.7700623768159027,10.446271746011078,-86.32697137945996,0.45756060565768925,-0.5695101322748796,0.482387109533061,-0.02079709585776463,0.45547148591638514,0.6261190457454489,nm,0.0
16.111626863479614,-2.4249655497196216,10.409762879413703,-84.4778924984986,0.8924507754213818,-1.1563164403908077,0.5884682773868851,-0.06694814864964274,0.6194281663605775,0.541159739045152,nm,0.0
16.13943862915039,-10.175486641473624,9.246503294574993,-82.58914561549881,1.9248195208561012,-1.926091482384496,0.6752615821831566,-0.2621704594332502,0.7390438702218676,0.30863102334984804,nm,0.0
16.144814491271973,-14.43187705334663,8.63663722663615,-82.60861380145532,1.9877667966856671,-2.0320470760639506,0.0385124975991085,-0.2395462320984763,0.8112072957899442,0.16029002771343862,nm,0.0
16.182251691818237,-17.75764618038852,8.181084415954988,-83.21294610829273,1.418217017669029,-1.631266263029543,-0.9968800102163032,-0.18323238294502034,0.63408402153578,-0.02593978024366636,nm,0.0
16.18455958366394,-18.38332907875734,7.9360482061174435,-87.11901730145226,0.5430025867339547,-0.3261301360607233,-0.7601627195188672,0.13667401548908387,-0.22012242128831122,-0.3287092726351122,nm,0.0
16.187318325042725,-15.97781768386763,9.39775322373047,-88.36206754059451,0.4104879641196637,0.0817450197582161,-0.42280856214237494,0.299218393626386,-0.4717898785863353,-0.3243216454773091,nm,0.0
16.20534110069275,-13.057353510763216,11.27729099761409,-89.2428018134816,0.06835073096114454,0.2533679156441312,-0.25374116735782776,0.37623945576589995,-0.5744551148782653,-0.2849869903040316,nm,0.0
16.21756339073181,-5.936973585452727,14.408311651615334,-90.67170747646719,0.07269296778010859,0.7727417587604936,-0.1016698595027514,0.2113220778553518,-0.6945171587606174,-0.3289930704736447,nm,0.0
16.236408472061157,-3.2868370553580935,14.54595396087356,-91.96913114030342,-0.6242706708080445,0.4607578480092595,-0.449158951910541,0.0039051380519908485,-0.5201495266121949,-0.3985090204419093,nm,0.0
16.239135265350342,-0.22553039187293272,14.731157916109192,-93.78185464926445,-0.8017497101462302,0.6557897220244385,-0.4544062960749405,-0.0044478058376106475,-0.5995660568152879,-0.5245125048122438,nm,0.0
16.250603675842285,5.534316700594155,13.953129648299225,-98.13181785048997,-1.4462219337598825,1.0830813340707903,0.3496402832950973,-0.21759579410412055,-0.49179707561954017,-0.5776346094953271,nm,0.0
16.269808292388916,8.15379901197077,13.344206177853003,-99.80316003920238,-1.626062114268565,1.452164581318965,0.4520025319742975,-0.2112802033836953,-0.48846437096723283,-0.46646216445756383,nm,0.0
16.27245569229126,10.462042861304615,13.083300642381584,-100.65148163860754,-1.569862527882535,1.9518475528836365,0.521488253453647,-0.14245003987814212,-0.4373026792129321,-0.2839876140673462,nm,0.0
16.281768798828125,12.02020677427758,12.797650421851147,-100.71692580981718,-1.67300442161245,1.946552628155817,0.46310187233886124,-0.1235199903479929,-0.29192032517117705,-0.09172312698901565,nm,0.0
16.29129648208618,13.05285818714063,12.703445144993147,-99.93336179815144,-1.6508635131993665,1.5896711062837319,0.49121352692135556,-0.06543087386078425,-0.19886048624341374,0.1023147364716809,nm,0.0
16.29495620727539,13.557756032768085,12.923758434946492,-98.34484621113612,-1.422384352361415,1.0517465771299623,0.4930118798735603,0.01738972477029255,-0.10838894359022634,0.2865763862829782,nm,0.0
16.304847717285156,13.452693437780987,13.081362437945533,-96.23466678473329,-1.1714227338497283,0.27648044741076466,0.31344345777768073,0.023552478077273262,0.011953888617742128,0.41818833127271976,nm,0.0
16.334826946258545,11.932406322354902,12.353753273106602,-91.80186698779991,-0.48738737770627427,-1.4729015154297604,0.12318638215361843,-0.10662785730330125,0.19011875226346076,0.5095985729204984,nm,0.0
16.33761739730835,10.536465538980902,11.52423425089008,-89.968946726613,-0.018357849912562372,-2.0995101628198682,0.4420991550021968,-0.17136842458350462,0.27069146284304624,0.4771771830728699,nm,0.0
16.354817152023315,7.926182618234719,10.47454143810097,-88.73060151815284,0.6469629318712933,-2.472323977107785,1.1362712750161263,-0.22506443737879644,0.5050731404975387,0.4003836536993769,nm,0.0
16.373228788375854,-0.6091668024703196,8.760474728621931,-88.64636331149836,1.3985487096125655,-1.9685307952682016,0.9961829712455679,-0.16964941544303935,0.8298531395369776,0.08046684741042019,nm,0.0
16.375759840011597,-5.361214386327085,8.445076772877734,-89.98670859415533,1.8024517148510102,-1.397081548529459,0.6467258556450878,-0.08430008005944235,0.9336155303222905,-0.08676886357178366,nm,0.0
16.38999319076538,-12.991229547635834,8.61962867818513,-93.77425133990756,1.4058453228326928,-0.5484304422677031,-0.4916179418262845,0.06822772639154621,0.5740883128647427,-0.2928047016901354,nm,0.0
16.40727949142456,-15.105301334645464,9.442666803278252,-95.38369627084982,1.2073566438543166,-0.2960722118019364,-0.8624504550839697,0.1846969357803727,0.39792360174565694,-0.2676261511876624,nm,0.0
16.439058780670166,-16.156866618815965,12.290326947388674,-96.70985762437566,0.6415954357259281,0.02812054787656504,-1.118440483569376,0.2907067546309487,-0.08050825696447989,-0.07555833213135303,nm,0.0
16.441323041915894,-13.08366551652016,14.924458398596624,-96.34808162997317,0.1040798172932371,0.5779020055778353,-1.270443681304958,0.16394471764981713,-0.42882777684322043,-0.06437550110797133,nm,0.0
16.46042013168335,-9.99288227916575,15.240533803858257,-96.52200973498132,0.14450586943154364,0.8082173198863112,-0.799008496439581,-0.016782763758423008,-0.6060054248235133,-0.20072547762593307,nm,0.0
16.46265697479248,-6.293059661053318,14.715705801316995,-97.03845136205835,0.11022234041695138,1.035233783424694,-0.3060673381429068,-0.19892673414938222,-0.7038481392479321,-0.38021618470286905,nm,0.0
16.465705633163452,-2.56339802248617,13.836475110447699,-98.31121645591891,-0.30091629916796997,1.2206067690821354,0.3512969078810748,-0.2808460250772587,-0.6994328345536687,-0.5321651855659506,nm,0.0
