timestamp,roll,pitch,yaw,acc_x,acc_y,acc_z,gyro_x,gyro_y,gyro_z,markers,motor_input
7.018144369125366,54.80938860685075,12.1208283983653,-8.606724825281978,-0.5811135935509041,0.9842801559120858,-0.7383271879565592,-0.11686242155797977,0.06982460793237093,0.2876818781374268,nm,0.0
7.025920391082764,54.01024458444475,12.184017584306723,-6.997235765632327,-0.1819322633215164,0.7383816361473662,-0.6485908989279516,-0.1489697145435929,0.030725532526352444,0.3426137869081413,nm,0.0
7.059913158416748,51.86988544894853,11.547416847167987,-4.1442526937336694,0.20881640462489726,0.1624048890842632,-0.2517318928947695,-0.2312872789338815,-0.06923959938205619,0.2944428002580862,nm,0.0
7.062660217285156,50.36742138280493,11.110297623756539,-3.1819318111998514,0.10286992144346957,-0.21851875742593083,0.15678449897822305,-0.29525410835358096,-0.0720953029309997,0.23871016617374613,nm,0.0
7.0833728313446045,48.591972398164636,10.853934033341206,-2.62722808391587,-0.09935083735086186,-0.5722534048964709,0.5313930177507433,-0.34633403740146285,-0.037515099327027256,0.16582111596715984,nm,0.0
7.087515592575073,46.72508527479875,10.957886943664738,-2.4569000829372976,-0.11954132964603331,-1.070442999980856,1.0047836812685766,-0.3609659936582532,0.032765898770977304,0.0919390373641861,nm,0.0
7.089557409286499,44.970789100641795,11.597714758924074,-2.4509695094182415,0.10569786213013982,-1.4837275548662876,1.3295786692843958,-0.3340037252882823,0.1380995520197399,0.05703361908866581,nm,0.0
7.110621690750122,42.147338400481786,13.873743261634484,-2.29096485544318,0.9912736282690554,-1.554390880128456,1.1357233899048351,-0.2373177819485016,0.2405955032437268,0.07279823505594518,nm,0.0
7.120592355728149,41.328687306026694,14.795303211970126,-1.890345914296788,1.4020698968766947,-1.4316619753302233,0.915202725281714,-0.14790323496493402,0.18493446633296737,0.10799557427835531,nm,0.0
7.137749195098877,41.838548531331874,15.156839053065465,-0.3192911070792122,1.1604035331038083,-0.6113463021481678,0.4766769837608943,0.12316864931145585,-0.03018134210582965,0.11950171852658531,nm,0.0
7.150437116622925,44.57139575242748,13.910965781812738,0.40859744392214054,0.2343763707157206,-0.030214452996416414,0.3104289984095259,0.31811061849610994,-0.13258907591475774,-0.057810780248490165,nm,0.0
7.169003963470459,49.11214965309345,13.458094255688057,-0.3057768010203686,-0.2966921543014438,0.2894183626647714,-0.02920341619509502,0.4731067691947248,-0.015740747497465554,-0.2632896451367131,nm,0.0
7.199850559234619,53.93169687176746,14.146474835728178,-1.6730912667612594,-0.11888763317351948,0.3389232466668353,-0.6654844975360783,0.47273966564182035,0.06984279732485414,-0.284912470086113,nm,0.0
7.204408645629883,56.178993391749415,14.309933931200945,-2.2745802488695404,-0.036670615821029186,0.3513887235209571,-0.8343895403263883,0.44116791329541283,0.0158520194468563,-0.27089050967052286,nm,0.0
7.238802671432495,60.2034910961074,12.45818249532696,-3.6404972342482234,-0.5994573181502686,0.814354358724508,-0.9347760055240569,0.14844891476717514,-0.18348703331146968,-0.15922949848684764,nm,0.0
7.241171598434448,60.37908628029995,11.679155135401139,-3.9925369312708225,-0.8778268258881838,1.0057116281927418,-0.8661373750686998,0.028860520566688214,-0.15952427042258877,-0.1308010315984312,nm,0.0
7.242909669876099,60.062509936983815,11.230096685062122,-4.310031654595573,-0.9850608544839106,1.1637094707150117,-0.796374595599873,-0.06359972686700431,-0.08699618129028686,-0.09766836435088423,nm,0.0
7.260987758636475,59.30898963978392,11.176641489276609,-4.546760238025947,-0.9559653902913714,1.3041285799549351,-0.8255553798680795,-0.1436520484993234,-0.0012556485079290235,-0.05409755148161113,nm,0.0
7.263496398925781,58.245198470511674,11.302610076880274,-4.730657419734986,-0.7880793377556228,1.3042560066278177,-0.8493171534844131,-0.20154066674511964,0.039812350132120866,-0.02344464411565029,nm,0.0
7.272533178329468,56.9678415187382,11.289561434456715,-4.81299728987398,-0.514614719135679,1.1675581340317656,-0.8665945619638957,-0.2455127606198889,0.01573941247377273,0.006500587903156758,nm,0.0
7.295754671096802,54.26362583813519,10.085415177856287,-4.102728197121407,-0.17286077692408663,0.5827888543032214,-0.7007048954775115,-0.27011136465221874,-0.14913173205635988,0.12317710264040806,nm,0.0
7.298029661178589,52.96266283411236,8.841159914925743,-3.2923648614674974,-0.1721993145826632,0.07875122779708718,-0.3978870678607696,-0.26705853422247877,-0.23540421360029476,0.17413317365096345,nm,0.0
7.327512502670288,49.857252147732694,6.251520192016403,-1.308653420698458,-0.3156419681238003,-0.8800600622045982,0.46575939829177665,-0.34282105454269574,-0.22910633339143024,0.22987156129151226,nm,0.0
7.329641580581665,47.622134321910146,5.663429102195451,-0.3615190280575588,-0.2790515955696674,-1.33227365787215,0.9683674641100325,-0.4407121806794921,-0.11510754643311077,0.2278415284809794,nm,0.0
7.338756084442139,45.06511724931663,5.867217618275745,0.3885762805165383,-0.024938682755745196,-1.7014276721667347,1.4135301499823911,-0.5032690196842775,0.036642979594945634,0.20373716897952426,nm,0.0
7.345660924911499,42.575108539013094,6.781902424336744,0.8909666478259409,0.4542904220724153,-1.7964654399711346,1.6669578388633108,-0.4913755240917154,0.17334331122534102,0.16832792224798118,nm,0.0
7.372238397598267,38.87929758405416,9.120148773599613,1.636882513008483,1.407406637180257,-1.2912434815156513,1.3142136309031314,-0.30618190081166125,0.20397154191740777,0.0966913341301291,nm,0.0
7.381789207458496,38.055665896606925,9.643247082340446,1.9289207090716223,1.485103939243244,-0.9291030195464605,1.0210333320679807,-0.1602647906452769,0.09402508122251342,0.07331618233665413,nm,0.0
7.402751922607422,38.97060205032788,8.612564923205309,2.276568791299038,0.604671401779672,-0.2042274792776368,0.69160087637771,0.18834279816975755,-0.1622551524985776,-0.022439398891114577,nm,0.0
7.407331466674805,40.61272724049574,7.6709377967291905,2.097743518599928,-0.014101907580372492,-0.003043481661547331,0.6124669606000592,0.33855847341492196,-0.18114490623024365,-0.09443808066028879,nm,0.0
7.426420450210571,45.155054200202265,6.996597149501729,0.5242259806388764,-0.5572984781735636,0.20726469210499354,0.283267702873997,0.4715624705904348,-0.005380053559089817,-0.27173556395558174,nm,0.0
7.444287538528442,49.82610068947434,8.533654246446938,-2.183983819423508,-0.11738657547627535,0.25310512111883027,-0.2497347619122022,0.4549853811680465,0.17488190870057024,-0.35799169288287114,nm,0.0
7.453626871109009,51.51767225258459,9.405138391109231,-3.5355879461019124,0.055042023351680076,0.391950587415251,-0.6951495055893743,0.34807190054355064,0.15411366238692878,-0.3366036945043648,nm,0.0
7.480508089065552,54.11924563809275,9.139351659025357,-5.6797292472705445,-0.6962857335963635,0.8942447547900257,-0.7448401127233414,0.07480544535445555,-0.12409973776749557,-0.09844477305329306,nm,0.0
7.499063014984131,53.95825360982827,8.26046365416205,-5.557677922469955,-1.1756535841206532,1.2946279752880945,-0.5543301009387758,-0.046718939839488105,-0.049331190648183566,0.028836239755320254,nm,0.0
7.516381025314331,53.513553567795135,8.585148118765199,-5.297918727204867,-1.09893518722976,1.3672679284508966,-0.5785472602161335,-0.07630323204263578,0.06988902264004031,0.05197062060194612,nm,0.0
7.527023077011108,52.958748691268745,9.42483416156003,-5.05676969429885,-0.8226383724315401,1.2323594506918876,-0.5714797800291117,-0.08905281864272135,0.17413164334988487,0.05250595509786043,nm,0.0
7.590333700180054,46.62697596256346,10.835194148802026,1.6832845560510892,0.17737806950989266,-1.2249756581890667,0.8893181610200716,-0.27613260299293513,-0.05246008661949988,0.3379862626152737,nm,0.0
7.5998125076293945,45.01641553459744,11.242501925235935,2.8496081453095288,0.4040267804693352,-1.4784837084409888,1.1768229633638732,-0.314352499192342,0.06484450367739408,0.2825184655769626,nm,0.0
7.603903770446777,43.39907962674821,12.18196965695718,3.365610761669181,0.7294070194375446,-1.5065856492515581,1.2413765152349432,-0.3216874532686417,0.1664444102816458,0.17212942838466244,nm,0.0
7.630414962768555,40.984044085180216,14.154583991868336,2.85096266554186,1.2227893867062234,-1.0933752423652319,0.6820990720920044,-0.19045311553938193,0.16088906394081764,-0.04311611396500397,nm,0.0
7.637024402618408,40.81836118962,14.49569994488276,2.4763012129886977,1.095741565155339,-0.8318201466983669,0.5097459597652467,-0.030693131372173478,0.06163736032492139,-0.07956412953504928,nm,0.0
7.658012866973877,42.59437876536323,13.05865268191937,2.2444594128167465,0.32713079003888734,-0.307739305602564,0.2846342413542263,0.2528947972219011,-0.19888284714321616,-0.09746477712282818,nm,0.0
7.673478603363037,46.52110438898039,10.949299184349504,2.2446429897424953,-0.40157955358621034,0.16037783906508143,0.20804156482947386,0.41496025675872833,-0.17742981719558154,-0.14496514423395174,nm,0.0
7.691234827041626,48.55094168641218,10.449963403902945,1.6545751085733558,-0.4402234347749659,0.33479346039626234,-0.11592163714621617,0.40796698304865475,-0.08951550721271634,-0.23287262758639962,nm,0.0
7.693138360977173,50.583288580107165,10.509510802014486,0.5269994266138102,-0.27506229307953994,0.32947231062615956,-0.185845455470362,0.40506372969336657,0.016434389471030632,-0.3255621458813901,nm,0.0
7.719175815582275,53.49134286785664,11.394442621641259,-2.5837795655968514,-0.07123966136534692,0.47410008303695544,-0.7752972146477649,0.26037741237386197,0.0752845077503819,-0.41346732594762875,nm,0.0
7.733802080154419,54.79293350296143,10.938708139848618,-5.444738260425725,-0.41168888102574613,0.6572421450879526,-0.9091243340525282,0.07779241604307766,-0.10931808207330627,-0.3046200904972482,nm,0.0
7.750166654586792,55.01135037144401,8.58972020679203,-7.017186654748914,-0.7081402926637019,1.0825462259125693,-0.8110006615317437,-0.02857783766337281,-0.2635265417090647,-0.16196687296566517,nm,0.0
7.760031700134277,54.76214687696783,7.392420058478548,-7.353440095230447,-0.720932570567689,1.2011689938123415,-0.7705312830122175,-0.07327713405042384,-0.23503095834342727,-0.10565613606586664,nm,0.0
7.766333341598511,54.271534248375474,6.488083692073176,-7.7496078577186,-0.6451549203912537,1.167475460907546,-0.6229079242470529,-0.11472887474028609,-0.1702084970940447,-0.10332284571600582,nm,0.0
7.7877442836761475,52.33912816680616,5.390538640234067,-9.42091004027171,-0.25125423049898626,0.7419467395353521,-0.5454998176832023,-0.2181210723342463,-0.06022725190754309,-0.20034989472232514,nm,0.0
7.793871879577637,51.10279524756155,5.030299509970557,-10.369448366379812,-0.2841995638014384,0.4074073960941976,-0.43181175619023004,-0.24964222515452117,-0.033116268231538855,-0.1861080877684877,nm,0.0
7.821264266967773,48.02633308884419,3.9663901993525403,-10.992883529703521,-0.7422631014199584,-0.5651942032972551,0.5007885850904822,-0.34206869043182375,-0.05739240291143724,0.014663071027047132,nm,0.0
7.823421239852905,45.94902988782433,3.5422966535902294,-10.075213145121047,-0.8484726475054086,-0.678007540129604,0.895258294351695,-0.4178315532927962,-0.012556057236901326,0.21904103046303341,nm,0.0
7.8482513427734375,41.55502520258712,3.9102388486770447,-5.961324523488016,-0.3501955066171224,-0.4733597869657855,1.1388693974341986,-0.3971627671329114,0.1278223206510346,0.5150213164585299,nm,0.0
7.850722789764404,40.07140769183725,4.791266448807436,-3.6690906361389026,0.1650445338375387,-0.4913604753523065,1.1090504141209951,-0.2739013572430652,0.19561505543805366,0.5214641984585756,nm,0.0
7.877812623977661,39.89812396902755,7.404500440938578,-0.2964288151160962,1.1392604173804741,-0.7067202143853423,0.8323315613535655,0.0871042337917584,0.2641320747845369,0.29686032573522336,nm,0.0
7.904856443405151,42.44571977233472,9.275571027324126,0.8615643954165728,1.41462033046894,-1.0544273674258826,0.5937599624943197,0.30045679869771313,0.14259841822174313,0.019257133022835077,nm,0.0
7.974308490753174,51.09486327968816,7.823840934045173,-0.4384791488852388,-0.16742904475926412,-0.6040224625256233,0.03746206170515342,0.44505307889569923,-0.1153374193301032,-0.2096158226544819,nm,0.0
7.977538824081421,54.3861909656292,7.7521639424986235,-2.288937323568954,-0.19210369816617556,-0.12151768960395534,-0.38130461397112,0.29528207506998266,0.024565559326369522,-0.2834659413066651,nm,0.0
7.981161832809448,56.31483943298826,9.120060207120638,-6.2927154063369555,0.06688417298500823,0.5826731019596688,-0.7731504707278293,0.06594945763793326,0.052196559706063406,-0.3039458415659226,nm,0.0
7.997442722320557,56.218086003878405,8.236806569019018,-8.674565019129522,-0.5007194529362421,0.9977532736582142,-0.6411482100594762,-0.045908985062822615,-0.13204935740893844,-0.2540512921647337,nm,0.0
