timestamp,roll,pitch,yaw,acc_x,acc_y,acc_z,gyro_x,gyro_y,gyro_z,markers,motor_input
10.508074045181274,4.095145169410959,17.07199442281568,16.420062411908027,-0.33593849006510207,1.270227699441738,-0.4075055671838697,-0.0350352583812983,-0.04723626556185622,0.43025856843716387,nm,0.0
10.530454158782959,3.4843361827713686,16.167836068409482,18.6455515161352,-0.40303707060034866,1.2138042317735687,-0.3831412283606104,-0.054222282030416714,-0.14610694038321326,0.2071249729587817,nm,0.0
10.537669897079468,2.490281815770394,15.43243934985656,18.96629350753407,-0.3454023323292253,1.1616653098076675,-0.5940410494781317,-0.12506263599302533,-0.20974153862983988,0.12971171059376516,nm,0.0
10.56101131439209,-1.4756095666834594,13.385466789395418,18.646800102250722,-0.42119016159052713,1.1089840474930968,-0.8363710906157936,-0.3553928164447697,-0.37744178220705893,0.06215580770186402,nm,0.0
10.56298828125,-4.210559868336078,11.836788325262278,18.08642352649056,-0.5756993459597071,0.97602350471648,-0.90603887801624,-0.40008996049759854,-0.4717226703899609,0.010577718904324143,nm,0.0
10.611830949783325,-9.036926480873237,7.998904462445594,15.907873969479038,-0.9016060782646783,0.24079844570355133,-0.9638000092966784,-0.28093113245914,-0.5078484796690271,-0.19218495883013093,nm,0.0
10.614400863647461,-9.744435711444304,6.102635994907029,14.370507456471005,-1.0154371387373473,-0.2009799873373973,-0.6947215471725082,-0.026751985457483526,-0.41323503056138877,-0.29431703437057827,nm,0.0
10.617473602294922,-4.955834339095924,4.067171269732795,11.432289959353994,-0.6502644489798837,-0.9070427233353465,0.4289562488486554,0.7427605894548714,0.03550215141528985,-0.33007095395174013,nm,0.0
10.633708238601685,7.076278534200885,5.965341249665794,10.56348751117024,0.7284015294458429,-1.8569909834128135,1.4392800156289627,1.2318289664510387,0.48844072709697933,-0.12007607074908323,nm,0.0
10.638959407806396,14.70947391635909,7.392720645243094,11.497222499319902,1.3804356621551614,-2.0899772133357453,1.5043954458418827,1.444421341401363,0.5612546629030531,0.01997805417792604,nm,0.0
10.65543794631958,28.15546937180669,8.361076616496716,14.515273875849738,1.265893743894848,-2.17746563947787,0.1376415833528899,1.1755319537780955,0.2990776599329982,0.13329629299784493,nm,0.0
10.672850370407104,32.724902172017835,8.095871335046267,15.473789370207134,0.7305680498013642,-1.979239476589297,-0.0019423066152610736,0.8960836856134895,0.17807679324105183,0.04960329847804274,nm,0.0
10.68021821975708,35.057953910148356,8.257030553535312,15.537676262075005,0.18095801412224366,-1.6880731142638001,-0.3290587007986608,0.44434209916703293,0.15013839037209564,-0.06525216781415641,nm,0.0
10.68433403968811,35.45026143854954,9.306502992973035,14.768220270741944,-0.2680864486879326,-1.2908568483554734,-0.5269575912498748,0.027031180593554263,0.21846984089888813,-0.17787326470832848,nm,0.0
10.707916021347046,30.529394148913806,12.678360827264223,11.254426155125616,-0.16881693657903352,-0.5769446721172365,0.10666828286460231,-0.7493473012193946,0.17615551618286426,-0.2640627510747433,nm,0.0
10.716984748840332,25.261093075518296,13.77800190532115,9.415076709680855,0.015181296810126699,-0.17303636898735314,0.27512705243634106,-1.0436935887561476,0.02500683719143056,-0.13760598545358402,nm,0.0
10.732668399810791,11.406221459228059,13.585486134972085,8.518838177110949,0.07066292454227209,1.00807428662905,0.6588475759283576,-1.374207132771511,-0.30260701031501713,0.3656758517225097,nm,0.0
10.749710083007812,4.008398959753403,12.973134272153034,9.679601986891214,-0.20848008516594635,2.046846405414364,1.1872388072128472,-1.3969939791604746,-0.358818264866966,0.565193703878494,nm,0.0
10.753144264221191,-3.966455159543303,12.587194994554272,11.148662599804751,-0.7780968370052366,2.657940095392875,0.6859541947993238,-1.5097965003488893,-0.36773400722357535,0.6413599694434604,nm,0.0
10.782248973846436,-18.787438638549023,11.86528137776361,12.374800540087037,-1.6339268910165448,2.8986233201409934,-0.5679241844206905,-1.3256509424854759,-0.4012341551237426,0.3319070453882523,nm,0.0
10.784361600875854,-24.96488948917108,10.779165166308912,11.770932023234732,-1.5137696404182852,1.9835994768777807,-1.624212793593455,-1.1311602332967914,-0.4768877744132075,0.12087791809020361,nm,0.0
10.812885999679565,-30.305402072610782,7.303107014388021,10.497493473081903,-0.4387964809931929,0.9956462551351546,-1.9511295350683135,-0.20029967438620885,-0.4173871141720615,-0.05071355111850762,nm,0.0
10.8153395652771,-29.699397278772278,6.108090353162622,10.72284459979683,0.22814248059762218,0.49400315253851884,-1.40617055453191,0.17221378660302794,-0.2237967539087302,0.03136970645432398,nm,0.0
10.818769931793213,-26.34389574949998,5.995090925193155,11.918262302503186,0.49198148124162816,0.31557087125289224,-0.6342735622337826,0.6695517375092274,0.09836295637606836,0.1682487887911543,nm,0.0
10.846547603607178,-12.646272182232263,7.27674637725667,17.566984784964827,0.0811783019720137,0.10842524381041303,0.8623784342185145,1.451669087687403,0.5390790057532593,0.4632978504124614,nm,0.0
10.853017330169678,-4.0039965221105165,7.460757578078263,20.874176089649712,-0.06875691501853169,-0.5454149328443523,1.3583450336920468,1.6193863731343738,0.5913655549404393,0.433981523360372,nm,0.0
10.941388607025146,13.637686808984995,6.296380290433479,23.947587758034874,0.5090019553206492,-1.7567709642865963,1.5564049393349133,1.651818786022383,0.5574885363888143,-0.06352137347321068,nm,0.0
10.948905229568481,31.42400909421865,7.427137238616762,14.794426230373489,0.24963116033482743,-1.0749541252504118,-0.254189787268885,-0.17852723083648414,-0.18529282424345292,-0.13691722533926348,nm,0.0
10.95183801651001,22.39634195308024,6.374473296453709,14.537745295307076,-0.26058638254963445,0.160027713385719,0.3451251130735032,-1.032881966247895,-0.3340194217148878,0.11596201083617853,nm,0.0
10.954509019851685,15.43520783232635,6.436769671862272,14.122014905310403,-0.6289400193685013,0.8664908169887918,0.7866082510235709,-1.3368210187061687,-0.33856689659134265,0.06373147078941467,nm,0.0
10.968944549560547,7.313026175450777,6.299509888671542,12.774662032601515,-0.7227418065718443,1.5692775704094635,1.0971346425363233,-1.5571250296178227,-0.4115725738244443,-0.09617918046564262,nm,0.0
10.996601104736328,-9.970719294459405,4.869440062310403,8.030790484624744,-1.123506545082662,2.4160551933560948,0.15929409193014762,-1.6529711840825554,-0.48525337945749275,-0.35435203362396683,nm,0.0
11.017772674560547,-29.164380056787838,0.42330761483739726,4.157043087129614,0.1838264312914228,1.0446610806081769,-1.6035198356153155,-0.33847887124123965,-0.07520559345626186,0.09554710945423299,nm,0.0
11.028393983840942,-28.677589326019838,0.7977514554796598,5.674567207808458,0.5954215850928085,0.7453783761054648,-1.3318264375481315,0.09931726585395433,0.07145532494403492,0.30383163816524184,nm,0.0
11.067402362823486,-20.455542969506514,1.9434098750184023,11.006105100388258,0.4837272635552937,0.6390426570166751,-0.017318428782088596,1.0400083507666886,0.25442530729308527,0.5595372941950143,nm,0.0
11.06994915008545,-5.916086077717296,1.4401763098578446,16.444911479353845,-0.12783933699215697,-0.1718042397410409,1.6344132127950468,1.5161274245723757,0.3184984016430751,0.43598841790502585,nm,0.0
11.087252855300903,1.8324311729306697,1.1652971846355258,17.855705626225216,-0.1646125568064137,-1.1279336246817662,1.505674399423785,1.5091297153375993,0.39658774150602893,0.24130016903320317,nm,0.0
11.090264558792114,9.491015247829584,1.186933709939127,18.231178673860082,0.15207940112647153,-1.645276902586414,1.5295341737077894,1.4669528162698482,0.47155861119343034,0.03661941161745726,nm,0.0
11.09393835067749,16.03615229125646,1.7699732623911104,17.860593892279987,0.6779198898639559,-1.9893351669614188,1.1363362145291378,1.219588457713815,0.5099990998635625,-0.11616455616585818,nm,0.0
11.122324705123901,24.067809211259704,3.6856405807024752,16.56211560689538,1.1076784854090542,-1.9695014588269903,-0.16452555491570092,0.5702612190052824,0.3463076497458365,-0.17704332858143532,nm,0.0
11.125219583511353,25.381630002541108,4.001986861337565,16.062040159284727,1.075989210215598,-1.7283880388799708,-0.3982105344838242,0.2428926337835231,0.12862240701982364,-0.12770081829878013,nm,0.0
11.131427764892578,25.095679534782608,3.8557541901544568,15.894697535896332,0.7131130216335992,-1.332693460607034,-0.3398135428565174,-0.03813106336607539,-0.04986242143760638,-0.03943121378210415,nm,0.0
11.157859325408936,19.551214803578432,3.3238434990637673,16.017138155526027,-0.24579609180831694,-0.3278724489635307,0.1705457951852812,-0.6809697614603984,-0.24356682850865047,0.043462820773355164,nm,0.0
11.18219804763794,8.512129129616703,3.918067865755399,14.789919140108173,-0.7741784374734868,0.8149211191410679,0.5887758717060794,-1.2046692892584514,-0.254549409121632,-0.11410551520082006,nm,0.0
11.184516668319702,1.7014458824218939,4.167211996665634,13.194743498290617,-0.8472916731131376,1.2905737264056187,0.417451743909665,-1.322997865593362,-0.28994462216538963,-0.22883661040327366,nm,0.0
11.199199438095093,-12.353887258557577,3.272883825620445,9.249532953598566,-0.8835192321389277,2.174888077024024,-0.11438970349515816,-1.3718226371831383,-0.40111109002128276,-0.3062277146259132,nm,0.0
11.21716046333313,-18.688792088613628,2.3047791160972455,7.682984013817045,-0.8697463604681058,2.232733062542075,-0.5229216878658648,-1.2160316978113042,-0.38940651839024165,-0.25314454936374664,nm,0.0
11.230940580368042,-28.09289741795224,0.7727331466326487,5.854144409465617,-0.8128211390833636,1.805717333476976,-1.5938771396314366,-0.8087364409056352,-0.22809734139325777,-0.13406606574613264,nm,0.0
11.272133111953735,-31.182721141162162,0.05591481994256032,4.50331776875994,-0.4479610089871084,1.308149007638982,-1.8223686840356683,-0.123256251938504,-0.08617221823264519,-0.1443543578482128,nm,0.0
11.274354219436646,-27.4994650277164,-1.2187604795340685,2.5983996746746745,0.430883773644235,0.23490978271114446,-1.4401479113986986,0.5908682157252934,-0.13918587356034054,-0.18788339317130806,nm,0.0
11.27723741531372,-22.4735166010263,-2.183175448763179,1.736310251471375,0.9709809243187822,0.08013864713062613,-0.37686426365192083,1.0205292092941451,-0.16699186311535452,-0.1427282349376917,nm,0.0
11.294109106063843,-15.216252101786846,-2.8904463166671683,1.3162141852735463,1.265018926740866,-0.15587615226808132,1.114737689347908,1.4631005729895168,-0.11481809472467544,-0.02120938481125647,nm,0.0
11.2963125705719,-6.47103591805249,-3.0239775762906507,1.767179624175743,1.1281206073655594,-0.4334785958241158,2.7548946289458027,1.7572461899751513,0.008776733060114688,0.17718032726193658,nm,0.0
11.302226305007935,1.9893487427845566,-2.7173944773242287,3.278010519718052,0.6510942273941495,-1.5812971356687233,2.4792915868032908,1.696387178322273,0.12501825196763347,0.38184574178811587,nm,0.0
11.32688856124878,17.44273333743319,-2.553009985821034,7.884488294954644,-0.07154103579394294,-2.2397296261772723,1.3335360780590062,1.4546032328045455,0.15806269541210394,0.5188809039428488,nm,0.0
11.333128452301025,22.768632961267215,-2.1655606214930554,9.545164447279463,-0.08252317971861373,-2.2160584111745045,0.38325159632121597,1.0508100975948538,0.2310728498824911,0.36752715442698264,nm,0.0
11.357306480407715,28.1896642945121,0.7309508175629004,9.638725924570887,0.41918274894624014,-1.4991753556994825,-0.2944334764404443,0.3030603425526743,0.40388061749013837,-0.11565251533167485,nm,0.0
11.359516382217407,27.838681429825694,2.766332900952724,8.202791280036147,0.6442759069309205,-1.0069373548811666,-0.5994128588648042,-0.1246688293539257,0.3851807135554584,-0.29557416537186115,nm,0.0
11.391971588134766,21.078821333528314,4.8512840921305,4.357653812377882,0.2327234665091284,-0.2306323827926495,-0.2702177264892641,-0.8718015258288699,0.006924045854186131,-0.32342505104043334,nm,0.0
11.39412546157837,15.185896854312906,4.220140405806785,3.091638223321529,-0.2070234794147763,0.21703816693609154,0.3820466765628966,-1.1585389515321678,-0.21173369514704865,-0.16834017958707023,nm,0.0
11.421605825424194,0.09102201570638305,2.119673337774795,3.474396213001208,-1.268692068756378,1.5659458746328163,0.7163149184376805,-1.5354487131387657,-0.290049978317662,0.19278653516551575,nm,0.0
11.42386507987976,-8.398259016718134,1.7796912267371134,4.435046304282159,-1.5872105154316123,2.6192241604535025,0.8564544154301882,-1.6823831584147564,-0.1963658574982819,0.2463463420690557,nm,0.0
11.440796375274658,-17.43770727120906,2.0877757143826434,5.165710959329335,-1.344368906328145,2.6623462048164903,-0.13585863418337352,-1.7998132501312307,-0.10168691058138499,0.20546298212796751,nm,0.0
11.442934513092041,-25.260907853208952,2.8031953084095926,5.4548808864707485,-0.7769518210055978,2.666858124278191,-0.7970624217392868,-1.5633807023187576,-0.014075963917740875,0.12462563505127693,nm,0.0
11.445654153823853,-31.58469731220093,3.5258693474598424,5.246082612414759,-0.18417121578778642,2.4106042751883483,-1.5264564606748254,-1.2639644203187428,0.014492475934643851,0.02935770005141123,nm,0.0
11.476914644241333,-38.526171865590314,3.2983243147303876,4.209684755836387,0.7946635234216977,1.211357527062443,-2.1899964615807543,-0.44031735798408556,-0.13456088652753734,-0.08000870779252289,nm,0.0
11.487918138504028,-37.92311952750716,0.6208073456073053,3.7492455664638786,0.6893871039570533,0.5316719475022049,-1.3692170422560963,0.23913825494483026,-0.31707982833755743,-0.007983366426136576,nm,0.0
11.50537919998169,-35.063143356171814,-1.0419753004452954,4.228279436559903,0.2178280335736917,0.4349566777674787,-0.7530740324563505,0.6028062726598633,-0.3039266091448665,0.10048442745978559,nm,0.0
