timestamp,roll,pitch,yaw,acc_x,acc_y,acc_z,gyro_x,gyro_y,gyro_z,markers,motor_input
6.51292872428894,51.27197209631455,12.480418607351655,-10.487023695858007,-0.09555386355285538,0.5113974747592813,-0.5435607078895208,-0.179853995362291,-0.005342627500063642,0.11473427912242162,nm,0.0
6.531636714935303,49.13321022660902,11.510999755176677,-9.205743292231201,-0.125258692009037,-0.4379050547872506,0.05215764743751962,-0.2334783486262633,-0.07099596320365378,0.16789115418492112,nm,0.0
6.558512449264526,45.794048003822695,10.818985168365442,-7.367584509788122,0.08763894729030385,-1.3481583298579491,0.8777682685045576,-0.37532561688749105,-0.006514454113288908,0.23989136677950731,nm,0.0
6.562945127487183,43.62902943287828,10.767010485682977,-6.490274800676947,0.4148566577884982,-1.6484362826163583,1.1453188667557548,-0.41949001906289124,0.03594227424637843,0.251543312807678,nm,0.0
6.585717439651489,39.471272019180454,11.437473953455386,-4.521517609065395,0.9487397850652349,-1.4885788041729955,1.2804471760065579,-0.38237806671922053,0.1109606758297783,0.26764949517419273,nm,0.0
6.591753959655762,37.97236977624695,11.696410913394564,-3.703897286544904,1.098880261113498,-1.231669013242859,1.1964605439349345,-0.28497950572108743,0.06669611991238522,0.2117088612780122,nm,0.0
6.614011764526367,37.341853537628154,11.55563923332753,-2.72749081351005,0.810479110833703,-0.546859122656946,0.7915508282681725,0.027433757941358185,-0.04241715142588985,0.056766785971422824,nm,0.0
6.618850946426392,38.203100843328855,11.149463304176585,-2.7200699187702653,0.4682356940698615,-0.27837077302402224,0.6107422834946198,0.16991944471348017,-0.09533271025354878,-0.0446420481234964,nm,0.0
6.646338701248169,41.85251748862115,10.330740204990848,-3.452467923486096,-0.11416362998676184,0.0488925844309979,0.17749933513364932,0.421079080668486,-0.0945087891251947,-0.19118760465959253,nm,0.0
6.648728370666504,44.29546281092974,10.182827952630625,-3.967836379914247,-0.31642393729607127,0.12212285825085219,-0.045844871295546964,0.48350212336118503,-0.06517879211466117,-0.2278631656569105,nm,0.0
6.657926321029663,46.87478844595458,10.125006708808801,-4.603574399026292,-0.356776865735484,0.216434893221419,-0.28674544106148214,0.5111307197556939,-0.05350604753024563,-0.25675297367126637,nm,0.0
6.6686341762542725,49.2970830577034,10.144232116408844,-5.279966326923079,-0.3767283451720256,0.25287423078689725,-0.3800615750453404,0.480986903451096,-0.0408769151659268,-0.2583706742747515,nm,0.0
6.6870198249816895,53.223467265520284,10.184677076895749,-6.918455708868899,-0.5819844242219857,0.5931280480665764,-0.7253278419959189,0.36932975018195413,-0.04610769502048939,-0.26328141884468603,nm,0.0
6.689024209976196,54.69542321056065,10.208130006042879,-7.879993473020951,-0.7340590363270105,0.6782641233191402,-0.7482926711712009,0.2930652552248779,-0.03588736376406861,-0.2580386826367359,nm,0.0
6.715676307678223,56.4615916763383,10.868006830743234,-9.533687256681299,-0.9247949004512147,0.895883604334173,-0.5693714694891983,0.13811958228878882,0.07248371773375957,-0.1882842216420148,nm,0.0
6.71825385093689,56.44568613168958,11.75142245442116,-10.061866342837092,-0.9154905438308311,1.1973560962072747,-0.8472881326240864,0.03130986931727215,0.17198826611684684,-0.12512103328146898,nm,0.0
6.745568037033081,55.551845193590545,14.241755771663646,-10.84639818791359,-0.5886518867658463,1.1716679424754066,-0.7538027562758508,-0.0783916809217652,0.2784985347114354,-0.05544514902588723,nm,0.0
6.747711896896362,54.64794483453078,15.455019612453743,-11.16768691941707,-0.4141943418758723,1.1619567075134896,-0.8979148218679152,-0.12200451186672936,0.2687498729246252,-0.031732339580624706,nm,0.0
6.7803795337677,52.87026989633704,17.002424579719754,-11.545458386850543,-0.1767654231936999,0.7019669132749458,-0.7803847232720642,-0.14544032200486712,0.14965812992770647,0.011937990725845683,nm,0.0
6.782507419586182,52.00466497255592,17.266093568558276,-11.539688405356705,-0.14162101446107284,0.23499651431141955,-0.4964410607027731,-0.1489070484263912,0.08123212534082905,0.03851686220054524,nm,0.0
6.811350345611572,49.6271278667638,17.157178505035752,-11.020113477069112,-0.10013369979721386,-0.7172502938172514,0.12573234758113166,-0.25229186475727283,0.022075641992418283,0.13762871087923204,nm,0.0
6.813444375991821,47.988444367035896,17.067958798904318,-10.365946342132261,0.07214589519880413,-1.1239333611866518,0.5246237516005999,-0.30865293293108176,0.03623233590047549,0.214132402844955,nm,0.0
6.830444812774658,45.90861404823044,17.096410854511536,-9.556627006999413,0.3041491549302278,-1.436076633980764,0.90435657828991,-0.3882101261145208,0.07007931619655226,0.29282565986545855,nm,0.0
6.834943532943726,43.514902434973266,17.254779348503515,-8.655206627122014,0.6545394553666738,-1.6183507920246936,1.2476879284994016,-0.44417535483075243,0.09924170888176363,0.34198315770515103,nm,0.0
6.8410115242004395,41.0210009677202,17.58803339681505,-7.5180300028766265,0.9924945466013206,-1.5640744576005463,1.462189064045374,-0.4595048472972453,0.1274804522690607,0.364291930013306,nm,0.0
6.866962671279907,36.75753511616936,18.233610669111165,-5.787985660822376,1.197988884754749,-0.8685039020821596,1.2100058275192727,-0.3526322835835461,0.08001591425187768,0.24671997015430855,nm,0.0
6.869158983230591,35.60293492549935,18.2219115946219,-5.422310118583358,1.0899737118552095,-0.5449368963332466,1.005482616814814,-0.2157374947126829,0.012522956873958815,0.13309442672215388,nm,0.0
6.872351884841919,35.39650099315502,17.947136771575217,-5.333920602117264,0.801419188209734,-0.23261465220573013,0.7927739632436583,-0.04113317767578568,-0.057758343513842784,0.018115717608102076,nm,0.0
6.899133682250977,37.57668233700714,16.652538141936315,-5.790715938987228,0.24112152386003563,0.04383348396801174,0.509773612118022,0.2723036671034986,-0.17898284291263059,-0.1580781532364864,nm,0.0
6.905343294143677,39.77442923340054,15.963587213931078,-6.046161043975949,0.009287025293948453,0.09925080551710623,0.34924703838497095,0.4094306868975174,-0.18670475964012836,-0.18744941563545392,nm,0.0
6.930331230163574,45.22452224796757,14.645785354194732,-6.461418429817291,-0.1515254928295483,0.1527853553201014,-0.0943610212084638,0.5325743422452567,-0.19817988808018366,-0.2166377044505264,nm,0.0
6.932535171508789,48.03396560824683,13.952745507359088,-6.845206586838415,-0.17864144616995545,0.19361072684388092,-0.3013486253380696,0.5293192075238626,-0.20536933936400487,-0.22901421408437214,nm,0.0
6.95723819732666,52.393123593426374,12.466113494890548,-8.195011064723927,-0.45694957375516954,0.42303791108697714,-0.6049763421545711,0.35049861809057103,-0.20096712241695616,-0.25401434990419197,nm,0.0
6.967024564743042,53.91363106219018,11.832710445972051,-9.11148344805443,-0.717270071628764,0.7836421530041893,-0.8309413989660595,0.2795021475410476,-0.1735881753790252,-0.2609824706035112,nm,0.0
6.984147071838379,55.732635273560525,11.177707905342896,-10.831018095824055,-1.2332640933329404,1.1082348982299655,-0.8322462920663053,0.1251260376842393,-0.06758150013797959,-0.19488087607510302,nm,0.0
6.986279487609863,56.05920277552086,11.234119993934685,-11.161340079383896,-1.3358586101984684,1.0568578708455314,-0.6731182134907341,0.06950488626608511,-0.004227027209256127,-0.0922983890635215,nm,0.0
6.999925136566162,55.96604391047025,11.517286787278138,-10.859207522138387,-1.2748424041663504,1.212908549287628,-0.7223653926288812,-0.0027967984762032453,0.056134442756463884,0.05072657305751636,nm,0.0
7.018144369125366,54.80938860685075,12.1208283983653,-8.606724825281978,-0.5811135935509041,0.9842801559120858,-0.7383271879565592,-0.11686242155797977,0.06982460793237093,0.2876818781374268,nm,0.0
7.025920391082764,54.01024458444475,12.184017584306723,-6.997235765632327,-0.1819322633215164,0.7383816361473662,-0.6485908989279516,-0.1489697145435929,0.030725532526352444,0.3426137869081413,nm,0.0
7.059913158416748,51.86988544894853,11.547416847167987,-4.1442526937336694,0.20881640462489726,0.1624048890842632,-0.2517318928947695,-0.2312872789338815,-0.06923959938205619,0.2944428002580862,nm,0.0
7.062660217285156,50.36742138280493,11.110297623756539,-3.1819318111998514,0.10286992144346957,-0.21851875742593083,0.15678449897822305,-0.29525410835358096,-0.0720953029309997,0.23871016617374613,nm,0.0
7.0833728313446045,48.591972398164636,10.853934033341206,-2.62722808391587,-0.09935083735086186,-0.5722534048964709,0.5313930177507433,-0.34633403740146285,-0.037515099327027256,0.16582111596715984,nm,0.0
7.087515592575073,46.72508527479875,10.957886943664738,-2.4569000829372976,-0.11954132964603331,-1.070442999980856,1.0047836812685766,-0.3609659936582532,0.032765898770977304,0.0919390373641861,nm,0.0
7.089557409286499,44.970789100641795,11.597714758924074,-2.4509695094182415,0.10569786213013982,-1.4837275548662876,1.3295786692843958,-0.3340037252882823,0.1380995520197399,0.05703361908866581,nm,0.0
7.110621690750122,42.147338400481786,13.873743261634484,-2.29096485544318,0.9912736282690554,-1.554390880128456,1.1357233899048351,-0.2373177819485016,0.2405955032437268,0.07279823505594518,nm,0.0
7.120592355728149,41.328687306026694,14.795303211970126,-1.890345914296788,1.4020698968766947,-1.4316619753302233,0.915202725281714,-0.14790323496493402,0.18493446633296737,0.10799557427835531,nm,0.0
7.137749195098877,41.838548531331874,15.156839053065465,-0.3192911070792122,1.1604035331038083,-0.6113463021481678,0.4766769837608943,0.12316864931145585,-0.03018134210582965,0.11950171852658531,nm,0.0
7.150437116622925,44.57139575242748,13.910965781812738,0.40859744392214054,0.2343763707157206,-0.030214452996416414,0.3104289984095259,0.31811061849610994,-0.13258907591475774,-0.057810780248490165,nm,0.0
7.169003963470459,49.11214965309345,13.458094255688057,-0.3057768010203686,-0.2966921543014438,0.2894183626647714,-0.02920341619509502,0.4731067691947248,-0.015740747497465554,-0.2632896451367131,nm,0.0
7.199850559234619,53.93169687176746,14.146474835728178,-1.6730912667612594,-0.11888763317351948,0.3389232466668353,-0.6654844975360783,0.47273966564182035,0.06984279732485414,-0.284912470086113,nm,0.0
7.204408645629883,56.178993391749415,14.309933931200945,-2.2745802488695404,-0.036670615821029186,0.3513887235209571,-0.8343895403263883,0.44116791329541283,0.0158520194468563,-0.27089050967052286,nm,0.0
7.238802671432495,60.2034910961074,12.45818249532696,-3.6404972342482234,-0.5994573181502686,0.814354358724508,-0.9347760055240569,0.14844891476717514,-0.18348703331146968,-0.15922949848684764,nm,0.0
7.241171598434448,60.37908628029995,11.679155135401139,-3.9925369312708225,-0.8778268258881838,1.0057116281927418,-0.8661373750686998,0.028860520566688214,-0.15952427042258877,-0.1308010315984312,nm,0.0
7.242909669876099,60.062509936983815,11.230096685062122,-4.310031654595573,-0.9850608544839106,1.1637094707150117,-0.796374595599873,-0.06359972686700431,-0.08699618129028686,-0.09766836435088423,nm,0.0
7.260987758636475,59.30898963978392,11.176641489276609,-4.546760238025947,-0.9559653902913714,1.3041285799549351,-0.8255553798680795,-0.1436520484993234,-0.0012556485079290235,-0.05409755148161113,nm,0.0
7.263496398925781,58.245198470511674,11.302610076880274,-4.730657419734986,-0.7880793377556228,1.3042560066278177,-0.8493171534844131,-0.20154066674511964,0.039812350132120866,-0.02344464411565029,nm,0.0
7.272533178329468,56.9678415187382,11.289561434456715,-4.81299728987398,-0.514614719135679,1.1675581340317656,-0.8665945619638957,-0.2455127606198889,0.01573941247377273,0.006500587903156758,nm,0.0
7.295754671096802,54.26362583813519,10.085415177856287,-4.102728197121407,-0.17286077692408663,0.5827888543032214,-0.7007048954775115,-0.27011136465221874,-0.14913173205635988,0.12317710264040806,nm,0.0
7.298029661178589,52.96266283411236,8.841159914925743,-3.2923648614674974,-0.1721993145826632,0.07875122779708718,-0.3978870678607696,-0.26705853422247877,-0.23540421360029476,0.17413317365096345,nm,0.0
7.327512502670288,49.857252147732694,6.251520192016403,-1.308653420698458,-0.3156419681238003,-0.8800600622045982,0.46575939829177665,-0.34282105454269574,-0.22910633339143024,0.22987156129151226,nm,0.0
7.329641580581665,47.622134321910146,5.663429102195451,-0.3615190280575588,-0.2790515955696674,-1.33227365787215,0.9683674641100325,-0.4407121806794921,-0.11510754643311077,0.2278415284809794,nm,0.0
7.338756084442139,45.06511724931663,5.867217618275745,0.3885762805165383,-0.024938682755745196,-1.7014276721667347,1.4135301499823911,-0.5032690196842775,0.036642979594945634,0.20373716897952426,nm,0.0
7.345660924911499,42.575108539013094,6.781902424336744,0.8909666478259409,0.4542904220724153,-1.7964654399711346,1.6669578388633108,-0.4913755240917154,0.17334331122534102,0.16832792224798118,nm,0.0
7.372238397598267,38.87929758405416,9.120148773599613,1.636882513008483,1.407406637180257,-1.2912434815156513,1.3142136309031314,-0.30618190081166125,0.20397154191740777,0.0966913341301291,nm,0.0
7.381789207458496,38.055665896606925,9.643247082340446,1.9289207090716223,1.485103939243244,-0.9291030195464605,1.0210333320679807,-0.1602647906452769,0.09402508122251342,0.07331618233665413,nm,0.0
7.402751922607422,38.97060205032788,8.612564923205309,2.276568791299038,0.604671401779672,-0.2042274792776368,0.69160087637771,0.18834279816975755,-0.1622551524985776,-0.022439398891114577,nm,0.0
7.407331466674805,40.61272724049574,7.6709377967291905,2.097743518599928,-0.014101907580372492,-0.003043481661547331,0.6124669606000592,0.33855847341492196,-0.18114490623024365,-0.09443808066028879,nm,0.0
7.426420450210571,45.155054200202265,6.996597149501729,0.5242259806388764,-0.5572984781735636,0.20726469210499354,0.283267702873997,0.4715624705904348,-0.005380053559089817,-0.27173556395558174,nm,0.0
7.444287538528442,49.82610068947434,8.533654246446938,-2.183983819423508,-0.11738657547627535,0.25310512111883027,-0.2497347619122022,0.4549853811680465,0.17488190870057024,-0.35799169288287114,nm,0.0
7.453626871109009,51.51767225258459,9.405138391109231,-3.5355879461019124,0.055042023351680076,0.391950587415251,-0.6951495055893743,0.34807190054355064,0.15411366238692878,-0.3366036945043648,nm,0.0
7.480508089065552,54.11924563809275,9.139351659025357,-5.6797292472705445,-0.6962857335963635,0.8942447547900257,-0.7448401127233414,0.07480544535445555,-0.12409973776749557,-0.09844477305329306,nm,0.0
7.499063014984131,53.95825360982827,8.26046365416205,-5.557677922469955,-1.1756535841206532,1.2946279752880945,-0.5543301009387758,-0.046718939839488105,-0.049331190648183566,0.028836239755320254,nm,0.0
