timestamp,roll,pitch,yaw,acc_x,acc_y,acc_z,gyro_x,gyro_y,gyro_z,markers,motor_input
33.00812840461731,-7.886934533647881,30.31974441175269,137.66153169748995,0.016793055236242638,-1.4537200895199809,-0.609204014986489,0.0852850944160678,-0.16638934514731948,0.025195701663589237,nm,0.0
33.043583393096924,-10.72284075397437,29.821881181374412,134.24888992205223,-0.2059769235838474,-0.7819515179596871,-0.7264286226813504,0.16417219119062346,-0.02217907777372577,-0.21256152313455906,nm,0.0
33.047797441482544,-10.263680035210111,28.138762609592053,131.03790190786705,-0.14236386874241438,-0.004056498591926438,-0.34392681707150424,0.003567543929592723,0.1847156047093613,-0.22469027767956626,nm,0.0
33.062888383865356,-8.861026949696301,27.661345585603353,130.65305706976358,-0.03621077589632755,0.16068653112840542,-0.15670227684984395,-0.08427132500311119,0.2620221415146685,-0.2148095394739928,nm,0.0
33.07020568847656,-6.732868616571799,27.33018949007109,130.5291535381787,0.1574068129287145,0.2636238117923559,-0.09096463418642742,-0.18983283943735207,0.3417095494684332,-0.22826879111765844,nm,0.0
33.07490944862366,-3.8183750137710697,27.143916656853293,130.4669431140418,-0.09382761611287384,0.32450663575239935,0.454605680375404,-0.3025679781098754,0.4302170891435238,-0.2711073928856691,nm,0.0
33.08696627616882,-1.2186430871212568,27.1393545574234,130.32245079943078,0.08602482668462587,0.6455042736881329,0.6166095455000395,-0.2933769525607459,0.36455321864621115,-0.2519185076833596,nm,0.0
33.11031222343445,4.133703858551034,27.708112545372597,129.86183684784467,0.06718975715597651,1.2771511774762758,0.9731873365142109,-0.36602538895773273,0.3425944641093894,-0.28528006064543027,nm,0.0
33.13948917388916,7.376540723315227,28.525934828485067,129.72596461324417,0.28626168722059836,1.7015485054281967,0.5592976455436612,-0.20470686735967505,0.14101128913996186,-0.13726725431266737,nm,0.0
33.142492055892944,8.291367557067733,28.712206023092733,130.06349733417986,0.1870011512873389,1.5472185151872462,0.5470584780061868,0.0,0.0,0.0,nm,0.0
33.1636221408844,6.892148662969003,28.241144944456124,130.50783755547428,0.002035816205957763,0.9945096749680251,0.7561260549232959,0.15490716696894505,-0.081519565027451,0.1201811177961595,nm,0.0
33.17915081977844,3.991633884025404,27.874642956378576,130.57939585024204,-0.08244808537964592,0.5163330031985166,0.5371322655444344,0.1940236614940958,-0.17004509286580977,0.12672307343691516,nm,0.0
33.205336809158325,1.156432663835852,27.9544335117286,130.47253887330837,-0.1806810375208079,0.27001199106548834,0.15527159110514654,0.14958541726622135,-0.18310594589922272,0.11077849264160432,nm,0.0
33.214465379714966,-0.8159031986774526,28.171245828371884,130.72555732730203,-0.14568318436932814,0.16729256809938717,-0.018654484065082768,0.09560747642287318,-0.12680021070123784,0.11780570390802522,nm,0.0
33.231369972229004,-1.1599442263969262,28.253312411818698,131.08641266369847,-0.10318435853430702,0.01919130799224146,-0.04571306130019855,0.03317611479952591,-0.04594317700159036,0.09707320932281155,nm,0.0
33.237062215805054,-1.1572669536057203,28.313087859367226,131.56193567238617,-0.2056075793927611,-0.16400452648211472,0.17538718277255705,-0.0035476665333158716,0.0032022530366656956,0.08718936391787306,nm,0.0
33.2544207572937,-1.2234621432379915,28.53376317536943,132.6257341705292,0.14117378137106,-0.49005061410796874,0.04348566790824724,-0.02310232234077978,0.0005411937043663044,0.09644615618104949,nm,0.0
33.26821565628052,-1.1297280289530682,28.769842212948042,133.2064855959719,0.14368822332962178,-0.6478765551038166,0.12265292878812026,-0.04035960934072193,-0.00927085707061265,0.09947092750890318,nm,0.0
33.27040481567383,-1.2270994990241806,29.136837400360022,133.81700734887906,0.27625382727935766,-0.7398275952435924,-0.034488421022919345,-0.03615406022699889,-0.052093395404565104,0.12386795198627226,nm,0.0
33.29845118522644,-1.4543661969627462,30.185893399327814,135.23225164997203,0.25740491067270455,-0.9741000512522076,-0.19751958697216462,-0.053602798066944055,-0.08732034116465043,0.15578842459971276,nm,0.0
33.32328772544861,-3.0946486742585115,31.90767628905537,137.15251964239442,0.11198618388357869,-1.2227690836927005,-0.29758125055594703,0.030714405412551455,-0.1506489966742587,0.17159620463111133,nm,0.0
33.328434228897095,-4.136693565590921,32.27528737848118,137.3578719083918,0.06672830423469747,-1.2619741348045088,-0.3699380259200469,0.08483851139172628,-0.16279042005703276,0.1444962573269063,nm,0.0
33.35557556152344,-6.77896765832407,32.52465656679899,136.7522182209319,-0.05831973524576576,-1.2581840797040431,-0.5724372292264566,0.17557814332709046,-0.15376395454663308,0.04185593281291728,nm,0.0
33.36097526550293,-8.215267516914112,32.33261575170777,136.0033848265524,-0.13746526718154348,-1.126935378732758,-0.691165849650703,0.207435492040954,-0.12787753889908915,-0.012636654423248492,nm,0.0
33.36391735076904,-9.483971441636553,31.994790602971175,135.06323621152157,-0.2473402883626565,-0.963196325895258,-0.7485002623751993,0.20611372228850464,-0.09052924605972812,-0.06658762144604827,nm,0.0
33.387099504470825,-11.167338806940927,30.923002449271195,133.04571821658527,-0.3381171698897653,-0.5718179430879039,-0.8193465956253049,0.17246643515949253,0.011903756360694252,-0.1335163339466788,nm,0.0
33.40274000167847,-11.434277029114853,30.24727567446853,132.16098839756188,-0.35334695762408047,-0.36709302486618367,-0.7434780528334856,0.13634431652370105,0.06963549589872756,-0.15596780616913078,nm,0.0
33.40481686592102,-11.260312202216763,29.552874185832167,131.38984064632135,-0.28593084139278035,-0.1884948852867546,-0.6363274373462353,0.08928796637097908,0.12704291028754222,-0.1777794538583342,nm,0.0
33.41641163825989,-10.545844379054678,28.849499964447887,130.73905905219394,-0.20071846130364113,-0.02376222264235562,-0.4746358825342158,0.029959267999976835,0.19849554489723076,-0.20620430318639157,nm,0.0
33.44461441040039,-4.5274478815355685,27.37405102659718,129.45861244944237,0.04147340175932945,0.3512057717872212,0.15489017407296818,-0.2636139570256469,0.43249043945005794,-0.316038382436411,nm,0.0
33.462319135665894,-1.5326468376258282,27.321797421536612,129.27041909013263,-0.04422706159569764,0.6068158268093629,0.6590400360250229,-0.3234604552358493,0.42947294239122263,-0.3046500976290738,nm,0.0
33.48589825630188,7.451020331889252,28.39329943289628,129.56223536984854,0.19699814894214665,1.5204893780922133,0.9483862873884594,-0.3814986191255748,0.33393298429968526,-0.2179209615753554,nm,0.0
33.50234389305115,9.40396532109926,28.852574529298195,129.77940817381045,0.4048032192189499,1.6506722892901664,0.5443382095023628,-0.2839701374324742,0.21479717522021916,-0.14200638583482042,nm,0.0
33.50496697425842,10.829490679241054,29.206247902980436,129.99036495706218,0.24813703834548137,1.7204098114397046,0.6817091229412399,-0.2085390643348902,0.15504366035031913,-0.10095098622741717,nm,0.0
33.53969645500183,11.180567702356482,29.392824572204294,130.117346570858,0.21806766667669816,1.6272529922888983,0.5864522868926819,-0.06220738883688818,0.03168388214565131,-0.018844637641705082,nm,0.0
33.54244327545166,9.655048886047611,29.300695936172286,130.16047305431084,0.02302896133207706,1.1601492507269875,0.6677785837656699,0.13760724448334546,-0.11289976105372808,0.0912935485609086,nm,0.0
33.5446240901947,8.034674630600367,29.150562213854258,130.16130233968894,-0.006774584837234605,0.8679694895438324,0.617555290798872,0.2115866702279504,-0.18777837482399115,0.14928203362743103,nm,0.0
33.58441424369812,1.1951328614655494,29.442350379081756,131.0417226790495,0.03803244954753832,-0.04239955210553705,0.07867764088692517,0.15321908213104854,-0.24216864407869032,0.22565219131082107,nm,0.0
33.58662748336792,0.526231128162933,29.800566290683452,131.5316880642259,-0.2194901805029934,-0.17451697063825963,0.22899874586161995,0.028830226259619486,-0.12448621611644319,0.15616741113084295,nm,0.0
33.60206174850464,0.05332479868180739,30.213500438997944,132.03275513282608,-0.3603159535092938,-0.27553176022014036,0.21601429493105934,-0.0011787586591088318,-0.10583189083763067,0.13959429458879158,nm,0.0
33.606504917144775,-0.31121086362690525,30.650093875901206,132.47219800762358,-0.08463181865374957,-0.3491717493160539,-0.2496655862535602,-0.01659600586487648,-0.09490821730335688,0.11690605589111581,nm,0.0
33.63217735290527,0.20805968904434638,31.413880420817584,132.9685513853892,-0.22844359978500026,-0.45041771186571933,-0.12828399791789818,-0.07505962814278296,-0.0084502553185313,-0.0045742686101011495,nm,0.0
33.65548515319824,0.7384064077634805,32.073212752368114,132.38017243092693,-0.16035433922308592,-0.5518638202300562,-0.07092345589756796,-0.07294302742152699,0.004225328612142085,-0.13058087664220727,nm,0.0
33.657782793045044,0.717036542262995,32.286535619459805,131.53991430834068,-0.035958559435351437,-0.5582155748164149,-0.11233588731780712,-0.02325773960702027,-0.02113793339965934,-0.1742303369201801,nm,0.0
33.67487549781799,0.490242420133252,32.54850553272301,129.03478516919702,-0.02104758335011398,-0.6123782252769984,-0.013710729688930761,0.004744732999376976,-0.027210235596834106,-0.26091625160842763,nm,0.0
33.677778244018555,0.2265994807615778,32.73871579665606,127.66586743870349,0.03839494963782839,-0.6832197652728945,-0.08233243677730803,0.004503038576101391,-0.048786815045912285,-0.25379312576237,nm,0.0
33.69412589073181,-0.022883393383409226,32.97338075966502,126.4695025742568,0.013079001119981927,-0.7733483658395084,-0.005504017088199194,-0.005184518151514909,-0.052245834186837106,-0.22060027117243763,nm,0.0
33.702669858932495,-0.27490219798396653,33.19639104221857,125.60493074986607,0.10468001561694304,-0.9733506423407184,-0.1620988909004763,-0.004047239805615363,-0.051009492422318066,-0.15371456405670675,nm,0.0
33.723848819732666,-0.3133656243021316,33.8417587226224,125.20540951987822,0.11194763080685648,-1.228397219146129,-0.31261653621877766,-0.0637317918173833,-0.023137061487091548,-0.012871578619635438,nm,0.0
33.74901056289673,0.699693045831558,34.387656956305,126.17424177286338,0.04224333195239112,-1.2437924378436376,-0.533351396216939,-0.08769587847362025,0.07645834823455278,0.03347407437197111,nm,0.0
33.75161051750183,1.5110595614176041,34.38388773891709,126.75084884144192,-0.007682586608909346,-1.1415757850133972,-0.6646989002593826,-0.07196278477242155,0.11748165165476519,0.015049496408667356,nm,0.0
33.757718563079834,2.3680761449768837,34.10742682615374,127.14469243965424,0.02713686755176193,-0.9861741681153836,-0.783703841566894,-0.034002732081511645,0.1558264739822156,-0.02648470296243327,nm,0.0
33.77463245391846,3.3098550441238834,33.45099335013125,127.27222798627207,0.004023445161167253,-0.6960970285259609,-0.6920392621622373,0.016842112035073676,0.2134961239915833,-0.0882021523309804,nm,0.0
33.79232883453369,5.300731981832779,31.43455423582375,126.92168667177756,0.19509552841718739,-0.28022514308594965,-0.502181626743577,0.07415284255617163,0.2763323023767849,-0.16413416401951728,nm,0.0
33.81127667427063,7.539824013134569,29.312896695724966,126.66024366957431,0.39461498575735443,-0.023147425414920108,-0.29031441647660317,0.04758305276647764,0.29415195282359463,-0.13650562456851875,nm,0.0
33.81343984603882,8.782559449929614,28.511113181614142,126.83905317005774,0.21809237529713787,0.15028698925294756,0.18008822595755417,0.004682840278406891,0.27957664650759756,-0.09399805248883195,nm,0.0
33.83051252365112,9.427088421518256,27.944657051211912,127.197211767629,0.4026769899118873,0.32353989746047335,0.02691227655482521,0.028349216070958527,0.1680499185984114,0.0011204174586831356,nm,0.0
33.83266615867615,10.090915551836694,27.57444829359757,127.72804844230726,0.4357260624329398,0.5088352448636262,0.042500966540715626,-0.0066173435559535995,0.14742207469136767,0.03473900197649177,nm,0.0
33.85146737098694,10.91199632087279,27.332649132614403,128.92233940210247,0.24643614730853272,0.9758022582841052,0.45268796350528373,-0.0032993298975816333,0.03643352071282287,0.09106001423534622,nm,0.0
33.868664503097534,10.607068186209103,27.456817451386165,129.7050616151427,-0.06561623637515775,1.34210064422643,0.878542162437753,0.02741054503136519,-0.04874635333424893,0.08310168505770564,nm,0.0
33.877922773361206,9.78052924191647,27.64550893652553,129.84462243120174,-0.09464884417608203,1.4026846877738677,0.8412409021728297,0.07062453853556168,-0.12779345587276214,0.09497603797309392,nm,0.0
33.9041109085083,7.331645783483757,27.915108718302527,129.72024292133483,-0.36708608799682996,1.298980858486928,0.7122267365038872,0.14806910815447816,-0.1929607221911542,0.09790998485879043,nm,0.0
33.90639853477478,5.8267700829727005,27.979884168603206,129.63088337202254,-0.3658022804689625,1.1129786462218298,0.4417638609249386,0.16608150755150367,-0.20344745495536057,0.1025809532542021,nm,0.0
33.92921328544617,3.2101794305254527,27.958959113260626,129.4241605995356,-0.3329577945760033,0.6963098937639053,0.2791723403170117,0.15094179655323783,-0.156549945356812,0.07666208770517792,nm,0.0
33.94525957107544,2.240221033083531,28.036651774852885,129.25901444412122,-0.23924551596858157,0.4716312317503808,0.23548873746464552,0.10287964980047604,-0.1323639885264835,0.03988269787682417,nm,0.0
33.95270538330078,1.5473691746916767,28.283797766327922,128.94019311038676,-0.14624605277213698,0.25506439359141264,0.23640897516093204,0.04496856622110423,-0.11600088774383444,-0.01241940365377283,nm,0.0
33.97250318527222,0.7300900012796246,29.321816989328628,127.70941504640304,-0.0065876476484660685,0.13678814057360267,0.19984101939375956,-0.05962605686447053,-0.11068955358783493,-0.11709268057503909,nm,0.0
33.97471809387207,0.5383168690725426,30.178583716181485,126.95477828405826,0.0641847789565399,0.09614187407518937,0.1512138844174742,-0.10952702550473745,-0.12072378070371304,-0.14012630450683364,nm,0.0
33.99579334259033,0.363229350910807,32.09554718316187,125.88911917906717,0.10053196834650223,-0.019057103457779313,0.04612006859872321,-0.14313378358970036,-0.11345115309277758,-0.08247171908392564,nm,0.0
