timestamp,roll,pitch,yaw,acc_x,acc_y,acc_z,gyro_x,gyro_y,gyro_z,markers,motor_input
12.0241858959198,-20.981278495837767,5.2822245206351175,-13.065987137885914,-0.14357240231245047,0.5124647788017029,-1.266811868542609,0.06887712106382703,-0.3970021229096016,-0.20659789402396625,nm,0.0
12.04029631614685,-19.124577638830214,3.645140134112615,-13.929403660429596,0.282292970201837,-0.1304452378621724,-1.0422508026725392,0.2887535500421214,-0.418647158357954,-0.238446533118384,nm,0.0
12.043338298797607,-15.687757096833474,2.477456331703898,-14.369512702906428,0.7951300723842547,-0.5840462782728151,-0.4002268787301259,0.6140917794951257,-0.40738730341540985,-0.16646351878588028,nm,0.0
12.050625324249268,-10.532209358185812,1.991268251418707,-14.14317375819196,1.1536801156889605,-0.4424811600749133,0.7548412653986291,0.9806722804203427,-0.36050763235541006,-0.0305853449805622,nm,0.0
12.071352005004883,0.2678498195612054,0.8525479856171538,-11.987578434247304,0.7434229469713035,-1.4435653838637312,1.1431360928198762,1.0237985932801248,-0.40818507805832727,0.20801793981946165,nm,0.0
12.07505989074707,5.773519978396713,-0.25601870024749807,-10.810969205008393,0.4019875149577418,-1.4132254343351665,1.8060662937929053,1.0426573327074449,-0.44679307200900187,0.21001023501249177,nm,0.0
12.155301094055176,13.824289998898838,-1.9213863250150922,-12.122622303406903,-0.20666065969308414,-1.5357938991259061,0.7501897225412406,0.2943036236308328,-0.10823017459825883,-0.27814401326110694,nm,0.0
12.158555269241333,10.934991125541197,-2.04880210620519,-18.301271537544135,0.0010211588262745495,-0.7731401409554095,0.28058200796452415,-0.3727822771693736,0.006661968324087497,-0.4118889328230677,nm,0.0
12.161103963851929,8.312704948171234,-2.8059604991985356,-19.601553014150234,-0.10957530786608922,-0.47956029115274634,0.20579819942072194,-0.5417974786872207,0.014524375968218994,-0.28885588920007754,nm,0.0
12.27722454071045,-2.8410019629193535,-5.5968155634992405,-20.316548607219183,-0.3399181717324061,0.9476806994254237,0.18632125245089484,-0.4354324275190809,0.043165962390910875,-0.09252655907444605,nm,0.0
12.281087398529053,-7.47810227893783,-7.3128842806057355,-24.003253289414292,-0.018809587783122545,1.0735373759286242,-0.036021671439600195,-0.21688049600272452,-0.0354389872163893,-0.3687949266227157,nm,0.0
12.283287048339844,-9.03142159410201,-7.739185180315566,-26.283155482276676,0.1167091891448433,0.8662777677373895,-0.17079152810492326,-0.13151914733445869,0.03774104828861465,-0.23316644650353327,nm,0.0
12.286440134048462,-9.852768185379029,-6.312113576350856,-26.58536220643501,0.28422762295540743,0.7842846498983326,-0.4979343366806452,0.022002293291076003,0.17976064459613553,-0.014084474859940651,nm,0.0
12.289278507232666,-9.503852846518202,-5.201031623139771,-26.135812331165617,0.30635083513588635,0.6797552351677258,-0.6164834726962681,0.09119509192837229,0.0055772483133070755,0.02703404700295134,nm,0.0
12.292145252227783,-8.386897208531606,-5.849238862783368,-26.759141523366473,-0.10793285656959035,0.5776735739386417,-0.4393188376487345,0.06764129553057498,-0.1678850966692637,-0.11551974520390682,nm,0.0
12.299427509307861,-7.62011561601154,-6.864373892521311,-27.475881956368138,-0.2000569992951142,0.461997125494219,-0.2928954604173908,0.044906773563060054,-0.2646222497366056,-0.15907753086493157,nm,0.0
12.302923202514648,-6.7956492744174755,-7.868626928474682,-28.20520874867836,-0.25969767501982893,0.26896316058838715,-0.1979428045667421,0.052552891157512514,-0.2684050520887659,-0.16108868268699575,nm,0.0
12.327275514602661,-4.930166091126476,-9.14334298683826,-28.86760797781296,-0.24746362888662263,-0.25937880606816704,-0.6852714137052905,0.12053571061149079,-0.21032905107649255,-0.028257832464023497,nm,0.0
12.331181764602661,-3.351061965191397,-9.686050164633821,-28.656621408149377,-0.11517971997698108,0.021865428513801233,0.02451259795129143,0.2229312828911718,-0.25925415157038345,0.06949051029603066,nm,0.0
12.353590488433838,-0.7707635873286738,-10.191083588586855,-28.260134840801285,-0.10806542493989904,-0.4471207431296492,-0.05015145674049192,0.23487148850569306,-0.16925949073968008,0.04872962277414202,nm,0.0
12.35790467262268,0.678500953925506,-10.227314406231923,-28.656274039092178,0.10304828682759579,-0.2502264994158334,0.9707356799907553,0.2496066250130296,-0.15612281456967173,-0.05170464812131918,nm,0.0
12.389215230941772,1.306331040652849,-10.082140048569082,-31.6476548842459,0.3536511555927851,-0.6141779599596586,0.7515058239227124,0.03567582834575849,-0.02264774910025647,-0.38300232959489444,nm,0.0
12.394979238510132,1.1569641925604393,-10.381327698362362,-33.884689622451695,0.3382763548177316,-0.4995102566491431,0.6790476127190889,-0.05660678547046169,-0.04842925781657528,-0.4830957174481373,nm,0.0
12.398079633712769,0.8746129947359099,-10.81996373862412,-36.13462097115643,0.14372226746262515,-0.4720405169778542,0.4089148216915379,-0.09587676491616172,-0.0541674706725637,-0.5007942641501679,nm,0.0
12.4274582862854,1.072775239470735,-10.627052966645595,-39.408273867997934,-0.23777044635603722,-0.014092979352824045,0.361081549103242,0.06046626316999934,0.015010923643551204,-0.30512397733418545,nm,0.0
12.470864295959473,1.5645308534402715,-10.014926332641277,-40.20976420639114,-0.20343173704098652,-0.02332061551019255,0.4451678243128348,0.1519329517810425,0.018463742563878817,-0.1735328071034185,nm,0.0
12.473130226135254,4.736232749743913,-7.184907177984738,-41.02477903759159,0.16861485857046862,-0.3792106247859115,0.40360183732986465,0.303178558153515,-0.056015669718319075,-0.046955857378306314,nm,0.0
12.476087808609009,6.027728797686407,-6.678365902930707,-41.53839039620914,0.17552561850728496,-0.410522896409915,0.4412354673211042,0.25889974193426296,-0.10631834325745479,-0.0999496397150416,nm,0.0
12.478080987930298,7.065987379662788,-6.471584006915638,-42.324623754320534,0.06051139689102412,-0.3890825612145124,0.1469429624760647,0.18027205893808979,-0.12035825876144166,-0.16242500422476086,nm,0.0
12.4954674243927,8.994024410710706,-6.635841004753951,-44.12722686500875,-0.2135601553461074,-0.1539446369037556,-0.017019432429096454,0.12004817680265764,-0.16173723822838595,-0.18792674497023762,nm,0.0
12.501506328582764,9.924011843741843,-6.622064612281598,-44.73241765776155,-0.3128064184325422,-0.04935267518037507,-0.06671759920139868,0.13274358169998063,-0.14044536542138086,-0.1340574674877139,nm,0.0
12.524847984313965,11.760848653485143,-6.115085919601424,-44.863755966587306,-0.304367621392829,0.14400554540313354,-0.12060157339755878,0.1738466630128354,-0.09688498406122549,0.012935418253901348,nm,0.0
12.527997732162476,12.711683311657286,-5.6335991142116,-44.59979765368657,-0.204074264232157,0.23438528608666392,-0.13568905987845667,0.2012717648247877,-0.07744797423013793,0.049327832717489056,nm,0.0
12.554598808288574,14.163209697678685,-4.3630710830134545,-44.609579201642966,-0.15820574289730197,0.22173905270605634,-0.44353752531132945,0.1896162753521643,-0.015868416315151422,-0.03793589656377097,nm,0.0
12.558686017990112,15.338795037530549,-3.6830298143778366,-45.1200111931625,-0.10355788596686419,0.3351826794103677,0.06411919022889735,0.2613407150872641,-0.08140411439000747,-0.10435599856820713,nm,0.0
12.586936950683594,16.519707600252715,-2.2350065612597794,-46.949962144844534,-0.23845059600619636,0.34844427086571955,0.2595601521341789,0.1447255479659756,0.03765995053781706,-0.21715155811332212,nm,0.0
12.5899178981781,16.592278466114188,-1.7091472752291488,-47.86306844447765,-0.1994307879443024,0.40025861799105317,0.12045632543500713,0.08545207635508292,0.048629165431311336,-0.20357310005896567,nm,0.0
12.59812307357788,16.387353188765495,-1.31012068393154,-48.487626916063995,-0.15305092144417104,0.43839453239843845,0.041929710613262956,0.030097202373201352,0.07191926320687915,-0.14320398972623127,nm,0.0
12.620455741882324,15.358990849760495,-0.4784703201418807,-48.63519840864168,-0.06892322241023088,0.6672236419230695,0.01941082754078464,-0.017656476814784567,0.13279802424104306,0.010002785746031626,nm,0.0
12.624934911727905,14.72078256675829,-0.08884900432374793,-48.39559576676262,0.03458530636571018,0.6987799485757685,-0.005973215048706949,-0.028527894411454688,0.13546570844359124,0.039606063164484236,nm,0.0
12.648754835128784,13.7563531396663,0.5677821534191482,-48.210526083015274,0.23307771467295102,0.680351721667063,-0.19605824477770123,-0.01509161982054946,0.08669346725865164,-0.008309106324849795,nm,0.0
12.653694868087769,13.52855175715699,0.6409581580407816,-48.45240215295587,0.2770143687432768,0.5911546655953852,-0.21863490717201614,-0.02189892769284174,0.031806790304364736,-0.05558528559401502,nm,0.0
12.677326202392578,14.251901821564598,0.3854389285911917,-48.99720316152181,0.17571996906596143,0.42531329571963483,-0.23695271997247422,-0.039965979789266186,-0.07729903950709645,-0.07849483052348293,nm,0.0
12.681103944778442,14.877602490500585,0.09818325235527704,-49.0840594437269,0.06383322826642443,0.38896038945232425,-0.18463550122091388,-0.06240110626785259,-0.1278482035200744,-0.048101532831634146,nm,0.0
12.702033758163452,15.68464974251791,-0.8362278404597911,-48.67861316369693,-0.17224226085481076,0.34913232557559803,-0.10513417914406434,-0.1145127648363203,-0.16748818481819586,0.04046578955292662,nm,0.0
12.719590663909912,15.894023499749395,-1.3987514689547793,-48.27181678154816,-0.24031404758767386,0.3022239628133307,-0.08603279225607088,-0.12903782745320405,-0.17213333400133388,0.0683209299518888,nm,0.0
12.724557161331177,15.95256028821639,-2.0760439751603053,-47.79346053825357,-0.24726839729849218,0.1960412176700334,-0.07014844373866912,-0.1398351217861431,-0.16872190793027653,0.07801136978075453,nm,0.0
12.745339155197144,15.4677561111828,-3.8157453351311834,-46.845722679719074,-0.20813054112310747,-0.08427219986487446,0.017944717712845094,-0.17392668907571493,-0.1264213604861013,0.08050264144873628,nm,0.0
12.750641345977783,15.099873765242869,-4.851822449410473,-46.30547047419274,-0.19236930212310824,-0.1812168046660658,0.021977696990313413,-0.20261878929840674,-0.10175122586784352,0.09547878052238429,nm,0.0
12.77584719657898,13.52650611461959,-6.824519598954969,-44.60698835294062,-0.15938094092025057,-0.1423797010341932,0.1126786530919202,-0.2691167207472795,-0.010995679133167815,0.1663071510654255,nm,0.0
12.789791345596313,10.89049536668415,-7.675798877329761,-42.18419700022547,-0.011953035235517785,0.06359231138809586,-0.0551232051142171,-0.23328003566577354,0.12716482185306568,0.20647990639046163,nm,0.0
12.806232452392578,9.849757777403223,-7.618905543239766,-41.22782956322336,0.11664722230455314,0.11949712661685384,-0.06709276109646518,-0.17172370096470727,0.1643207273957812,0.1733403043580728,nm,0.0
12.815852642059326,7.581973212202407,-6.544805885212027,-40.49218929857406,0.4656414871380146,-0.1137815618948454,0.11567879899118344,-0.08423548161691907,0.2267409181126447,0.012367721944053835,nm,0.0
12.847705841064453,5.586127328278916,-5.82154622084503,-41.21196467922905,0.5524959826699135,-0.2888324203234616,0.19404040689436777,-0.12193070992875914,0.14321165052164953,-0.117602527230082,nm,0.0
12.849817037582397,4.774573414713819,-5.9058074242653325,-41.69119847284873,0.3919006757078791,-0.23999059312459747,0.2263171746317404,-0.13364425326959442,0.08095311228721663,-0.11774326845645734,nm,0.0
12.866318225860596,4.237251491846283,-6.061451136956528,-42.0284455715874,0.1415587964830587,-0.07384848376951321,0.20114688822874202,-0.1019109390585092,0.03473484389830889,-0.08379849503491711,nm,0.0
12.869258880615234,3.9813768017583255,-6.1255397318279865,-42.222394489404735,-0.06567339021786953,0.0922653609160384,0.2569446905943248,-0.04786018285129119,0.01117416386144911,-0.049264243397710836,nm,0.0
12.886530876159668,3.911491773968847,-5.967059207143293,-42.402670893302805,-0.1402031639172646,0.15177841574295547,0.24879201041201715,0.0,0.0,0.0,nm,0.0
12.950047731399536,4.620888306561638,-4.761983969247644,-46.579104917276176,0.13230244362689217,-0.4026444253972829,-0.22981257423419446,0.018047415193026297,-0.07732991498990836,-0.2405767325061835,nm,0.0
12.953085660934448,5.856710397976263,-5.532580315912812,-48.09123221092656,-0.26389064852323674,-0.1332117409901771,-0.06742421051054945,0.06493554533639652,-0.23896620205871857,-0.13078856436589245,nm,0.0
12.977203369140625,8.969743873660075,-6.4632201918086105,-49.039766770953044,-0.5962148016860348,-0.06395437642937948,0.000984124007737646,0.12145054545215055,-0.19894736622254922,-0.0582971228197372,nm,0.0
12.986082077026367,9.90159507061071,-6.482156120828788,-49.50323204242373,-0.44004202335990006,-0.14752793697352476,0.24207830604112887,0.1157050722602438,-0.1557778589351348,-0.10009997526016726,nm,0.0
