timestamp,roll,pitch,yaw,acc_x,acc_y,acc_z,gyro_x,gyro_y,gyro_z,markers,motor_input
34.02275276184082,0.10248199794866264,33.92990165463421,126.21491755607133,0.06593079229660741,-0.45558917972180585,0.07134209002534632,-0.1157669457362002,-0.11821364957316195,0.08401532857948545,nm,0.0
34.02516579627991,-0.5940723396311455,34.63467497598793,126.87558062092198,0.20917469295088897,-0.6752785961841804,-0.027862215535299665,-0.03762374864341755,-0.16722950444585935,0.20260707636041933,nm,0.0
34.04364538192749,-1.3253354419924366,35.16779117363505,127.76303194378,0.40578028807069244,-0.9784193614744735,-0.2589710367315513,-0.0050438096125528286,-0.15068217722685232,0.2533026811529263,nm,0.0
34.05294609069824,-3.329025744408496,35.70518829960187,129.56647109229402,0.14822145139374024,-1.4863347502946849,-0.09285587369519821,0.12345009522891458,-0.19041622064115427,0.3223553889506544,nm,0.0
34.07029628753662,-4.8422365042314635,35.65254125392455,130.23233595439888,0.1809818610296741,-1.6312854368646297,-0.18136647718738438,0.17263643383746205,-0.1717793129503063,0.3024377559470007,nm,0.0
34.07222890853882,-6.305936592382261,35.37169313633731,130.71705151844847,-0.06898844939433417,-1.7702935991185784,-0.1091327251908132,0.20416453797478754,-0.13439183227590404,0.2599526726018446,nm,0.0
34.09597706794739,-9.37748241810415,34.318737895701155,131.0541445599423,0.06257956946722072,-1.6839579516372383,-0.6759529564173481,0.23897619109158078,-0.07736672389425632,0.15959712429305092,nm,0.0
34.098082304000854,-10.296827504154079,33.63544574043818,130.88348506372142,-0.15063633903930942,-1.5468880867706534,-0.7044112001762924,0.2095996758028494,-0.01422528858692725,0.06217401411730049,nm,0.0
34.12690019607544,-11.113813791530541,31.75432069991689,129.70107210894687,-0.21267077521034106,-0.9680560503123796,-0.9109383938264674,0.179174127401347,0.12851627814053146,-0.1357935650842591,nm,0.0
34.1289803981781,-10.803338107535126,30.61251494567461,128.80745351524163,-0.243138795265353,-0.6227456366175896,-0.8624481017625261,0.14972902965164392,0.1973686991317505,-0.2173245149182059,nm,0.0
34.13741612434387,-9.999945849461211,29.446276302286126,127.88951775684389,-0.1689672344656971,-0.3081747029714133,-0.8100795877894084,0.10318029922954389,0.26555553929339104,-0.27056802762521276,nm,0.0
34.15781021118164,-6.972930721840219,27.29645192476738,126.61720313563733,-0.09850438966726746,0.1894507915372203,-0.4210467029878844,-0.00878489039105946,0.3693743687224762,-0.2642528337186586,nm,0.0
34.17411184310913,-4.93254537342164,26.508235489000324,126.35187310500541,0.1063157857496516,0.3341171289845973,-0.42534960438524977,-0.08300148220554147,0.39778827348111445,-0.23334044023864964,nm,0.0
34.18089699745178,-2.374002468588674,25.954266128802793,126.33605428340202,-0.1892344779587683,0.42896823693069125,0.1685290856659145,-0.17626518817689144,0.44672131052062825,-0.22300740284634024,nm,0.0
34.211735248565674,1.4958406934734665,25.564204336919467,126.48505548623314,0.30284874857743993,0.9452971485799355,0.1566371260847683,-0.1857008525132221,0.29340057213030035,-0.14452431467875568,nm,0.0
34.2156183719635,4.988249593674222,26.11144978422923,126.40325753011064,0.12608523706261388,1.5045193331558437,0.7204654474441836,-0.1993649586595431,0.16366004681007124,-0.138888489055575,nm,0.0
34.23196864128113,5.95963552789974,26.58677009451617,126.24570409100991,0.18207360763256764,1.7095674221032826,0.5886318008845205,-0.1735902923904275,0.09355072569087493,-0.1267247520039892,nm,0.0
34.236814737319946,6.603078123523295,27.075357240773695,126.02736712522179,-0.02141735734782954,1.836546541010655,0.767665679850878,-0.14040880240176076,0.04447454467508882,-0.11084731385244176,nm,0.0
34.24047923088074,6.462461952979083,27.495930612922088,125.75041235625743,0.05345244546059355,1.7907091444386671,0.47193047383492404,-0.047041811238455036,-0.06041850732753521,-0.051503335304129996,nm,0.0
34.26323962211609,5.188198518407829,28.014399065319942,125.15016030869187,-0.1329106672676282,1.4251011964740643,0.485302347981389,0.05381268342504093,-0.13162087769727038,0.004422995342600709,nm,0.0
34.26843333244324,3.98756009570466,28.2256571999703,124.79667001252109,-0.0716268932545268,1.131944021487563,0.3246137053485009,0.09373852412711504,-0.18867627083834096,0.03397177183791407,nm,0.0
34.29154872894287,1.5919157483907478,29.08190329937157,124.16803317109851,-0.19064156460781778,0.6704308652806261,0.32355229492447063,0.03738770658618552,-0.2243764097687027,0.030567119834814763,nm,0.0
34.307236194610596,0.48585173931105774,29.831811334326844,123.88766942499251,-0.14069141463775586,0.49462976430018796,0.09920853059287799,-0.009194888398305207,-0.23440629180127442,0.03197481036042544,nm,0.0
34.309298038482666,-0.26520975654474044,30.71818933332475,123.72577746100296,-0.21489294736048964,0.39819875042783864,0.0439491938395529,-0.06783505814109204,-0.19726945496394338,0.02617248402081457,nm,0.0
34.33387589454651,-1.0329192825470794,32.60379364256912,124.09849644249314,-0.2356906934035572,0.1878872113374296,-0.041534876865836755,-0.11956159987494554,-0.13730456489235363,0.08824921813437765,nm,0.0
34.336103439331055,-1.1745013043287915,33.395630799652864,124.76504237892377,-0.03255370996120068,-0.030278239325108647,-0.16454658979292977,-0.10998384721489529,-0.09989242535117186,0.14081828071889804,nm,0.0
34.352988958358765,-0.9323789164832064,33.96754890048878,125.79143829103016,-0.06304956428554072,-0.2938767907942231,0.018971518593390788,-0.10955087207837771,-0.02379284266737352,0.17042211555971595,nm,0.0
34.357662200927734,-0.7679661099857567,34.35216218284337,127.09574501675557,-0.00091774936116753,-0.6236586020915063,0.14413031439646024,-0.07105863823629935,-0.014331934897556478,0.23439601360799833,nm,0.0
34.384395360946655,-1.1820880535035294,34.2472702243185,132.0544971746911,0.3474601653110657,-1.6086795560857827,0.2882200528490513,0.08276689299213404,-0.0019181142378984178,0.38617431406603214,nm,0.0
34.392239570617676,-1.8214348059951733,33.883651580578835,133.84412095076053,0.4322017593932175,-1.8623490472318112,0.30188979910209196,0.131497620234241,-0.017558562486011568,0.4219163570108249,nm,0.0
34.41719436645508,-4.0178278630524495,32.987860398517526,136.79348916538896,0.35024392990509184,-2.2112023747022906,0.23892205308528197,0.22596251524188166,-0.07574437923001387,0.4105152186652621,nm,0.0
34.4264919757843,-5.553348615092751,32.61054094195925,137.62414459952265,0.13360752389278538,-2.2242246941735933,0.27095285469493813,0.24598119574599947,-0.10870324792976746,0.32555540886507633,nm,0.0
34.43838810920715,-9.277974521451139,31.580770833805634,136.9881651741241,-0.02776714348253912,-1.9689290821787881,-0.4875749909530031,0.3311916112170872,-0.11756088823473114,0.053867548075502855,nm,0.0
34.45590043067932,-11.032845368790035,30.740185287788936,135.6630489932585,-0.2528676341994291,-1.5824190607052855,-0.7442533416913486,0.3387235542688883,-0.07358303010536899,-0.10417425159320169,nm,0.0
34.45954728126526,-12.464158508565335,29.666047325892727,133.96072568035166,-0.34251145083718115,-1.1020590882255623,-0.9752727192677305,0.3323369552496184,-0.011699483821201416,-0.21736986809228542,nm,0.0
34.48320150375366,-13.123133060261885,26.946979613270003,130.88213738151674,-0.42588840610272205,-0.19335002023354475,-0.8973441187460719,0.19959759095065774,0.21224547487668619,-0.2926482494436848,nm,0.0
34.48732018470764,-12.224633586837468,25.73506925299542,129.99665356242383,-0.3110528456344867,0.026455078604118085,-0.6991915178570893,0.08583040637300307,0.2923086769483665,-0.2626303670772938,nm,0.0
34.51457071304321,-8.34559119852286,23.983253519996097,129.42813877655564,0.04989734164680926,0.21258094606801956,-0.33570890359762584,-0.141006890524243,0.4290986617476264,-0.21039791845484612,nm,0.0
34.51677107810974,-5.423221972135375,23.540871676004187,129.3097815972601,-0.11838573220814727,0.24664806636328523,0.1798290579193107,-0.26509865163066654,0.48207492036547744,-0.2454265836554112,nm,0.0
34.54521059989929,-0.20721381160705152,23.707147380065077,128.47969794769588,0.2717860149361115,1.023966911147269,0.32649841200962865,-0.32885259711995,0.34827877756228004,-0.3038833374712793,nm,0.0
34.54742908477783,2.6409569325557847,24.243367500740877,127.87432571355765,-0.01097143398340696,1.5147955632278967,0.8735540042948715,-0.40052796238157046,0.35384227892114695,-0.3561346685024009,nm,0.0
34.57108116149902,6.48563553699367,25.612058974763933,126.76643712032521,0.1807666210629015,2.2670972538278433,0.560901603157274,-0.28149274179360434,0.17175737815956985,-0.25007234517892873,nm,0.0
34.57970476150513,7.786766363203173,26.054091709206702,126.48491027685786,0.040110164595409566,2.365838580848665,0.6977680483785195,-0.20476539368200053,0.14476566537918462,-0.1790159042471218,nm,0.0
34.60163855552673,8.11810579664652,26.151929631240655,126.29219868836564,0.15553638635107406,1.8144884752861283,0.35793351427638836,0.0,0.0,0.0,nm,0.0
34.60961937904358,7.454355835784071,25.966268631660405,126.13737433997969,0.04366520379846797,1.3729933974094823,0.5571260608057313,0.10685652826898735,-0.0650387129906235,0.018354845825084655,nm,0.0
34.613083600997925,6.076400516864018,25.83123198128329,125.7840823335971,0.08967200428282243,0.9887428091980462,0.5129649058242034,0.17407966072634068,-0.17556539080453037,0.04101864026273357,nm,0.0
34.62222981452942,4.490870454432725,25.922118718985,125.2947206113062,0.050949008471239815,0.6927793054874695,0.4311804972987198,0.1578112272098062,-0.23343072674352391,0.03210136891020333,nm,0.0
34.6499981880188,1.4132722848767303,26.927365240915645,124.71417853129462,-0.08257327831547197,0.38837890977357686,-0.0313911142409954,0.060000670870357084,-0.28041275917251607,0.07291308425961873,nm,0.0
34.653072357177734,0.33184964859312766,27.6401334559113,124.96696814413514,-0.2018815253163147,0.3995074630638874,-0.17054569424943472,-0.00017421559108303234,-0.22964757670060362,0.1270345831308331,nm,0.0
34.6577844619751,-0.36977742692238047,28.404019279050654,125.78311104987444,-0.2570468197463475,0.35793065726034184,-0.3727128154168472,-0.046033138726896246,-0.17976391720491663,0.2100354230178928,nm,0.0
34.68054795265198,-0.1404919524699731,29.643539006564612,128.8620983719321,-0.2945090778853991,-0.1334347754531818,-0.3629093029823644,-0.11971715243943319,0.004068177383120415,0.30026099691483327,nm,0.0
34.685755491256714,0.1603549511213069,29.908753753491396,130.7094903250347,-0.182070280933828,-0.461001127514588,-0.25436799162803514,-0.0682037614838456,0.016481900922343605,0.3317835575255195,nm,0.0
34.69896125793457,0.3098034012316484,30.045692352606995,132.44368216388466,0.09128601695023734,-0.8292099310027626,-0.21204225314542605,-0.03193997896840863,0.011628748559993093,0.3240510716536124,nm,0.0
34.719507932662964,0.015682181127749883,30.258640521309584,135.34962209013946,0.29713219587701367,-1.396735149686607,0.19124774345925857,0.03229799600159921,-0.050732165220772014,0.3024418040581844,nm,0.0
34.72424650192261,-0.6456624572040494,30.535222859526005,136.7098484559712,0.3242329255748072,-1.5532413281310706,0.2489279433195707,0.04879281318162143,-0.10827757699118043,0.3313064548822031,nm,0.0
34.737799644470215,-1.5600233013174702,31.04211913725859,138.1917407176685,0.15606909164684044,-1.6941267075103945,0.38879422621712784,0.052029171203772914,-0.17007800143137938,0.38250329786948417,nm,0.0
34.74773287773132,-2.86371322165113,31.747080876322535,139.78673267752208,0.14582486511729886,-1.812444182908429,0.15417083760370187,0.08005412187222498,-0.2414784424974631,0.4475961648568079,nm,0.0
34.751672983169556,-4.289361707596866,32.58140830696612,141.34705714517486,0.01963194294664488,-1.8960842995750034,-0.011104761014940004,0.08479780298910776,-0.271049948297501,0.4568331149769537,nm,0.0
34.77751803398132,-7.930629615615561,34.09775771629921,143.05989730127516,-0.038255693553313166,-2.0030540437720643,-0.47311375954283763,0.1924216757130375,-0.2951701921807323,0.3188261967294121,nm,0.0
34.78254771232605,-10.069403427063149,34.39645751902134,142.64028845552,-0.15366425045604867,-1.8611472944296241,-0.6393594908673529,0.24988605364120775,-0.24926486386916705,0.15048673036207624,nm,0.0
34.79351282119751,-12.271648884185156,34.30061025716666,141.24027405630252,-0.23209562716320742,-1.6525900655682577,-0.8159284925020218,0.30244960341087873,-0.19694904174548722,-0.03755663728590078,nm,0.0
34.80057144165039,-14.394619117461714,33.70300106170066,139.15584237474604,-0.2343644741226236,-1.2992861898950714,-0.9584477542719807,0.35163502270658625,-0.12090953443661616,-0.19947441255893322,nm,0.0
34.84937286376953,-17.007753690100404,31.442100754068232,134.46157247215731,-0.258486624088105,-0.4676765025494417,-0.7613518561464327,0.2884368771645199,0.07275505799080993,-0.38035932806047573,nm,0.0
34.85160803794861,-15.975005608072848,29.603635079575042,131.2921989748036,-0.0662410388816326,0.021840782966577547,-0.28057277979055417,0.0024092243755782033,0.24832976762906905,-0.3637547191499839,nm,0.0
34.854002714157104,-13.975318120565753,29.18310897807671,130.63049183311682,0.1451582866166449,0.1231735425496742,-0.21407497151513397,-0.15944600072556797,0.3308308200243649,-0.33452832048721426,nm,0.0
34.87053036689758,-11.022598483625892,29.05419120961254,130.327968152342,-0.025745318745044442,0.20526723848488024,0.17299671534623007,-0.30955554885380626,0.42175306923108885,-0.336338430926363,nm,0.0
34.96774196624756,1.9849466125808022,28.642597285427126,126.6300811811665,-0.053457845048034934,1.1116039282152974,0.6689291468962736,0.27259616064071746,-0.2213718552830366,0.1955037888226145,nm,0.0
34.97455096244812,-2.426120286494867,28.292874842284885,126.79745359366137,-0.3105954605007944,0.5419368930044778,0.34966192025114284,0.2508268485728775,-0.2853056328193862,0.21225764752009899,nm,0.0
