timestamp,roll,pitch,yaw,acc_x,acc_y,acc_z,gyro_x,gyro_y,gyro_z,markers,motor_input
18.007140159606934,-6.883169668802776,25.05001292260693,-102.99120812701854,-0.3256368767315905,0.9640919859352355,0.3284726785794401,-0.3225344689234169,-0.9193435115843519,-0.7346371755267753,nm,0.0
18.022372722625732,-1.3213138350432818,24.40921986790533,-104.75593939097139,-1.0087154556732194,0.9426411306990478,0.29147742791957804,-0.3794883359455824,-0.9534595854271325,-0.8264757150239173,nm,0.0
18.02636742591858,4.765831209562165,23.89249617484558,-106.13778273677846,-1.3300515433861504,0.8572959477183163,0.7981871796644733,-0.4077077531798032,-1.0460857963377561,-0.7836778763363091,nm,0.0
18.055994510650635,14.828016525194055,22.36782913288566,-105.48937809819061,-1.9424381725678206,0.6661668209435456,0.15568171365675168,-0.4077187634091083,-0.7666145339604411,-0.1566370884866679,nm,0.0
18.069041967391968,19.3302746654429,20.175449632891475,-99.48797903683972,-1.3248163594464888,-0.6239627456713971,0.34848259895813855,-0.2904218249366951,-0.1796752872462333,0.5986818768727855,nm,0.0
18.086556673049927,14.262264852559694,18.832131742062334,-92.78272805575865,0.1136336734061468,-2.0421794069965635,1.7668410794206932,-0.0005155570976593851,0.7472096020120433,0.8565588287732658,nm,0.0
18.09714674949646,7.6357435306585915,19.766125527741323,-91.27778408084312,0.9904430464392403,-1.880282219488881,1.5155841690787653,0.22048686481255347,1.2408768501312106,0.7309984716902619,nm,0.0
18.11604380607605,-8.718608123545287,22.023995033361366,-94.83160418525162,2.120883749184255,-1.363675510608371,0.5703200282719982,0.25961997921854185,1.5314873567421916,0.04141940705614998,nm,0.0
18.152426719665527,-22.864388574405954,20.650832660604316,-101.91921925982058,1.0605609283972641,-0.12270154660128099,-1.2090137050736396,-0.04118263849823703,1.1438242776127467,-0.21332366593078989,nm,0.0
18.1544771194458,-26.37253418545705,19.91968733340806,-103.69731099793049,0.9593115638323689,0.02845831134651604,-1.0496238074018636,-0.010344659101500835,0.6710314467874321,-0.11430478624519216,nm,0.0
18.157025814056396,-27.99415509242847,20.677026708093678,-103.99281348603937,0.41109450978552553,0.8220039291024194,-1.4422411785835267,0.206414577460151,0.2554215223207496,0.05172909814138408,nm,0.0
18.17532205581665,-27.32567826895916,22.575558582241772,-102.90016386216432,0.40896282079720014,1.4787544898706566,-1.3304348731296625,0.327210476977896,-0.2136211688598288,0.16723141323410648,nm,0.0
18.24610161781311,-20.542894214451827,26.15093376066123,-99.55424272288674,0.36600282573999904,2.1684040307275256,-0.7789186028075933,0.143836314268565,-0.7972129366072759,-0.061724354739641225,nm,0.0
18.249351024627686,-15.160686343496762,26.48460160392149,-99.38350517950627,0.4223293096656375,1.9000909057819568,-0.3406814059318214,-0.10612934579900268,-0.9677829149967664,-0.44876830108540844,nm,0.0
18.252353191375732,-4.3332061261904595,24.966553482317792,-103.95034938398675,-0.7762211628145111,0.714129873929113,0.08254356521629934,-0.3856192509831666,-0.8845752271599404,-1.04383996673321,nm,0.0
18.25583529472351,13.89058409441727,22.724239956737968,-107.97572604345473,-2.2385334446612806,0.4323272902318461,-0.03960646485323604,-0.5231752542226986,-0.9390787429528316,-0.36634658532367015,nm,0.0
18.258036375045776,18.78978903323552,21.137668716845873,-105.4145881643736,-1.9228560966288606,0.19864272604249397,-0.18249278923838194,-0.5754305803282245,-0.7818972313189999,0.13548628463723486,nm,0.0
18.260190963745117,21.760119494516903,18.96079551289463,-101.53468104663737,-1.5163746363305275,-0.31492574010471897,0.2284062925977979,-0.5634018078645968,-0.44420984226007226,0.561856877277436,nm,0.0
18.26567006111145,22.015286851456914,16.814289894010326,-97.35534190846943,-1.0279390062333584,-1.0061329360785551,1.0105699081333803,-0.4411902750858626,0.01927941219344509,0.8103557150933637,nm,0.0
18.29354977607727,12.764165197956402,16.465782306897996,-91.82973929996726,0.7130190944682473,-1.8979008987252097,2.033277700194142,0.18893395209668729,1.2014726496170816,0.7355621802042416,nm,0.0
18.295734405517578,4.118271386892368,18.25973230359274,-92.2991250316288,1.4424534784769525,-1.8128840933078116,1.3871564053870913,0.40677068263932187,1.6340180282956023,0.41505685732455333,nm,0.0
18.301408290863037,-5.326409211241868,19.774729464857987,-95.24094593690354,2.1925678961715698,-1.8703631329556787,1.1754055637078398,0.407434232782854,1.7598754725154924,0.02239265219804805,nm,0.0
18.324798822402954,-22.851717283190673,18.79290455290968,-103.29679076714211,1.2686714445183849,-0.5458463790312617,-1.2768468351709343,0.04820612875129553,1.5069267689343668,-0.22802705885265442,nm,0.0
18.34157705307007,-27.771886043667617,17.389625250561124,-105.18779491590784,1.0258758295607975,-0.2643579183053573,-1.3157562832487646,-0.055617664287112914,0.9731400336070939,-0.07376858072039649,nm,0.0
18.345773935317993,-30.430367269022216,17.38033819656505,-105.23842997523835,0.7499004633069526,0.14317299834161354,-1.4244493812213581,0.1176783644637242,0.4868091726553255,0.14808074971583057,nm,0.0
18.34841752052307,-30.966905076616175,19.284037353268825,-103.96919840430225,0.4766655831370019,1.0647324279379047,-1.6639183264875619,0.380910654897974,-0.001685305703151838,0.28689150719991285,nm,0.0
18.382017135620117,-20.81741126619431,25.029255580273034,-98.41156254897817,0.5643205927392457,1.9404288045691402,-0.5411585921579284,0.04159600307380911,-0.9058040034500262,-0.19283965394152378,nm,0.0
18.386477947235107,-15.25233916058664,24.879450576827576,-99.30321419606341,0.5451072825752203,1.4383218474322828,-0.09094563126353121,-0.19829170702747234,-0.997863479588066,-0.6534632936416747,nm,0.0
18.411954402923584,-4.596816123006354,23.377591395025785,-105.40522824047717,-1.0792593091394012,0.4011676147555046,0.05156682509066954,-0.3774736128786333,-0.9155572770396755,-1.1167710775352653,nm,0.0
18.43522810935974,7.781785845860469,22.64414972492953,-108.82421937146492,-2.0975636858541606,0.49253334506842195,0.3531472785316999,-0.4535748454456112,-1.0613152117635927,-0.6517915022204498,nm,0.0
18.437387704849243,13.64931109672903,21.61250742814404,-107.50191884880185,-2.2156808095979508,0.6889237503044402,0.023493122457716547,-0.5460778431436962,-0.9709314247687746,-0.1878928930632702,nm,0.0
18.455244064331055,21.58676043796948,17.96566912667732,-100.69056412484896,-1.427920480596064,0.2826209350218554,-0.03956578389171931,-0.5154854720529218,-0.45729881846825593,0.5581052922495016,nm,0.0
18.47977876663208,22.45579148552615,16.235389539273122,-97.04759386162266,-1.0100243967114684,-0.22411354232359162,0.17594691068320814,-0.37706846316336984,-0.1144166081324459,0.6674819393161481,nm,0.0
18.505908966064453,10.48185334625603,15.80520518082625,-92.99817136599687,0.570079237205596,-1.380238496901122,1.1253427713407629,0.15819801383727783,1.2249864112784927,0.3142974823379398,nm,0.0
18.508750438690186,2.833105074881776,16.238302066798106,-94.2329636623786,0.9313325346157522,-1.267029730374933,0.5454137642561881,0.16782632446211174,1.4592424358995084,0.16849577607958102,nm,0.0
18.5373752117157,-17.228710315218844,15.96549223598539,-96.98532191735914,1.2104703810418704,-0.24698027941560338,-0.9702769801739978,0.09730573250592969,1.0560689776726566,0.28206696729602443,nm,0.0
18.555203676223755,-22.226691723851584,17.33068226547674,-94.74451904971974,1.1182444029870338,0.9000702324212239,-1.5615457171426803,0.2096144091475062,0.28745987653899285,0.3645952275733582,nm,0.0
18.561771869659424,-21.987875068825563,18.533672653702194,-93.50095836486143,0.8415811577617505,1.5550368755772486,-1.6865991416612105,0.2242299934180654,-0.0688055098905582,0.2314936496868677,nm,0.0
18.59960651397705,-16.68274650731061,19.47158270665907,-93.23141765816185,0.5080344346501504,1.6885354459783666,-0.9488981746580889,-0.01967356750052198,-0.6329304815557688,-0.29751068297834327,nm,0.0
18.602269887924194,-12.035927497097987,19.158438769135092,-94.6274588079531,0.23495882418992672,1.2378381958013203,-0.47907852807258156,-0.1353193353592899,-0.877217478663993,-0.5920496320051737,nm,0.0
18.604520559310913,-5.985466387860472,18.76837020045583,-96.5916286848237,-0.016983254128332244,0.5777709973091828,0.07607101300418789,-0.202119540524743,-1.1375555069898464,-0.7927178269986528,nm,0.0
18.620530128479004,7.159873396448201,17.992847690093264,-99.08477814555809,-1.439466356503594,-0.5151318734166646,0.2411516798742821,-0.2843656432381328,-1.2122293829906634,-0.5621319372628149,nm,0.0
18.625683069229126,13.73417108216599,17.10005036256121,-98.24769032513447,-1.6578271551082502,-0.9096772889623626,0.3606385100640145,-0.3761507637999111,-1.2175855903975414,-0.23894637595518414,nm,0.0
18.643362998962402,18.88612334764407,15.386878560147004,-96.01019311809495,-1.6442444740059279,-1.0736068275447563,0.5043686272594406,-0.47270467981365466,-0.9443650035604165,0.1489862860552398,nm,0.0
18.652920722961426,21.92326520744518,10.5592679001885,-89.92919767982144,-0.9618058983988892,-1.0260070478491317,1.4415509042733583,-0.48595359310694636,-0.057951047569568086,0.591930332425653,nm,0.0
18.722346544265747,13.618367623448266,9.882340727803493,-86.77505345025645,0.5763648896927802,-0.6026540943913428,2.1363639583364846,0.037971835397073786,1.1022919504924247,0.340744263084516,nm,0.0
18.72458004951477,6.0739982476826215,11.62331667497789,-87.97454017699067,1.1119227666874505,-0.6819834588433119,1.8332287196123351,0.2692869089603498,1.4925054918122223,0.03450619439348522,nm,0.0
18.72938561439514,-20.43220690036774,14.082602937294899,-98.36148462949683,0.9562044600081845,-0.48212456696580014,-0.9708446376839209,0.13673023205545634,0.8364604387097638,-0.030988784823537358,nm,0.0
18.745354652404785,-23.34196162339734,16.925231957944064,-96.76117089964109,0.6673968169496249,0.866291732600067,-1.4580014686800482,0.349113751743847,0.04630156101119453,0.28680717134301964,nm,0.0
18.754493474960327,-21.95483457214208,18.76952469935143,-95.32100383798478,0.7407885367912576,1.4592825594693792,-1.065400595060187,0.3264828591623974,-0.3075294043623296,0.2003696980271524,nm,0.0
18.77370834350586,-15.663262702043234,21.002013183549167,-95.965740593214,0.4331783465502068,1.733036972687048,-0.6307474504784389,0.08151891492997529,-0.6930944505301989,-0.48997760341384733,nm,0.0
18.83539915084839,-2.5656608085956045,22.133761000514856,-106.82461880168282,-1.2347769617925537,0.19007994299379655,-0.3675749264476445,-0.12040060471165719,-0.8237326713928621,-1.123343850825801,nm,0.0
18.83980941772461,13.647497091335389,22.071839820863552,-108.69388696645464,-2.00341452576215,0.677857091211583,-0.19771095369830904,-0.44519712708838366,-0.8758444406647132,-0.1484840692170213,nm,0.0
18.842434883117676,18.157367672246277,20.638344272006684,-106.18216746422435,-1.7127719379994202,0.7248247596432561,0.12661418919398185,-0.5357702089473712,-0.7178258065135106,0.16332530797537548,nm,0.0
18.845102071762085,20.74450699864658,18.744629042959925,-103.32437668891092,-1.4399369437678693,0.6841786339166968,0.16677556138792304,-0.5004706185734995,-0.3772587328544852,0.3868351616671214,nm,0.0
18.860265970230103,21.368465759467163,17.07654318141215,-100.65898060644082,-1.0405219632518592,0.4529531612070677,0.1439077412421789,-0.36087749197658836,-0.04966758135303244,0.4846167828902168,nm,0.0
18.890256881713867,16.53100519113907,15.59847793260929,-97.1310760511766,-0.2878198930870419,-0.7165556707234246,1.1163994715457177,-0.00480379584155886,0.6877036028822763,0.46384022052291757,nm,0.0
18.89379906654358,10.999620034326862,15.45728190390188,-96.41939335152955,0.2745947623669971,-1.3780351862619302,1.6033520939351449,0.08718601430529199,1.0592714651652348,0.43014868640541276,nm,0.0
18.917904138565063,-10.596667354231029,16.14781391886154,-96.17354461812326,2.0516680070040954,-1.3690838575922892,0.6216653387924563,0.2048630322347224,1.3499351007251779,0.3713005425840564,nm,0.0
18.92175793647766,-16.95163067955045,16.594416824177472,-96.37351597457591,1.6410110432686247,-0.6897054171290355,-0.6930361145541174,0.2092938365591933,1.1988553273652103,0.31519228605025335,nm,0.0
18.943169116973877,-23.454295431517288,17.824031963588318,-96.90410481658716,1.3496361837478486,0.3662217271007923,-1.4423547346298566,0.17431683730664851,0.42249616695246234,0.07931560429370493,nm,0.0
18.961317539215088,-24.107968306229964,18.679045294633163,-97.2652661175987,0.7114176342909858,0.9798281627932584,-1.6928264531053658,0.17209107215768646,0.09684738628745211,-0.03362953545009459,nm,0.0
