timestamp,roll,pitch,yaw,acc_x,acc_y,acc_z,gyro_x,gyro_y,gyro_z,markers,motor_input
57.025118589401245,-26.65404933343492,-0.6046916799502609,0.18160561329369504,0.9168324927589406,-0.3802592809379519,-0.7537389029231482,1.4791828218402383,0.1151862239872686,-0.19489553215068112,nm,0.0
57.02742671966553,-15.544151819021838,0.9364497040604153,0.028895425055254078,1.0380872033065394,0.252644455455812,1.3947071303053793,2.2315355871340383,0.2994509838325423,-0.038836502602122146,nm,0.0
57.04278349876404,-2.346294837014415,2.4402447947135117,0.8891553903115598,1.3619529746634915,-0.43004805001141444,3.62294072557374,2.646605199073406,0.30951796389708025,0.08875497682452423,nm,0.0
57.046790599823,11.534185459960444,3.43680887958633,2.329348610213687,1.6065243744871218,-2.171046613600453,3.903905266044118,2.7765458271071966,0.2666430474027384,0.13685333965043064,nm,0.0
57.065197706222534,37.21340312023003,3.9824194561077872,4.676310285507939,0.934268133901327,-2.9239570907415344,0.7122492006704596,2.3820494007035378,0.18478340955543907,0.0006068734457306009,nm,0.0
57.09347486495972,53.244907136714744,4.51556772995762,4.245668229701483,-0.02764094894090196,-1.867858112940338,-1.144546095609742,1.2930121752789476,0.19328094775950383,-0.2125209781487548,nm,0.0
57.112735748291016,56.51959429449207,6.739417991050019,2.755962047086855,-0.8433983378762757,-0.7290305553132821,-1.9136513491951002,0.0598033435552533,0.24860953583313258,-0.164217093710808,nm,0.0
57.114609718322754,54.47701812448075,7.8231820206928635,2.262461227597694,-0.9456792249869349,-0.6348694831029456,-1.185540001360596,-0.4090255887464165,0.19674515175791737,-0.06004402188751117,nm,0.0
57.11986827850342,49.74021571532029,8.406069016679739,2.115180059440401,-0.9122428444041282,-0.33200808911020163,-0.7192199139164445,-0.9370264087123041,0.07742124688591694,0.09153069419966087,nm,0.0
57.14539909362793,34.11316374987724,7.740290634421262,3.4937202053137355,-0.40318329844962086,0.3906787648055638,1.1854391340536037,-1.7311106171892172,-0.20951025456580244,0.4353356121619833,nm,0.0
57.14826798439026,23.70491431109995,7.134205843459509,4.945568736775418,-0.33730086377628066,1.157922606195197,1.6509429995925158,-2.0453688118404316,-0.28056162341596824,0.5496981023897156,nm,0.0
57.170387268066406,0.4053411484186285,6.28860720968544,7.006910907745877,-0.6896753324274184,3.509621495519905,2.126361156748492,-2.3829334765670986,-0.36621606576736293,0.40431124592043666,nm,0.0
57.17620038986206,-11.796408825093021,5.717227191972693,6.675512250797777,-0.9780964350064838,3.7660261136401147,0.6621594300147552,-2.3905522360396065,-0.4138359998811511,0.18607562975481265,nm,0.0
57.199193716049194,-31.302969559577214,2.1564248253274294,4.547581399190914,-0.7601779425841375,1.7280956789369393,-2.441877718618066,-1.6772751327711353,-0.6150393699325444,-0.1679679066660768,nm,0.0
57.20481586456299,-36.738992259168704,-0.362129536190096,3.3667329738509597,-0.14294491773976065,0.4038761044999097,-2.9067636849154495,-1.04300914452666,-0.5894946884350224,-0.21643595595263232,nm,0.0
57.22845196723938,-36.76712378165277,-2.808926051861817,1.4200904750010734,0.7615783321045622,-0.6281632195464439,-2.3085777260384748,0.3448266915647906,-0.12501444302814943,-0.1632636758779722,nm,0.0
57.234482526779175,-31.479255403702464,-2.262095246445747,0.896118246188835,1.0041336125128597,-0.5881407520526426,-1.4571138780561477,1.062904555536104,0.11860304046883847,-0.05607429041843896,nm,0.0
57.256797790527344,-9.927065941073781,0.35207372521069147,1.7528656196509518,1.210448644424535,0.38865185913081446,2.58005268103619,2.4767463225370077,0.31219393949430746,0.1616821635838541,nm,0.0
57.263450145721436,3.550858925249582,1.2892761576730636,2.8448033173314844,1.365430778828515,-1.0852946174199527,3.7390403648794313,2.696790650907511,0.2842654458383001,0.1730947354554822,nm,0.0
57.2855589389801,30.017678619746825,2.3000821665093936,4.681609614821981,0.9396665535075356,-3.099411580439897,1.8222446484999761,2.5490974169124705,0.2656015803868195,0.047345394236295954,nm,0.0
57.29107737541199,40.795790290597196,2.7704493202652487,4.9720931998618605,0.527135620856925,-2.639874717137997,-0.04027561076009723,2.147820483677116,0.2703204309982619,-0.04904124207486868,nm,0.0
57.318780183792114,53.8477575291187,4.582219809397898,4.437003769119004,-0.04585253671642706,-1.5510622567810854,-1.69639655644027,0.9576632164754344,0.29185194956918614,-0.15933692589115456,nm,0.0
57.32450747489929,55.818800805381365,5.828503233595919,3.9952468768221023,-0.32013365113936665,-0.9293119647239771,-2.0815044346603826,0.3799089553030687,0.27597198597975653,-0.13717897445355604,nm,0.0
57.34251546859741,52.56747292085374,7.608942931760079,3.2498439487419106,-0.6428014204197582,-0.44965037653878454,-1.0915077864601441,-0.5710899871489803,0.1008682464516811,-0.006379210331532016,nm,0.0
57.34718322753906,47.378849933200456,7.7631809072288,3.138540370433906,-0.7507739513425411,-0.166249010725206,-0.34827696176229356,-1.0237581811062009,-0.030212063382175088,0.10403125220580713,nm,0.0
57.37128448486328,30.674672390037134,6.9426591864385845,3.9795571722643883,-0.6777382256603245,0.6551017429957843,0.8052251067516657,-1.8258959217203368,-0.22194624382493577,0.35029686863098314,nm,0.0
57.37691140174866,20.755598474799548,6.43808380401719,4.968175652680631,-0.5759122867542368,1.393940078943834,2.135625832685646,-1.9517721131809191,-0.262591186686112,0.4193809540405221,nm,0.0
57.39920926094055,-2.2603746626948906,5.384950049284332,6.5473296944363515,-0.6088932999993892,3.2246768386117393,1.31392766193269,-2.326050058833044,-0.37175952099984244,0.35479020772611214,nm,0.0
57.40436577796936,-13.20385791150636,4.788971785828866,6.918869199551329,-0.70244028414703,3.5423045284698964,0.34379415043284783,-2.1446331063510002,-0.38820011033677776,0.23484904884755825,nm,0.0
57.423704862594604,-30.456894820493375,2.191402319054931,6.636901370056878,-0.2573726145512098,1.4043308252865638,-2.439241087352539,-1.4488751014218346,-0.5020042163397077,0.023420578577935693,nm,0.0
57.45797896385193,-32.89574575415874,-1.6412279233781113,6.181478850158166,0.5844831939592647,-0.5190694214205654,-2.0356142171317186,0.4928829865103397,-0.0956189893964262,-0.0008793064913531037,nm,0.0
57.47336149215698,-26.532286218445094,-1.4492867664310691,6.340563013813609,0.4346872630049396,-0.26794943401241456,-0.9885789581958607,1.2706877241406505,0.16557546649840454,0.06693802388431477,nm,0.0
57.47504782676697,-16.342643892569193,-0.6268367338993124,6.74776882459155,0.15323762184129602,0.22764755605480766,0.7115674341565564,2.0168858201925906,0.3843462941833134,0.11674068234814616,nm,0.0
57.4813392162323,-3.6230641654387425,0.33426811339377427,7.21282745532202,0.13652738718444904,-0.09530532359446216,3.1429259785041683,2.513647787823649,0.4891596367904262,0.09489899279148832,nm,0.0
57.5085175037384,23.578853881107744,2.337998995723979,7.3462815716526295,1.288248398160874,-3.0525276438857016,3.1549715960689597,2.6978773080764817,0.5628979171858297,-0.1096471115467291,nm,0.0
57.51224994659424,35.93981826527551,3.75185281970617,7.165262216167474,1.5215406513064758,-3.302324932205681,1.410014248043392,2.423735934500186,0.5865893194059529,-0.17879692783398649,nm,0.0
57.539726972579956,53.470773146080326,5.979197968079534,6.560586341732167,1.1114410449195549,-1.915762082437388,-1.310598384588742,1.4730888025266369,0.33869308472427306,-0.23873810541456755,nm,0.0
57.5418496131897,57.40209332013869,6.264272138703112,5.898547020324795,0.4052176684209651,-1.01516346667682,-2.1672847954373413,0.7780732348150377,0.14040228448969722,-0.22946981411582545,nm,0.0
57.547268867492676,58.690581009948666,6.130311624990667,4.986539521585431,-0.3059655000859623,-0.6208840694380758,-2.2087857165836846,0.26405095023084346,-0.0034583744862142518,-0.22348911947998093,nm,0.0
57.5792031288147,54.19153881865707,5.802974241886786,3.0653287248557173,-1.3507022755682125,-0.22707626686817103,-0.6983028985054981,-0.7238742427180245,-0.05264058818147338,-0.11287559766900476,nm,0.0
57.58094501495361,48.17749240119862,6.122389310228967,2.4518793291373857,-1.6962152446923697,0.13840883308910204,-0.26711035114827114,-1.1931132924839905,0.0026235964701966847,-0.01016843354969492,nm,0.0
57.58444619178772,40.25800745045393,6.473179163307927,1.9205923677141437,-1.4558061750710334,0.20301535119073222,0.9881213246498141,-1.5714294966942444,0.004745820333553002,0.05579409754885434,nm,0.0
57.60930347442627,19.180040182119278,6.654408875382403,1.7687289863581945,-0.5776056880441717,1.5781470524898384,2.3164635209010003,-2.1921052103959577,-0.08142068607258818,0.27766819092758127,nm,0.0
57.615379333496094,7.098324128211471,6.284571314356442,2.302116406117031,-0.2629129602366063,2.89608684863519,2.53667759402081,-2.3927037849711703,-0.1694718585349677,0.3718407867998763,nm,0.0
57.638906955718994,-17.426985927708305,5.406611573563073,3.7079871705710974,-0.27565616408885363,3.9618550585970764,0.16789726135108907,-2.3559366248629923,-0.2378119337263717,0.32032162780997087,nm,0.0
57.64665079116821,-27.91450570440321,4.621369913192092,3.6359553062748278,-0.47388649043963826,2.9181296196564346,-1.711735636090572,-2.0694499490902323,-0.30233861938232426,0.16941406805849135,nm,0.0
57.66550397872925,-40.31303512255219,0.5886221050597579,2.387934583017932,0.003852699333426025,0.22041030449413504,-3.2229904635551763,-0.8487317921360714,-0.52794845622128,-0.12442888029223166,nm,0.0
57.67457413673401,-41.04602125845034,-1.8007443676554986,1.1813087872610142,0.5037435752801023,-0.4000853756185842,-2.943492814389532,-0.12427032674382703,-0.49447968750296467,-0.2392911321503147,nm,0.0
57.6961133480072,-31.199156923215373,-3.7296190067689126,-2.1525562750389926,1.2748435342812747,-0.4678682256854833,-0.8872019709866027,1.3810503720303346,-0.10227048293036389,-0.25261024931656156,nm,0.0
57.709867000579834,-6.492606445358259,-0.965308614795277,-3.111864729081183,1.3620147966263585,-0.02304193659024158,3.1112119835008856,2.771306789103124,0.16668200083113494,0.10911131276988101,nm,0.0
57.72533082962036,7.6562273139197075,0.42374271993046597,-1.851519452262577,1.1253609655864787,-2.0625627020072477,3.9721517780269107,2.8496490106657806,0.1429956740206717,0.25791713234716607,nm,0.0
57.72710943222046,22.171702587945884,1.0324914554637277,-0.026865076025135694,0.7346220890004834,-3.3504286647674966,3.599655257606085,2.9153277174814103,0.0649975797857976,0.3174049536898542,nm,0.0
57.75229501724243,45.95987908562531,0.935338072424793,2.1607908081509946,0.022981382667085076,-2.3540554563400975,-0.35148385996644577,2.1280989864350945,0.053461765305647876,0.08664394921584831,nm,0.0
57.755682706832886,53.424350126182794,1.485755936145061,1.9686525293055654,-0.11528184742648809,-2.005990344005167,-1.078777209280797,1.4965595606132964,0.1613528464940524,-0.08230138365149178,nm,0.0
57.78409218788147,58.294677197918155,4.995312446378211,0.6354183727072651,-0.5525652102801639,-0.6410882551553917,-2.0478742740487634,0.17592485382597042,0.4129200865008808,-0.1704649196026126,nm,0.0
57.78906989097595,56.44333754334877,6.954377462869709,-0.22977658556993097,-0.7348615388592198,-0.5329220071420714,-1.7091891497968736,-0.36422180801925486,0.38883057649866143,-0.1477135459829977,nm,0.0
57.80889534950256,45.59202102395297,8.389438875366093,-1.362050106970936,-0.719358802320499,-0.24005563029098642,-0.16007562846819803,-1.2922791297351908,0.06590406534134746,0.11446588858288011,nm,0.0
57.81433463096619,36.80771642331244,7.779265145282873,-0.8007389754568524,-0.5761144884579661,0.11695498201768142,0.9867297282679817,-1.7377099572992873,-0.09519413236188665,0.34782845858818473,nm,0.0
57.83650350570679,15.129891280887206,6.1523384405133985,2.530086126724875,-0.5416403198511138,2.0170546771011866,2.5718347848997993,-2.2076943550443233,-0.2131730379914101,0.6201798241811416,nm,0.0
57.84476590156555,2.938705162742298,5.871692725220399,3.981992600318085,-0.7422035945744181,3.4860298756878163,2.5402671016973963,-2.413311206396057,-0.20436586882648555,0.5389982892565082,nm,0.0
57.86741375923157,-21.4052877527223,4.874762651940893,3.2961581872328365,-1.1444054679935693,3.829662508351393,-0.587576042407186,-2.3020581368325876,-0.3324815966569473,0.019360576307862646,nm,0.0
57.89580512046814,-38.636942274436855,-0.18290436490629866,-0.43762203439734065,-0.40003480176077244,0.8335465400097988,-3.0238924543758774,-1.4323487152707821,-0.6269302296187248,-0.35314715907118294,nm,0.0
57.89759659767151,-42.00944315249448,-3.173759344444486,-2.2671631135869332,0.27885725550471985,-0.03170512838982093,-2.971657451413101,-0.6823479784677763,-0.5946926630357018,-0.3817413271031554,nm,0.0
57.9043869972229,-41.95173205546656,-5.128168349060382,-4.034556838601931,0.9209985638508319,-0.5758701391942578,-2.4866379738118822,-0.003814352332618847,-0.40364699525560827,-0.34858665893299273,nm,0.0
57.91438603401184,-38.52484425821536,-5.4901147776305415,-5.563497021167629,1.358036672370004,-0.9704433834365449,-1.8236688076471361,0.6806797335334798,-0.1419740787168068,-0.2387590486916477,nm,0.0
57.918283224105835,-31.38136933268487,-4.437711194510123,-6.289147999387772,1.616914205802382,-0.6839230012576359,-0.8525577576893538,1.4450311726195577,0.049189197840997435,-0.019148136273559706,nm,0.0
57.93746018409729,-7.650498371258896,-1.2568218258885613,-4.011086302607585,1.5841077026214725,-0.16376992056871517,3.552804907035902,2.6250494261545096,0.0561462374805971,0.43433044777524954,nm,0.0
57.94822382926941,5.903609020409609,-0.5249815300842868,-1.6547856491813808,1.037143984582573,-1.7465607538605585,3.837613235992138,2.7250764990741945,0.0005821821269242917,0.5057226315163073,nm,0.0
57.95781707763672,19.255938003985378,-0.5506991179113139,0.5179978103107208,0.3210177852266313,-2.7009211968007563,2.7961114781944123,2.681153416941388,-0.04061770189466003,0.44979533259680443,nm,0.0
57.97922205924988,40.42212759906825,-0.8118705437084215,1.847821061031269,-0.5928955403833263,-2.299952999692495,-0.11666342184251607,1.8668463398822654,0.07371689330343487,0.035508556233709604,nm,0.0
57.983742237091064,46.40306922780988,0.5038410428793734,1.3438227341852338,-0.589655408706733,-1.688138440044452,-1.1419542595881016,1.1972320570897228,0.29246208263754314,-0.10937866427122377,nm,0.0
