timestamp,roll,pitch,yaw,acc_x,acc_y,acc_z,gyro_x,gyro_y,gyro_z,markers,motor_input
37.01114320755005,-22.363981399797318,19.17472743598879,32.97622158156453,0.3391609399316468,-0.34439093284824307,0.45053774305396377,1.2359762089958142,0.8309159657836995,-0.6324483868764432,nm,0.0
37.01682806015015,-12.697039397710466,19.318509135034123,32.26086382248691,1.077185164081116,-0.40054249911321527,1.3387408359147857,1.53757015910312,0.9994576210115232,-0.741708611198567,nm,0.0
37.04092860221863,10.233451764014186,19.038566199533104,31.028287071861502,2.9211097599013796,-1.7811482307980946,3.0739494744045484,1.9714811808659551,1.1327306743683432,-0.8768032936483257,nm,0.0
37.04939150810242,21.811306260456742,18.705775274612655,30.621201517013553,2.8724605110196983,-2.6225169767315917,2.511181774445298,1.9271655009764004,1.0596255398783276,-0.8161784069626788,nm,0.0
37.069788217544556,38.52819115970439,17.891630416831603,30.484650726678545,1.524304798880153,-3.054474478740669,0.20049017326582458,1.1915401759186484,0.6081967827000447,-0.42012427481687287,nm,0.0
37.072211027145386,42.95902261479615,17.80077076174425,30.991329997067126,0.8112741021141977,-2.508075956183587,-0.6238599322348454,0.7408710003500073,0.4134240671953424,-0.17561473431999894,nm,0.0
37.10420894622803,44.389950569721776,18.291084959372043,32.80636903481534,0.5830023814091694,-1.4079840563489254,-0.9742207038325773,-0.09474120166375717,0.009980379767382731,0.20039033919533533,nm,0.0
37.10673213005066,42.668700211604985,18.62129131783795,33.82096281567583,0.6219659449499586,-0.7139488035385402,-0.6696690939308253,-0.3038858105903701,-0.1267701275368591,0.27972027455976906,nm,0.0
37.12639379501343,34.818984916293594,18.90924057759272,35.42979407870296,0.32030941594887735,0.419627181834547,-0.26295384721539966,-0.7198082158321717,-0.5010021692875607,0.37618936302559774,nm,0.0
37.13860893249512,29.26098680767123,18.824835840384054,36.148080291175376,-0.0005651444595819679,0.7062274497425142,-0.3330230747329952,-0.8344950759251767,-0.6366438483895207,0.4021001152166257,nm,0.0
37.1448028087616,23.525398862439474,18.620445336747377,36.84605088123344,-0.272128969227225,1.0626545489456105,0.32428971886568747,-0.839111004098911,-0.6874402340286926,0.4070659247922437,nm,0.0
37.1487991809845,17.113694793197254,18.299042528942685,37.4942866874854,-0.7025895342623728,1.5001076964939646,0.6752348946620547,-0.9198053655047005,-0.7947572286025946,0.4519501786550263,nm,0.0
37.158451318740845,9.990067379682001,17.967994342397994,38.24550518494798,-1.0764613218851316,1.7293711188310275,0.5008122609762775,-1.0166765598440666,-0.892548898758419,0.5175892756172181,nm,0.0
37.18443250656128,-4.272084363915775,17.75847613871504,40.02317658443179,-1.8955145101610789,2.3973238532919754,0.5325487973906076,-1.0417513003934076,-0.8857012039082203,0.5840442477920574,nm,0.0
37.18634557723999,-11.597803544056164,17.819393594061232,40.77528992883617,-2.0901898169158506,2.1898335100237305,-0.1555464146154981,-1.0587966877487913,-0.9014439347300018,0.5876375158135282,nm,0.0
37.20099353790283,-18.19275376232202,17.92959585390289,41.29004281981776,-2.212595295593204,2.0016903425298933,-0.5770206177953046,-0.9496241114069338,-0.8131743384637292,0.5100844945298535,nm,0.0
37.205585956573486,-23.886466140867007,18.003354934646897,41.3554104259412,-2.3973660398150285,1.855455396837838,-0.8340474377926904,-0.8113735764302913,-0.7089748213822711,0.3826564460688533,nm,0.0
37.21414494514465,-28.700146448863784,17.882217009224156,40.87236430600844,-2.2119093214777372,1.3091983980680304,-1.3070170856240333,-0.6621742886687176,-0.6248041968752973,0.2320416603847492,nm,0.0
37.234527587890625,-34.21488786641531,16.997456503231536,38.42026554823007,-1.635228654182732,0.7578322163071944,-1.4529783898418518,-0.23705669173938437,-0.34453724718902146,-0.12804221170109342,nm,0.0
37.25577998161316,-35.22550223162992,16.40326652453816,36.62069745434677,-1.0004281889796647,0.27018064871292635,-1.4634206620922983,-0.06808967381763927,-0.2173868257866298,-0.2666425234085006,nm,0.0
37.257988691329956,-34.640787802327424,15.865142482546657,34.669324269463694,-0.45265994506009755,-0.005950731851410188,-1.3218676282075705,0.1674773822105663,-0.02785646916458531,-0.3859554339260194,nm,0.0
37.277838706970215,-27.684735494710385,15.216344054630973,31.144651266890243,0.6184929739707575,-0.6632144600901493,-0.8384908127108224,0.8025728056140105,0.4291035430530849,-0.5211848056285328,nm,0.0
37.28714036941528,-20.07345582617768,15.195886244854204,30.011079738557374,0.8836515442799995,-0.12798257109196814,0.7137428919268619,1.2821411287409026,0.7347655987403543,-0.5805650454258005,nm,0.0
37.31024694442749,0.9419152155620556,15.614991393898356,29.181573290880355,2.3846373909035905,-1.27155209126068,3.1185972753404,1.911051371055713,1.1134498916083533,-0.6075439596186637,nm,0.0
37.3135199546814,13.01581917072135,15.797085924300099,29.40111975290624,2.88955726575708,-2.2122294593596603,3.5626324266637552,2.023683191991959,1.1602026968149914,-0.5742041936048841,nm,0.0
37.33492088317871,33.588179785891214,15.314887973720175,30.346242373204365,2.163452554999778,-3.166494863305822,1.127734134979849,1.632930155445543,0.8510563889049202,-0.38176964234539396,nm,0.0
37.34280800819397,40.57699856636931,15.025780431180056,31.07397763247931,1.4881487574542185,-3.0873277155025765,0.17038522791934402,1.1971401630653562,0.6376784123719846,-0.23339626567526026,nm,0.0
37.36477255821228,46.40437204643871,15.40917459189216,32.538037115473514,0.5891506266640706,-2.2052318822227783,-0.8724631075366944,0.23662663426801064,0.23246953473816723,0.04573349100174662,nm,0.0
37.392067670822144,43.76787939150855,16.952618142231834,34.121023680555325,0.48441991892680913,-0.8991136570698346,-0.6930687202018634,-0.4352341791502044,-0.0949637823342979,0.27080468894573556,nm,0.0
37.39387011528015,39.9535482853763,17.65079362426905,34.94715040772589,0.417980966913933,-0.17523753075610354,-0.45775191872187493,-0.6734109978186845,-0.30159085627838667,0.3472886256561828,nm,0.0
37.39911723136902,34.6317073922105,18.16712119286787,35.855581764596224,0.36884820326963635,0.44981636929974705,-0.07659633648784339,-0.8781289282313405,-0.5088529477141804,0.43016385178854716,nm,0.0
37.42579412460327,20.25098183706595,18.879061758476585,37.77470310104808,-0.32098435634797445,1.3588448454255164,0.4627572424311388,-1.1623479653868867,-0.8338103657199277,0.5816785184331608,nm,0.0
37.4278359413147,12.031683212746675,18.93724279940013,38.494546417284475,-0.7417477086745282,2.0857799879809513,1.182719237520714,-1.2198189272339974,-0.9602527218535888,0.6140159172942671,nm,0.0
37.437076807022095,2.829402123936539,19.028720001353246,39.088325333788646,-1.2993267893769376,2.5815249569196363,1.0691055786489312,-1.3566729935741344,-1.0852813246811148,0.6684345922042437,nm,0.0
37.44729447364807,-6.639239604352157,19.22974010160935,39.5640066094696,-1.8565079393338024,2.917022919516864,0.7826395392950618,-1.3977098085115365,-1.1115598999520908,0.6796520418109607,nm,0.0
37.45201349258423,-16.090337168454294,19.35136487473629,39.988458723349275,-2.315556086347537,2.920849403757207,0.06386939872166926,-1.373894995562913,-1.1315816557150566,0.6713574245298687,nm,0.0
37.477471590042114,-33.11659735535384,19.224417616350028,40.01733364919026,-2.2921260760986444,2.00608038815126,-1.1419051632150234,-1.1110330662796049,-0.9750852828890432,0.5134513315280548,nm,0.0
37.48105716705322,-39.22271661521041,18.97533168776951,39.54874748203175,-2.2598982765502345,1.4250065350567704,-1.6725059857199127,-0.8436982251471423,-0.7799630003220386,0.3529425566728865,nm,0.0
37.49121713638306,-43.85514223981926,18.46472296237268,38.849012168642865,-1.898800248357806,0.7061083772280538,-1.9930269473526172,-0.6037307236812177,-0.6369437322629763,0.20786781791120923,nm,0.0
37.518447399139404,-47.43800671925276,17.119553170986247,36.685259425972596,-1.2811998464697172,0.23968062531411446,-1.777127726649976,-0.05202826186959685,-0.22380803999199728,-0.15858909978153657,nm,0.0
37.54514265060425,-44.66564730841059,15.930076665898223,33.700578727548276,-0.08649363832910849,-0.3890947618552249,-1.3614331886144402,0.4471712280490275,0.1580922603755267,-0.39067525453375507,nm,0.0
37.547117948532104,-40.31766182275074,15.616305790094547,32.32609618070894,0.41196271677154067,-0.5420349725430245,-1.058153272481258,0.7508456747331671,0.3966079620759031,-0.46300025721214394,nm,0.0
37.55002474784851,-33.53897667157795,15.660932482420279,31.30992106393,0.5989434992571956,-0.2327558912243226,-0.33845886246590445,1.1204160994044041,0.6879979102873224,-0.5211702178479142,nm,0.0
37.56567430496216,-24.75392178536644,16.04085787603552,30.77155239335816,0.9081060155363888,-0.09113545782061534,0.988981203025462,1.4253933289372203,0.92753329862472,-0.5387524430533556,nm,0.0
37.56962180137634,-14.095062084709012,16.499134686059538,30.808040025932286,1.378075049169853,-0.5004300053821082,2.26546909462708,1.7276689106107421,1.1162694253802292,-0.5421087098341323,nm,0.0
37.57707166671753,-1.9248749892271888,16.6742938562537,31.28483167258614,1.8034694821969766,-0.8909025918247858,3.327962755038333,1.9966363854844378,1.2229972372606808,-0.5543755639915577,nm,0.0
37.58891940116882,9.786251989100679,16.611865441506914,31.82056580381563,2.0684230800989,-1.95229619369001,2.7874350425380907,1.9334351070054976,1.154765707157583,-0.5231722677732947,nm,0.0
37.59575128555298,20.425237703221658,16.495915091409554,32.180061980058305,1.781264791899125,-2.547691030358543,1.573922068081932,1.7548117001832322,1.053860246935189,-0.49863823908367955,nm,0.0
37.621020555496216,35.227886127904306,16.726946223500033,32.232843054260606,1.3461684523940052,-2.4328667390060366,-0.07151021598437567,0.9223325879498844,0.6414664452526992,-0.34420520492428724,nm,0.0
37.6271607875824,38.259848221528614,17.34090447467784,32.24753454631039,0.95453227927378,-2.0544720494662276,-1.0920699093139243,0.4317212857332525,0.41076854351419567,-0.1875989966343642,nm,0.0
37.65207552909851,37.94193390694076,18.12289563752618,32.47649284089826,0.9052071281523103,-1.0600922072060825,-0.8100821572465037,-0.22675574534188211,-0.09739921423413155,0.07896331309562767,nm,0.0
37.65729880332947,34.879385977208486,18.018296559869725,32.88255561707515,0.6995508999868928,-0.5476183985467468,-0.5766488038506385,-0.4721270533733177,-0.33667341161171593,0.215517200239278,nm,0.0
37.67997431755066,24.52007034536732,17.337521098626606,34.13423495185215,-0.043103746764104334,0.40984269036521875,0.5343805181785346,-0.8961122701187473,-0.7033449076128562,0.4095132246113239,nm,0.0
37.68210196495056,17.443081276530194,17.08285956084947,34.70067671331254,-0.5316822347657784,0.668423990774953,0.3498855973957458,-1.076168239216314,-0.8156520968975621,0.4484422620420915,nm,0.0
37.69423866271973,10.28214601014427,17.00459223879484,35.50236897945023,-0.9501932627145249,1.326917558502551,1.1402825816190065,-1.0977061564754789,-0.8132893264401412,0.4331668899501533,nm,0.0
37.70026922225952,2.192620985846849,17.033119101278707,36.11863423897796,-1.4613721896620564,1.9736179257651274,1.2263214919093035,-1.243680414881676,-0.9141013080380487,0.4686047425524432,nm,0.0
37.712801933288574,-6.463517344566959,17.088637353715374,36.641636886921326,-1.6490043607553564,2.1539303783014394,0.5189958996622571,-1.3249025713301767,-0.9852510400175905,0.5152780011998707,nm,0.0
37.71895217895508,-14.505021901676761,17.29343152688627,37.20370104446771,-1.9410963020175316,2.6079302503868673,0.2693394681893887,-1.2396981461492838,-0.9003182030998073,0.5282059926900212,nm,0.0
37.745392084121704,-29.486981559052943,18.176342724418443,38.295479232788665,-1.9103863069467097,2.038117202072303,-1.171419605489157,-1.122686416631153,-0.7701198977032172,0.5382226408965644,nm,0.0
37.747451305389404,-34.98718901103551,18.615351177101054,38.65378138962545,-1.9620138685656003,1.7811243729163142,-1.452694668284159,-0.85940709539281,-0.5857624296831112,0.42849194794364787,nm,0.0
37.75951027870178,-39.09944830903057,18.81767184892194,38.54688429363171,-2.0012457297595008,1.459157257501923,-1.6729262519284849,-0.6217788459481877,-0.45817174117808906,0.28279947107986997,nm,0.0
37.78411602973938,-43.70253762532081,17.982164809204935,37.126009728416285,-1.4990132591568766,0.5941632215247443,-1.5542162259956023,-0.15141920758839833,-0.2909780063265044,-0.06072104437458159,nm,0.0
37.78636860847473,-44.18451768853477,17.112985363678376,35.80721202745637,-1.1147040198999054,0.2614430047505825,-1.3747847489311584,0.04301627158927778,-0.19919722134179838,-0.2330679312412172,nm,0.0
37.804521799087524,-41.69584817659319,15.516285914925808,32.132431923011396,-0.046740589789236835,-0.5721918022871155,-1.2387577464888215,0.3995129168101827,0.07508361917292097,-0.49176896679227095,nm,0.0
37.820730447769165,-37.97836474622923,15.14874325665222,30.125284411737375,0.5106667282909887,-0.9672948495204158,-1.165607872590295,0.6655215080680656,0.30178861659180384,-0.5976459532753217,nm,0.0
37.824063539505005,-31.600800281324158,15.201158356661162,28.203814629154166,0.7200645776662047,-0.44728370244816207,-0.09687464508257096,1.083782906010367,0.6026442490791523,-0.719017064668363,nm,0.0
37.85327672958374,-11.005888164150065,15.457418784830937,25.585342155863795,2.270653469370613,-0.2814288700839887,2.9371894426175396,2.010751383101318,0.9880033727743736,-0.8260180799086162,nm,0.0
37.855297565460205,1.6898396205445299,15.963441049877861,25.24130207878906,3.2570839085514764,-1.3475086215941785,4.3366726064714625,2.1771253374087762,1.1337196033769772,-0.7642046860553079,nm,0.0
37.86275911331177,14.285592029732198,16.777312772549795,25.815846574720634,2.960831033743446,-2.6172852896727754,2.981388591394845,2.1223192388178487,1.1826913658511797,-0.6057536854990004,nm,0.0
37.887157678604126,35.437454980694426,16.28366724371847,28.166233946542995,2.0036535409283833,-3.3135669881847627,1.4144677487020634,1.6430151943965994,0.7150531531965143,-0.30582657888897574,nm,0.0
37.89022350311279,41.391593532887846,15.973066619151647,29.51435697502744,0.7465142719902799,-2.8213971433040554,-0.5549072630472864,1.0392407377869657,0.49550827764807637,-0.07434215458828067,nm,0.0
37.89934015274048,45.075234931636395,16.294838297982015,30.89002296159242,0.3277192854335935,-2.5408358072509434,-0.5288324127020012,0.5855359179949629,0.4102867629348004,0.057207767778187285,nm,0.0
37.930808305740356,44.716203488528734,18.763986454977836,32.713401178910345,0.4529681558811739,-1.230821489461059,-1.030715807726475,-0.36181082108059476,0.12594062589204513,0.2270717486478272,nm,0.0
37.93271350860596,42.184004374601344,20.490404138817752,33.49625594762943,0.5697891290504664,-0.5533420556210374,-0.6852179731661481,-0.5836400209302484,0.02614952419867469,0.3137988711540447,nm,0.0
37.93813157081604,38.02673324222468,21.79990088901785,34.12112030833001,0.5306371232036005,0.1185177140697152,-0.5555900452345658,-0.7854018473073264,-0.21748150024874466,0.4124303860736555,nm,0.0
37.96242880821228,26.303036963729507,22.487871745349178,36.43263791802504,0.1324111488526336,0.9318863684789521,-0.3494003368864866,-0.9335144359310562,-0.6621560334196123,0.6765358028889552,nm,0.0
37.96668291091919,19.965360469144148,22.374708061184645,38.24135023384375,-0.31019564979545183,1.4320578852947838,0.42286000187162937,-0.9090124755654285,-0.7365367566768812,0.781016432248928,nm,0.0
37.99124026298523,4.718194712902716,22.305268548514164,41.809037349086395,-1.4335994019616578,2.23249026898187,0.7025184035979388,-1.1238307407196928,-0.970413173627517,0.9020724402062696,nm,0.0
37.994821071624756,-3.4904480111754985,22.686593483920095,42.959276667044705,-2.0279911691252717,2.5757069567840385,0.6485763719781107,-1.160633982978098,-0.973645186226172,0.8300978206611178,nm,0.0
