timestamp,roll,pitch,yaw,acc_x,acc_y,acc_z,gyro_x,gyro_y,gyro_z,markers,motor_input
56.01372027397156,53.138547743739316,10.387091413925694,4.346736538345094,-0.9995500593264095,0.1119258780034558,0.0018687020491049754,-1.2912943357078595,-0.08736988314130759,0.33196517541532855,nm,0.0
56.01644539833069,44.36777613686497,10.273965736975633,5.1449038678875105,-0.6293286146648734,0.282848751957536,1.0364246464616829,-1.714396546052003,-0.16956797836212226,0.46179762872580493,nm,0.0
56.03871202468872,22.931037977382292,9.95568715450014,7.053487222470067,-0.19511503104290523,1.7080133850831425,2.488654635078847,-2.1468145403042285,-0.2951572468642748,0.5589843529175332,nm,0.0
56.0476815700531,10.786226265949667,9.633817649043866,7.559924446612398,-0.20887274371017242,2.887750983367002,2.41085007300245,-2.3614956784029646,-0.3777851681988804,0.5065523840296757,nm,0.0
56.068928718566895,-12.733431539230304,8.346539132132484,7.1600542878257345,-0.7604668596658231,3.32740742916257,-0.20655573974336264,-2.1582038150463267,-0.4658430360956844,0.2087448123833268,nm,0.0
56.07568883895874,-22.13818346696204,6.7800600104093505,6.138333644009659,-0.8646731400665083,2.3108570131216406,-1.8230566675866606,-1.8094717688235595,-0.5385674646846458,0.04247986946014457,nm,0.0
56.102497816085815,-31.146210140947822,2.6639844657119265,3.8383972815236387,-0.2562833358980174,0.3745432819996632,-2.807123462150864,-0.46800405298183045,-0.4510812758921504,-0.2019610609478715,nm,0.0
56.106069803237915,-30.225207358014686,1.3433059969467611,2.5392274173421847,0.13455480223339225,-0.10580349295162307,-2.4098699878113936,0.2067215738891968,-0.26576741572951684,-0.265411198374045,nm,0.0
56.111618757247925,-25.59768807845069,1.0211956920809053,1.257369930535209,0.5356058103172247,-0.3288553118695514,-1.5798165871376644,0.9357536942220189,-0.04596261863668165,-0.27543490234591256,nm,0.0
56.13472247123718,-5.045328455254906,2.8964147396981255,0.011458314378677429,1.3659064549275057,0.03078631962552138,2.596585086652964,2.391513263236924,0.23863841929444043,-0.15946396578420344,nm,0.0
56.13915538787842,8.189486604147284,4.182608930651402,0.4345899337128244,1.8211364106243833,-1.5590578476157606,3.828136247090677,2.6511321685895064,0.2562427261185247,-0.08638660470082546,nm,0.0
56.16358160972595,34.856386326733535,5.631402935515839,2.7977342470423445,1.403767158128667,-3.4985915899132016,1.6581421088406154,2.610815655191817,0.17577598920697807,0.0005270374611276464,nm,0.0
56.16785764694214,45.960177064725904,5.538178089783321,3.811870433379768,0.6943490143322635,-2.8844171791147297,-0.17359674493186814,2.2167099678325037,0.10515924648407486,-0.026241126843511722,nm,0.0
56.19074988365173,59.672161489581434,5.629950542796202,4.266039183820967,-0.41257374114868084,-1.6995586740240902,-1.5614845376389612,1.0410172336043533,0.1312198905044972,-0.11097022110430728,nm,0.0
56.19806408882141,61.861905930835604,6.618069477284949,4.187797396737083,-0.7578850484998044,-0.9195610533748566,-1.958194464482438,0.42617154834706605,0.2289580191639607,-0.07560789844168266,nm,0.0
56.20784068107605,61.66452950836498,8.173465348852629,4.25507313503918,-0.9132682544900825,-0.6702716669522797,-1.6324338676814698,-0.05638579707862561,0.30719110911248865,0.005223359225301685,nm,0.0
56.22936463356018,54.175699976743076,11.018198700041848,4.603477998717372,-0.561709928994925,-0.11573385281860568,-0.726580657534346,-0.9722408884891458,0.15808189163152364,0.20195386883055022,nm,0.0
56.2339072227478,47.250450565801195,11.370267954374336,5.037729582862567,-0.1442871360144049,0.04166192942862269,0.1696939000950225,-1.3561396038612317,-0.04769433225968145,0.34307413580893487,nm,0.0
56.24440383911133,38.24786668777907,10.973164978234701,5.946700212471651,0.09009091937082848,0.5538105189760082,0.7580557502951129,-1.747114885197742,-0.25347204834215314,0.5187415862412287,nm,0.0
56.26690316200256,16.73776266157792,9.021311957983269,8.616745852822268,-0.05301174030047404,2.3518624692873593,2.739354199708052,-2.1733926150253344,-0.5275634799667737,0.6336713561875369,nm,0.0
56.2744927406311,4.263436307434539,8.105908288585313,9.433185261725898,-0.5736136839579764,3.448150730981956,2.2411879265098333,-2.4027571858567196,-0.5775304651433494,0.5279664378192339,nm,0.0
56.29533910751343,-19.515940742913127,5.558750535612058,8.453960233209239,-1.6246888915074322,3.361999802594746,-0.6477242396297747,-2.167718104509748,-0.6836065288831797,0.07337080842952717,nm,0.0
56.301708698272705,-28.832331292887712,3.060912730882677,7.296015212403584,-1.2954815463787974,1.9381235985074003,-2.1495687054012285,-1.7654973614572282,-0.7605645950568218,-0.09048498911952409,nm,0.0
56.325740337371826,-37.26830692774109,-1.0354914027819035,5.204199820094948,-0.057012995570672215,-0.14087072853219162,-2.836126593545532,-0.43893991199688853,-0.3774661991928287,-0.19612579101037356,nm,0.0
56.33026647567749,-36.33715798891011,-1.3253311471908247,4.460099694832798,0.4361254396299242,-0.5678861148201719,-2.430294536971986,0.19890344414694922,-0.05362577674051867,-0.14232324175188737,nm,0.0
56.35307049751282,-23.284405897427405,1.222351449010641,4.521912467263244,0.859383372157922,-0.2235865262416112,-0.5532163114274539,1.687241654352959,0.4341228358526356,0.05966114685307132,nm,0.0
56.375584840774536,2.723827205176475,3.292202920261545,6.460652064272952,1.6062446183766328,-0.8169951312397347,4.005924173054676,2.721151847706728,0.4150547833541851,0.05111905062038646,nm,0.0
56.381110191345215,16.775146878475724,3.724172883551713,7.134656726526902,1.7589964636319502,-2.6044986841803586,3.485655079597953,2.7864357723285442,0.40939148689474386,-0.04643913786001963,nm,0.0
56.406649351119995,42.47682592226998,4.40600225675692,7.148806262324538,0.9324439225015532,-2.937514763611188,0.29188604695981374,2.3550760906458628,0.36503010353497467,-0.2353139699022266,nm,0.0
56.409390449523926,51.625758228340004,4.8845552232938765,6.52809830068179,0.4028505709728877,-2.4323152683544564,-0.8564040172150357,1.8082482052380033,0.30999786692055176,-0.28500363984785637,nm,0.0
56.429327964782715,60.353905667086046,6.3433474077110015,5.135305421950042,-0.5900425164117544,-0.8504475739967049,-2.1657803934984634,0.5528651524942991,0.21001640305213726,-0.20024994894624082,nm,0.0
56.46489906311035,53.48897241554048,8.09285889921498,4.605205672372459,-0.8696852285569477,-0.05205134912517509,-0.6783638732746674,-0.9325031925031158,-0.004023079659478878,0.12259629822505307,nm,0.0
56.46660137176514,46.509313577133284,8.186157061304096,4.783141285473552,-0.6530275811181953,0.17994232601387375,0.26282888476392596,-1.3743829023502458,-0.09828866255284172,0.22083079316256565,nm,0.0
56.47192454338074,37.16609566769649,8.096714794625195,5.081427204126177,-0.4601108363688276,0.5596170777201855,1.0502562221003906,-1.8373111226527827,-0.18249274000480292,0.3127496791434782,nm,0.0
56.49639177322388,14.93778297032314,7.256298585496765,5.618398615112458,-0.40797599044525895,2.1547078983912784,2.838240848880987,-2.251880663827921,-0.3377026840253898,0.3361690450507016,nm,0.0
56.50080871582031,2.613716771522634,6.538237180023346,5.674421986812187,-0.538434142912984,3.079197961271566,2.060002654984088,-2.416195768749836,-0.39396772793970714,0.3011865987864438,nm,0.0
56.52482604980469,-18.625848016461223,4.770378009529034,5.849885427204672,-0.5361860790893205,2.5950213034185468,-0.9715060158273506,-1.8805156122741338,-0.39609704777668764,0.20746985794787307,nm,0.0
56.53026366233826,-25.808675905588622,3.813086737440109,6.2713977388694095,-0.13513917033080292,1.3484403891491887,-2.3025045404690125,-1.3973338082807356,-0.3533261001535371,0.19183387888257958,nm,0.0
56.58615827560425,-29.782331278786977,3.0259222176898484,7.769687590230557,0.461089551683246,0.03872508517559758,-2.6032401201567996,-0.026456252495278564,-0.05173171539871158,0.17188735521526236,nm,0.0
56.58987903594971,-19.43300594852508,3.361588972374463,9.820752119304068,0.21054527507788212,0.05475221522598577,-0.6215016683008784,1.4140878724413277,0.26452711579422694,0.12799146110102427,nm,0.0
56.5932776927948,-8.663617106261503,3.5742059520397884,10.627684388887698,-0.06271798381357215,0.33682864948473223,1.2462945683160125,2.1200878076942598,0.413407206702727,0.02694303911838211,nm,0.0
56.59486675262451,3.8813371187073455,3.772087835012118,10.797061832859425,0.1761173693779376,-0.4770727443795433,3.665654536266418,2.464792383810184,0.4952857474539269,-0.13341392108339487,nm,0.0
56.61524724960327,28.96307087836518,5.391514663338893,9.234199107202603,1.2513389630543317,-2.835343260979657,2.196884243990278,2.4132583803908454,0.6332731578166564,-0.41284111483037894,nm,0.0
56.61689829826355,39.684260145705046,6.989499847097424,8.33694899629748,1.4240861086328158,-2.856396981457007,0.5680024662363826,2.0673886889659014,0.6367285556190698,-0.4226013425864752,nm,0.0
56.6249315738678,47.78755307496091,8.415027429054021,7.634407169552892,1.255103809101539,-2.143067066299155,-1.123343327567535,1.5589055521273407,0.50249055760391,-0.3706766426837795,nm,0.0
56.649649143218994,56.09356002960724,8.763248072268826,6.219491116725931,0.29648623342308145,-0.7691563982753676,-2.061434062850076,0.5648577836664491,-0.00019015539242252342,-0.2567772224936784,nm,0.0
56.65302658081055,56.30559129243933,7.763289321355264,5.32719373191521,-0.31533231892660024,-0.7115414053785704,-1.564128163597324,0.0678098153110902,-0.19658269472460665,-0.19786746098098434,nm,0.0
56.67936730384827,49.695166451637036,6.09558322085292,4.094524948813047,-1.5929013455210408,-0.12486710906565614,-0.13647157791224065,-0.8737516757416945,-0.19053396555332044,-0.0125099947198934,nm,0.0
56.68259239196777,42.85263875286601,6.087719029945276,3.630298131088262,-1.6671212492385454,0.05367567999837126,0.7060096070205668,-1.352710287079891,-0.09784095800250078,0.040423488898542644,nm,0.0
56.70548415184021,23.993515459669066,7.145463994643909,3.103199499122567,-0.8171273428190668,1.0209848992164143,1.8868546518498273,-1.9746524582155245,-0.0071142617491124945,0.19661146078114453,nm,0.0
56.710453033447266,12.910513998150087,7.292804999776299,3.242247950259171,-0.28222014172229276,2.074770394253613,2.424365820451866,-2.1929978434851987,-0.10203971792262531,0.2983230233303025,nm,0.0
56.72110962867737,1.1320766761663312,7.07196074850507,3.7960692147268005,0.1007367296661683,2.8324124978128373,1.4009032911828885,-2.325551487437219,-0.1983948863155436,0.39927328605596035,nm,0.0
56.72865605354309,-9.855732767729835,6.878634716796862,4.664545418167415,0.14568328175011477,3.3412409738708546,0.6223180975612869,-2.167290804448293,-0.21102521075196864,0.43669858140207485,nm,0.0
56.75212478637695,-27.576581578279146,5.762932262565349,6.04504582640063,-0.22666276068437413,1.6375706107887327,-2.389854990190379,-1.5405547368097827,-0.3328557853707516,0.2834502825105349,nm,0.0
56.7579824924469,-32.29611156368629,4.323644942242026,6.308364666744021,-0.1771786379637389,0.773213733325153,-2.77206177121492,-0.8961221758554339,-0.39904259508215534,0.13699764639066378,nm,0.0
56.76698923110962,-33.875134586236896,2.5637552911543096,6.160313465745924,0.040536881170285075,0.15455383515184973,-2.6752303541947238,-0.26672315008847,-0.39591839826982045,-0.008864527313686704,nm,0.0
56.77656126022339,-32.19548951936959,1.0775404963692436,5.550231062488268,0.35069839140908804,-0.6694030605602347,-2.427352339495384,0.37337053095910117,-0.27322877489575026,-0.13121165178707533,nm,0.0
56.7999701499939,-16.673250102387748,0.8882789452871478,3.851620288316974,0.42653903921848374,0.09872658377176438,0.5285898798467061,1.9337950436478288,0.21847757644456106,-0.18741658562917768,nm,0.0
56.805755376815796,-4.320704018494063,2.0251553257965056,3.444133175181165,0.6343644519005948,-0.19813890703471715,2.8926261238564974,2.461268282987715,0.372409575536233,-0.14857593208326508,nm,0.0
56.81844615936279,9.230493154831835,3.329300461725572,3.5411930869923802,1.0820065716831047,-1.8247705575371818,3.833157004561402,2.697386140118566,0.41464328342419915,-0.11461178495690111,nm,0.0
56.8313524723053,23.183799717785586,4.440379875664204,4.024097353598687,1.3909896564406972,-3.09451467592435,3.3216870392057847,2.7742181540861175,0.396856299427472,-0.10272743723907292,nm,0.0
56.855445861816406,46.42003065146924,5.817660403747473,4.964109659576044,1.0353064964259142,-2.6285639116468755,-0.453737923610736,2.08700555203169,0.2810725373507065,-0.1419358119347429,nm,0.0
56.85719013214111,54.225915450184324,6.1918522637729945,4.932686965336606,0.6605935515634743,-1.935077979860379,-1.2158432779839716,1.5484340243165922,0.20659979887279897,-0.18266843020243576,nm,0.0
56.86347007751465,58.624894754229324,6.537931150344352,4.41493797713671,0.05062970311879562,-0.9899594597650211,-2.000364302683689,0.8729084414364098,0.1392102445458827,-0.21434624046324152,nm,0.0
56.88654088973999,59.231909526531375,7.4917724985491905,2.5996822074625117,-0.9347290112548047,-0.5075236346694274,-1.4301521074213486,-0.1851873272342725,0.09962186825863191,-0.17275173580651682,nm,0.0
56.89100646972656,55.74783546299366,8.168797776559607,1.928668728564496,-1.3339728200297258,-0.1372900338506234,-0.9714725066148454,-0.6902590865014325,0.10606781198170562,-0.05243032611514977,nm,0.0
56.915425300598145,42.01553170886772,8.920075944771055,1.61218264386149,-1.0104626251664035,0.07672747268939897,0.8554865878258174,-1.5686551176920138,-0.003720510958874336,0.24685889809371314,nm,0.0
56.920899629592896,31.999267317319326,8.943563469932302,2.396462915328994,-0.6486249267689228,0.6788208239630166,1.115944268743171,-1.9743418842496763,-0.0713040776373921,0.45674461451253295,nm,0.0
56.9455668926239,9.416303126454277,8.584779586701902,5.338792026527959,-0.09020822967035133,2.817545728588535,2.5933574421122496,-2.3083695993926523,-0.23676746941127141,0.6568190063681718,nm,0.0
56.96929311752319,-14.747279860901656,8.359140493916156,7.136600415316122,-0.634561147353301,3.7204168664917274,0.042263930701865376,-2.294081314164409,-0.33008548427623513,0.3909453360754023,nm,0.0
56.97105288505554,-24.985158050158443,7.280102464485339,6.714872990389336,-0.9172538755175594,2.770818289528756,-1.701475055677304,-1.9804796547223358,-0.47423503024990066,0.1484033010252389,nm,0.0
56.99493980407715,-36.76882412150979,2.2297043679129014,4.256013448867301,-0.1864921051898049,0.12937982219572905,-3.121834022623087,-0.7430161013091394,-0.6370399960788152,-0.21190527638066828,nm,0.0
56.99672603607178,-37.1921723477244,-0.09842991701581555,2.7705180389235706,0.33170118347859173,-0.4219164081252437,-2.7413908420507886,-0.04805689409338635,-0.4822021781033507,-0.2930183796281169,nm,0.0
