timestamp,roll,pitch,yaw,acc_x,acc_y,acc_z,gyro_x,gyro_y,gyro_z,markers,motor_input
21.501452445983887,-17.507584479158346,-7.620828469542379,144.93583785004242,-0.2843614173720469,0.032356784727595844,-0.5106926994384494,-0.10248391267511169,-0.22544377116004827,0.11601165228094472,nm,0.0
21.503123998641968,-17.781265214815843,-5.95377820672175,145.82670342829,-0.1963286556310852,-0.1323914253980628,-0.5155018569948433,-0.1439350809030295,-0.2912979024428536,0.15604331287859566,nm,0.0
21.5061092376709,-18.03503468043217,-3.9202413657487187,146.90126730834325,0.026043607934533204,-0.17531223516548655,-0.5374268311497813,-0.1825723779766537,-0.3528165838744597,0.1879302667720658,nm,0.0
21.528814792633057,-17.40785827140807,1.0006674267897604,149.3568498467245,0.6305915652270562,-0.7479580765281031,-0.12451495138514043,-0.3507626429801594,-0.36530157740107627,0.2324222555057873,nm,0.0
21.53596258163452,-16.764707793445417,3.6261457242978254,150.6838235634311,1.0120892534380281,-0.8320183892614357,0.10828180876113472,-0.37397387157936984,-0.3772814951712546,0.22714043318446028,nm,0.0
21.55711317062378,-14.327439604094604,9.151206689270666,152.80272718344554,1.2125055985299953,-0.929711798759333,0.9069388732141612,-0.5088489677403071,-0.34490602850344104,0.13205068056428013,nm,0.0
21.58199143409729,-12.121014620606193,13.71788902434261,153.76313599560763,0.4903382008696248,-0.19241955947918113,0.8624186406623331,-0.3298112422287815,-0.2813988398476684,0.0033768590906604326,nm,0.0
21.58383345603943,-11.180291303704129,15.15838222572524,153.90350291969784,-0.00896200763467328,-0.008733498406757682,0.6250363953399752,-0.29116885697712247,-0.16508866502369063,-0.05133067986675179,nm,0.0
21.592668533325195,-10.69995964425656,15.652565875037494,153.89247239843206,-0.17508472594470917,0.030073138040547478,0.6083447374435578,-0.12717420624352488,-0.034518522344994786,-0.05057894887283955,nm,0.0
21.601672649383545,-10.64881300005666,14.869814178942427,153.75670213623974,-0.058392067804537214,0.1281900216037911,0.4107363906873696,0.05987544017860983,0.15868698885453494,-0.02988133605949673,nm,0.0
21.61167812347412,-10.671926256835741,13.110785518188369,153.4236861633154,-0.12460468172153398,-0.1359428890249095,0.7091733921939294,0.16054696063689342,0.3270455082490139,-0.04582485013794101,nm,0.0
21.635037422180176,-11.892872238104438,8.867293702163945,151.83580278686776,0.24724035901204053,-0.22052406645856323,0.13780050826556725,0.31865419969910247,0.33485720047293327,-0.143672856886544,nm,0.0
21.64224600791931,-12.396114868124984,6.468718845450652,150.82425379286818,0.16529406879604702,-0.2738723016261398,0.11653600179295194,0.318127510869933,0.38727710956893785,-0.17212933364958258,nm,0.0
21.664661169052124,-12.974560475744282,2.414639213843122,149.0566068956619,-0.030184591823792295,0.0019568225014015834,-0.07854748955800599,0.20553707458193524,0.30376387764885504,-0.15390340363134955,nm,0.0
21.66650366783142,-12.915180111631924,0.933401780983072,148.5243701070178,-0.17326498335872134,0.16177941988871936,-0.21098858175178523,0.1436618443335142,0.274037206014165,-0.1038334373712802,nm,0.0
21.698050260543823,-12.35903251488858,-1.5571332808743927,148.09249742113488,-0.5703202551030494,0.5351351959428561,-0.17626003218822087,0.053908698885794824,0.24550093223431216,-0.020696141957144504,nm,0.0
21.69972515106201,-11.95753465540154,-2.5740260888783997,147.98124976708237,-0.5929111994434093,0.6183981809102781,-0.221081965581587,0.03969052286809898,0.22956036584597075,-0.021614856271265512,nm,0.0
21.70419216156006,-11.629261935959574,-3.717091316063425,147.7633283592045,-0.6230074794736855,0.7460509452487719,-0.17481438542743005,0.06620781190663398,0.24303142356200652,-0.04218078793951461,nm,0.0
21.72903609275818,-11.426419080464617,-5.787812118816261,146.8167634754026,-0.5387036084921293,0.753393547577719,-0.12344935260012364,0.10931983808781753,0.16923904476833476,-0.11292823108874629,nm,0.0
21.733805418014526,-11.733676430538331,-6.56378480155664,146.26117302812125,-0.4813787879848185,0.7474200908274647,-0.23383668468906826,0.13706984063258454,0.11023866448123701,-0.11960270656452769,nm,0.0
21.75728178024292,-13.096860716173083,-7.159260474357476,145.775763182701,-0.5270821587999251,0.5574737897048645,-0.2956711181225906,0.1444455558283391,-0.06413682874229411,-0.041593868818445026,nm,0.0
21.76644277572632,-14.064248585536019,-6.765440472204106,146.08554660543584,-0.5429638239676701,0.43076871289825824,-0.4326141653615653,0.11571121736469725,-0.15858080299391566,0.023992633030173273,nm,0.0
21.781108856201172,-16.01448167212207,-4.716340176136405,147.4879954338009,-0.4996001325902947,0.0720071271672621,-0.542766556481077,0.026589071925283515,-0.29591787214884363,0.11741566981904326,nm,0.0
21.832481622695923,-17.310074883834595,0.7820156261298737,149.2665406732501,0.11610913556790141,-0.5071134591254972,-0.4282169032685389,-0.2196211127760378,-0.3333527968013285,0.05102922201726375,nm,0.0
21.834349393844604,-16.580722365177905,5.530123192304251,149.51437770595146,0.7963309280078573,-0.6369680732865336,-0.0749457597734819,-0.35635909784255976,-0.3517261848919618,-0.02327171065727057,nm,0.0
21.84713339805603,-14.347390422437156,10.692378812019598,149.64558580189325,1.296782706912918,-0.7586265513131478,0.7668465313089561,-0.4703400262361193,-0.30573529905954766,-0.02951481719922119,nm,0.0
21.863325595855713,-12.689718379943402,12.946174267401597,149.8440348524462,1.0055972346054423,-1.0711108914917935,1.4959783491419387,-0.5076230816181667,-0.21238151331100905,-0.039692250617798935,nm,0.0
21.86611843109131,-11.905156054883015,14.751187285682924,149.82638317125273,0.9123281944170952,-0.6733657108648042,1.3435875563481592,-0.3130285020995314,-0.2220796341145005,-0.04550762648980487,nm,0.0
21.87665295600891,-11.36582294243039,15.88057664928824,149.5370818662705,0.7737964939456922,-0.29788809265921723,0.9246003558895156,-0.20344829823441044,-0.1289626620262987,-0.09105330609005816,nm,0.0
21.885599613189697,-10.96656955825957,15.9781283931501,148.97862722713384,0.12445522207136497,-0.2867881416779175,1.0478573330591123,-0.07528119558263498,0.036146678213812865,-0.13845425108484763,nm,0.0
21.910258293151855,-12.030061257422531,13.235167755799512,147.3548176743543,-0.08344322021509896,0.09925599433117906,0.32663393231834503,0.2850912160644968,0.2623471492839221,-0.14137164442016148,nm,0.0
21.91923689842224,-12.808473224724107,10.720650061455594,146.62457699508835,-0.12376721740023915,-0.05885231419467311,0.3749104743964529,0.403388666439453,0.35281137618365893,-0.10236197448162843,nm,0.0
21.945432901382446,-14.491633162079443,4.966199148265914,145.98935886942337,0.22898260026276462,-0.3760290430417196,0.23224837270381124,0.4331273112591476,0.4115081510082091,-0.002377758404480071,nm,0.0
21.961968660354614,-15.593489793828388,0.33531525030507425,146.02407310089404,0.304891501448687,-0.3654689224110244,-0.25966845171784453,0.3102107008521901,0.31320435047056444,0.02078930341997785,nm,0.0
21.96365976333618,-15.662790566423975,-1.303886525562172,145.93406705991814,0.009921934489169615,-0.23892721694958113,-0.31347827418947627,0.19598001956781524,0.2785403317668592,-0.008999814609712399,nm,0.0
21.9714093208313,-15.531250172347503,-2.572569905109327,145.57471674123056,-0.2713990519296273,0.13686487778039602,-0.46385514930844646,0.12215661743686414,0.2390645834918396,-0.05297720738152232,nm,0.0
21.98050808906555,-15.081799050892633,-3.6964332987357698,145.05758562288716,-0.5948426561436697,0.44838827689585486,-0.4232416884490717,0.055234157578624495,0.25049555524520123,-0.07954987738351628,nm,0.0
21.997414588928223,-14.502137608415184,-4.828740990479464,144.58460306529366,-0.9082202436245048,0.689982993417135,-0.23090976013676615,0.03701276526648167,0.26635241392658393,-0.08199723476705838,nm,0.0
21.99933934211731,-14.025542843855913,-5.912659754016703,144.16082255334052,-0.9976702136232384,0.9068432321164516,-0.20790260502165306,0.05031375008109151,0.24609293392635734,-0.0662718015119395,nm,0.0
22.02488350868225,-13.43058569125682,-7.902187222965298,144.00406107502903,-0.8735281524389593,0.875540113293601,-0.18702750932776493,0.0822214322858257,0.19614302797898453,0.02569905102902159,nm,0.0
22.029209852218628,-13.421229944417997,-8.737479200645575,144.35968037309036,-0.710828880521166,0.7433454795788844,-0.21733772480472227,0.0972579391059824,0.1510971482221165,0.07034918925735376,nm,0.0
22.038161754608154,-13.528226985520428,-9.292868272484009,144.85738504857514,-0.5436528849643866,0.5215272160963149,-0.2434325711666734,0.08241004625148421,0.09280609705583642,0.09526506423869534,nm,0.0
22.061822414398193,-13.925346915417848,-9.437094211926192,145.78459138643512,-0.35587761855670436,0.28756933689136654,-0.4175375318429244,0.021742943827761138,-0.022725245276529114,0.07616978367752038,nm,0.0
22.066168069839478,-14.072834444915518,-8.981984148624425,146.1405617298194,-0.3536696459955632,0.24672537480873535,-0.45055829014792864,-0.026321274991393504,-0.07744221423539666,0.0476510953387911,nm,0.0
22.092855215072632,-14.197227747655322,-7.229996149718979,146.58409059573734,-0.39025433700007534,0.2741134751175225,-0.4323716294619263,-0.10421672672109496,-0.15372119240974186,0.022896438838383538,nm,0.0
22.106493949890137,-14.1429657326882,-4.635872473993055,147.2537925475725,-0.23963741771405567,0.17279932611755822,-0.339449152052475,-0.1582100560012652,-0.2155424112873976,0.06551404401145453,nm,0.0
22.122451782226562,-14.065228246867562,-3.1115692632529703,147.84228722028772,-0.05274672828364905,0.010176492085281957,-0.2580026285642813,-0.17650317335395868,-0.23505137593366945,0.09508529322175838,nm,0.0
22.124149560928345,-13.977755492901625,-1.5287485538602683,148.52521585028606,0.18257222570926476,-0.21031969689350974,-0.12373946654034503,-0.1817018852400052,-0.24594721908871797,0.11370414559419273,nm,0.0
22.14654564857483,-13.839694590210039,1.6109055050955159,149.84379061180763,0.6945457998312191,-0.6756171465771995,0.16534929555224062,-0.1683424521377673,-0.24745657462748577,0.09672699814970803,nm,0.0
22.153825283050537,-13.802757819927322,3.0915053538440955,150.3478203063716,0.9141008750468781,-0.8482473761611107,0.32831647684827486,-0.1541779174685747,-0.23929742217658362,0.06895450701650364,nm,0.0
22.17150378227234,-13.463291655280093,5.876642604582184,150.8105420023916,1.0740433822837414,-0.9528556702859888,0.5747084227748153,-0.17652670196827566,-0.20191662116526726,0.007014204389419494,nm,0.0
22.19780158996582,-12.706791407818903,8.151580804717835,150.84625637044581,0.8460297184340528,-0.7164981171628809,0.8006420470704756,-0.17325906790750786,-0.11979701935544683,-0.03043286340950321,nm,0.0
22.20201563835144,-12.270794921409284,8.852897774637182,150.76760232512777,0.5111894801524031,-0.5265489349393909,0.8457482737573095,-0.14395002830299541,-0.0665663017185204,-0.044557118369587936,nm,0.0
22.223249673843384,-11.847623684625294,8.888795300214015,150.21158944961948,0.01473735044869564,-0.06835658140283354,0.479037659472186,0.00010684730051527155,0.07974573434880845,-0.05595913208498006,nm,0.0
22.22728157043457,-11.798645984538519,7.939687149918126,149.82711576185747,-0.18429569446182087,0.0609995928708729,0.390355291813431,0.0868564612049848,0.18334694692961362,-0.0512670359094182,nm,0.0
22.252060413360596,-11.986261404044273,4.62172432441442,149.13928675856877,-0.10518809803865332,0.08747760966453533,0.2328297567886675,0.20881493750661587,0.32288764142524173,-0.046176216840446364,nm,0.0
22.276464700698853,-12.179316859114834,0.44429132699119533,148.4768680398641,0.07023001942306778,0.02325851187472509,0.14812837768321716,0.2304382820590376,0.3596684125068679,-0.050057225911388045,nm,0.0
22.278140783309937,-12.229412639131233,-1.4166567748087493,148.1278259023145,0.09000698267122069,0.0388948142058459,0.04627434591574938,0.20464540058728736,0.32588553846200685,-0.05461429269080799,nm,0.0
22.287166595458984,-12.263739222875566,-3.0376305518334035,147.8102102963331,-0.015337984197962676,0.1338169432057278,-0.03721442371620332,0.17821828896064687,0.28572925922378223,-0.05387292132288013,nm,0.0
22.303767919540405,-12.331506933892742,-5.509213315312766,147.3189480078175,-0.4477218080410921,0.4263461651888107,-0.15743934221771144,0.12777500661343918,0.1977995894164237,-0.03809617992768131,nm,0.0
22.318823099136353,-12.40489495575575,-6.487421198722146,147.15476416242282,-0.6767716635352778,0.5719435035789134,-0.18926392214420035,0.11855800928281446,0.1710963883194044,-0.022679503635897012,nm,0.0
22.323253631591797,-12.502067619228018,-7.381159284335033,147.06644788434022,-0.8754754791320917,0.6586022865286021,-0.20768529886067782,0.11367784947225869,0.1540849086531858,-0.00556123508168899,nm,0.0
22.349955797195435,-12.784857837689689,-8.940265166110816,147.18433533397007,-0.9315026086905068,0.6856155653119663,-0.29314502138332016,0.10671054974936568,0.12494594818447331,0.022193552795269487,nm,0.0
22.351918697357178,-12.947901824132474,-9.60762351428801,147.36348756895444,-0.8739807232529322,0.6068620102567348,-0.3138123531862207,0.09945379112207131,0.10939383865952294,0.03368000692909412,nm,0.0
22.376331329345703,-13.23658914509861,-10.24085642026431,147.83698503637032,-0.6296377724219737,0.42310088579386484,-0.46218419807868005,0.038383562135737556,0.03064970296979853,0.046828352158367954,nm,0.0
22.379920482635498,-13.282452225661538,-10.081506789484653,148.17745861240437,-0.49964380578899353,0.3380740103949459,-0.5336701449199969,-0.009327494854378884,-0.01743684656512633,0.0505197600308472,nm,0.0
22.4054913520813,-13.09217361208006,-8.61602598048269,148.71907924292472,-0.25651488518821003,0.16399846433259513,-0.546331353886957,-0.11997597494070393,-0.13068146486480858,0.036134324681569456,nm,0.0
22.408693552017212,-12.90535032156023,-7.311918844255364,148.8619127008983,-0.129152288048024,0.10656454191161031,-0.5157894697422317,-0.16709601759288234,-0.18989302695901386,0.01494243293866778,nm,0.0
22.433277368545532,-12.430144519149499,-3.66902493569246,148.6026672550828,0.18425314703434975,-0.022249427308944386,-0.36087995245170446,-0.24741869906387873,-0.3008816014899542,-0.045338377928420354,nm,0.0
22.441953420639038,-12.22489401164915,-1.4262160189504371,148.34092627929067,0.40267119813246827,-0.12505553486646534,-0.25319488232606757,-0.2694220603113527,-0.34737828929088554,-0.07856076670166669,nm,0.0
22.463493585586548,-12.065436053430913,3.459248165180254,147.4751063157881,0.9227266526855973,-0.412412374511121,0.16107572830176925,-0.2680615858532092,-0.4046140402549925,-0.1314554357960477,nm,0.0
