timestamp,roll,pitch,yaw,acc_x,acc_y,acc_z,gyro_x,gyro_y,gyro_z,markers,motor_input
54.50655269622803,-35.103801434578365,-0.6077395193692915,3.0949686484519647,0.05912325702368205,0.24621573962144147,-2.7120854844982816,-0.3819729163690065,-0.34853009588771217,-0.07685968420999968,nm,0.0
54.508331298828125,-34.011193129221915,-1.7770427758313574,2.370725854790742,0.4704211808728269,-0.5216608667212531,-2.3927154005382256,0.23749154338805298,-0.23533432394631024,-0.13807886064516087,nm,0.0
54.51387166976929,-29.021840928096804,-2.2303877241434824,1.5494603849102189,0.7873858928196664,-0.6132374975482424,-1.5359408974677864,1.0086704814133691,-0.06866125843223933,-0.12803297593603147,nm,0.0
54.53556489944458,-7.455574611188044,-0.723833601234574,0.992584452514581,1.0099638251466079,-0.037088281087949516,3.0054852504794423,2.503874783095181,0.25168238769302587,0.05428121081863379,nm,0.0
54.54203128814697,6.427667863265132,0.576146353677602,1.6883047967266058,1.1459738290650217,-1.7915278204071048,4.338916131706046,2.7809414927906633,0.3135180335596688,0.13586489734306806,nm,0.0
54.566102743148804,34.853034906290574,1.9968620287860201,4.0434329761877095,0.9551728619482931,-3.8121211267262267,2.1197947684787546,2.7842563846871227,0.2506302469213421,0.13311204236606689,nm,0.0
54.5718195438385,46.64419902443859,2.2085238051893885,4.672330262433021,0.6824124733569445,-3.247609696003192,0.27903824175017533,2.3566678197593474,0.21785965181827135,0.026880837878952967,nm,0.0
54.59318494796753,61.19368799596773,3.5741035151169087,4.130818941162837,0.09409426348038005,-1.6905416059864071,-1.6899113092887676,1.1225037341020614,0.2717117810738031,-0.178203669466616,nm,0.0
54.61701941490173,64.05412014773401,6.543664665313944,2.591156958356727,-0.4979176123661015,-0.5440948560917264,-1.9217332983682716,0.03220940713630412,0.31800428981411244,-0.17169514595542626,nm,0.0
54.61872339248657,62.088696711701004,7.967464513764453,1.9910486859489243,-0.7410393553075377,-0.2821193357709658,-1.4678489452807137,-0.3958251118206863,0.26856335438287915,-0.0837671307057785,nm,0.0
54.6275315284729,58.06537763033012,8.924136458369821,1.6705122716137364,-0.8901928193975394,0.02870306557820843,-0.94704544589717,-0.7971086932385252,0.16435419517879438,0.04085350045781932,nm,0.0
54.638466596603394,52.180290207373794,9.291445459680029,1.788202003102146,-0.8575760999894209,0.08508503942731035,-0.10565410996630079,-1.1597632815486825,0.03553161169771105,0.19698469744144007,nm,0.0
54.68752408027649,14.723265717158629,9.380749105431333,6.61810439342769,-0.1472020028422304,2.6095977815518108,2.0101207964120085,-2.166816903669446,-0.18847730091875103,0.6015857204505907,nm,0.0
54.68924951553345,3.552905999937332,9.548618089718875,7.269445432616211,-0.3070396021799215,3.1676346641808784,1.2238558890830917,-2.186595490427391,-0.24359497713913542,0.4909667892879666,nm,0.0
54.697834491729736,-6.9659786952049645,9.12039422569023,7.245104433364961,-0.43082443623747774,3.512001227545614,0.4281216993522336,-2.0425846514938333,-0.35963009611742197,0.3172525106067235,nm,0.0
54.72265148162842,-23.69615867513879,5.8906216930135855,5.846497644494544,-0.4462695868630053,1.6162475134054164,-2.14530540479254,-1.3616873481106069,-0.5648955293576031,0.01006340741933949,nm,0.0
54.72438931465149,-27.645830624815332,3.4670981216708423,5.27867959273342,-0.1885460475497539,0.9243401039711854,-2.4613433251869177,-0.7290209721833997,-0.5708696947792391,-0.0487955963201725,nm,0.0
54.74813413619995,-26.453419239545447,0.5678165479601629,4.64800869219469,0.38034006575713136,-0.5112101704240464,-1.5959697627725147,0.49537592361427524,-0.1434388267116581,-0.060251828269936816,nm,0.0
54.75438952445984,-19.781199694871457,0.9421048142657514,4.681090012505735,0.21477665750008007,-0.32406083614422215,-0.5281505159784066,1.3338057330556392,0.17152653144609648,-0.012001462107077466,nm,0.0
54.76010274887085,-9.468982361802915,1.8747850737397762,5.118168264597041,0.38183267317026537,-0.10331852208104741,0.6709636210708063,2.049238056379889,0.3505762468940527,0.03319616704871898,nm,0.0
54.788801431655884,17.05640886273094,3.483127134647196,6.089616528375932,1.3872747919924362,-2.5838771997965053,3.810054406709494,2.7702708043914765,0.4094584074285498,-0.08146267774214402,nm,0.0
54.79114603996277,30.869831661633043,3.9025757628769866,6.136536734939112,1.550911641254507,-3.7410886824233214,2.91447973116996,2.7431081418521774,0.37065972820200577,-0.17942614775233745,nm,0.0
54.79885792732239,42.91901479013929,4.312509878036903,5.845438075340004,1.1581050552412748,-3.5078579296527685,0.6555570001957632,2.391845839823398,0.3283202309038431,-0.24283524772606832,nm,0.0
54.86503744125366,62.57457434510237,6.400092592463488,4.010718289291046,-0.2691392092344695,-0.8756629706419016,-2.100979365175685,0.622361964297619,0.2259148481451442,-0.20955633724915915,nm,0.0
54.86684226989746,63.112966482454084,7.387700198728613,3.432889220284137,-0.5612141144564398,-0.5164271185909622,-2.0202045517580807,0.09974681364999216,0.20398306435765934,-0.1419070331109158,nm,0.0
54.86864137649536,61.40312931264945,8.343973450764459,2.942107382930884,-0.7608316599327364,-0.4036520734072591,-1.3248188001095602,-0.343682418215432,0.17158258226954096,-0.06474607738409503,nm,0.0
54.87075972557068,50.95792528933294,9.683757312786275,2.2806304204145897,-0.8787362084604914,0.1439232580395489,-0.27646475878871085,-1.2279944329775672,0.050693403957380305,0.14212451573816678,nm,0.0
54.8770318031311,42.89871391887383,9.891864579781922,2.3640760813678448,-0.7098506960254638,0.2737285182392071,0.7611664343413374,-1.5850977728239135,-0.027527352207666153,0.27850455920110434,nm,0.0
54.89884090423584,22.962970106603475,9.542144772817442,3.7643894984732214,-0.36479522998488234,1.4990999789482342,2.1653013910282857,-2.01617202891373,-0.18145318987034928,0.5155880575672686,nm,0.0
54.90462327003479,11.676125386998528,9.266065406881465,4.8201971604029925,-0.22209492125463925,2.6235966420828305,2.3268957212638606,-2.212526751761673,-0.23137487483821148,0.5717268269737102,nm,0.0
54.92924475669861,-10.833687569729705,8.899234718201459,6.185393848650539,-0.4801047544474808,3.5122620855481026,0.23588260819246182,-2.1160544513515784,-0.284956655017253,0.4119302206460766,nm,0.0
54.93207502365112,-20.450571876856152,8.065809093918823,6.02639321594675,-0.6348125737134754,2.88141400474791,-1.2839196392263483,-1.8673686950409174,-0.3810809052324383,0.2336114035271366,nm,0.0
54.95645332336426,-32.175005156160765,4.173212161606123,4.375458523076265,-0.2617971424124095,0.5587706803608109,-2.9932615720704843,-0.79379877525257,-0.5315212928285792,-0.1089223640750291,nm,0.0
54.980990409851074,-30.616819708225556,0.5668378457417977,1.8823144463626105,0.7246448806988026,-0.5734709316345,-2.0628322802423287,0.5320772542794465,-0.2640805367060968,-0.28033158840627487,nm,0.0
54.982786893844604,-23.960495585154742,0.4656057968471079,0.6547814917351013,0.9216444954261318,-0.34712791605628784,-1.0420805308893013,1.3405112989107584,-0.003042919474114019,-0.257590502222493,nm,0.0
54.99038600921631,-13.647451692450296,1.168784058859526,0.11607979903421496,1.1458247723707293,-0.1417152286618287,0.7683511671325034,2.0713148035717004,0.14212580790525198,-0.1393897946283476,nm,0.0
55.00511169433594,-0.49120362718495447,2.0198796138811423,0.4674046853269947,1.392904661709187,-0.6356674940951621,3.4625950662702905,2.6398738309495076,0.17175758217137801,-0.008447734341900121,nm,0.0
55.02266836166382,28.254633847797805,2.7375568384605153,2.5995304381774007,0.9741448026538996,-3.8499418559950938,3.3827885796729467,2.88749058879168,0.11521224163985615,0.08072810788971807,nm,0.0
55.027018547058105,41.33706681345909,2.4322804234020756,3.2408021920021604,0.5154055858269839,-3.7877477656301695,1.2665722919839115,2.6238421480835856,0.0677502798501838,-0.0018588771089711243,nm,0.0
55.050785064697266,59.808288922234254,3.1926134978497496,3.034108620541358,-0.13487155287757913,-2.2781481676007833,-1.1690196622968732,1.5219813835583396,0.24202349986109836,-0.13661888150852572,nm,0.0
55.055582761764526,64.11910561415472,4.82879791361893,2.7275905766414925,-0.2986359500914094,-1.2079970382659013,-2.055084646869928,0.8498751077402028,0.37021769880728916,-0.13473647877891973,nm,0.0
55.066850423812866,65.80196941214932,6.913741494048793,2.457538633604787,-0.35109214322171545,-0.6133529621562009,-2.0828126866387398,0.32184004443013864,0.43238944094374854,-0.10179610907205415,nm,0.0
55.073683738708496,64.84706210728649,8.95544051133589,2.263400076264219,-0.367402118039709,-0.49561091250151235,-1.7642242832485084,-0.20066332047717397,0.4006233136291613,-0.025932105090618156,nm,0.0
55.098841428756714,56.61956825308111,11.202424917326764,2.386521313663625,-0.40406405536257356,-0.0481550859243993,-0.6812506363866689,-0.9799708995497166,0.10432880367823162,0.21257489125424325,nm,0.0
55.10302448272705,49.770637319623575,11.285949253710669,3.067125531570094,-0.2908402000716157,0.13485864414838428,0.2376051390086378,-1.339258632298741,-0.050504181683556706,0.39040682345516714,nm,0.0
55.13670086860657,32.23277571087524,11.106627640699102,6.031289637816515,-0.12770715234008914,1.016891178370612,1.5305499842405745,-1.7545504677282298,-0.17798613725040768,0.6703456345156101,nm,0.0
55.13844347000122,22.2724575876814,11.269071716643893,7.6105585334629895,-0.031622295461595326,1.9446709110347415,2.2053091346979263,-1.940185078075154,-0.20794275774463758,0.6922165766091163,nm,0.0
55.14124536514282,11.419536288698728,11.499166540280918,8.680514101155792,-0.06624964770598563,2.608355429697147,1.4489757265943732,-2.1083499637093577,-0.26552333783831555,0.6340851354018971,nm,0.0
55.16479134559631,-7.956735181028021,10.623320103256487,9.30294097072179,-0.419000627702289,2.824685917234235,-0.4141330354904199,-1.7347079337854594,-0.4607070820707551,0.3330113406861218,nm,0.0
55.170368909835815,-15.337305778009382,8.935311674401168,9.046943507222245,-0.4754578406250125,1.8094078069961455,-1.8030468977315641,-1.3751460888274687,-0.5764686684866172,0.19685662086144168,nm,0.0
55.19527530670166,-20.443917315987015,4.573897406028292,8.874015884942253,-0.3184747512287486,0.6406617276816408,-1.9601120128442329,-0.10201187570412795,-0.4594728121487427,0.011011605391249126,nm,0.0
55.19910478591919,-18.189092083930838,3.1945464046504486,8.838447944215384,-0.27687400991561645,0.04981452218027891,-1.5745666124628734,0.49677007184028216,-0.21459516795491523,-0.03937097251395029,nm,0.0
55.224260091781616,-2.7153261400556192,3.342561086701745,8.846941173952983,-0.0980725313190526,-0.18423566375954906,1.274719639894463,1.867589613284499,0.38165158130907906,-0.10024580340469334,nm,0.0
55.22833776473999,9.406010318081647,4.21401629927489,8.951176546836281,0.44903434691458,-0.9220378142404636,3.6008182790825214,2.3743275858618187,0.5372536579195419,-0.14649505299235385,nm,0.0
55.25269842147827,34.501688607029934,6.383415018549456,9.270923816848331,1.516587448073886,-3.266039949360873,1.8358358339106466,2.4215187870962804,0.6168906968163453,-0.21929266858325408,nm,0.0
55.25516414642334,45.89027411292512,7.47362359808774,9.653009925296129,1.5120354500447852,-3.276342248671012,0.5808863805062219,2.203668441805568,0.5835387701183067,-0.2113607161324583,nm,0.0
55.27803111076355,60.637480314529164,8.704116096510878,10.111850564451775,0.7238885322878497,-1.2999768742947124,-1.8669184435688004,1.1486039635597103,0.29070669725859377,-0.1636223914989324,nm,0.0
55.28393745422363,63.70647167357006,8.865885793179341,9.919763003478453,0.24825148268381603,-0.6916275046418094,-2.0168864897940537,0.5978255261986315,0.13793538287297738,-0.1457005573056923,nm,0.0
55.30663299560547,62.20909759269138,9.170511301503737,8.664085288694167,-0.6967994384895243,-0.07484035739970989,-1.1404919100725184,-0.3746100848253553,-0.015099562766022506,-0.09945442173151885,nm,0.0
55.329707622528076,50.13844181776302,10.061196940072897,6.447899622457893,-1.3846417290949988,0.3747533841697879,0.5106225006226844,-1.483514455010312,-0.10057974775251116,-0.012790326421566234,nm,0.0
55.331488609313965,40.134119462169856,10.221397151977644,5.1841981967061725,-1.2736035847716964,0.4178160580678614,0.37135730036881287,-1.9591577263352913,-0.17293577301376253,0.08799938944923193,nm,0.0
55.354186058044434,19.728077118912484,9.768502454698586,5.110926477936324,-0.365579741649403,1.8153222622600886,2.743942467479881,-2.0699389003084,-0.2455426330609521,0.43965677071085196,nm,0.0
55.35990118980408,7.9605007886074866,9.633817388893295,6.251234954857583,-0.13181593667098354,2.497455501066696,1.1582577991208651,-2.3014683703100824,-0.2664762814725178,0.6169288166105722,nm,0.0
55.38752555847168,-11.694461495348902,10.062404944572812,8.848736170788936,-0.09482221010122156,3.4657755165552664,-0.1939859172832698,-1.8068654449202308,-0.22232378143874035,0.5360054538623897,nm,0.0
55.39019322395325,-19.997182997199296,9.782770059906923,9.135489120343973,-0.3285350557384792,2.0973086377512837,-2.127675561914989,-1.5995955854837873,-0.3233721392436872,0.32598963441425544,nm,0.0
55.41370344161987,-27.150055082359064,5.5793540693322194,7.507130758430878,-0.20699931956458592,0.9506600670447837,-2.3967177034194673,-0.29515593797606293,-0.5995292526080374,-0.17005832000064194,nm,0.0
55.41742753982544,-26.319817737318672,2.6711496089594733,5.908285361093476,0.19195588494343557,0.00856123889639258,-2.040548749084537,0.24139079935376234,-0.5705482595772225,-0.3319074244905967,nm,0.0
55.44478726387024,-12.51691847572412,0.6074781835853764,2.440582783656025,0.3903058825182643,-0.1469639422796995,0.6666802908819925,1.7957735839890283,0.0475046881784468,-0.3415273769384957,nm,0.0
55.45090055465698,-0.8201642295476248,1.6859568267507588,1.7691921004695994,0.5390801761003516,-0.6090660148866146,2.9251314582492185,2.3399091145301267,0.28989515148093464,-0.1859258007085005,nm,0.0
55.45471262931824,12.0677256412403,3.193948268074974,2.215492262527424,0.9634613186670309,-2.364193882166194,3.758219877033481,2.57379741638839,0.3803907561260718,-0.02857962994462405,nm,0.0
55.473570108413696,38.66621670035823,4.913093647781858,4.949188684642215,1.3851039969587524,-3.7699274816685397,1.4461662240888886,2.57871652217785,0.2921509324087937,0.0663680421168126,nm,0.0
55.49026083946228,49.56500773153378,5.03072258186561,5.99428622079115,1.1222516749191511,-2.9066485724028506,-0.39242206551310876,2.1686126994047696,0.2278598192503208,0.007010876984517588,nm,0.0
55.49383735656738,57.71185517927463,5.0753590406015405,6.360002350950731,0.7312049321813598,-2.274785643021728,-1.0472285835556605,1.620974696768112,0.18262790466972534,-0.08345149208212292,nm,0.0
