timestamp,roll,pitch,yaw,acc_x,acc_y,acc_z,gyro_x,gyro_y,gyro_z,markers,motor_input
57.5085175037384,23.578853881107744,2.337998995723979,7.3462815716526295,1.288248398160874,-3.0525276438857016,3.1549715960689597,2.6978773080764817,0.5628979171858297,-0.1096471115467291,nm,0.0
57.51224994659424,35.93981826527551,3.75185281970617,7.165262216167474,1.5215406513064758,-3.302324932205681,1.410014248043392,2.423735934500186,0.5865893194059529,-0.17879692783398649,nm,0.0
57.539726972579956,53.470773146080326,5.979197968079534,6.560586341732167,1.1114410449195549,-1.915762082437388,-1.310598384588742,1.4730888025266369,0.33869308472427306,-0.23873810541456755,nm,0.0
57.5418496131897,57.40209332013869,6.264272138703112,5.898547020324795,0.4052176684209651,-1.01516346667682,-2.1672847954373413,0.7780732348150377,0.14040228448969722,-0.22946981411582545,nm,0.0
57.547268867492676,58.690581009948666,6.130311624990667,4.986539521585431,-0.3059655000859623,-0.6208840694380758,-2.2087857165836846,0.26405095023084346,-0.0034583744862142518,-0.22348911947998093,nm,0.0
57.5792031288147,54.19153881865707,5.802974241886786,3.0653287248557173,-1.3507022755682125,-0.22707626686817103,-0.6983028985054981,-0.7238742427180245,-0.05264058818147338,-0.11287559766900476,nm,0.0
57.58094501495361,48.17749240119862,6.122389310228967,2.4518793291373857,-1.6962152446923697,0.13840883308910204,-0.26711035114827114,-1.1931132924839905,0.0026235964701966847,-0.01016843354969492,nm,0.0
57.58444619178772,40.25800745045393,6.473179163307927,1.9205923677141437,-1.4558061750710334,0.20301535119073222,0.9881213246498141,-1.5714294966942444,0.004745820333553002,0.05579409754885434,nm,0.0
57.60930347442627,19.180040182119278,6.654408875382403,1.7687289863581945,-0.5776056880441717,1.5781470524898384,2.3164635209010003,-2.1921052103959577,-0.08142068607258818,0.27766819092758127,nm,0.0
57.615379333496094,7.098324128211471,6.284571314356442,2.302116406117031,-0.2629129602366063,2.89608684863519,2.53667759402081,-2.3927037849711703,-0.1694718585349677,0.3718407867998763,nm,0.0
57.638906955718994,-17.426985927708305,5.406611573563073,3.7079871705710974,-0.27565616408885363,3.9618550585970764,0.16789726135108907,-2.3559366248629923,-0.2378119337263717,0.32032162780997087,nm,0.0
57.64665079116821,-27.91450570440321,4.621369913192092,3.6359553062748278,-0.47388649043963826,2.9181296196564346,-1.711735636090572,-2.0694499490902323,-0.30233861938232426,0.16941406805849135,nm,0.0
57.66550397872925,-40.31303512255219,0.5886221050597579,2.387934583017932,0.003852699333426025,0.22041030449413504,-3.2229904635551763,-0.8487317921360714,-0.52794845622128,-0.12442888029223166,nm,0.0
57.67457413673401,-41.04602125845034,-1.8007443676554986,1.1813087872610142,0.5037435752801023,-0.4000853756185842,-2.943492814389532,-0.12427032674382703,-0.49447968750296467,-0.2392911321503147,nm,0.0
57.6961133480072,-31.199156923215373,-3.7296190067689126,-2.1525562750389926,1.2748435342812747,-0.4678682256854833,-0.8872019709866027,1.3810503720303346,-0.10227048293036389,-0.25261024931656156,nm,0.0
57.709867000579834,-6.492606445358259,-0.965308614795277,-3.111864729081183,1.3620147966263585,-0.02304193659024158,3.1112119835008856,2.771306789103124,0.16668200083113494,0.10911131276988101,nm,0.0
57.72533082962036,7.6562273139197075,0.42374271993046597,-1.851519452262577,1.1253609655864787,-2.0625627020072477,3.9721517780269107,2.8496490106657806,0.1429956740206717,0.25791713234716607,nm,0.0
57.72710943222046,22.171702587945884,1.0324914554637277,-0.026865076025135694,0.7346220890004834,-3.3504286647674966,3.599655257606085,2.9153277174814103,0.0649975797857976,0.3174049536898542,nm,0.0
57.75229501724243,45.95987908562531,0.935338072424793,2.1607908081509946,0.022981382667085076,-2.3540554563400975,-0.35148385996644577,2.1280989864350945,0.053461765305647876,0.08664394921584831,nm,0.0
57.755682706832886,53.424350126182794,1.485755936145061,1.9686525293055654,-0.11528184742648809,-2.005990344005167,-1.078777209280797,1.4965595606132964,0.1613528464940524,-0.08230138365149178,nm,0.0
57.78409218788147,58.294677197918155,4.995312446378211,0.6354183727072651,-0.5525652102801639,-0.6410882551553917,-2.0478742740487634,0.17592485382597042,0.4129200865008808,-0.1704649196026126,nm,0.0
57.78906989097595,56.44333754334877,6.954377462869709,-0.22977658556993097,-0.7348615388592198,-0.5329220071420714,-1.7091891497968736,-0.36422180801925486,0.38883057649866143,-0.1477135459829977,nm,0.0
57.80889534950256,45.59202102395297,8.389438875366093,-1.362050106970936,-0.719358802320499,-0.24005563029098642,-0.16007562846819803,-1.2922791297351908,0.06590406534134746,0.11446588858288011,nm,0.0
57.81433463096619,36.80771642331244,7.779265145282873,-0.8007389754568524,-0.5761144884579661,0.11695498201768142,0.9867297282679817,-1.7377099572992873,-0.09519413236188665,0.34782845858818473,nm,0.0
57.83650350570679,15.129891280887206,6.1523384405133985,2.530086126724875,-0.5416403198511138,2.0170546771011866,2.5718347848997993,-2.2076943550443233,-0.2131730379914101,0.6201798241811416,nm,0.0
57.84476590156555,2.938705162742298,5.871692725220399,3.981992600318085,-0.7422035945744181,3.4860298756878163,2.5402671016973963,-2.413311206396057,-0.20436586882648555,0.5389982892565082,nm,0.0
57.86741375923157,-21.4052877527223,4.874762651940893,3.2961581872328365,-1.1444054679935693,3.829662508351393,-0.587576042407186,-2.3020581368325876,-0.3324815966569473,0.019360576307862646,nm,0.0
57.89580512046814,-38.636942274436855,-0.18290436490629866,-0.43762203439734065,-0.40003480176077244,0.8335465400097988,-3.0238924543758774,-1.4323487152707821,-0.6269302296187248,-0.35314715907118294,nm,0.0
57.89759659767151,-42.00944315249448,-3.173759344444486,-2.2671631135869332,0.27885725550471985,-0.03170512838982093,-2.971657451413101,-0.6823479784677763,-0.5946926630357018,-0.3817413271031554,nm,0.0
57.9043869972229,-41.95173205546656,-5.128168349060382,-4.034556838601931,0.9209985638508319,-0.5758701391942578,-2.4866379738118822,-0.003814352332618847,-0.40364699525560827,-0.34858665893299273,nm,0.0
57.91438603401184,-38.52484425821536,-5.4901147776305415,-5.563497021167629,1.358036672370004,-0.9704433834365449,-1.8236688076471361,0.6806797335334798,-0.1419740787168068,-0.2387590486916477,nm,0.0
57.918283224105835,-31.38136933268487,-4.437711194510123,-6.289147999387772,1.616914205802382,-0.6839230012576359,-0.8525577576893538,1.4450311726195577,0.049189197840997435,-0.019148136273559706,nm,0.0
57.93746018409729,-7.650498371258896,-1.2568218258885613,-4.011086302607585,1.5841077026214725,-0.16376992056871517,3.552804907035902,2.6250494261545096,0.0561462374805971,0.43433044777524954,nm,0.0
57.94822382926941,5.903609020409609,-0.5249815300842868,-1.6547856491813808,1.037143984582573,-1.7465607538605585,3.837613235992138,2.7250764990741945,0.0005821821269242917,0.5057226315163073,nm,0.0
57.95781707763672,19.255938003985378,-0.5506991179113139,0.5179978103107208,0.3210177852266313,-2.7009211968007563,2.7961114781944123,2.681153416941388,-0.04061770189466003,0.44979533259680443,nm,0.0
57.97922205924988,40.42212759906825,-0.8118705437084215,1.847821061031269,-0.5928955403833263,-2.299952999692495,-0.11666342184251607,1.8668463398822654,0.07371689330343487,0.035508556233709604,nm,0.0
57.983742237091064,46.40306922780988,0.5038410428793734,1.3438227341852338,-0.589655408706733,-1.688138440044452,-1.1419542595881016,1.1972320570897228,0.29246208263754314,-0.10937866427122377,nm,0.0
58.00304293632507,48.34247892489183,5.5624894268828475,0.29561301737156975,-0.4445917825050245,-0.7313459429047335,-1.8758448114676793,-0.11974765617490336,0.5193033770602598,-0.10932147132112076,nm,0.0
58.013264417648315,44.997187377390645,7.231929250086639,-0.4006586479787196,-0.28873926963126956,-0.47344447449066734,-1.5069003314278502,-0.6595260607132912,0.330291654877086,-0.07718835067781256,nm,0.0
58.03733777999878,31.05353072240858,6.4393945475046515,-0.8362913373722906,-0.04184040790721544,0.09304844470958276,0.7405590296722122,-1.6172446971075467,-0.17791882908736578,0.21098632490103392,nm,0.0
58.044034481048584,20.568828982371954,4.940748424905341,0.01409289355518625,-0.3688246174092226,0.9212534295602842,1.498541198109246,-2.0847056015855525,-0.29310503049682934,0.3686812970638203,nm,0.0
58.065824031829834,-3.507442305988531,2.13011094480148,1.8813479623393492,-1.337317176344515,3.6408156326986894,2.6331195666889404,-2.466828483637859,-0.3317155581405254,0.26415771569616603,nm,0.0
58.069897174835205,-16.501177719567703,0.9330246873715194,1.7599799208494717,-1.6369820896854534,4.082859630553043,0.7074549812184517,-2.584363030152659,-0.33326775688369303,0.04361702070648865,nm,0.0
58.08870220184326,-38.041237607958585,-3.092790114237475,0.08103151725180703,-0.9049512044895941,2.263992948409556,-2.301205243312712,-1.9324557615070042,-0.4916114406130359,-0.24300157340228348,nm,0.0
58.10367393493652,-45.0913098845062,-5.3363360098008625,-0.7462414409326006,0.005258591607887262,0.1918088817844539,-3.1233128310705496,-1.4037549887671166,-0.45216397958578974,-0.2640704850928246,nm,0.0
58.119181394577026,-48.23368043806797,-7.376051926331417,-1.9046607654848864,1.4586668129443412,-1.1642193391871125,-2.670124737935413,0.042469118805202107,-0.11569153071172487,-0.08569165596050822,nm,0.0
58.12993574142456,-44.66874753606872,-6.859805054245653,-2.1428334371164137,1.8022757442598503,-1.030724386201572,-1.7788512288654295,0.717923728744467,0.06641773184940643,0.04603314825469545,nm,0.0
58.13618278503418,-37.128539247345195,-5.630714418175105,-1.8832926682196443,1.8953569841649625,-0.2976431899937341,-0.6074516777552907,1.5153073722388253,0.18057721794010986,0.21971367231787448,nm,0.0
58.16137433052063,-12.251360261484615,-3.4698975146586775,0.5773381258115067,1.2700660114668905,0.5485117032174321,3.837637981829109,2.7073368826137436,0.14664932667898595,0.4790582485767401,nm,0.0
58.16505527496338,1.833791785013634,-3.229983568583379,2.0919597751461603,0.7154631237903544,-1.2117524748844395,4.432006480131328,2.8220361859833187,0.10248510381181992,0.4616138774768296,nm,0.0
58.19081687927246,28.061866735155682,-3.392341077719283,3.3247409793885687,-0.2741827636207119,-2.885415165015068,1.5006116354397208,2.472281304304207,0.11949514649317251,0.17438407055742483,nm,0.0
58.1952064037323,38.319689599462734,-2.8917954719588352,2.7507327073071357,-0.2816722997317118,-2.6521425750925043,0.16819574374412227,2.050966851271726,0.20311109876828834,-0.012649145240004676,nm,0.0
58.212929487228394,49.51003720916877,0.7803197533247682,1.313696802478359,-0.03616893692045085,-1.535157857924185,-1.7958275829057355,0.7712191993645523,0.45596962448555145,-0.1372182743625628,nm,0.0
58.22273826599121,50.732163802868634,2.871368207543669,0.7527970295949427,0.06362849346105887,-1.0704150579601273,-2.0285782736032805,0.2438533088033332,0.41984286921890374,-0.13246086791635278,nm,0.0
58.24614071846008,46.39888383751835,4.923721630877281,0.019494039747897967,-0.007860337092145389,-0.43242235364308074,-1.0987699625595448,-0.6486390282277349,0.12173369381895262,-0.006589301635056625,nm,0.0
58.25057578086853,41.246370373930155,4.971377783636196,0.15680939532439125,-0.37789031125833944,-0.032628297054101876,-0.3645353162954693,-1.021469839962759,0.002765206586440745,0.10459619238562387,nm,0.0
58.274970054626465,25.760579153939677,4.544995351729396,0.9478623965588984,-1.0405709856296521,0.9960441575296293,0.66469568351283,-1.6932562309554229,-0.0656984580431825,0.21422368708071857,nm,0.0
58.278926372528076,16.573299095581543,4.552628397526139,1.3381798003846497,-1.119398331931387,1.725223729860104,1.8483383217729688,-1.8265984750541375,-0.04432877864850876,0.21527300820659204,nm,0.0
58.30371141433716,-4.8320152634762605,4.079340112720999,1.7153909095001747,-0.7875832612535929,3.1394040159683336,0.8794772302659389,-2.1858965060623055,-0.15680738795214735,0.19285153250522474,nm,0.0
58.30763816833496,-15.15072883630644,3.3859476406128306,2.0229183584868418,-0.47896568133342465,3.412816047134203,0.0266589943224926,-2.048566087154618,-0.21765088662816945,0.19359918111819288,nm,0.0
58.327125787734985,-32.02052455008399,1.2399828752291073,2.844329150112507,-0.021550056124541198,1.5813653594517059,-2.473394915892389,-1.4797713910911088,-0.329581461054713,0.13400472751357317,nm,0.0
58.338160037994385,-36.57836786764966,-0.37825953719067235,3.1018844973659334,0.1890285682841464,0.7710670640643629,-2.86845175045327,-0.8865992797312716,-0.3824659734317967,0.06114914948633202,nm,0.0
58.357473611831665,-36.419760878134376,-4.100837738969997,2.1809262331701977,0.740527311527409,-0.5101938445744353,-2.2749195417338535,0.381840643327054,-0.36289125449318255,-0.12706594065479795,nm,0.0
58.365763902664185,-30.59291850679911,-5.433932014223191,0.9221736755362737,0.8106441276023907,-0.026071649274611006,-0.9466464425470134,1.1769841993085057,-0.24731892222652835,-0.15274069381575714,nm,0.0
58.392165660858154,-8.902885441364749,-5.112688217863609,-1.6863515444125505,0.9630739811126332,-0.025372917218319708,3.1954559447118935,2.47758425466001,0.0874407431815791,0.007662924994400511,nm,0.0
58.3939163684845,4.6664262556049465,-3.8005052272613162,-1.9690486121293862,0.9645383100920685,-1.5218316749801615,3.973780282199313,2.7233592205383306,0.16383651122855977,0.14936425299101283,nm,0.0
58.402764320373535,18.287120782310957,-2.742570749168696,-1.3904091558554073,0.8324313740137533,-3.002310194373192,3.339881712432734,2.7356663790276943,0.12156550473680958,0.26299618578767475,nm,0.0
58.413660764694214,31.069305938288174,-2.4177125952276195,-0.4775032854108488,0.6512815857105732,-3.515642549708608,2.0094007867084884,2.5654738843825906,0.015922779788085328,0.2874233936527671,nm,0.0
58.436156034469604,49.33932433583213,-2.651484275970548,0.21247774250688647,0.0865858729805375,-2.0271331702602113,-0.9194423504068056,1.5365299586126928,-0.011804346946652814,0.06897374239344978,nm,0.0
58.442798137664795,53.66319983322526,-2.106035244598955,-0.3142599811852971,-0.12895386559184238,-1.4028866634412434,-1.5803020554934972,0.8729720825504443,0.1056823112189872,-0.0813386808116352,nm,0.0
58.460139989852905,53.78052109175947,1.3442562892774061,-2.001955702661287,-0.6487269328706597,-0.5029520140206973,-1.5760826406281496,-0.22194414936253065,0.41212597752126895,-0.1897562754670769,nm,0.0
58.490723609924316,44.311057358753764,4.708660398174774,-4.062145824167344,-0.8859261015521332,-0.059865522686820084,-0.5280561843920855,-1.1461782180621203,0.3337764741381698,-0.13181745901210604,nm,0.0
58.49288606643677,36.43433095679542,5.037166709001751,-4.4651662226699065,-0.794196292743265,0.15555418138627594,0.517377736811364,-1.5563374176132803,0.17570506550765405,0.042004252494239086,nm,0.0
