timestamp,roll,pitch,yaw,acc_x,acc_y,acc_z,gyro_x,gyro_y,gyro_z,markers,motor_input
22.02488350868225,-13.43058569125682,-7.902187222965298,144.00406107502903,-0.8735281524389593,0.875540113293601,-0.18702750932776493,0.0822214322858257,0.19614302797898453,0.02569905102902159,nm,0.0
22.029209852218628,-13.421229944417997,-8.737479200645575,144.35968037309036,-0.710828880521166,0.7433454795788844,-0.21733772480472227,0.0972579391059824,0.1510971482221165,0.07034918925735376,nm,0.0
22.038161754608154,-13.528226985520428,-9.292868272484009,144.85738504857514,-0.5436528849643866,0.5215272160963149,-0.2434325711666734,0.08241004625148421,0.09280609705583642,0.09526506423869534,nm,0.0
22.061822414398193,-13.925346915417848,-9.437094211926192,145.78459138643512,-0.35587761855670436,0.28756933689136654,-0.4175375318429244,0.021742943827761138,-0.022725245276529114,0.07616978367752038,nm,0.0
22.066168069839478,-14.072834444915518,-8.981984148624425,146.1405617298194,-0.3536696459955632,0.24672537480873535,-0.45055829014792864,-0.026321274991393504,-0.07744221423539666,0.0476510953387911,nm,0.0
22.092855215072632,-14.197227747655322,-7.229996149718979,146.58409059573734,-0.39025433700007534,0.2741134751175225,-0.4323716294619263,-0.10421672672109496,-0.15372119240974186,0.022896438838383538,nm,0.0
22.106493949890137,-14.1429657326882,-4.635872473993055,147.2537925475725,-0.23963741771405567,0.17279932611755822,-0.339449152052475,-0.1582100560012652,-0.2155424112873976,0.06551404401145453,nm,0.0
22.122451782226562,-14.065228246867562,-3.1115692632529703,147.84228722028772,-0.05274672828364905,0.010176492085281957,-0.2580026285642813,-0.17650317335395868,-0.23505137593366945,0.09508529322175838,nm,0.0
22.124149560928345,-13.977755492901625,-1.5287485538602683,148.52521585028606,0.18257222570926476,-0.21031969689350974,-0.12373946654034503,-0.1817018852400052,-0.24594721908871797,0.11370414559419273,nm,0.0
22.14654564857483,-13.839694590210039,1.6109055050955159,149.84379061180763,0.6945457998312191,-0.6756171465771995,0.16534929555224062,-0.1683424521377673,-0.24745657462748577,0.09672699814970803,nm,0.0
22.153825283050537,-13.802757819927322,3.0915053538440955,150.3478203063716,0.9141008750468781,-0.8482473761611107,0.32831647684827486,-0.1541779174685747,-0.23929742217658362,0.06895450701650364,nm,0.0
22.17150378227234,-13.463291655280093,5.876642604582184,150.8105420023916,1.0740433822837414,-0.9528556702859888,0.5747084227748153,-0.17652670196827566,-0.20191662116526726,0.007014204389419494,nm,0.0
22.19780158996582,-12.706791407818903,8.151580804717835,150.84625637044581,0.8460297184340528,-0.7164981171628809,0.8006420470704756,-0.17325906790750786,-0.11979701935544683,-0.03043286340950321,nm,0.0
22.20201563835144,-12.270794921409284,8.852897774637182,150.76760232512777,0.5111894801524031,-0.5265489349393909,0.8457482737573095,-0.14395002830299541,-0.0665663017185204,-0.044557118369587936,nm,0.0
22.223249673843384,-11.847623684625294,8.888795300214015,150.21158944961948,0.01473735044869564,-0.06835658140283354,0.479037659472186,0.00010684730051527155,0.07974573434880845,-0.05595913208498006,nm,0.0
22.22728157043457,-11.798645984538519,7.939687149918126,149.82711576185747,-0.18429569446182087,0.0609995928708729,0.390355291813431,0.0868564612049848,0.18334694692961362,-0.0512670359094182,nm,0.0
22.252060413360596,-11.986261404044273,4.62172432441442,149.13928675856877,-0.10518809803865332,0.08747760966453533,0.2328297567886675,0.20881493750661587,0.32288764142524173,-0.046176216840446364,nm,0.0
22.276464700698853,-12.179316859114834,0.44429132699119533,148.4768680398641,0.07023001942306778,0.02325851187472509,0.14812837768321716,0.2304382820590376,0.3596684125068679,-0.050057225911388045,nm,0.0
22.278140783309937,-12.229412639131233,-1.4166567748087493,148.1278259023145,0.09000698267122069,0.0388948142058459,0.04627434591574938,0.20464540058728736,0.32588553846200685,-0.05461429269080799,nm,0.0
22.287166595458984,-12.263739222875566,-3.0376305518334035,147.8102102963331,-0.015337984197962676,0.1338169432057278,-0.03721442371620332,0.17821828896064687,0.28572925922378223,-0.05387292132288013,nm,0.0
22.303767919540405,-12.331506933892742,-5.509213315312766,147.3189480078175,-0.4477218080410921,0.4263461651888107,-0.15743934221771144,0.12777500661343918,0.1977995894164237,-0.03809617992768131,nm,0.0
22.318823099136353,-12.40489495575575,-6.487421198722146,147.15476416242282,-0.6767716635352778,0.5719435035789134,-0.18926392214420035,0.11855800928281446,0.1710963883194044,-0.022679503635897012,nm,0.0
22.323253631591797,-12.502067619228018,-7.381159284335033,147.06644788434022,-0.8754754791320917,0.6586022865286021,-0.20768529886067782,0.11367784947225869,0.1540849086531858,-0.00556123508168899,nm,0.0
22.349955797195435,-12.784857837689689,-8.940265166110816,147.18433533397007,-0.9315026086905068,0.6856155653119663,-0.29314502138332016,0.10671054974936568,0.12494594818447331,0.022193552795269487,nm,0.0
22.351918697357178,-12.947901824132474,-9.60762351428801,147.36348756895444,-0.8739807232529322,0.6068620102567348,-0.3138123531862207,0.09945379112207131,0.10939383865952294,0.03368000692909412,nm,0.0
22.376331329345703,-13.23658914509861,-10.24085642026431,147.83698503637032,-0.6296377724219737,0.42310088579386484,-0.46218419807868005,0.038383562135737556,0.03064970296979853,0.046828352158367954,nm,0.0
22.379920482635498,-13.282452225661538,-10.081506789484653,148.17745861240437,-0.49964380578899353,0.3380740103949459,-0.5336701449199969,-0.009327494854378884,-0.01743684656512633,0.0505197600308472,nm,0.0
22.4054913520813,-13.09217361208006,-8.61602598048269,148.71907924292472,-0.25651488518821003,0.16399846433259513,-0.546331353886957,-0.11997597494070393,-0.13068146486480858,0.036134324681569456,nm,0.0
22.408693552017212,-12.90535032156023,-7.311918844255364,148.8619127008983,-0.129152288048024,0.10656454191161031,-0.5157894697422317,-0.16709601759288234,-0.18989302695901386,0.01494243293866778,nm,0.0
22.433277368545532,-12.430144519149499,-3.66902493569246,148.6026672550828,0.18425314703434975,-0.022249427308944386,-0.36087995245170446,-0.24741869906387873,-0.3008816014899542,-0.045338377928420354,nm,0.0
22.441953420639038,-12.22489401164915,-1.4262160189504371,148.34092627929067,0.40267119813246827,-0.12505553486646534,-0.25319488232606757,-0.2694220603113527,-0.34737828929088554,-0.07856076670166669,nm,0.0
22.463493585586548,-12.065436053430913,3.459248165180254,147.4751063157881,0.9227266526855973,-0.412412374511121,0.16107572830176925,-0.2680615858532092,-0.4046140402549925,-0.1314554357960477,nm,0.0
22.516479015350342,-14.580220398386793,13.838442888181344,144.38122027089892,0.3307551316854172,-0.4851615546235815,0.9347067796859212,-0.019750545864450082,-0.30589851281805885,-0.08931388084266537,nm,0.0
22.523210525512695,-15.425510549065828,14.362914415920104,143.94195695898384,-0.037094241795500124,-0.24638457604979527,0.5237800570604458,0.07337682351567486,-0.1673778382855676,-0.05030812655787546,nm,0.0
22.526389122009277,-16.144381408376564,13.94451058533442,143.71932114441603,-0.30104609399345217,-0.0961863624359526,0.22188164217769482,0.1639253426494612,-0.0008164224619452044,-0.012790317287805341,nm,0.0
22.548720836639404,-16.96883764946145,10.594396861485027,143.60102445187096,-0.27928963567884796,-0.14882424254952992,0.02155842962416276,0.29162395106593986,0.3101139768167848,0.02746329354323066,nm,0.0
22.554078340530396,-17.027198377678282,8.076100194766013,143.58348198988315,-0.105388595700812,-0.2719415479296976,0.07852913343790502,0.3107030358854748,0.41271906876511577,0.02722152514531884,nm,0.0
22.56773591041565,-16.87661948637171,5.476367063952064,143.51691028588834,0.12273933255294131,-0.3585364133406481,0.06523186730579791,0.28736476224898316,0.4502978284980001,0.015536281221983975,nm,0.0
22.58810782432556,-16.139541875613784,1.1778207238555038,143.29561147110567,0.28012914890052665,-0.23613366804317776,-0.0925561678841009,0.16644752726582085,0.3738181713258591,0.0014615558834655713,nm,0.0
22.59344172477722,-15.72626146377753,-0.2131552984130079,143.18273459119735,0.1435669219986402,-0.054525287078550116,-0.15107243155337344,0.10222268561244842,0.2867944963662881,0.009013554750969337,nm,0.0
22.61815357208252,-15.238795779675932,-1.8993511483177514,143.45129236374333,-0.3520490367724035,0.4206165822362369,-0.2525238568742914,0.05906658123719187,0.150651456634792,0.06014224076786416,nm,0.0
22.62106466293335,-15.232868434300453,-2.4513700689624907,143.8507748645034,-0.5624860118028423,0.5645219635510805,-0.2715955162785633,0.06577796528581842,0.10403525276528461,0.08441056255148131,nm,0.0
22.62765860557556,-15.406268824098015,-2.9297839295421055,144.28263690400598,-0.6714703629099023,0.6352714788299149,-0.285642266841056,0.08542212652859675,0.07149642347360641,0.09907467120398607,nm,0.0
22.65340828895569,-16.088167949261646,-3.7983861135583816,145.31552602482463,-0.6463321026728314,0.5593733283101704,-0.2638698359537362,0.11036723774651816,0.03803473648607514,0.0997321086136981,nm,0.0
22.655231475830078,-16.499576481522247,-4.086357456672293,145.80634962872264,-0.5879426971425098,0.46162184810633705,-0.30689351202100124,0.10109979999039741,0.01547576957327634,0.09152193430174639,nm,0.0
22.680548429489136,-17.193068070049314,-3.9811812732708756,146.7186219438286,-0.5115465827585671,0.36360912538764545,-0.3822709329274884,0.03142811109229167,-0.05124973796258998,0.08501657405069298,nm,0.0
22.699482679367065,-17.388379231028065,-3.492992158302087,147.17729618139148,-0.5187764451225988,0.3471715593745786,-0.4321717174720788,-0.020209588412379527,-0.08880450779675164,0.08832021345947122,nm,0.0
22.716010570526123,-17.345229858436245,-1.724422480113807,148.0726464159919,-0.558180701409442,0.36014126010373804,-0.5289198838430468,-0.12384110472846839,-0.14444059036128384,0.0864835818934106,nm,0.0
22.720038652420044,-17.066689466665224,-0.552533799582441,148.43338859680674,-0.5178389246390015,0.3451353477529834,-0.5601543345021922,-0.1707673782478252,-0.15582500239651725,0.071922827442494,nm,0.0
22.72432589530945,-16.642197566260016,0.7364447172505122,148.67189818514836,-0.4136946962814696,0.3032041344198625,-0.559699205799463,-0.2070861640249975,-0.16149281045084143,0.04595152158563105,nm,0.0
22.731677055358887,-16.135001923024316,2.1403604984614555,148.81952313078344,-0.24724908249604974,0.22501433762637962,-0.5202887791051083,-0.23245078134347194,-0.1734712630698158,0.010692170426569227,nm,0.0
22.75559639930725,-15.257811451068104,5.495301129233218,148.6090277562149,0.2315298202571141,-0.03523724138364635,-0.31259159671095543,-0.25211466591410037,-0.2510318257736446,-0.06121411807415441,nm,0.0
22.763105869293213,-14.990550476432627,7.54130149054188,148.34203151722107,0.5115646739082809,-0.1818333810809292,-0.1335728914670196,-0.2588473728512507,-0.30751625065872135,-0.08375708428729448,nm,0.0
22.784557342529297,-14.86284060483513,12.232768813888496,147.68992615245085,0.9800076032985815,-0.5766331776186783,0.48199912599979283,-0.2576193382518558,-0.3951417121061444,-0.08873241541102192,nm,0.0
22.789905071258545,-14.945524685107909,14.735212529008692,147.3985453748024,1.061240251093568,-0.7702132608298469,0.9545679289243911,-0.25397757404222215,-0.4177706796205571,-0.07794177136351625,nm,0.0
22.798554182052612,-15.108051389121698,17.24876951613021,147.16039785324995,1.0570743695437121,-0.8822106825177974,1.238288040169467,-0.24420836419153816,-0.4267367399056446,-0.06157465911611724,nm,0.0
22.821998357772827,-15.614949528886621,21.60940158919308,146.86654725823396,0.5706748802622377,-0.7437022270441728,1.2221964172045032,-0.17331214506562287,-0.3516277484137944,-0.011008526812075814,nm,0.0
22.82650923728943,-15.840218644794646,22.982009154321457,146.82289793143528,0.2578334288371099,-0.5652980052928965,0.9637743573935764,-0.11392111117231306,-0.23923808449402603,0.015091236753487601,nm,0.0
22.850385904312134,-15.983014105392916,23.08480764842299,146.9074391875665,-0.11764229775355763,-0.26894053179236166,0.4112380613358842,0.04889438350180328,0.07911821092212909,0.03854315396664056,nm,0.0
22.855313539505005,-15.943839151539077,21.88337701609883,146.9228321980781,-0.12275642669130256,-0.21815574400468243,0.2636032693448829,0.12702643465596608,0.2190538683205867,0.027641456437683277,nm,0.0
22.881245136260986,-15.804544368775828,17.87182138090512,146.71503155305558,0.07495112484814541,-0.16999407337614617,0.17238021089620842,0.22778572740506817,0.3884732144179773,0.005953617861333543,nm,0.0
22.884746074676514,-15.683623903222005,15.645177213294028,146.61198802572736,0.2049783226257069,-0.14895989594556555,0.11369980500750575,0.22755911811196736,0.3987532585186714,0.010241809163698719,nm,0.0
22.909778833389282,-15.41873755277056,11.868872847228019,146.8753616819066,0.276988603926681,-0.050537614580305985,-0.14731567061499892,0.169335264385211,0.3193034010685297,0.06152817988865121,nm,0.0
22.93343949317932,-15.052673822709512,9.450268641558596,147.5275534362268,0.048332208031426446,0.16479235963482952,-0.4089053120552895,0.07759463475379781,0.21251050620525272,0.09256270631347188,nm,0.0
22.942504405975342,-14.758397858490337,8.621401869577753,147.82886387641773,-0.10776479511743081,0.25382553781802736,-0.4707061944269915,0.04034575148153902,0.1854378900052731,0.0757973180652922,nm,0.0
22.94634175300598,-14.427293082277929,7.860962073262228,147.98522568985175,-0.2631782199371418,0.35691950519908305,-0.4860536951873626,0.025964427495950397,0.17796065075210818,0.03972045575592139,nm,0.0
22.966673612594604,-13.750255662901935,6.483458488308906,147.52995238113795,-0.5234139113997354,0.5270216929436145,-0.33591395531696217,0.015379392549445354,0.15978126716893373,-0.059043363686606475,nm,0.0
22.973326921463013,-13.476189318164982,5.904486114913976,147.04496346480786,-0.5908406129832481,0.6001783870527354,-0.31693336669110633,0.01749084082940901,0.1411388564086805,-0.08854037701046043,nm,0.0
22.987051963806152,-13.258743141959615,5.437686820182196,146.58373386052367,-0.6498426554786693,0.656381059637336,-0.28989943401803053,0.015674040602730522,0.11605639342524095,-0.09165301149908746,nm,0.0
