timestamp,roll,pitch,yaw,acc_x,acc_y,acc_z,gyro_x,gyro_y,gyro_z,markers,motor_input
55.00511169433594,-0.49120362718495447,2.0198796138811423,0.4674046853269947,1.392904661709187,-0.6356674940951621,3.4625950662702905,2.6398738309495076,0.17175758217137801,-0.008447734341900121,nm,0.0
55.02266836166382,28.254633847797805,2.7375568384605153,2.5995304381774007,0.9741448026538996,-3.8499418559950938,3.3827885796729467,2.88749058879168,0.11521224163985615,0.08072810788971807,nm,0.0
55.027018547058105,41.33706681345909,2.4322804234020756,3.2408021920021604,0.5154055858269839,-3.7877477656301695,1.2665722919839115,2.6238421480835856,0.0677502798501838,-0.0018588771089711243,nm,0.0
55.050785064697266,59.808288922234254,3.1926134978497496,3.034108620541358,-0.13487155287757913,-2.2781481676007833,-1.1690196622968732,1.5219813835583396,0.24202349986109836,-0.13661888150852572,nm,0.0
55.055582761764526,64.11910561415472,4.82879791361893,2.7275905766414925,-0.2986359500914094,-1.2079970382659013,-2.055084646869928,0.8498751077402028,0.37021769880728916,-0.13473647877891973,nm,0.0
55.066850423812866,65.80196941214932,6.913741494048793,2.457538633604787,-0.35109214322171545,-0.6133529621562009,-2.0828126866387398,0.32184004443013864,0.43238944094374854,-0.10179610907205415,nm,0.0
55.073683738708496,64.84706210728649,8.95544051133589,2.263400076264219,-0.367402118039709,-0.49561091250151235,-1.7642242832485084,-0.20066332047717397,0.4006233136291613,-0.025932105090618156,nm,0.0
55.098841428756714,56.61956825308111,11.202424917326764,2.386521313663625,-0.40406405536257356,-0.0481550859243993,-0.6812506363866689,-0.9799708995497166,0.10432880367823162,0.21257489125424325,nm,0.0
55.10302448272705,49.770637319623575,11.285949253710669,3.067125531570094,-0.2908402000716157,0.13485864414838428,0.2376051390086378,-1.339258632298741,-0.050504181683556706,0.39040682345516714,nm,0.0
55.13670086860657,32.23277571087524,11.106627640699102,6.031289637816515,-0.12770715234008914,1.016891178370612,1.5305499842405745,-1.7545504677282298,-0.17798613725040768,0.6703456345156101,nm,0.0
55.13844347000122,22.2724575876814,11.269071716643893,7.6105585334629895,-0.031622295461595326,1.9446709110347415,2.2053091346979263,-1.940185078075154,-0.20794275774463758,0.6922165766091163,nm,0.0
55.14124536514282,11.419536288698728,11.499166540280918,8.680514101155792,-0.06624964770598563,2.608355429697147,1.4489757265943732,-2.1083499637093577,-0.26552333783831555,0.6340851354018971,nm,0.0
55.16479134559631,-7.956735181028021,10.623320103256487,9.30294097072179,-0.419000627702289,2.824685917234235,-0.4141330354904199,-1.7347079337854594,-0.4607070820707551,0.3330113406861218,nm,0.0
55.170368909835815,-15.337305778009382,8.935311674401168,9.046943507222245,-0.4754578406250125,1.8094078069961455,-1.8030468977315641,-1.3751460888274687,-0.5764686684866172,0.19685662086144168,nm,0.0
55.19527530670166,-20.443917315987015,4.573897406028292,8.874015884942253,-0.3184747512287486,0.6406617276816408,-1.9601120128442329,-0.10201187570412795,-0.4594728121487427,0.011011605391249126,nm,0.0
55.19910478591919,-18.189092083930838,3.1945464046504486,8.838447944215384,-0.27687400991561645,0.04981452218027891,-1.5745666124628734,0.49677007184028216,-0.21459516795491523,-0.03937097251395029,nm,0.0
55.224260091781616,-2.7153261400556192,3.342561086701745,8.846941173952983,-0.0980725313190526,-0.18423566375954906,1.274719639894463,1.867589613284499,0.38165158130907906,-0.10024580340469334,nm,0.0
55.22833776473999,9.406010318081647,4.21401629927489,8.951176546836281,0.44903434691458,-0.9220378142404636,3.6008182790825214,2.3743275858618187,0.5372536579195419,-0.14649505299235385,nm,0.0
55.25269842147827,34.501688607029934,6.383415018549456,9.270923816848331,1.516587448073886,-3.266039949360873,1.8358358339106466,2.4215187870962804,0.6168906968163453,-0.21929266858325408,nm,0.0
55.25516414642334,45.89027411292512,7.47362359808774,9.653009925296129,1.5120354500447852,-3.276342248671012,0.5808863805062219,2.203668441805568,0.5835387701183067,-0.2113607161324583,nm,0.0
55.27803111076355,60.637480314529164,8.704116096510878,10.111850564451775,0.7238885322878497,-1.2999768742947124,-1.8669184435688004,1.1486039635597103,0.29070669725859377,-0.1636223914989324,nm,0.0
55.28393745422363,63.70647167357006,8.865885793179341,9.919763003478453,0.24825148268381603,-0.6916275046418094,-2.0168864897940537,0.5978255261986315,0.13793538287297738,-0.1457005573056923,nm,0.0
55.30663299560547,62.20909759269138,9.170511301503737,8.664085288694167,-0.6967994384895243,-0.07484035739970989,-1.1404919100725184,-0.3746100848253553,-0.015099562766022506,-0.09945442173151885,nm,0.0
55.329707622528076,50.13844181776302,10.061196940072897,6.447899622457893,-1.3846417290949988,0.3747533841697879,0.5106225006226844,-1.483514455010312,-0.10057974775251116,-0.012790326421566234,nm,0.0
55.331488609313965,40.134119462169856,10.221397151977644,5.1841981967061725,-1.2736035847716964,0.4178160580678614,0.37135730036881287,-1.9591577263352913,-0.17293577301376253,0.08799938944923193,nm,0.0
55.354186058044434,19.728077118912484,9.768502454698586,5.110926477936324,-0.365579741649403,1.8153222622600886,2.743942467479881,-2.0699389003084,-0.2455426330609521,0.43965677071085196,nm,0.0
55.35990118980408,7.9605007886074866,9.633817388893295,6.251234954857583,-0.13181593667098354,2.497455501066696,1.1582577991208651,-2.3014683703100824,-0.2664762814725178,0.6169288166105722,nm,0.0
55.38752555847168,-11.694461495348902,10.062404944572812,8.848736170788936,-0.09482221010122156,3.4657755165552664,-0.1939859172832698,-1.8068654449202308,-0.22232378143874035,0.5360054538623897,nm,0.0
55.39019322395325,-19.997182997199296,9.782770059906923,9.135489120343973,-0.3285350557384792,2.0973086377512837,-2.127675561914989,-1.5995955854837873,-0.3233721392436872,0.32598963441425544,nm,0.0
55.41370344161987,-27.150055082359064,5.5793540693322194,7.507130758430878,-0.20699931956458592,0.9506600670447837,-2.3967177034194673,-0.29515593797606293,-0.5995292526080374,-0.17005832000064194,nm,0.0
55.41742753982544,-26.319817737318672,2.6711496089594733,5.908285361093476,0.19195588494343557,0.00856123889639258,-2.040548749084537,0.24139079935376234,-0.5705482595772225,-0.3319074244905967,nm,0.0
55.44478726387024,-12.51691847572412,0.6074781835853764,2.440582783656025,0.3903058825182643,-0.1469639422796995,0.6666802908819925,1.7957735839890283,0.0475046881784468,-0.3415273769384957,nm,0.0
55.45090055465698,-0.8201642295476248,1.6859568267507588,1.7691921004695994,0.5390801761003516,-0.6090660148866146,2.9251314582492185,2.3399091145301267,0.28989515148093464,-0.1859258007085005,nm,0.0
55.45471262931824,12.0677256412403,3.193948268074974,2.215492262527424,0.9634613186670309,-2.364193882166194,3.758219877033481,2.57379741638839,0.3803907561260718,-0.02857962994462405,nm,0.0
55.473570108413696,38.66621670035823,4.913093647781858,4.949188684642215,1.3851039969587524,-3.7699274816685397,1.4461662240888886,2.57871652217785,0.2921509324087937,0.0663680421168126,nm,0.0
55.49026083946228,49.56500773153378,5.03072258186561,5.99428622079115,1.1222516749191511,-2.9066485724028506,-0.39242206551310876,2.1686126994047696,0.2278598192503208,0.007010876984517588,nm,0.0
55.49383735656738,57.71185517927463,5.0753590406015405,6.360002350950731,0.7312049321813598,-2.274785643021728,-1.0472285835556605,1.620974696768112,0.18262790466972534,-0.08345149208212292,nm,0.0
55.51725125312805,63.920565591922426,6.442261076877922,5.503932508852048,-0.3542926886857014,-0.6925823816038686,-2.054244962947382,0.31483417419976834,0.22441664173127132,-0.16640918524108572,nm,0.0
55.52352476119995,63.282036964806615,7.797151860703643,4.827985784213025,-0.676562233776059,-0.5672109840439913,-1.5059811011389013,-0.14509086178618885,0.2586387544769031,-0.1328150366457578,nm,0.0
55.54995107650757,54.762636209177614,10.26699846575235,3.863292460984622,-0.8910108936334623,-0.06719830795092321,-0.5884909613826351,-1.0615004438013798,0.13058184937676698,0.09195318654514181,nm,0.0
55.5519700050354,47.55642975988477,10.599304471671042,3.879544902463795,-0.6406174810947615,0.013121160133913682,0.4561314371096762,-1.4149464407772647,-0.033094756704861734,0.25161319254261905,nm,0.0
55.560314416885376,38.39189576364813,10.340294476729923,4.528155341032336,-0.4876301144641591,0.573799058130087,0.7544862503996344,-1.790182021614943,-0.18921679875655756,0.4509423119536801,nm,0.0
55.5678927898407,28.417637400981167,9.811164968258627,5.830854867801193,-0.2731014779394207,1.1280187123693541,1.8831667766358833,-1.9426647745659658,-0.28975096911585785,0.598698370440101,nm,0.0
55.598177433013916,5.524026436341793,9.24313501028238,8.458076497494474,-0.4932994195965827,3.26845998771024,1.93610304374064,-2.3254628893509697,-0.3628169933939356,0.5999685584013451,nm,0.0
55.59993624687195,-6.194993559321697,9.189199280435545,8.921500460681004,-0.7819146758723313,3.7252855529342157,0.8702662312519169,-2.2788490429319608,-0.37666436969835904,0.4092298050978137,nm,0.0
55.60698843002319,-17.055917844297976,8.593978581834437,8.224735803128523,-1.004991491409206,3.4464831979944774,-0.6322706793791558,-2.0975484124824573,-0.45172123940594255,0.16461018965573573,nm,0.0
55.639631509780884,-32.41153847532743,4.4322143045120574,5.241758408218048,-0.4590456858091062,0.9954248399936737,-2.74385979453615,-1.1527862967417606,-0.6345645979711331,-0.18170882761403045,nm,0.0
55.64133882522583,-35.13655083453701,1.940444401395951,3.8646822861034904,-0.013068707241129782,0.3136626612895311,-2.728234655933209,-0.4952485395345292,-0.552173576092041,-0.24320061835690523,nm,0.0
55.658026933670044,-34.69600671513245,0.2234698368718084,2.6545896344460322,0.38532030861021094,-0.46396481765390796,-2.413456524410599,0.11558489978425016,-0.3500589863365795,-0.24169555325166533,nm,0.0
55.67907476425171,-22.48965407810675,0.3621902812687623,1.2465162266494594,0.7971242071646272,-0.2419574188350663,-0.24773147592407738,1.6136116991987621,0.16008382021134623,-0.09713277906048959,nm,0.0
55.6869797706604,-10.871857331688473,1.634319092148841,1.4004311398490814,1.020321658091199,0.12303630548629113,2.097011399654808,2.3271996245469286,0.29561277432896754,-0.012819919793803706,nm,0.0
55.70564842224121,17.426919159307417,3.737932668684889,3.0779455646668805,1.4196440445326834,-2.900074512723361,3.8902386820895347,2.9347651478939016,0.30035068624424527,0.01599143561954907,nm,0.0
55.707395792007446,31.825976131658166,4.3612906663632245,3.9739023678375434,1.2476504533902417,-3.961518747581232,2.944354952312979,2.8700483424043135,0.2943091429567433,-0.03594647440239607,nm,0.0
55.73504424095154,53.96747779746416,5.767562114454913,4.610392455052324,0.4411569903764298,-2.6029409664107357,-0.7915313523572974,1.9456095451725122,0.3137581769981572,-0.17679099466779186,nm,0.0
55.73693919181824,60.59069801370593,6.907683253286193,4.370639718731659,0.17864032803019259,-1.7902648453849872,-1.629836711061898,1.3021410740946695,0.3298092311800932,-0.20752603515476847,nm,0.0
55.74041485786438,63.95169855943426,8.324551858046124,4.041863272339665,-0.17010671945002517,-0.8756111763756252,-2.2007064001799503,0.6500064064689964,0.33172640761976635,-0.168381463096144,nm,0.0
55.76747512817383,62.90333387906816,10.787352398573885,3.4070126275702006,-0.6327589751411777,-0.24519189605222444,-1.6579745349213602,-0.3441490529886072,0.1919139864425555,-0.012722338823172228,nm,0.0
55.790766954422,53.031163554074006,11.311656550601482,3.367942578903714,-0.7636198377005782,0.10041192965969235,-0.2572191065535682,-1.1618820048599625,-0.07283852360310049,0.2458100470409723,nm,0.0
55.79332160949707,45.05743938086028,10.890621093054511,3.8480116967338343,-0.6804787394730064,0.3044830887182623,0.7004395315719285,-1.5530024517000607,-0.1866931919469542,0.39063111174815146,nm,0.0
55.796610593795776,35.40184096842438,10.291954999249452,4.630753578527888,-0.6423468365612317,0.7737835937575904,1.196105977256802,-1.8806483573361776,-0.2656298567739698,0.49993120344093656,nm,0.0
55.81917476654053,13.136901613392544,9.19568980474353,6.219661242590701,-0.49039622001876937,2.654684137720637,2.5669787744807935,-2.2921153086178463,-0.3453818376149031,0.5142109242005661,nm,0.0
55.82703256607056,0.9203223152375385,8.732571736616888,6.435354300730161,-0.6206037081296369,3.3155807440194027,1.4639841688695086,-2.383787312350573,-0.36859767046031605,0.4179267421895464,nm,0.0
55.850457191467285,-20.309550530220424,6.7103390316651055,5.797004768693717,-0.6568144710683839,2.6419344343186353,-1.4858531712981349,-1.916065875593159,-0.4773385611301835,0.10450917187779898,nm,0.0
55.854806661605835,-27.616010987754198,4.888140659044112,4.917869328775127,-0.3359249209495283,1.1241242557799316,-2.786656481632333,-1.406748655638288,-0.5103923642740761,-0.02780843547095786,nm,0.0
55.884379863739014,-30.926653723858337,1.5404988506134853,3.2752998879115034,0.5408204633329372,-0.08797472147061951,-2.439026933304894,0.07554224286929714,-0.29231823792678624,-0.1607658878355098,nm,0.0
55.88617825508118,-26.617264486818385,1.0845066139146413,2.645056445495057,0.7100081305228129,-0.28386979137854523,-1.4311134165146422,0.8742369917319506,-0.05862357705276364,-0.14547029253971142,nm,0.0
55.89307117462158,-18.02288462324874,1.5734036444370796,2.487939487186826,0.7425895165733275,-0.08201113662405639,-0.6109108185348163,1.7222908060304547,0.16264986573816984,-0.07278938793904802,nm,0.0
55.91549515724182,7.822321126919309,3.553140121176916,3.734300178722095,0.9551924138932232,-1.3933391947924383,4.5736462042096315,2.760596822447485,0.3383112527742023,0.005735124232302671,nm,0.0
55.92005443572998,22.06199966770165,4.204726535953968,4.509466635209559,1.2575602032319086,-3.1016656523326014,3.7633463817575494,2.8355368516225603,0.32588949190714134,-0.04791467136178259,nm,0.0
55.94717288017273,47.85168014014558,5.64841561493721,5.190190165248693,0.9849061411499059,-3.1698914037841073,0.08052848679053813,2.3820102812889807,0.36768771774198755,-0.20108220897528672,nm,0.0
55.94926953315735,57.288369026938305,6.617494772814355,5.026059216815377,0.7253777282085516,-2.3723792228630685,-1.0370485539420122,1.8601404989798123,0.35875164634884515,-0.2477179622108262,nm,0.0
55.97154641151428,66.13885922666243,8.763427925860345,4.273466195916519,-0.27307131429890197,-0.518010805951572,-2.4164499294640325,0.544787881937844,0.2517575738008975,-0.17906391315933692,nm,0.0
55.98063921928406,66.52031102828168,9.549076536312647,3.8424289591992857,-0.6889821492763407,-0.2527334350902034,-2.0514284908295664,0.06931612046513298,0.16270057190844162,-0.11194797789412514,nm,0.0
55.997992753982544,59.73540552045,10.34996920071515,3.8095015677890895,-1.0985244204764577,0.07093924390651772,-0.9092830201763015,-0.9088606755258873,-0.002894155726992071,0.18815699602185193,nm,0.0
