timestamp,roll,pitch,yaw,acc_x,acc_y,acc_z,gyro_x,gyro_y,gyro_z,markers,motor_input
7.003863096237183,-16.281368911490304,-28.64088214793635,144.3160797143713,-0.9258139890051591,0.5736917877836093,-0.2912514274496523,0.33692820025473585,0.22008228442174352,0.020872079420845163,nm,0.0
7.023977756500244,-18.203381123718657,-31.992348101787933,145.1459464423285,-1.026651024229682,0.7002962978207266,-0.41912085988182757,0.3262375702525141,0.18391705752989046,-0.03542692975294773,nm,0.0
7.033043622970581,-18.724455936912047,-33.41394967889702,145.1613520124269,-1.0762746466224955,0.7260206828959982,-0.47098753255211606,0.2361884865365474,0.19748616923975093,-0.0501505658885445,nm,0.0
7.052276849746704,-19.205507453440138,-35.212186580151545,144.44813545610563,-1.1542204646014773,0.82561969459702,-0.4291880377864138,0.11963696234602336,0.09876311365204707,-0.12760437000840738,nm,0.0
7.063246726989746,-19.291582698658523,-35.32737034101229,144.10323457346556,-1.1805979069184895,0.9143186391902122,-0.39347158886815264,0.026771010831773617,0.024425127517828778,-0.09536398561757965,nm,0.0
7.083705902099609,-19.69947832961618,-33.88829811652416,144.21975631416908,-1.2231279995187814,0.8565764030455204,-0.2727078528100644,-0.06566004679790677,-0.17841459660679115,0.006227361256788432,nm,0.0
7.092649936676025,-20.060193783737404,-32.42919966086332,144.90456938889875,-1.1886805128298996,0.706701299063464,-0.24202587790977062,-0.11822798310349192,-0.25925372408626934,0.07663877489114079,nm,0.0
7.098989009857178,-20.41524992391539,-30.57352500011001,145.7573828606127,-1.0711925701526528,0.4938060617019979,-0.3117784760047635,-0.1598294947595152,-0.3261982974152591,0.11533773039915611,nm,0.0
7.119686126708984,-20.73411832600219,-26.123424641784606,147.24129069726354,-0.5865565842161673,0.0858951632731174,-0.4393651437192872,-0.25061147213244556,-0.3810281727762877,0.11381758414167759,nm,0.0
7.131147623062134,-20.5575815680387,-23.532278266328085,147.73584397414564,-0.24939054210541825,-0.10125261711640009,-0.46006748942831144,-0.3046401551169553,-0.40653221000684175,0.07965387365058527,nm,0.0
7.152771711349487,-19.634065619943183,-17.588606654973635,148.41594203184732,0.5598096205037592,-0.5548281193422339,-0.2198183995871453,-0.41036387511662414,-0.45909507085927576,0.0596140315681116,nm,0.0
7.155528545379639,-19.01786208157492,-14.279345254389767,148.90565857199817,0.9530069254228977,-0.7652461034968832,0.08007514690740807,-0.4449540374754225,-0.49072871634739584,0.08586351533148799,nm,0.0
7.192896366119385,-15.510346932920264,-5.560856374630964,151.40215218361968,1.7717139841950003,-1.25931846084197,1.0169642682213187,-0.45437810074818547,-0.2590860874944624,0.19956890305121916,nm,0.0
7.197505235671997,-14.11392065346453,-4.308662010879553,151.97255827415879,1.9102916270498422,-0.9184706427990731,0.8288403202827065,-0.36509482271573385,-0.07426264637478285,0.13669124702925886,nm,0.0
7.20653223991394,-12.470221025650341,-4.343384018468175,151.99022732643584,1.699188064587508,-0.9107654828314926,1.1147795082430683,-0.2874396129052986,0.17460261454704804,0.026468087516314638,nm,0.0
7.230357646942139,-10.600718237807712,-7.525263823966408,149.67465528481023,1.1180902869777578,-0.03711945038508359,0.7240687281116067,0.06737828048086468,0.4269848541478586,-0.24664849912815665,nm,0.0
7.2320356369018555,-10.168956763786344,-9.928948929092964,148.05438340799626,0.8267020177631151,0.22140657253682963,0.5932859906983451,0.17602020717886968,0.4703166436839027,-0.2855492276893025,nm,0.0
7.266947031021118,-11.772286722098073,-17.636459825511455,145.9292362297947,0.07763397646358874,0.513315216799538,0.07421879009858294,0.4243970708166189,0.3072418539005748,-0.06049689655283321,nm,0.0
7.2816853523254395,-13.197992739729225,-19.709002873477054,146.15576897450427,-0.12455992539059592,0.3942530461721754,-0.17120643267029834,0.4566025536211255,0.20732429368856273,-0.03287378481271945,nm,0.0
7.283657073974609,-14.83751750998364,-21.535356616024067,146.3272146499422,-0.33265606534100156,0.2379132814889825,-0.2996880602596095,0.45918491546554585,0.14751816655581912,-0.07150885487208958,nm,0.0
7.28982949256897,-16.523498344038604,-23.13903162503552,146.11218819020425,-0.5817213632329209,0.20990685312126892,-0.395945739657288,0.43878058542996684,0.10762249444227362,-0.1699159898103383,nm,0.0
7.313076734542847,-19.766726553413275,-25.74400236231119,144.10654824293226,-1.0426536478224522,0.4086687365507619,-0.4173552945636903,0.39141498878954006,0.042108739059932454,-0.38193202355674194,nm,0.0
7.317504644393921,-21.28958300293537,-26.84629283607188,142.83734334364703,-1.2278657173451477,0.9069724617197354,-0.5405873092953037,0.3530927010690646,0.028642731868991807,-0.3863233755405538,nm,0.0
7.347623586654663,-23.638500885066485,-28.0706278396064,141.46820544008253,-1.6789104416249827,0.871876168402088,-0.367263904849813,0.23708518015264782,-0.06457215366717314,-0.20252718533007066,nm,0.0
7.349370718002319,-24.887487816395655,-28.097225954548122,141.7149428331573,-1.674947095991628,1.0908184518189832,-0.5854704821027433,0.178843107484306,-0.11917821303612805,-0.06466941436173286,nm,0.0
7.35509729385376,-25.58784858216067,-27.74812953432248,142.50356762091792,-1.7355644939079309,0.714458841511375,-0.5225839640962162,0.057335811720148656,-0.11752905667528632,0.09597510755845814,nm,0.0
7.402740478515625,-25.11267846414707,-25.233972262839377,144.92328185167258,-1.1004154727089024,0.14160126373534504,-0.6385671234774136,-0.22897391817395404,-0.06246931285560555,0.21046955270312362,nm,0.0
7.4044764041900635,-23.941526831803646,-24.03837509735222,145.08474211573116,-0.7781589734213544,0.13753480934585893,-0.584989287995935,-0.3105072432044647,-0.059262519934062466,0.17340373045386956,nm,0.0
7.412903785705566,-20.58675060862481,-20.382997761994424,144.88362583437404,-0.13362063837941587,-0.09403598649426412,-0.2666941071951965,-0.5041775932713537,-0.13564106693058967,0.1607943612544846,nm,0.0
7.427697658538818,-18.96739111984131,-17.808924462753367,145.28219698847394,0.27185459007183566,-0.07600237422808968,-0.28703257901848933,-0.545321974765089,-0.23285068109725088,0.1871208391753556,nm,0.0
7.4488348960876465,-15.862527066730014,-11.45153953091411,147.37691502106532,1.0543693197164383,-0.9076400422957651,0.42486501326058607,-0.5826258167991379,-0.3977869699760361,0.27363222268762777,nm,0.0
7.456024408340454,-14.915162163172003,-8.227439772599713,148.6150319200997,1.6758505163920074,-0.8332574347200838,0.45798372075130456,-0.5003939624414784,-0.4344077692785769,0.25907228218001344,nm,0.0
7.475104331970215,-12.182536323983133,-3.6732187886338483,150.05319995911222,1.990632355596572,-1.203375313912852,1.187878698011074,-0.408505922944475,-0.18299785138755492,0.10384059178483256,nm,0.0
7.486481666564941,-11.377428678938351,-2.7056132092208247,149.69904043890486,1.8700444642893672,-0.8161076316066005,1.0229645618423098,-0.2368540691735169,-0.07254514594205333,-0.06426734961497653,nm,0.0
7.491332292556763,-10.82253163826337,-2.64843108956868,148.66517776054437,1.4559978107846823,-0.585078510755253,1.1810109565635765,-0.1013358327927945,0.06126289938463559,-0.20425165933302336,nm,0.0
7.50981068611145,-10.84185323164966,-3.415095914335854,147.28663909230667,1.0499423741738865,-0.16598662897792538,0.9458287954174932,0.08485024280768962,0.14235911497330064,-0.27854430208396136,nm,0.0
7.5212626457214355,-11.51751272965124,-6.542969276418138,145.32699958078072,0.4000017832489494,0.24533902201220723,0.5291158291010091,0.25648476835881256,0.25784284828737813,-0.14485046575635627,nm,0.0
7.526824951171875,-12.369278260372985,-8.739252859556961,145.21612144507506,0.1936908636742753,0.3815076420133561,0.17665859967614966,0.3904242621939783,0.2790015277616614,-0.016609336154441618,nm,0.0
7.548974990844727,-14.556083857446238,-13.244542121054044,146.2836639827138,-0.1527717216862745,0.0063394790810324606,0.009523033451123025,0.4366065777888317,0.24567353253810525,0.10933465144031032,nm,0.0
7.562767505645752,-15.838396508264056,-15.478445899070735,146.7776370848513,-0.23942151283833912,0.009022557496327343,-0.3231861338613623,0.4547992380417928,0.24992911398849688,0.05869473619127691,nm,0.0
7.588721752166748,-18.172685674714,-22.609260159858554,145.3154217077374,-0.7322606831229865,0.29483434931880087,-0.4586601239188123,0.3407746640761118,0.34774168411272977,-0.21712475721322677,nm,0.0
7.5998570919036865,-18.48952563509742,-24.885584438176792,144.19758501162315,-0.8460333946147891,0.6211499237238712,-0.4440429565648477,0.3120375133731671,0.35281397605677467,-0.23433911863908388,nm,0.0
7.6169209480285645,-18.612724685690804,-28.182396270773616,142.6526344943551,-1.016585543617684,0.7942781765068094,-0.28824790218552315,0.17284960776582917,0.22572835871082678,-0.10885408439792706,nm,0.0
7.6278605461120605,-18.95470738427366,-28.938132382165495,142.53832739453924,-1.0424518252792596,0.9146318822297275,-0.3718307854207884,0.1416887346062111,0.09770579643908552,-0.045874736605618034,nm,0.0
7.630851745605469,-19.44242699110979,-29.0652976956371,142.83535098885213,-1.08494777558548,0.8773495572963341,-0.3465938316353004,0.08530431027468988,-0.01746547351689615,0.014864128837408331,nm,0.0
7.661243438720703,-20.664282458381507,-27.42970744916361,143.39751024411817,-1.0756937511178277,0.7075309200632365,-0.40894161111986965,-0.03872099857100245,-0.22899616154071958,0.018088307911392498,nm,0.0
7.672864198684692,-21.71198686080897,-24.04081725976686,143.58235606801512,-1.0121228253055765,0.5532269334439411,-0.4225584522992994,-0.15360468421915938,-0.3419726681378474,-0.03390348829109868,nm,0.0
7.677339315414429,-22.10004978048312,-21.774248434510177,143.50974826724175,-0.9157033097347838,0.4207097813055502,-0.431872087759749,-0.2103749111939435,-0.3934433597099052,-0.04239245282360305,nm,0.0
7.700800180435181,-22.780819866899645,-16.237798283868216,143.9561993680967,-0.4798265794951274,0.13526593904738313,-0.49732609784617016,-0.3035827087127894,-0.49377506540678007,0.03707060655229017,nm,0.0
7.724779844284058,-22.73866413615435,-9.316094998471387,145.90205028195874,0.434627898786676,-0.621390940637199,-0.3633843677780271,-0.42565475811557874,-0.5614283851294554,0.19136120277855784,nm,0.0
7.726455450057983,-22.12938426680754,-5.8017601128898955,147.40800270018974,1.0492256848803243,-1.127020777039627,0.15525708107392275,-0.48635164621383686,-0.5079355480568329,0.2704843988658487,nm,0.0
7.744527101516724,-18.44936978502278,-0.2533157624355968,150.39243667695052,2.130480115577681,-1.5390355408012413,0.742385567222586,-0.6400521172255176,-0.16432858471846667,0.28953556741215614,nm,0.0
7.754596948623657,-15.425845464794401,0.8581704088233623,151.23021240704844,1.9861779615593573,-1.8514878256527032,1.588085551445297,-0.6375335241906516,0.1159411327745427,0.18504273763659598,nm,0.0
7.779308557510376,-10.793392354836408,-0.7719367749420563,149.97669549845193,1.5998172405405178,-0.6362435190406003,1.4255891828370484,-0.2545884900061821,0.4796499072599727,-0.19282828621060466,nm,0.0
7.79599928855896,-8.418108650339686,-5.868321561005365,145.98627182485455,0.9060844977834147,0.4944292998995905,0.7548741476099141,0.2040881922181109,0.561497559254798,-0.3532532688676678,nm,0.0
7.806296110153198,-8.108705409416745,-9.140044656299182,144.50796409498162,0.6126693764513603,0.7804262145433584,0.6020250693768597,0.3245819892773169,0.5869673148174377,-0.2474275486737089,nm,0.0
7.829108476638794,-9.576891841990898,-16.090734488661116,144.2655469055892,0.25398127853119884,0.5452632099813206,0.2806714352211016,0.591367244885784,0.43775920563898757,0.029358099333997374,nm,0.0
7.830750226974487,-11.335273683836059,-19.32004066254803,145.10468866197698,0.16386499722931866,0.14173384918969606,0.025914408975387375,0.6480971506031048,0.3478816607720227,0.06986530138367385,nm,0.0
7.871530771255493,-17.47032688389985,-27.190241358089434,145.15399736384538,-0.3349015564277033,-0.09947366400683774,-0.7079020818143679,0.5275405816725142,0.22687312344031976,-0.3020501261210907,nm,0.0
7.875292062759399,-18.938320259218152,-29.477582595077344,143.7483311215419,-0.6298014062674698,0.1109066323721035,-0.6163484919198526,0.4785233745493044,0.23629143533415534,-0.4181764050694114,nm,0.0
7.887633800506592,-20.563273324541868,-33.418550044976286,140.90588817526506,-1.1023994373543662,0.6254157252619824,-0.3908878588588667,0.29250997821374525,0.2500008398131912,-0.32062645698525377,nm,0.0
7.902642011642456,-21.29477025431368,-34.88060528147692,140.12560739886766,-1.2578723883051512,0.7293613413421945,-0.358271761836012,0.28276594541760186,0.16248589124926116,-0.23465733730880933,nm,0.0
7.918395042419434,-22.94427042205297,-36.59340850778898,140.44633218576095,-1.3320473349903508,0.7021464943334891,-0.43314345452053815,0.1700120934403057,0.04378351382796769,0.007805883777132885,nm,0.0
7.929935932159424,-23.539996260656256,-36.9091193753658,140.97431120692391,-1.2999018731922425,0.5659591972978064,-0.5077201132837067,0.11717638854494589,0.001815013701439064,0.038703755692463135,nm,0.0
7.948550224304199,-23.478632076447525,-36.832358429296015,141.11204706787873,-1.2024265202934095,0.4552289699273934,-0.45944481559118555,-0.06006518927334694,0.021831495144692754,0.014621450010584732,nm,0.0
7.961119651794434,-22.857321375924602,-36.33985213290117,140.5589485634639,-1.1157828379959598,0.5333224213231216,-0.37309343807391643,-0.13657191280736558,7.336690576657467e-05,-0.03236792538126608,nm,0.0
7.973155498504639,-21.25191972975274,-34.03489935336774,139.697157075673,-0.8849029264050363,0.5343645477990404,-0.12425966413721479,-0.27788133225136813,-0.11639382118576802,0.04406810340857874,nm,0.0
7.985615015029907,-20.752672366630016,-32.07314746674063,140.19320985309278,-0.6928849078877339,0.48830043534090967,-0.1257427963533439,-0.3138720839064604,-0.233299568635348,0.13483416816702493,nm,0.0
