timestamp,roll,pitch,yaw,acc_x,acc_y,acc_z,gyro_x,gyro_y,gyro_z,markers,motor_input
53.50158071517944,33.64040404075971,9.042778595393315,5.549437516919158,-0.42869227612157784,0.7783551894544501,0.35465632979358874,-1.4418374042950726,-0.1067997393087806,0.2585189628058278,nm,0.0
53.50592088699341,25.88501255538985,9.172817781195846,5.737051459092924,-0.3683223873120022,1.332225850801043,1.3540514722712556,-1.5219239672915037,-0.1322928432974629,0.27279175145479817,nm,0.0
53.52870988845825,7.268441914063328,9.103392343747789,5.570175532771091,-0.4989001407380629,2.5787050801802986,1.1489374429869854,-1.8925844810150216,-0.22093736036105624,0.26522120852863856,nm,0.0
53.53701829910278,-2.081117291683432,8.72002314936109,5.29316905464792,-0.6561670277387989,3.090212100555641,0.8604609649564895,-1.826362517521767,-0.26218745879903066,0.22899146037329154,nm,0.0
53.55837345123291,-19.1173354613743,6.959189105628848,4.7948322428051675,-0.8913306811211721,2.4717386740087486,-1.0884976246863436,-1.558382160378993,-0.35069017095309046,0.1666848615367887,nm,0.0
53.56170439720154,-24.96341665495427,5.8979147660206195,4.749827725232968,-0.8650421548294694,1.988264242838724,-1.6417398026091083,-1.133191265773331,-0.3201247426071496,0.12151767237877678,nm,0.0
53.58903789520264,-30.284036704546317,4.135359684221893,4.711417147578484,-0.43338182077207815,0.5521047677205985,-2.235733396850275,-0.2986880030028832,-0.19826163394064053,0.015899015913241405,nm,0.0
53.594234466552734,-29.149113998687604,3.5642093402390804,4.496692630579917,-0.014721583398565713,0.08420538321575527,-1.934372251078592,0.24360424174349968,-0.10752522152380947,-0.05759456130113273,nm,0.0
53.61561107635498,-17.837855792443342,3.400491417419342,3.5918512638720004,0.9099477193194037,-0.36414735280958044,-0.35395395582868233,1.4528898688837866,0.10317437945969071,-0.1822320033411628,nm,0.0
53.62078285217285,-7.348126948547653,3.6854823653763615,3.336906053185674,1.2455842526607726,-0.18772437684167953,1.8770610997430255,2.097067148794626,0.17203828172049182,-0.18472073711342557,nm,0.0
53.6457200050354,17.770573976804783,4.564312538858291,3.94314344424245,1.5131848581975438,-3.0457751567561178,3.364889640315936,2.606204706084963,0.25725553813741825,-0.1009938256094515,nm,0.0
53.65246868133545,30.647919614856605,4.788370974769296,4.664929328969491,1.2104860586486146,-3.81788505835802,2.5080809073967134,2.5664587980231843,0.23079497101145502,-0.07699026397888886,nm,0.0
53.656872510910034,41.56601491314422,4.739718905042843,5.1753999717465495,0.8143257455808571,-3.5084640648916956,0.4905442437827826,2.1783425337202873,0.17264424682953552,-0.09152144245434533,nm,0.0
53.683112144470215,55.90597849704106,5.141963928963227,5.274968365546676,0.014999746534679021,-2.0845894274131185,-1.2460128014843974,1.1306498177676902,0.17797902285458034,-0.13417161062202707,nm,0.0
53.688509941101074,58.40757996172568,5.90129786240919,4.854334599438421,-0.22976704875274329,-1.3690368471369831,-1.848797818052897,0.48943703569283437,0.19430757763006523,-0.1454222341279163,nm,0.0
53.712496519088745,56.741207420773364,7.913101976001912,3.904718825714534,-0.5156037503672917,-0.6476110671464087,-1.1067758809781443,-0.38848834900828366,0.17165473415855015,-0.05373410548932897,nm,0.0
53.71417045593262,52.57420140318376,8.610463128360953,3.530465506895408,-0.563938490276756,-0.3047680323645884,-0.7457063923668641,-0.8273356723318661,0.0831884272746685,0.031934678679187485,nm,0.0
53.74079489707947,39.231372220138496,8.672810073743927,3.6966789563549347,-0.4435688729315644,0.3920043153990127,0.5209349775791581,-1.4777892480328956,-0.12676588352834217,0.27574342919123407,nm,0.0
53.745323181152344,30.55539606685766,8.38119459879979,4.397976282836341,-0.43164828983332804,0.9096258366521293,0.8258996304882987,-1.7033267411883373,-0.18613097991853206,0.3866952560382799,nm,0.0
53.76716876029968,10.989632866738631,8.008271387914952,5.923100929191501,-0.4691256897985712,2.5805830427619183,1.660290848258732,-2.0277408084874673,-0.2331918559290078,0.4115236746173813,nm,0.0
53.79112124443054,-9.557731739593875,7.569781265425585,5.7578129373229086,-0.6661913003380366,3.322394728301378,0.18028174401801292,-1.9433128485618962,-0.2873851431016691,0.18764022902069086,nm,0.0
53.7929208278656,-18.56313216763593,6.645756110083147,5.011750384003512,-0.6256833289396753,2.7415268900327576,-1.1800743602067965,-1.755899878308136,-0.3634263731788001,0.07202765097470497,nm,0.0
53.80092787742615,-25.54295036793332,5.190524739657526,4.275738260299367,-0.3957517630174217,1.5664045474768507,-2.206057384649373,-1.3537865938930034,-0.4144448163215274,-0.003418157006294169,nm,0.0
53.824899196624756,-30.452013992574845,1.9802112259880809,3.7676478326591996,0.20279465189629858,0.42772412806017984,-2.1373386111429857,-0.1884267663267742,-0.3307787357258542,-0.005509674031768368,nm,0.0
53.82814073562622,-28.551366347099147,1.080561350437222,3.9203946752887555,0.5123566340992008,-0.14966514531952005,-1.2769378602589199,0.39992895418935037,-0.16605333671168784,0.02126745444775991,nm,0.0
53.852540016174316,-14.481230915623637,1.6353484171304145,4.919831744374589,0.5981720174379773,-0.13781160590483993,0.283026501912554,1.67887518642309,0.2344637591172129,0.08186827741198373,nm,0.0
53.85838484764099,-4.151048715994551,2.1849508386277985,5.663501106542017,0.9546338322756162,-0.9214637520285196,1.5028191439934355,2.056833008060256,0.2890491362877766,0.07508621078252858,nm,0.0
53.880911350250244,21.444812159958616,2.107169723632853,6.812665741724953,1.3395542888073533,-2.8885345029068197,2.9959876917043227,2.630410513197081,0.2486095693678371,-0.022678575429078186,nm,0.0
53.8864164352417,33.14637918781378,1.5123406158990969,6.693784232388769,0.8523677183217889,-3.6141115995126607,1.4162401739325268,2.3475493114214525,0.15165769757376263,-0.10831985753153678,nm,0.0
53.91251277923584,50.739012096077616,0.6464662406756317,4.699323675554434,-0.3636422280508185,-2.7763067607723473,-0.40241006300713406,1.4987413855342202,0.10128130310292395,-0.2725320643105923,nm,0.0
53.91425156593323,54.623576914597905,1.4897408395082323,3.6082631394224625,-0.6783410374756742,-1.6092765894676324,-1.5029532606843765,0.7706656133649874,0.2226525553273614,-0.24525647888909652,nm,0.0
53.937615394592285,53.796138546651605,5.365991073614785,2.430807335638368,-0.442352604839321,-0.8385188699509084,-1.1892105372812363,-0.37316591404634514,0.4090763248198955,-0.07757385638483143,nm,0.0
53.94602012634277,49.689239575492266,7.203842888444413,1.9686260777623645,-0.14053175129496376,-0.2963036099495998,-0.8083835608408265,-0.824970218633426,0.3329054899100821,-0.01525209272061983,nm,0.0
53.97425699234009,34.824520333548314,8.524939723953421,1.1924570055617887,0.12027528321042529,0.37297576937031324,0.6768557359387425,-1.6852161651135842,0.00648192116687618,0.18033971236128798,nm,0.0
53.975945711135864,25.098680025054968,8.254915153904832,1.3163728535228068,-0.1374609125105979,0.9704409594975394,1.2465835484989998,-1.9188562773260556,-0.10410111073328124,0.2985832996999895,nm,0.0
53.981730222702026,14.606545955418175,7.754665289770459,1.777222952127486,-0.37581348040237617,2.075870070262032,2.535209114462072,-2.0704939904873156,-0.16551974158582922,0.3759478298098173,nm,0.0
54.00538110733032,-9.21963453591868,7.133604868103196,2.8431579047826956,-0.9218311805726683,3.6705478858919105,1.065422439712552,-2.36493664527167,-0.16077764954376883,0.3991813029571388,nm,0.0
54.014636754989624,-20.291403793090677,6.89221695163894,3.2254470016064123,-1.0033615331844863,3.8704607998034195,-0.06867763849911297,-2.1869065294667394,-0.17655628939596066,0.34533004019915264,nm,0.0
54.04033851623535,-37.84213612454329,5.794599862082645,3.319811120147702,-0.7196810297366771,1.3639958921501671,-2.591434705942294,-1.4867522473077235,-0.23436403652072602,0.14927343109814944,nm,0.0
54.042250633239746,-42.045939342230525,4.7440578492800345,3.0068424366396616,-0.4983126717477503,0.5213689974824935,-3.0587190649134826,-0.8170188947755782,-0.267570529374303,0.017880415176041574,nm,0.0
54.06249976158142,-41.50575462882675,1.7941416743581686,1.1961279829031948,0.5083430432335849,-0.8138087814754668,-2.49406048979333,0.39802238044215815,-0.29949980597953135,-0.24495466265915813,nm,0.0
54.06883764266968,-35.53932342963094,0.8442950992751367,-0.4531901951097351,1.0112962339352711,-0.6336177241350062,-1.519843583439411,1.203004316753252,-0.19447105282197366,-0.3550910245203679,nm,0.0
54.089603424072266,-12.645225558031497,1.6099920704025021,-3.097321413716648,1.9246342282326396,0.0331676244334875,2.86335905279785,2.5973126783235485,0.0318298008012771,-0.25272093594147155,nm,0.0
54.11375570297241,16.82540396211682,3.8521313918985745,-1.3342831202132623,1.3187668057706432,-3.255401679153099,4.2664628004223335,3.048936566159869,0.0695716222471292,0.11605792477740479,nm,0.0
54.11544346809387,30.94948797535484,3.803741746758649,0.6527256851616409,0.6020344234828718,-3.6608374046901453,2.3550683020840886,2.828607947587686,-0.033465414768836105,0.19645073688556527,nm,0.0
54.13888430595398,52.199314900914715,2.3935222763497155,2.737710366697519,-0.3639200468682304,-2.1702099846800675,-0.6725392304454779,1.8966724639958485,-0.048666600963084075,0.018688043631597734,nm,0.0
54.14246416091919,58.02876916072597,2.7950366783302303,2.731931684904093,-0.5648004007757347,-1.8254100823831039,-1.187910451441679,1.1677641638367493,0.13446583073504104,-0.06662973741914686,nm,0.0
54.162954568862915,60.579540300245235,6.667980403834595,2.221276750967706,-0.6710092385601205,-0.4602546841949084,-1.8995114035113485,0.02682537038516963,0.45256995652691584,-0.0773339653219277,nm,0.0
54.178643465042114,58.229751121261344,8.77405705316637,1.7738188101505978,-0.5328533039303075,-0.33095551650898575,-1.4923762421803106,-0.47517542425791087,0.4036253750784361,-0.03969033385130392,nm,0.0
54.18038082122803,53.50200593703605,9.98461820360214,1.3764347117525402,-0.3898606078648083,-0.0074192505586279205,-1.3292342919120108,-0.9350466287998895,0.21391836579879037,0.06151257958265048,nm,0.0
54.2070529460907,38.78298099332587,9.015747806339055,2.405032539384649,-0.043461476997207836,0.33204991020251867,0.7073893702954541,-1.636184837794137,-0.2511328104578208,0.44762849126062504,nm,0.0
54.21001076698303,28.97161021044774,7.821624346322083,4.114710504707692,-0.14010082713731864,0.9538287897747753,0.9443230006824826,-1.9204615627381398,-0.35570427700641993,0.6183618922585136,nm,0.0
54.21873426437378,18.813930708769142,6.911633490851977,6.074889422699894,-0.28562832840987445,1.8197377442417961,2.166899948217211,-1.986075174286217,-0.3685709466176927,0.6430470776258719,nm,0.0
54.240756034851074,-3.2588165638869295,5.7487968584518105,7.701642001652116,-0.8781377357981893,2.9342181133188214,0.5977403009449923,-2.1451500935757646,-0.42005213311634154,0.2808313317046194,nm,0.0
54.24985146522522,-12.67152368476875,4.510513963937283,7.011689426095854,-0.8487355515308537,2.7594358325067083,-0.47101581943325144,-1.8215418730592732,-0.4969388451916708,0.02767941871616288,nm,0.0
54.27417874336243,-24.42573714765838,0.08316803911820685,4.956727630895333,0.14363149664307803,0.5340235571287729,-2.5876902603266547,-0.8184486703292103,-0.568597586724306,-0.168531457694398,nm,0.0
54.27816724777222,-25.164445352716626,-1.7288280137632313,4.472252339622166,0.5147481470519027,0.12777008057446856,-2.1086094686390346,-0.1092470234058748,-0.3855500452427919,-0.09865639631648222,nm,0.0
54.302823305130005,-15.794933247133251,-1.9686902654507643,5.089044733300663,0.36170306893752974,-0.3037625274508979,-0.6969214633958091,1.3229170208296623,0.1759528382729254,0.16839588085733087,nm,0.0
54.304513692855835,-5.243448652852234,-1.273649793986804,6.109685977336046,0.09176696565892033,0.032991033503746735,1.5657973172247512,2.0971579989299887,0.33330914460079963,0.25976651458216327,nm,0.0
54.329131841659546,20.06520830036724,-0.23241470080006585,7.257507367735709,0.9544487232383037,-2.5402702624369633,3.4444006014049333,2.51723772453058,0.4172471569828159,0.07047925579077438,nm,0.0
54.33435606956482,32.61237502458544,0.6924263347066176,7.095825074132129,1.2987257337589344,-3.159801478989455,2.046783971871811,2.4778069330414008,0.4909977522513029,-0.052781779397250886,nm,0.0
54.35751748085022,51.9915297546603,2.921000043239838,6.221705967734064,1.0804068497669197,-2.1754741744751236,-1.0619685366271177,1.6383841656106026,0.39798884665882844,-0.17960650261372724,nm,0.0
54.364540100097656,57.41531599188571,3.589409549890804,5.633698037386983,0.6273045582991672,-1.4011721236050307,-1.8347309699036893,1.0714489347616432,0.2437876724381971,-0.19204423991961442,nm,0.0
54.37214207649231,59.89707070282474,3.7729224383587,4.963743863601458,0.06519076817363978,-0.8017255641376766,-2.0350175767087677,0.4970641628876494,0.08160483962625656,-0.1788379067033942,nm,0.0
54.394583225250244,57.05032844597198,3.5475511784098424,4.00655004001234,-0.8962229703503554,-0.37481764471881013,-1.028417342256655,-0.5171435190994619,-0.05950901130705689,-0.049072997978890115,nm,0.0
54.40010476112366,52.00073938691365,3.7436049312835804,3.919060578752558,-1.175050527574584,-0.1193028776566616,-0.29986260165825235,-1.0025439203200825,-0.033155086942567524,0.03428463939375756,nm,0.0
54.42156434059143,35.37444692455888,4.836359746856681,3.775289811455427,-0.9420618479247824,0.6058230373511629,0.9217778552514639,-1.861590316716802,-0.00945166649034695,0.11485481094224784,nm,0.0
54.428404092788696,25.060366661472656,5.290033895938944,3.6482526417522614,-0.6122980384877,1.1649695603477015,1.7756259388967253,-2.051762414756126,-0.05048365850231579,0.14689049578075394,nm,0.0
54.4505136013031,1.9174695231571828,5.108259909475743,3.556372782855022,-0.2668965814991152,3.021191516527947,1.437762992638439,-2.363991757564015,-0.21475483472834067,0.21157233289180835,nm,0.0
54.45702314376831,-9.383109082329677,4.570237752229539,3.6113445174719265,-0.30619009823243776,3.3897171592812594,0.4968640341583294,-2.2358857329954778,-0.25900294002339147,0.2048689927008723,nm,0.0
54.479083776474,-27.833838107425876,2.5196313925218554,3.6420838696271183,-0.44925392817296117,1.8394583076426425,-2.2338722438517666,-1.6371036802555403,-0.36458792356046305,0.08583265970519956,nm,0.0
