timestamp,roll,pitch,yaw,acc_x,acc_y,acc_z,gyro_x,gyro_y,gyro_z,markers,motor_input
45.51664710044861,0.2904133294141069,7.03903807903457,35.60116114164661,-1.908700617853786,1.8591955720039293,0.5066941954892309,-1.2177921956648228,-0.769192068593372,0.4755998288234419,nm,0.0
45.518322706222534,-7.488543607015177,7.5720120835612335,35.91038951214662,-2.5128803214415547,1.8333638292630592,0.022018563178248657,-1.3035562080976981,-0.8219553192725126,0.25544781718073317,nm,0.0
45.53885293006897,-22.635357993639072,7.1712722736197305,33.220809952781636,-2.7139651964108817,2.099610582373473,-0.7297622992493422,-1.169730714760825,-0.9320905969846622,-0.1528894662374198,nm,0.0
45.54550313949585,-29.60303742342705,6.236782568371724,31.47992766133669,-2.146227945089177,1.7284520464806383,-1.338771860408567,-1.057780400293109,-0.905960458305839,-0.18488081103720017,nm,0.0
45.56939196586609,-39.39228446691656,5.113043418414513,30.085297273595234,-1.5687706504205106,1.5883028598128959,-1.6927045698754581,-0.691372891354709,-0.48158828266383363,0.02079067502654663,nm,0.0
45.57526135444641,-42.42385346392276,5.5519189815762084,30.345876280717995,-1.3642159800309486,1.1781193990770775,-1.9268746496092313,-0.5538705558080923,-0.23448687923686032,0.11179065122978224,nm,0.0
45.59960913658142,-44.654164632103466,6.911738347665438,31.16713751402407,-1.4365820064771013,0.8041089540729182,-1.689607211608423,-0.14702831436444774,0.024411124086096615,0.08605307230022068,nm,0.0
45.60416889190674,-44.43544681156957,6.623294079398747,31.044824423579428,-1.1205271323344421,0.4696152718494113,-1.5593460838511954,0.07980409026854592,-0.03288628344122087,-0.026196026817870918,nm,0.0
45.6266725063324,-41.69337564928807,3.373317090733805,28.881327808229276,-0.055507593048005385,0.22298848880209207,-0.9927135605575629,0.5059485196799094,-0.18406119012236594,-0.2981560037595249,nm,0.0
45.63250970840454,-39.04634658248549,1.183633006681191,27.31151361088043,0.656836957115691,-0.06628450291351703,-0.719702283783964,0.6858439854807453,-0.14448138422024157,-0.3322763292063509,nm,0.0
45.65192985534668,-30.68348815143051,-1.6775459252831157,25.566936119010727,1.5482522750076966,-0.4620063187739107,0.48582983467375396,0.931943914381712,0.20632949510723197,-0.07900263597002057,nm,0.0
45.66137957572937,-24.719432752188577,-1.9067506920364512,26.15764697044882,1.4995320258759486,-0.5236438630091661,1.144107950083696,1.1062365037043216,0.47154845753261954,0.15594086412667454,nm,0.0
45.68211221694946,-11.724875270061515,-1.6347740700372781,29.57584552997855,1.2331587177906134,-1.073847673509179,1.7514979668408968,1.1216846483502005,0.6243521818661657,0.4661435932027519,nm,0.0
45.70049548149109,-0.8537006336536511,-1.965388367694492,32.74507130075661,0.6132987063393084,-1.5852244506440551,1.7050849792137481,0.8705057295487235,0.46611950979281885,0.2621369721691767,nm,0.0
45.70771527290344,2.098038523159913,-2.2469288354741916,32.76315772796855,0.5468865305360991,-1.7480643102897373,1.2323924899410228,0.539685899737563,0.2669160996678909,0.02019505963392116,nm,0.0
45.71686816215515,3.329397530601815,-2.126594600363645,31.799502152303116,0.4218126889344815,-1.6911361590827871,0.758568907965933,0.20772589946667394,0.14660178913415156,-0.18894892148848813,nm,0.0
45.74103760719299,0.830350314590513,-1.321936266060603,28.987712866852345,0.1634313136939258,-0.930391309489417,0.8050128856782744,-0.40099171524052485,-0.15709045670370175,-0.2873158824834677,nm,0.0
45.760437965393066,-7.472228355504492,-1.0366364884709829,28.733658505233503,-0.015338742250069693,0.18213658708182745,0.6900292576129708,-0.8153038147088745,-0.4278154189174564,0.05518825856376698,nm,0.0
45.77582597732544,-12.841248645954431,-0.8102091210707087,29.914088611767745,-0.4238616463457654,0.7200549577335466,0.5869333686462557,-0.9469074779366935,-0.49381479966370534,0.21659054902348648,nm,0.0
45.77963662147522,-18.67773589265732,-0.4626821706688729,31.292017493226055,-0.6558725532388308,0.7893514810978741,-0.012740638423206897,-1.0285261931138676,-0.5418211816120267,0.2616234594967015,nm,0.0
45.796069383621216,-28.580474489091593,-0.16351699836865613,32.37049691318288,-1.4470901162576029,1.1383110329004822,-0.5415795202125363,-0.7757456038323961,-0.5115744299322411,0.022859019200627148,nm,0.0
45.80183529853821,-32.79881701370587,-0.7970410329601094,31.671858995099903,-1.1866565549120798,0.7865412919334527,-1.0478310029190567,-0.6361978054853948,-0.5619256848398196,-0.1449029015387512,nm,0.0
45.82902407646179,-37.431448395326825,-2.942806841353525,29.341912099192307,-0.656877337652561,0.854522577152695,-1.0153488639185906,-0.17778104705445988,-0.36227905235310365,-0.24821533322544098,nm,0.0
45.83314919471741,-38.10014688744418,-3.5386138712879593,28.522657726987028,-0.2873433663635584,0.6524617600719882,-0.9554882603682153,-0.04721536676349291,-0.17620714080335925,-0.16813305793531255,nm,0.0
45.85663032531738,-36.1436025073935,-2.7210810267794456,28.858563508558102,-0.19043415568480757,0.5221284325926322,-0.5625877951881292,0.19625777062194197,0.25389588664004326,0.11952601175601958,nm,0.0
45.86564350128174,-33.77509070266687,-1.831365129594259,29.843617650068396,-0.3152752652723891,0.37384901098945583,-0.41133464689138866,0.33821202669988265,0.3805949483364907,0.2184230770359873,nm,0.0
45.868908643722534,-30.585710060612787,-1.204467234544287,30.901113904157175,-0.4496984792209489,0.26459658940028163,-0.2423414010724041,0.500020802128691,0.4242800690997031,0.230216416338847,nm,0.0
45.89558386802673,-23.179537182491963,-1.3617470756159997,31.141237808902364,-0.5018576419203571,0.17933809143158755,0.44662180137164303,0.6572137882198256,0.3142886693263873,-0.0024222688363800494,nm,0.0
45.897337675094604,-19.90758527360838,-1.8618876817792889,30.147167731434973,-0.05639421759508459,-0.3071494171027592,0.3638536171742552,0.6276442516587701,0.2394602963660261,-0.13434215137936564,nm,0.0
45.92294263839722,-14.246308838277487,-2.6012420130536187,27.903745096929214,0.3105971756128642,-0.5105434004098829,0.7010348479023956,0.45793136008734636,0.16927666215206488,-0.15076885803646184,nm,0.0
45.928364992141724,-12.826948067251331,-2.701353325103724,27.44524390627154,0.5093165797301368,-0.7709687940160317,0.45111706236156934,0.27319333864545303,0.1063763776075089,-0.046093409152084014,nm,0.0
45.96152949333191,-12.233324065669953,-2.642608613473413,28.398602638490985,0.23048662654744773,-0.5272694433852607,0.4319130090487555,-0.02508288163841155,-0.014207472306225506,0.16788185233301767,nm,0.0
45.963310956954956,-13.053514659683911,-2.537220269777696,29.16850842942197,0.010601480905046394,-0.39008634174295725,0.27594049536380516,-0.1415407405025932,-0.06729653431975502,0.17359561366348805,nm,0.0
45.976420879364014,-15.90525615456876,-2.5121637159709085,29.481074682360777,-0.33427083530345464,-0.028029562249198555,0.0793252171474254,-0.2695638318953336,-0.17787315735920936,-0.01515906443250384,nm,0.0
45.983083724975586,-17.586562359912325,-2.7081390499192572,28.874599540357313,-0.32857553301833664,0.09158873781735803,-0.014640890302161317,-0.2621981828251308,-0.2051755974798198,-0.11778390774472747,nm,0.0
46.00558686256409,-20.732502093970155,-3.311237089260975,27.500347388173232,-0.15793124371015757,0.2559911305743242,-0.11500775246281449,-0.2319557742744121,-0.20435857185965614,-0.14349778638339447,nm,0.0
46.01343560218811,-22.00773990495983,-3.4472129041840054,27.15836998909716,-0.1729763303959691,0.3482329543485369,-0.08376935633786195,-0.2018280505357521,-0.1486671283156914,-0.06242252078910741,nm,0.0
46.02174711227417,-23.14881405981015,-3.3390550443239966,27.21134728764427,-0.16494537034643877,0.3414361233791175,-0.16179513715486918,-0.2006585299083548,-0.09226220336539294,0.03260998028770779,nm,0.0
46.04201149940491,-24.08343833787666,-2.6833455213353594,28.070469716953905,-0.4702739749850184,0.45983938767554955,-0.2030385769012148,-0.04961061590372352,0.039293832951602464,0.13823388407967427,nm,0.0
46.05077886581421,-24.131485137253343,-2.4538497932146495,28.33219424868704,-0.509577962865331,0.35688977947367523,-0.3045256278167783,-0.017717289169631587,0.02859949860104247,0.09386344176067708,nm,0.0
46.07252645492554,-23.19236433977531,-2.644989802820674,27.68010336546192,-0.47268984600744884,0.3115404888821497,-0.11064264686286206,0.14489077198489989,0.016729510967628123,-0.06725541644780082,nm,0.0
46.087446451187134,-22.505561493053396,-2.9476854879227714,26.864396272963813,-0.2320536586672103,0.1049973768053789,-0.15514839370810382,0.16209781769272152,0.0011283591217498164,-0.12111320665707528,nm,0.0
46.089160203933716,-21.410799367947437,-3.1967082202377317,26.106180620327905,-0.13242094105134886,0.09953334836927692,-0.06218047125392858,0.23035690408850315,0.044849961854810945,-0.11012319784243119,nm,0.0
46.11197471618652,-19.822746758292528,-3.2470763636480258,25.5471723270749,0.053349845302027424,-0.10743830500762348,-0.031739138013460594,0.09193577353022823,0.043658185323511275,0.012534101427608864,nm,0.0
46.1273672580719,-18.47922134572816,-2.813810330941072,26.275948888049175,-0.2457996841929147,0.10576062700889342,0.26505439166283007,0.09897552736228171,0.08519589029047796,0.12738020729005553,nm,0.0
46.138575315475464,-18.42554216165051,-2.421401269975449,26.565788619604817,-0.16695196603151408,-0.13591844500789738,0.006754924831783764,0.017494135098072666,0.031339566414488235,0.09951160009967078,nm,0.0
46.14532256126404,-18.236406955434596,-2.3668273699303035,26.560180838223797,-0.29057258640697103,-0.012370850738477096,0.1279828119882925,0.04119705182229089,0.018929539118465358,0.04251735945561468,nm,0.0
46.16786789894104,-18.586529359139277,-2.458323689669061,25.69120930182833,-0.15756427062178377,-0.06449260608269196,0.02303514403762853,-0.022845672715736128,-0.067168028931557,-0.09089508334785067,nm,0.0
46.17510008811951,-18.837413861739844,-2.6670604780494678,25.06745941597553,-0.15921741800377534,0.08126625709754969,0.13495969730054425,-0.015516689210465954,-0.06727510041394034,-0.09995963294699826,nm,0.0
46.19404077529907,-19.464496463636166,-2.752313666152208,24.435893081557815,-0.07631502562867981,0.08993550960467507,0.006597982129406898,-0.06241610544534415,-0.047462644014628345,-0.007708048881938023,nm,0.0
46.205885887145996,-19.539577381543907,-2.578187301097032,24.558025009426373,-0.16537486628417,0.1930856408403765,0.02112352757938322,-0.05729854218179799,-0.018007858336545023,0.052979535820477486,nm,0.0
46.22607207298279,-19.351278859963422,-1.9055614881939353,24.973381325215957,-0.29013643295395364,0.2014818122929197,-0.11314441295995667,-0.027432394076590438,0.007048306235275493,0.07702243452439404,nm,0.0
46.23112750053406,-18.956680937049622,-1.6066241965450914,24.984919784790005,-0.3321204167401645,0.23078535346886928,-0.07817526261627053,0.0,0.0,0.0,nm,0.0
46.253849029541016,-18.031920584695552,-1.3950682649790733,24.17025286500452,-0.22299371413110156,0.16723006833796294,-0.038001764995377545,0.06175822813779477,-0.01102521742088199,-0.06515405034265773,nm,0.0
46.268839836120605,-17.22791570381253,-1.4876079925894596,23.21030620017969,-0.06695125847910254,0.06460724826178464,0.022262190811126886,0.0672935514135085,-0.001564559413178786,-0.053505544556683694,nm,0.0
46.278881788253784,-16.910237291627546,-1.439456421056145,23.038416033597063,-0.0612644134781793,0.0417581294585967,0.049183558091366104,0.05757244746472305,0.012393559606917542,-0.004914019128098874,nm,0.0
46.296536445617676,-16.460478792178428,-1.0116268281623806,23.262472545889565,-0.15013081424262145,0.0299607437423862,0.04598102056533647,0.022718677343909203,0.02555249128953045,0.07268177517038368,nm,0.0
46.31091332435608,-16.28930277660767,-0.6835789567799474,23.382775995295844,-0.20887423305512032,0.04204427581876548,0.02862812426212087,0.008481089396949418,0.02099478725141723,0.06744947163400962,nm,0.0
46.31614112854004,-16.161865413757198,-0.3855716983916169,23.36348438669487,-0.23562497893322462,0.053928506114599636,0.009020299574774166,0.0,0.0,0.0,nm,0.0
46.33818984031677,-16.046293351489886,-0.11943617209170919,22.704163124965564,-0.1697646173046892,0.08743417849088608,-0.0013314063049496916,-0.0084982811401228,-0.029802078009347747,-0.05241113478096295,nm,0.0
46.347312927246094,-16.053303675512726,-0.1337662203147236,22.22637022514935,-0.1154510330522073,0.09836960380793189,-0.007065300050832193,-0.010623275473845874,-0.037350737879802906,-0.06529565151893611,nm,0.0
46.363863945007324,-16.071441606810314,-0.19932103736146597,21.59369703384007,-0.05110996308657229,0.12925009394944756,-0.012648350272524606,0.0,0.0,0.0,nm,0.0
46.37697768211365,-16.00930458472019,-0.12169991912017274,21.578826100422713,-0.10755346366618554,0.12378384641827113,-0.04449228489490901,0.0,0.0,0.0,nm,0.0
46.384928464889526,-15.863062991774518,0.04009979434298117,21.650456445600412,-0.15975640170575672,0.13112568222802223,-0.051310756071214436,-0.0037356374172125943,-0.0045641142395346284,0.05718931107422938,nm,0.0
46.409247398376465,-15.351105555121885,0.4063652607524885,21.6417305296283,-0.2096165011061607,0.11455357825177347,-0.049373235115981504,0.0,0.0,0.0,nm,0.0
46.41096043586731,-15.059176699741935,0.5043014542449777,21.42461877866995,-0.1815862245346808,0.09447059553294423,-0.01137341442730029,0.0,0.0,0.0,nm,0.0
46.433337450027466,-14.5846627853679,0.4683682752585094,20.623113935492903,-0.06743088900253248,0.03687540473275898,0.03236562080290608,0.04544343892209231,-0.01720831639207273,-0.05334427328333646,nm,0.0
46.44260859489441,-14.442126380918083,0.4182171552541067,20.24486051831053,-0.030959144413152815,0.0009239583499176958,0.045173808240072486,0.03917194768241667,-0.015773465715101315,-0.038740922095123836,nm,0.0
46.4700722694397,-14.287481334480649,0.4823466766558176,20.03012610167713,-0.05855110674371861,-0.005734153186849767,0.05807627257089276,0.0,0.0,0.0,nm,0.0
46.471843242645264,-14.238520573225259,0.6429395420527895,20.092721311889235,-0.1155428096099946,0.03321540845059172,0.045238161443059005,0.002395721970101031,0.00013662287069447546,0.05032431744362275,nm,0.0
46.49244952201843,-14.163855722327922,1.0309566403920862,20.013850786816764,-0.172424162747251,0.0802647098437743,0.012763988875482045,0.0,0.0,0.0,nm,0.0
46.497090101242065,-14.121328148613085,1.1469812909164276,19.783991030983554,-0.15452638167758523,0.09691082617148236,0.006742996200484944,0.0,0.0,0.0,nm,0.0
