timestamp,roll,pitch,yaw,acc_x,acc_y,acc_z,gyro_x,gyro_y,gyro_z,markers,motor_input
11.007534742355347,-13.00782714967344,-8.564910975896934,147.18891072337323,-0.09384960833490401,0.20581882988978425,0.05720801376424626,0.1889802643600602,0.2550037623680701,-0.023011754152560956,nm,0.0
11.015440225601196,-13.057610981736072,-10.196521410307454,147.00028739289456,-0.07240389400015065,0.24081666724829154,-0.14689217331418128,0.1862206638186504,0.283163768740771,-0.014705999461531442,nm,0.0
11.04065728187561,-12.94132956300975,-13.020640299478984,146.21116102301295,-0.16543666243151095,0.3381930449264821,-0.35358442130901324,0.14141021001170015,0.2345637076229704,-0.07658425651475623,nm,0.0
11.044086217880249,-12.930008828765184,-14.214818925187416,145.59609549925423,-0.37464257276447477,0.46667661862164367,-0.15812288865445134,0.13291380460166377,0.2135441705906401,-0.0987405557708017,nm,0.0
11.070130825042725,-13.463701943300352,-15.571860931717385,144.61944640926296,-0.6914741360120188,0.660228065744361,-0.21292698953791359,0.12249764148962691,0.048783492721754806,-0.09484447720365745,nm,0.0
11.073667526245117,-14.103736587068637,-15.84648002492378,144.5783712235091,-0.8156063510120207,0.6193956345075283,-0.1769675678447719,0.13323396690634406,-0.012179632594465141,-0.04980335637269467,nm,0.0
11.093735694885254,-16.1181521346985,-15.33578775198052,145.28142553612872,-0.8299770111395015,0.3041557096200992,-0.22612461746698792,0.12166754158624321,-0.1859990215728607,0.02201386594012128,nm,0.0
11.102073669433594,-17.456110250101684,-14.50549837724484,145.83669689942715,-0.7120713789605602,0.11986053151564367,-0.33070209521621147,0.12030114278854052,-0.269037594205234,0.03251912669192022,nm,0.0
11.11119294166565,-18.80780954284579,-13.405190113726999,146.4399202517101,-0.5152134815426476,0.18688605831959834,-0.5512287397051417,0.0962133759405459,-0.3148124305430223,0.03966991591147207,nm,0.0
11.13425874710083,-20.02959901104234,-10.252079226724405,147.38127905631364,-0.3539932779707099,-0.22351275438387733,-0.563547907580021,-0.11243437141635945,-0.33021284945959534,0.05557434116614522,nm,0.0
11.145450592041016,-20.10670263002691,-8.228216859964872,147.76613567645822,-0.14184792617822212,-0.22402167249254365,-0.5364178721296893,-0.20394354439556991,-0.3359108753416952,0.06185144840038602,nm,0.0
11.150365591049194,-19.565850979227978,-6.100821543255508,148.1801774116248,-0.012999429504365284,-0.4452957923921203,-0.22926183980170795,-0.31683476704028657,-0.2897123707351445,0.0962509348237918,nm,0.0
11.172598838806152,-17.549968151599927,-1.6920087204307688,149.36553663706937,0.5234256093847768,-0.45317671829386663,0.14830726731384125,-0.434668374280566,-0.24612812773963394,0.13978665103662802,nm,0.0
11.177258253097534,-15.752092327595351,0.4485169548446652,150.0787641840022,0.8203068939975815,-0.5097540101045918,0.22239624466915622,-0.5272704005983553,-0.17427305030842238,0.14485618583451326,nm,0.0
11.202575922012329,-12.192600020108685,3.802384158241836,150.99833255550308,1.1398514178510424,-0.4102055786530374,0.7621546940704763,-0.4016833749324776,-0.10633261722969074,0.05218639259244382,nm,0.0
11.209155082702637,-10.538132722454641,4.895524770212559,151.03437182897935,1.1868766387887937,-0.28225635505050034,0.8828600148980325,-0.39542507400108395,-0.017376416585939997,-0.021395820702615764,nm,0.0
11.216755390167236,-9.088824807606073,5.4936302384774045,150.66576236651727,0.9995500287529646,-0.30605495876751415,1.221025847046134,-0.3110146132203135,0.050307169270350886,-0.08926155919414511,nm,0.0
11.240534543991089,-8.230803540008154,5.300345060932113,149.41616023688283,0.8271896263702063,0.14412148247703632,0.9550591167860817,-0.018437079008841076,0.09583139664584323,-0.12110611124730185,nm,0.0
11.245356798171997,-8.469523170073618,4.549776685563127,148.9832192293754,0.6453294261895597,0.10375556962079667,0.8637119939690762,0.11795473862125097,0.11859086324854144,-0.07917172079744607,nm,0.0
11.268720388412476,-10.165674058705735,2.0165723375353095,148.76668769987128,0.3364326003477909,-0.05879809808893198,0.5453205094428534,0.3007301683695963,0.15650893217929251,0.014709624674393372,nm,0.0
11.283044815063477,-12.46207633761629,-1.2577235883097075,148.50059660389445,0.117963906073961,-0.18617051359030723,0.10796012872763977,0.37435615529112887,0.18875026995204292,-0.01719739372302852,nm,0.0
11.29291558265686,-13.441673562940554,-3.1081791601635502,148.08972768427336,-0.04239923520151641,-0.22625132994652572,0.0264818078049782,0.36172373989688567,0.2262654337935043,-0.0738716090996101,nm,0.0
11.301714420318604,-14.274396543673463,-5.037635356177655,147.42560837086987,-0.15462163676722587,-0.0993782422101275,-0.15959088636470334,0.34716217191335974,0.25219391090300314,-0.13178746750925055,nm,0.0
11.3255615234375,-14.965334903446305,-8.932051865793003,145.86249289827478,-0.4426024719246102,0.1689216985554732,-0.21903378532341095,0.24802276525018938,0.3133532764043443,-0.14821014921795017,nm,0.0
11.329591989517212,-14.920175988966303,-10.688044142194213,145.23290505095179,-0.5711908940520944,0.3964584332271009,-0.24381524794527024,0.1925627963553422,0.30922612379906433,-0.10333831951974953,nm,0.0
11.353801012039185,-14.695167984638704,-13.719491691286244,144.93890698089334,-0.5904610873707365,0.45984348773054096,-0.2943683717444291,0.1705332437483428,0.2679899619614074,0.01927057557066589,nm,0.0
11.360703945159912,-14.654203199515297,-15.096099772204816,145.0639788403842,-0.6535861500001336,0.4190316424865413,-0.11257137230830441,0.1526222207564394,0.24459727974199355,0.0576227015526969,nm,0.0
11.385416030883789,-14.78996738021314,-16.983479397430674,145.29592854070262,-0.7083430238665238,0.513106626986051,-0.4166869497678327,0.11691601822247188,0.14404031701115655,0.021110919905194772,nm,0.0
11.389266014099121,-14.82526377122839,-17.828286455133895,145.27689129384027,-0.7698514319383551,0.5136051511023042,-0.4351822499801067,0.10261960339866953,0.14960513334249723,0.0033802312842854706,nm,0.0
11.396030187606812,-14.87940883447086,-18.481605543350742,145.12353161421504,-0.7979057287633992,0.4888312679156008,-0.3465318608276638,0.08391328288248606,0.11592094909030339,-0.020509911279865442,nm,0.0
11.417645692825317,-14.960499865075496,-18.868074878785723,144.9616255197199,-0.6486531166159941,0.3731109566754693,-0.3998395801417096,0.0,0.0,0.0,nm,0.0
11.425065040588379,-15.045188673136261,-18.651616960848564,145.19268280157794,-0.5769183143977361,0.27043496182449667,-0.31334708087606183,-0.010917295373362411,-0.030307212148046332,0.041359893585878604,nm,0.0
11.44996428489685,-15.204234409830585,-16.71442435866861,146.3342940356466,-0.23704526175711713,-0.05974452269129302,-0.333620074259558,-0.1236387822478285,-0.19193264152699518,0.10845564038810694,nm,0.0
11.457128047943115,-15.192089315274174,-15.168137165819724,147.03439651275937,-0.03902013310514876,-0.18598205953869362,-0.2757195713388824,-0.17161589478930322,-0.2431069019932158,0.12792225314911404,nm,0.0
11.488093376159668,-14.94628901570858,-13.261514120454779,147.76465387336174,0.1731430561914908,-0.4005815711353194,-0.07413113198690215,-0.24551624036970277,-0.28173791156476136,0.1334055266787477,nm,0.0
11.490214824676514,-13.853480518394791,-8.799202756970557,148.90108967989,0.6113326035389802,-0.48231462989898705,-0.0030423790440613357,-0.34796021717150477,-0.30666820060887967,0.10964724221660674,nm,0.0
11.50094723701477,-12.888831167661206,-6.494627508413895,149.38189629890203,0.7453407311272527,-0.6119693571343265,0.538221826030588,-0.4011828058769869,-0.2838679710853388,0.10302798678581329,nm,0.0
11.507406949996948,-11.77213000501571,-4.441000921076239,149.7675428801212,0.9151582220516956,-0.6084568811073272,0.7349327118505515,-0.40063883060315747,-0.22754795326807764,0.0964800603227222,nm,0.0
11.51396894454956,-10.581750998235599,-3.036272717679127,150.02245288189798,0.9635296990024865,-0.39544741738802597,0.8031990332784233,-0.3474583024481884,-0.10953298056661687,0.08132224714293305,nm,0.0
11.525668382644653,-9.288570025099895,-2.261273441103659,150.11152566320527,0.916754284088414,-0.29851905015768854,0.6950302274046606,-0.3021446516012726,0.008815437424172226,0.031709689603069385,nm,0.0
11.529238939285278,-8.319964277314732,-2.2294809916248557,149.80347072572053,0.8574958001587809,-0.18226738901320158,0.5214062581472632,-0.171431448700246,0.10567720848776402,-0.05110840287755253,nm,0.0
11.542948007583618,-7.87634888441182,-3.1269346395574984,149.0906740429743,0.7123128484611895,0.033472546325016866,0.42960102261838456,0.014646497445028595,0.21397959944638892,-0.13092185942606893,nm,0.0
11.564285278320312,-8.363427641619628,-6.743839959019382,147.17330528525875,0.4264966190321506,0.1737981135883699,0.34255896868258956,0.2970888479253174,0.3028005648374078,-0.19593725630736064,nm,0.0
11.572145938873291,-9.172034753313891,-9.16844594074761,146.33163593680823,0.3306315707232676,0.10810782877495098,0.22319931125793793,0.4008523469928842,0.33190659025374086,-0.16339801708830654,nm,0.0
11.576786041259766,-10.271256086685195,-11.856515037987128,145.77603289684367,0.17716627464027201,-0.00702961820160686,0.20100796583470673,0.48098364326813664,0.33916846818638957,-0.11146362076877335,nm,0.0
11.600908994674683,-12.911585710374244,-16.849838921094687,145.6244274192587,-0.09336876818683516,0.00394584290319468,-0.1322574923144547,0.47562310130232865,0.26841816837264554,-0.054577500922295255,nm,0.0
11.609836339950562,-13.840729508281033,-19.03367828415347,145.60641749878602,-0.3328016785517226,0.07767264698000811,-0.28705905085773437,0.3936708013123091,0.27520608906119265,-0.05233466595384669,nm,0.0
11.625555276870728,-14.642436446701351,-23.245676819363805,144.885649391472,-0.6070926889638285,0.3260425694743836,-0.46551522574382825,0.27973192343688574,0.3408444469136533,-0.10769823835833715,nm,0.0
11.650015115737915,-14.214558460237006,-27.003620018127197,143.361798754131,-0.7007285351989091,0.5224997561559221,-0.21379111681489485,0.15909087439815436,0.32250283466420604,-0.1251015815198233,nm,0.0
11.654707908630371,-13.928632044074565,-28.311179274125006,142.72079505961253,-0.7319963157513878,0.6880058257999156,-0.2799092929157775,0.11837491234121195,0.2539648243411232,-0.09328750788922657,nm,0.0
11.663668870925903,-13.720899006631933,-29.16628876244721,142.48853468120973,-0.8613405311725395,0.9216338699896721,-0.27440725996718485,0.07647087038635791,0.17246445430917326,-0.024802788901426377,nm,0.0
11.682141304016113,-14.348927686837346,-29.286685410286864,143.40862508547715,-0.8606270887654496,0.7662574443595959,-0.4882247257971188,0.07827180077294862,-0.061202427607610854,0.05834945818247812,nm,0.0
11.695987701416016,-15.017584411920907,-28.84090813979889,144.3226048095884,-0.8220479375686596,0.3354413268057152,-0.12989731380217687,0.0431023742858528,-0.12678344415695406,0.10339530918095124,nm,0.0
11.701264381408691,-15.969046211911003,-27.800196439980823,145.25250672425443,-0.8471770154614235,0.13672741414148004,-0.14793757843206884,0.01813012233072784,-0.25265399822405044,0.07141756989494415,nm,0.0
11.742983341217041,-17.796722073793703,-23.204338913850073,147.57847584202432,-0.6532389906744036,-0.11499695169780583,-0.24946626456693713,-0.15031614554219466,-0.29432066751330327,0.09273549821697614,nm,0.0
11.74760627746582,-17.879183933037144,-21.094925395260113,148.1355973346997,-0.39921745488782184,0.05435079349866102,-0.48770502978588276,-0.21115841382286504,-0.35163022255123666,0.08294339997793093,nm,0.0
11.756461381912231,-17.31547920259462,-18.855657164846207,148.89004816881618,-0.20585431068440396,-0.2510686340420503,-0.3126620749319878,-0.3241486502526366,-0.31309392320122825,0.15161142249787585,nm,0.0
11.758183002471924,-16.597030482803863,-16.537002889915264,149.731823599032,0.025328973344665186,-0.34993562365411196,-0.11807637517463267,-0.3548241524104735,-0.3152283983650156,0.18968627812875594,nm,0.0
11.766935586929321,-15.642859360830403,-13.908404414492948,150.65410176883773,0.34506848062170775,-0.3251561482402762,-0.04741250306386619,-0.4219499006239793,-0.3509702944838694,0.21586839682331996,nm,0.0
11.793752193450928,-12.261181135219834,-8.421054216902334,152.65695542698515,0.8357129324001668,-0.5659645842619081,0.2569664771170165,-0.5904839096639938,-0.2785331211547834,0.2533645966191702,nm,0.0
11.797814130783081,-10.394394072404642,-5.9634922566107464,153.50907779497402,0.9259727710833221,-0.6579495717170721,0.6636372288106045,-0.5548049852202094,-0.25694361317307135,0.20229841439484386,nm,0.0
11.820377588272095,-7.390777341065244,-1.413119552069195,154.15211186994605,1.0605497507193329,-0.23543689768453419,0.889976945864332,-0.48203642795864443,-0.23646722002254356,0.018858129666986228,nm,0.0
11.82693600654602,-6.491422710847413,0.26681568389011856,153.86148509431197,0.8512722174674159,-0.13864171592472968,1.2369001485438105,-0.31060766221004393,-0.20969876238855217,-0.07111356575992252,nm,0.0
11.84789228439331,-6.897102089730433,1.7270975020694206,152.77383419453048,0.39902978821244495,0.19745685949717226,0.5910824740760852,0.031499635096271725,-0.09016719067449476,-0.1088504244887911,nm,0.0
11.863696575164795,-9.329496800458138,0.14425349316769845,152.1711437534136,0.06687547218285432,0.2255138035351028,-0.023082809257945393,0.34551996602292206,0.09534914670134038,-0.018398481719912478,nm,0.0
11.87946891784668,-10.638039215492485,-1.6384834152654975,152.10611081379926,0.0008569680772140913,-0.07465891493328099,0.07674898680092135,0.39767699782993127,0.20692378263364014,0.0031829737719815737,nm,0.0
11.881320714950562,-12.044616413691765,-3.9066501332772163,151.9849800922517,0.06372904791483155,-0.17401195570808337,-0.035876590053138945,0.4606569598118812,0.28316846845007404,-0.020814375306542406,nm,0.0
11.904374837875366,-13.792446091166681,-9.085468566024607,150.99312327243,0.01641146877271879,-0.27926989678626035,-0.18095762459994688,0.36087072043645485,0.41288161659233197,-0.1263636561304028,nm,0.0
11.912650346755981,-14.148846378834905,-11.641231733446618,150.14708185743362,-0.05448187716128947,-0.13647133854944588,-0.20927730633074984,0.31231160401144037,0.42544761005233295,-0.16743810775571868,nm,0.0
11.934173583984375,-13.73692076431256,-15.838759162166737,148.48000313927807,-0.4018142988538621,0.3425965896435758,-0.2006102827377534,0.13005339702313798,0.3723240327314086,-0.1225205657444969,nm,0.0
11.94197416305542,-13.266097912337596,-17.293361015330902,147.93670242065133,-0.5264162393595072,0.6155318784762133,-0.2862855194475231,0.07681751491833312,0.309555889562163,-0.06056149150654834,nm,0.0
11.954061508178711,-12.827164931079425,-18.530574772248606,147.73702024252947,-0.6635092680176174,0.7126073739276522,-0.1520647658895366,0.06122501970571189,0.26863882128504457,0.007509997317215163,nm,0.0
11.971315383911133,-12.550761323437671,-20.044723858006794,147.95643369445824,-0.7633639218213881,0.6696929438208431,0.05328561877255682,0.05133203548740147,0.1103990905119837,0.034126048781128286,nm,0.0
11.980106115341187,-12.892508117366019,-20.30698003410681,148.03171216670196,-0.7349625676429908,0.5861185336930195,-0.15802501353822565,0.08215576859122387,0.024935799161113024,-0.008187000791162044,nm,0.0
12.000381708145142,-14.315538677636663,-19.947089516393156,147.99152630919764,-0.8053544735738772,0.3827674392344349,-0.09574612357899713,0.07998570720265762,-0.1383640330637736,-0.07303694715140081,nm,0.0
