timestamp,roll,pitch,yaw,acc_x,acc_y,acc_z,gyro_x,gyro_y,gyro_z,markers,motor_input
14.505873203277588,-14.431179464556351,-3.409526665274542,142.58980227908012,-0.49797086035253424,0.34265031195717915,-0.38401881042645425,0.2110050120863151,0.22637682483596372,-0.23895426439395087,nm,0.0
14.533092975616455,-14.13820351037221,-5.758986089920964,140.91688312259566,-0.7059800443532108,0.7614304531119777,-0.26099879910501955,0.09666497901607646,0.21144235576817969,-0.12632564733282722,nm,0.0
14.534793138504028,-14.011006135151243,-6.468644423744723,140.64634346564117,-0.7253687583053023,0.800080979927851,-0.1751568913419497,0.0721643655909967,0.140339176479305,-0.04082575850949831,nm,0.0
14.559913396835327,-14.357610774764906,-6.850584588683455,141.22574382081078,-0.66648483144927,0.5836506439679279,-0.19749891035201525,0.05018846989192071,-0.012928344813372497,0.0769843119685542,nm,0.0
14.563775777816772,-14.842207492592282,-6.6056391948433575,141.77008528777597,-0.6520458798790869,0.4650254775794757,-0.2339892377123799,0.0465546013967721,-0.08403357478318499,0.08499186090176293,nm,0.0
14.58867073059082,-15.997149374408336,-5.0374793524203,142.68154688143224,-0.5426263551883727,0.1005614351356106,-0.3239313232262138,-0.018755149720191815,-0.21063590783362807,0.06560608501275468,nm,0.0
14.591377973556519,-16.73267693495007,-3.750399381367537,143.19787793858293,-0.4302248432257222,-0.003162595886694772,-0.31394007176384203,-0.03658474503410989,-0.2798381128955563,0.07771193474505626,nm,0.0
14.614696264266968,-17.385909674040594,0.1162258804685512,145.01637486644162,-0.07782091531238763,-0.24227732145287822,-0.3966136709437025,-0.24893681244942675,-0.3390337318566659,0.18858136553669366,nm,0.0
14.622392177581787,-17.16163756401385,2.7043238440387176,146.36464239655723,0.09797063444296143,-0.46155248095419743,-0.33574080381524113,-0.32807457893750885,-0.38877669006123594,0.2438874234542885,nm,0.0
14.629631996154785,-16.60106062259558,5.5963045715638735,147.8854970549466,0.433101998754804,-0.5210713215833724,-0.3748836900850831,-0.4076182292393784,-0.4116311594964978,0.2764484270031123,nm,0.0
14.647591829299927,-13.772236371311507,11.03043282273696,151.0929495135276,0.9306033685600744,-0.8608776185412657,0.4753117852723932,-0.5211546348904615,-0.27452624376994533,0.2279717919280375,nm,0.0
14.666685819625854,-11.76521582167265,12.991733485807453,152.1694474398273,1.236808472133609,-0.6727812806518013,0.5496014803812368,-0.5326823112166262,-0.1449282896005506,0.12763405093518013,nm,0.0
14.668400526046753,-9.121329808495208,14.29662242203049,152.66325815139191,0.9057259256178328,-0.8501154293480615,1.164051851437098,-0.5771439736532332,0.020269263160837266,-0.03094279184841079,nm,0.0
14.694945335388184,-6.475523782453622,15.126306465974698,151.36650164788642,0.646514214221751,0.27413039783440757,0.37412263742484336,-0.182939375299779,0.08711754358033752,-0.2522696683068526,nm,0.0
14.717048168182373,-5.998908144211754,13.075756366068301,148.8795746728768,-0.024114253598078512,0.6399924457731333,0.3435749235406704,0.21063075524872923,0.2154501306405717,-0.22272532515667734,nm,0.0
14.71869707107544,-6.689429342065962,11.051256575996394,148.02782380445078,-0.0035856448213772165,0.6128981188431689,0.1959373118461718,0.32821341327245457,0.28804613744574253,-0.13168990272689085,nm,0.0
14.733208656311035,-7.579783995635667,8.598668914721246,147.66978820924027,-0.04195236386239194,0.14355092626684593,0.5139344529355234,0.41087072501547334,0.33577979926857715,-0.033725695332053204,nm,0.0
14.749987602233887,-10.39802715977647,3.762869187730431,147.52985864305577,0.21186022295723142,-0.2734770941405568,0.1696128181945247,0.46886356898883863,0.2580952351271731,0.026672674634079973,nm,0.0
14.754429340362549,-11.63766432933698,1.715087664963498,147.32150649579083,0.15626823032885603,-0.4198393608293975,-0.0009109224237245657,0.43018204569847196,0.22600411153608874,-0.022521186446400977,nm,0.0
14.779102325439453,-13.12096853326288,-1.742533755675667,145.93722087962283,-0.22101029546299447,-0.058217069126167205,-0.3056171824059087,0.25252475615050757,0.22643739796750448,-0.16228132898591177,nm,0.0
14.782449722290039,-13.214875658355398,-3.0798738648261437,144.93803579746626,-0.3833345053266993,0.18487641358236823,-0.3630840532547873,0.16831469753511094,0.22410440758298733,-0.19418962247806468,nm,0.0
14.805302858352661,-12.657319250599004,-5.2346707670324415,143.47790866038005,-0.6718336318961945,0.6794231717111389,-0.23989941611131302,0.05097843732023271,0.21202246220183985,-0.10941471440953719,nm,0.0
14.81087589263916,-12.254358079532345,-5.771668985841897,143.28199350116054,-0.7929466896175337,0.7192945707828357,-0.06682752490748316,0.000831247437140051,0.14851045011894698,-0.033238023419138424,nm,0.0
14.834493637084961,-12.217932867147036,-6.135436250717381,143.90433823929354,-0.7571080946229517,0.7340526786289326,-0.1807701739982204,0.02887464720262357,0.028921393703096952,0.08846079307146397,nm,0.0
14.83895754814148,-12.479496460973769,-6.04929933266208,144.46551790425303,-0.7802599900077217,0.5585045739302719,-0.11954139107327214,0.03300055684461302,-0.03013060276273552,0.10512035457147596,nm,0.0
14.851575374603271,-13.002786819630439,-5.684869279534696,145.03015692438996,-0.6811255254044964,0.4663742458167041,-0.338395502514152,0.04381297100631454,-0.1053872597681699,0.08915333202556391,nm,0.0
14.860976696014404,-13.546812411024748,-5.1928593347764,145.53947249411715,-0.6436127651323932,0.2976926531314473,-0.3570631192409305,0.033782625442522474,-0.1283665508180979,0.07529385676916245,nm,0.0
14.873278617858887,-14.117219209292571,-4.521428118879478,146.01145827686588,-0.5843254196303294,0.14859124456243983,-0.30935322975866475,0.019181542986831706,-0.16080220035430787,0.06695269273091407,nm,0.0
14.876323699951172,-14.716920604592667,-3.5236810769757083,146.50095085765045,-0.4419259926590345,0.026579097934984912,-0.2913990796837828,-0.010743562878605038,-0.21831350306983074,0.07491233701380373,nm,0.0
14.899437189102173,-15.31957707381974,-0.48229215670318965,148.0749056919094,0.02262561471758087,-0.16892989383785956,-0.42616675932845904,-0.1718739611287325,-0.2790290932179902,0.1675739479208721,nm,0.0
14.905571699142456,-15.026181915035036,1.6097754735273508,149.23691399646717,0.25306095773854526,-0.47953545719630974,-0.24173788907240604,-0.2678100410583366,-0.3131903644129282,0.2072114318658891,nm,0.0
14.92828369140625,-13.410201285555493,6.359400498533518,151.69567418559916,0.9757395127047209,-0.8673394403156441,0.3386616770462922,-0.41882806418904744,-0.29992148408290464,0.1983737045042431,nm,0.0
14.934337377548218,-12.043911733326526,8.471188791909448,152.6551780189205,1.3097797925587842,-0.8979662724654656,0.7520648099850633,-0.4377520305887731,-0.23362085548862652,0.1383730337178221,nm,0.0
14.944038391113281,-10.174755822015117,10.163880729805838,153.17232436786495,1.414327139631191,-0.8140832988995657,0.7912007337279896,-0.483732971156075,-0.119879112927397,0.03279535430243051,nm,0.0
14.96623182296753,-7.735699899492555,12.471259523243793,152.2499456317633,0.8213946413841499,-0.0589001450899698,0.6510505483144303,-0.20093710555122596,-0.1027853312000128,-0.19156944127660833,nm,0.0
14.97543454170227,-7.190194468344971,12.757518528974423,151.10261707290286,0.20038882668050645,0.17308405125597928,0.7358273948404356,-0.12093430404390748,0.013629768859061623,-0.2586613394381634,nm,0.0
14.99980902671814,-8.442632383128922,10.755920908380064,148.94870335534586,-0.2545411612895098,0.6484796669445356,0.10960897134329703,0.31577942033993245,0.15566941906576692,-0.15546493270555387,nm,0.0
15.022302627563477,-10.564148998230582,6.174279984430377,148.18654493566612,-0.18398114789024175,0.05841086805563015,0.23513306216070018,0.4747159643108585,0.3101345656547158,-0.004034398042758396,nm,0.0
15.028072357177734,-11.85257294578848,3.514564481143431,148.07992867540824,0.15147627669841884,-0.08713141435196352,-0.018561360357248365,0.5000455430589705,0.3302709132809624,0.016401244025452982,nm,0.0
15.040979385375977,-13.135598057948005,-1.2418613928383244,147.31102099812128,0.10137146564555641,-0.23363758673328036,-0.1828499303942605,0.30719894130284214,0.33506010439880035,-0.08488227785630091,nm,0.0
15.051370859146118,-13.212356697180004,-2.895216421639143,146.43717354798926,0.1985995728500402,-0.25422526773096593,-0.4414338903241589,0.1944871842729221,0.283017955145364,-0.15840954497129578,nm,0.0
15.073545217514038,-12.747481699642007,-5.979557118827318,144.48539124830745,-0.3459998554397396,0.33504455320876364,-0.12712122611193544,0.10493805428867993,0.27693344820686294,-0.1666229176178251,nm,0.0
15.076814651489258,-12.482573977398287,-6.73371811031185,143.78842609792022,-0.4518237906701659,0.5524812711065034,-0.20766653304971291,0.04682742728222193,0.1675764355059026,-0.1253362548514893,nm,0.0
15.097115278244019,-12.273696250505992,-7.8246506207843085,143.68321363749962,-0.7546664887595742,0.7613969741501233,-0.14666652638708363,0.05413842579675722,0.10391938789811751,0.032020900545481235,nm,0.0
15.121801376342773,-12.74498331021711,-8.186494133579213,144.31696358042998,-0.6567293732154529,0.6079078537164084,-0.36673633820811447,0.06344767388633618,-0.001073865189559092,0.05195274533212928,nm,0.0
15.136524200439453,-13.61080887016814,-8.394505262133626,144.49761577227522,-0.688576888039071,0.41868173400840486,-0.3342456415227313,0.08056871777044439,-0.03658184636690895,-0.015718241552867187,nm,0.0
15.144313097000122,-14.06927832179441,-8.153523093140569,144.4758546530207,-0.6307150252476855,0.3415146321330839,-0.44192828341555573,0.046869750429501346,-0.0776357885100341,-0.03421209666564801,nm,0.0
15.167972087860107,-15.052109054733359,-7.160742836672435,144.90253762660348,-0.6264263655714486,0.23485607358788754,-0.37617551786360537,0.01677792873827531,-0.14565758070949075,0.03732600551138317,nm,0.0
15.183490514755249,-15.814372446245581,-4.887648730765142,146.45465482178827,-0.41021539759364306,0.14250932549455453,-0.5467322199786444,-0.11176032827180023,-0.22144772564721044,0.1681865525495445,nm,0.0
15.20058298110962,-15.711159651746682,-3.3821591466397782,147.57779947096984,-0.3514189734373435,-0.13462848496768948,-0.4058297242922888,-0.18101055096017407,-0.227368818606967,0.21126964595731215,nm,0.0
15.20874571800232,-15.517520675725295,-1.6011342524378316,148.68687514858152,-0.05462431463614015,-0.2196801403261402,-0.5063423472149096,-0.22098884864379362,-0.2682122573316318,0.20655145594925217,nm,0.0
15.224646806716919,-14.194916778314578,2.4368404845997933,150.34368562633395,0.7707768971684948,-0.7241979873977757,-0.06980793546368683,-0.33806652881543525,-0.26365109340288523,0.12158003888403592,nm,0.0
15.233392477035522,-13.256286843054674,4.57228152760283,150.76265653132492,1.29779423934268,-0.8190219701892006,0.26178275501466647,-0.37371922239889044,-0.26622323306743684,0.05352717163733004,nm,0.0
15.237960815429688,-11.790287217405679,6.7961814041924695,150.87988426872175,1.7408748322604466,-0.9691053975050947,0.5971150969701268,-0.4722808283987284,-0.23258016672612072,-0.02089079714173321,nm,0.0
15.248686075210571,-10.141701472114923,8.947756554438568,150.6792969275493,1.6347786046549346,-1.203703221191446,1.3249866103413546,-0.49572686576994607,-0.20263811275187316,-0.09686804351483566,nm,0.0
15.271767139434814,-8.165532321277901,13.288542421312759,149.2242371916661,1.195486807717726,-0.24392777116732772,0.9852858985859124,-0.4055560182006089,-0.25897967475949774,-0.24094228917945934,nm,0.0
15.276506185531616,-7.552338718679908,15.228004679495426,148.1727584718853,0.42593242718381197,0.024238321489501967,0.9511154425722722,-0.30217797037585115,-0.2569543781157979,-0.2723790651869462,nm,0.0
15.305598974227905,-8.840741009468058,17.276976135185482,145.90158945227222,-0.3937473428080882,0.5511080986751152,0.4015511006487556,0.06488343350878108,-0.17683245656398439,-0.18374187013173368,nm,0.0
15.307279348373413,-10.20978443728311,16.94105576907201,145.05422872505216,-0.6617573884284594,0.4905301155895711,0.4026495588908973,0.255802919810745,-0.07955731820878449,-0.09954334346640517,nm,0.0
15.315999746322632,-11.876146805724703,15.807681844413608,144.36823504602083,-0.5281491315625841,0.33987365949594134,0.18898060810849282,0.3942615835515389,0.013625096300086209,-0.03223527536435534,nm,0.0
15.323638439178467,-13.415256459514733,13.974927845896046,143.827981083257,-0.4248467858960345,0.03129001456193478,0.11067611781731762,0.45844352423533086,0.13581347137721922,-0.005325097804800205,nm,0.0
15.388086795806885,-16.356122549592722,8.08151699384901,142.2228821533093,-0.12085520297881841,-0.192429153243931,-0.15744928062892016,0.3552817098120433,0.2342236799051413,-0.06305730775504269,nm,0.0
15.389942407608032,-16.75437168464345,6.310272161089744,141.81831072364267,-0.22514064257354424,0.016578940220581737,-0.14621823717835225,0.2828059659460593,0.24472313624714145,-0.050734597807981945,nm,0.0
15.391589403152466,-16.646863551249353,4.414371815473054,141.54501356164,-0.3790199785859409,0.22211540650309586,-0.33356244001422813,0.08775963309201809,0.15334357842479718,0.02312573034929728,nm,0.0
15.393620252609253,-16.354600877289915,3.6660404613155086,141.87636362846825,-0.574475920961335,0.44822249491013444,-0.35470267764191804,0.04906502333363197,0.1679110867439793,0.08615622717978516,nm,0.0
15.401148319244385,-15.834681658072933,3.1583551927674303,142.3689369359949,-0.6926139470458887,0.46867520013298797,-0.3020110904035794,-0.01773986235641323,0.15825903454096366,0.1147682368637658,nm,0.0
15.423754930496216,-15.102629015841348,2.21401423636046,143.31172161046752,-0.6416018143944361,0.5168434065770926,-0.3329491630348605,0.03417930811055951,0.119671391900803,0.11272620118475399,nm,0.0
15.427698373794556,-14.852652811554956,1.8045919942872632,143.64946816779334,-0.567840081843741,0.5345788777328361,-0.25338743399936897,0.01005367312319384,0.10986803269236951,0.09221525567760169,nm,0.0
15.438187837600708,-14.599797474548348,1.655952680234105,143.97858962398294,-0.4741211058383249,0.3843083091668065,-0.14053364169903348,-0.021976214475849427,0.0681441719176079,0.07846456370563316,nm,0.0
15.462316274642944,-14.456111965101877,2.151178988675737,144.85877825935148,-0.2503810625951926,0.3218869798405526,-0.2309799394447051,-0.06756199880776045,-0.038939902475830485,0.121645866494191,nm,0.0
15.469090223312378,-14.406628046533045,3.025585087631547,145.49394262735936,-0.18476519661887894,0.18137574817919458,-0.18811250392614096,-0.10737881737186213,-0.12371578661891777,0.15633898900097673,nm,0.0
15.476409673690796,-14.383080653969035,4.326874338711196,146.39135015886689,-0.03392194823762748,0.11755805422440904,-0.31651370580999977,-0.1491403750834996,-0.19900011044508192,0.1840566553422576,nm,0.0
