timestamp,roll,pitch,yaw,acc_x,acc_y,acc_z,gyro_x,gyro_y,gyro_z,markers,motor_input
56.50080871582031,2.613716771522634,6.538237180023346,5.674421986812187,-0.538434142912984,3.079197961271566,2.060002654984088,-2.416195768749836,-0.39396772793970714,0.3011865987864438,nm,0.0
56.52482604980469,-18.625848016461223,4.770378009529034,5.849885427204672,-0.5361860790893205,2.5950213034185468,-0.9715060158273506,-1.8805156122741338,-0.39609704777668764,0.20746985794787307,nm,0.0
56.53026366233826,-25.808675905588622,3.813086737440109,6.2713977388694095,-0.13513917033080292,1.3484403891491887,-2.3025045404690125,-1.3973338082807356,-0.3533261001535371,0.19183387888257958,nm,0.0
56.58615827560425,-29.782331278786977,3.0259222176898484,7.769687590230557,0.461089551683246,0.03872508517559758,-2.6032401201567996,-0.026456252495278564,-0.05173171539871158,0.17188735521526236,nm,0.0
56.58987903594971,-19.43300594852508,3.361588972374463,9.820752119304068,0.21054527507788212,0.05475221522598577,-0.6215016683008784,1.4140878724413277,0.26452711579422694,0.12799146110102427,nm,0.0
56.5932776927948,-8.663617106261503,3.5742059520397884,10.627684388887698,-0.06271798381357215,0.33682864948473223,1.2462945683160125,2.1200878076942598,0.413407206702727,0.02694303911838211,nm,0.0
56.59486675262451,3.8813371187073455,3.772087835012118,10.797061832859425,0.1761173693779376,-0.4770727443795433,3.665654536266418,2.464792383810184,0.4952857474539269,-0.13341392108339487,nm,0.0
56.61524724960327,28.96307087836518,5.391514663338893,9.234199107202603,1.2513389630543317,-2.835343260979657,2.196884243990278,2.4132583803908454,0.6332731578166564,-0.41284111483037894,nm,0.0
56.61689829826355,39.684260145705046,6.989499847097424,8.33694899629748,1.4240861086328158,-2.856396981457007,0.5680024662363826,2.0673886889659014,0.6367285556190698,-0.4226013425864752,nm,0.0
56.6249315738678,47.78755307496091,8.415027429054021,7.634407169552892,1.255103809101539,-2.143067066299155,-1.123343327567535,1.5589055521273407,0.50249055760391,-0.3706766426837795,nm,0.0
56.649649143218994,56.09356002960724,8.763248072268826,6.219491116725931,0.29648623342308145,-0.7691563982753676,-2.061434062850076,0.5648577836664491,-0.00019015539242252342,-0.2567772224936784,nm,0.0
56.65302658081055,56.30559129243933,7.763289321355264,5.32719373191521,-0.31533231892660024,-0.7115414053785704,-1.564128163597324,0.0678098153110902,-0.19658269472460665,-0.19786746098098434,nm,0.0
56.67936730384827,49.695166451637036,6.09558322085292,4.094524948813047,-1.5929013455210408,-0.12486710906565614,-0.13647157791224065,-0.8737516757416945,-0.19053396555332044,-0.0125099947198934,nm,0.0
56.68259239196777,42.85263875286601,6.087719029945276,3.630298131088262,-1.6671212492385454,0.05367567999837126,0.7060096070205668,-1.352710287079891,-0.09784095800250078,0.040423488898542644,nm,0.0
56.70548415184021,23.993515459669066,7.145463994643909,3.103199499122567,-0.8171273428190668,1.0209848992164143,1.8868546518498273,-1.9746524582155245,-0.0071142617491124945,0.19661146078114453,nm,0.0
56.710453033447266,12.910513998150087,7.292804999776299,3.242247950259171,-0.28222014172229276,2.074770394253613,2.424365820451866,-2.1929978434851987,-0.10203971792262531,0.2983230233303025,nm,0.0
56.72110962867737,1.1320766761663312,7.07196074850507,3.7960692147268005,0.1007367296661683,2.8324124978128373,1.4009032911828885,-2.325551487437219,-0.1983948863155436,0.39927328605596035,nm,0.0
56.72865605354309,-9.855732767729835,6.878634716796862,4.664545418167415,0.14568328175011477,3.3412409738708546,0.6223180975612869,-2.167290804448293,-0.21102521075196864,0.43669858140207485,nm,0.0
56.75212478637695,-27.576581578279146,5.762932262565349,6.04504582640063,-0.22666276068437413,1.6375706107887327,-2.389854990190379,-1.5405547368097827,-0.3328557853707516,0.2834502825105349,nm,0.0
56.7579824924469,-32.29611156368629,4.323644942242026,6.308364666744021,-0.1771786379637389,0.773213733325153,-2.77206177121492,-0.8961221758554339,-0.39904259508215534,0.13699764639066378,nm,0.0
56.76698923110962,-33.875134586236896,2.5637552911543096,6.160313465745924,0.040536881170285075,0.15455383515184973,-2.6752303541947238,-0.26672315008847,-0.39591839826982045,-0.008864527313686704,nm,0.0
56.77656126022339,-32.19548951936959,1.0775404963692436,5.550231062488268,0.35069839140908804,-0.6694030605602347,-2.427352339495384,0.37337053095910117,-0.27322877489575026,-0.13121165178707533,nm,0.0
56.7999701499939,-16.673250102387748,0.8882789452871478,3.851620288316974,0.42653903921848374,0.09872658377176438,0.5285898798467061,1.9337950436478288,0.21847757644456106,-0.18741658562917768,nm,0.0
56.805755376815796,-4.320704018494063,2.0251553257965056,3.444133175181165,0.6343644519005948,-0.19813890703471715,2.8926261238564974,2.461268282987715,0.372409575536233,-0.14857593208326508,nm,0.0
56.81844615936279,9.230493154831835,3.329300461725572,3.5411930869923802,1.0820065716831047,-1.8247705575371818,3.833157004561402,2.697386140118566,0.41464328342419915,-0.11461178495690111,nm,0.0
56.8313524723053,23.183799717785586,4.440379875664204,4.024097353598687,1.3909896564406972,-3.09451467592435,3.3216870392057847,2.7742181540861175,0.396856299427472,-0.10272743723907292,nm,0.0
56.855445861816406,46.42003065146924,5.817660403747473,4.964109659576044,1.0353064964259142,-2.6285639116468755,-0.453737923610736,2.08700555203169,0.2810725373507065,-0.1419358119347429,nm,0.0
56.85719013214111,54.225915450184324,6.1918522637729945,4.932686965336606,0.6605935515634743,-1.935077979860379,-1.2158432779839716,1.5484340243165922,0.20659979887279897,-0.18266843020243576,nm,0.0
56.86347007751465,58.624894754229324,6.537931150344352,4.41493797713671,0.05062970311879562,-0.9899594597650211,-2.000364302683689,0.8729084414364098,0.1392102445458827,-0.21434624046324152,nm,0.0
56.88654088973999,59.231909526531375,7.4917724985491905,2.5996822074625117,-0.9347290112548047,-0.5075236346694274,-1.4301521074213486,-0.1851873272342725,0.09962186825863191,-0.17275173580651682,nm,0.0
56.89100646972656,55.74783546299366,8.168797776559607,1.928668728564496,-1.3339728200297258,-0.1372900338506234,-0.9714725066148454,-0.6902590865014325,0.10606781198170562,-0.05243032611514977,nm,0.0
56.915425300598145,42.01553170886772,8.920075944771055,1.61218264386149,-1.0104626251664035,0.07672747268939897,0.8554865878258174,-1.5686551176920138,-0.003720510958874336,0.24685889809371314,nm,0.0
56.920899629592896,31.999267317319326,8.943563469932302,2.396462915328994,-0.6486249267689228,0.6788208239630166,1.115944268743171,-1.9743418842496763,-0.0713040776373921,0.45674461451253295,nm,0.0
56.9455668926239,9.416303126454277,8.584779586701902,5.338792026527959,-0.09020822967035133,2.817545728588535,2.5933574421122496,-2.3083695993926523,-0.23676746941127141,0.6568190063681718,nm,0.0
56.96929311752319,-14.747279860901656,8.359140493916156,7.136600415316122,-0.634561147353301,3.7204168664917274,0.042263930701865376,-2.294081314164409,-0.33008548427623513,0.3909453360754023,nm,0.0
56.97105288505554,-24.985158050158443,7.280102464485339,6.714872990389336,-0.9172538755175594,2.770818289528756,-1.701475055677304,-1.9804796547223358,-0.47423503024990066,0.1484033010252389,nm,0.0
56.99493980407715,-36.76882412150979,2.2297043679129014,4.256013448867301,-0.1864921051898049,0.12937982219572905,-3.121834022623087,-0.7430161013091394,-0.6370399960788152,-0.21190527638066828,nm,0.0
56.99672603607178,-37.1921723477244,-0.09842991701581555,2.7705180389235706,0.33170118347859173,-0.4219164081252437,-2.7413908420507886,-0.04805689409338635,-0.4822021781033507,-0.2930183796281169,nm,0.0
57.025118589401245,-26.65404933343492,-0.6046916799502609,0.18160561329369504,0.9168324927589406,-0.3802592809379519,-0.7537389029231482,1.4791828218402383,0.1151862239872686,-0.19489553215068112,nm,0.0
57.02742671966553,-15.544151819021838,0.9364497040604153,0.028895425055254078,1.0380872033065394,0.252644455455812,1.3947071303053793,2.2315355871340383,0.2994509838325423,-0.038836502602122146,nm,0.0
57.04278349876404,-2.346294837014415,2.4402447947135117,0.8891553903115598,1.3619529746634915,-0.43004805001141444,3.62294072557374,2.646605199073406,0.30951796389708025,0.08875497682452423,nm,0.0
57.046790599823,11.534185459960444,3.43680887958633,2.329348610213687,1.6065243744871218,-2.171046613600453,3.903905266044118,2.7765458271071966,0.2666430474027384,0.13685333965043064,nm,0.0
57.065197706222534,37.21340312023003,3.9824194561077872,4.676310285507939,0.934268133901327,-2.9239570907415344,0.7122492006704596,2.3820494007035378,0.18478340955543907,0.0006068734457306009,nm,0.0
57.09347486495972,53.244907136714744,4.51556772995762,4.245668229701483,-0.02764094894090196,-1.867858112940338,-1.144546095609742,1.2930121752789476,0.19328094775950383,-0.2125209781487548,nm,0.0
57.112735748291016,56.51959429449207,6.739417991050019,2.755962047086855,-0.8433983378762757,-0.7290305553132821,-1.9136513491951002,0.0598033435552533,0.24860953583313258,-0.164217093710808,nm,0.0
57.114609718322754,54.47701812448075,7.8231820206928635,2.262461227597694,-0.9456792249869349,-0.6348694831029456,-1.185540001360596,-0.4090255887464165,0.19674515175791737,-0.06004402188751117,nm,0.0
57.11986827850342,49.74021571532029,8.406069016679739,2.115180059440401,-0.9122428444041282,-0.33200808911020163,-0.7192199139164445,-0.9370264087123041,0.07742124688591694,0.09153069419966087,nm,0.0
57.14539909362793,34.11316374987724,7.740290634421262,3.4937202053137355,-0.40318329844962086,0.3906787648055638,1.1854391340536037,-1.7311106171892172,-0.20951025456580244,0.4353356121619833,nm,0.0
57.14826798439026,23.70491431109995,7.134205843459509,4.945568736775418,-0.33730086377628066,1.157922606195197,1.6509429995925158,-2.0453688118404316,-0.28056162341596824,0.5496981023897156,nm,0.0
57.170387268066406,0.4053411484186285,6.28860720968544,7.006910907745877,-0.6896753324274184,3.509621495519905,2.126361156748492,-2.3829334765670986,-0.36621606576736293,0.40431124592043666,nm,0.0
57.17620038986206,-11.796408825093021,5.717227191972693,6.675512250797777,-0.9780964350064838,3.7660261136401147,0.6621594300147552,-2.3905522360396065,-0.4138359998811511,0.18607562975481265,nm,0.0
57.199193716049194,-31.302969559577214,2.1564248253274294,4.547581399190914,-0.7601779425841375,1.7280956789369393,-2.441877718618066,-1.6772751327711353,-0.6150393699325444,-0.1679679066660768,nm,0.0
57.20481586456299,-36.738992259168704,-0.362129536190096,3.3667329738509597,-0.14294491773976065,0.4038761044999097,-2.9067636849154495,-1.04300914452666,-0.5894946884350224,-0.21643595595263232,nm,0.0
57.22845196723938,-36.76712378165277,-2.808926051861817,1.4200904750010734,0.7615783321045622,-0.6281632195464439,-2.3085777260384748,0.3448266915647906,-0.12501444302814943,-0.1632636758779722,nm,0.0
57.234482526779175,-31.479255403702464,-2.262095246445747,0.896118246188835,1.0041336125128597,-0.5881407520526426,-1.4571138780561477,1.062904555536104,0.11860304046883847,-0.05607429041843896,nm,0.0
57.256797790527344,-9.927065941073781,0.35207372521069147,1.7528656196509518,1.210448644424535,0.38865185913081446,2.58005268103619,2.4767463225370077,0.31219393949430746,0.1616821635838541,nm,0.0
57.263450145721436,3.550858925249582,1.2892761576730636,2.8448033173314844,1.365430778828515,-1.0852946174199527,3.7390403648794313,2.696790650907511,0.2842654458383001,0.1730947354554822,nm,0.0
57.2855589389801,30.017678619746825,2.3000821665093936,4.681609614821981,0.9396665535075356,-3.099411580439897,1.8222446484999761,2.5490974169124705,0.2656015803868195,0.047345394236295954,nm,0.0
57.29107737541199,40.795790290597196,2.7704493202652487,4.9720931998618605,0.527135620856925,-2.639874717137997,-0.04027561076009723,2.147820483677116,0.2703204309982619,-0.04904124207486868,nm,0.0
57.318780183792114,53.8477575291187,4.582219809397898,4.437003769119004,-0.04585253671642706,-1.5510622567810854,-1.69639655644027,0.9576632164754344,0.29185194956918614,-0.15933692589115456,nm,0.0
57.32450747489929,55.818800805381365,5.828503233595919,3.9952468768221023,-0.32013365113936665,-0.9293119647239771,-2.0815044346603826,0.3799089553030687,0.27597198597975653,-0.13717897445355604,nm,0.0
57.34251546859741,52.56747292085374,7.608942931760079,3.2498439487419106,-0.6428014204197582,-0.44965037653878454,-1.0915077864601441,-0.5710899871489803,0.1008682464516811,-0.006379210331532016,nm,0.0
57.34718322753906,47.378849933200456,7.7631809072288,3.138540370433906,-0.7507739513425411,-0.166249010725206,-0.34827696176229356,-1.0237581811062009,-0.030212063382175088,0.10403125220580713,nm,0.0
57.37128448486328,30.674672390037134,6.9426591864385845,3.9795571722643883,-0.6777382256603245,0.6551017429957843,0.8052251067516657,-1.8258959217203368,-0.22194624382493577,0.35029686863098314,nm,0.0
57.37691140174866,20.755598474799548,6.43808380401719,4.968175652680631,-0.5759122867542368,1.393940078943834,2.135625832685646,-1.9517721131809191,-0.262591186686112,0.4193809540405221,nm,0.0
57.39920926094055,-2.2603746626948906,5.384950049284332,6.5473296944363515,-0.6088932999993892,3.2246768386117393,1.31392766193269,-2.326050058833044,-0.37175952099984244,0.35479020772611214,nm,0.0
57.40436577796936,-13.20385791150636,4.788971785828866,6.918869199551329,-0.70244028414703,3.5423045284698964,0.34379415043284783,-2.1446331063510002,-0.38820011033677776,0.23484904884755825,nm,0.0
57.423704862594604,-30.456894820493375,2.191402319054931,6.636901370056878,-0.2573726145512098,1.4043308252865638,-2.439241087352539,-1.4488751014218346,-0.5020042163397077,0.023420578577935693,nm,0.0
57.45797896385193,-32.89574575415874,-1.6412279233781113,6.181478850158166,0.5844831939592647,-0.5190694214205654,-2.0356142171317186,0.4928829865103397,-0.0956189893964262,-0.0008793064913531037,nm,0.0
57.47336149215698,-26.532286218445094,-1.4492867664310691,6.340563013813609,0.4346872630049396,-0.26794943401241456,-0.9885789581958607,1.2706877241406505,0.16557546649840454,0.06693802388431477,nm,0.0
57.47504782676697,-16.342643892569193,-0.6268367338993124,6.74776882459155,0.15323762184129602,0.22764755605480766,0.7115674341565564,2.0168858201925906,0.3843462941833134,0.11674068234814616,nm,0.0
57.4813392162323,-3.6230641654387425,0.33426811339377427,7.21282745532202,0.13652738718444904,-0.09530532359446216,3.1429259785041683,2.513647787823649,0.4891596367904262,0.09489899279148832,nm,0.0
