timestamp,roll,pitch,yaw,acc_x,acc_y,acc_z,gyro_x,gyro_y,gyro_z,markers,motor_input
6.012501955032349,-15.062668870060806,-1.9661622491982953,151.19166756362773,2.4001245515114276,-1.2612995489609249,1.4007941141862745,-0.6081135467830899,0.02321660248658946,0.05430692248929055,nm,0.0
6.0148186683654785,-12.50534471404657,-1.6087647843327795,150.6215447986684,1.962298732875179,-1.0999352971817031,1.7620673189043587,-0.48235943119321956,0.2012013097060773,-0.07206520961416252,nm,0.0
6.03978705406189,-9.861056856364572,-4.20663991558696,148.3954690315411,1.087712558913786,0.16599461080628647,1.101775968471679,0.0014519951369606743,0.44098572951549014,-0.19370356456082347,nm,0.0
6.046709775924683,-9.272140309486957,-6.730855553730417,147.4422531545599,0.6656417003122952,0.35591176151701165,0.9732666195171886,0.16949773515176353,0.5046919800431234,-0.15529953251632886,nm,0.0
6.070044040679932,-9.773541038007945,-12.76689910380527,146.80447125813544,0.2733525077852517,0.46877164691458467,0.4655844296586842,0.40220834102232633,0.4970992991247966,-0.006334881541700252,nm,0.0
6.0736916065216064,-10.665399954479389,-15.832234825326278,147.06670965419588,0.18123845067169925,0.17253576107124882,0.2056321557098018,0.4800784792221636,0.4341429804891117,0.020130256616866828,nm,0.0
6.095388412475586,-13.63405585856895,-21.371483091290067,147.46682401437718,-0.15114016158967244,0.0397142389748319,-0.24673580119794555,0.5226547866709182,0.3019201559427169,-0.0870098620218927,nm,0.0
6.119731187820435,-16.785346218011533,-25.856774363171176,146.59456011154057,-0.6535191134410746,0.3202231786248369,-0.517988856844445,0.47406154751516366,0.2238494659694876,-0.24452446692167723,nm,0.0
6.121570587158203,-18.263326975537012,-27.889093342833817,145.90340817403398,-0.9217239955609453,0.49249226993351797,-0.4388017208605425,0.44663804752409536,0.20588667645034425,-0.2697446163755472,nm,0.0
6.144967794418335,-20.744492844715193,-31.122437676956086,144.745211001604,-1.2451306801145452,0.8185335183357819,-0.46805071673682763,0.32059371363514344,0.14829092988304263,-0.18761482878764976,nm,0.0
6.152620553970337,-21.807261136627922,-32.31954207125474,144.4540934349486,-1.3518743598324467,0.7611453272420619,-0.41055175042789577,0.28845432957955514,0.10401943730810895,-0.13628024886954812,nm,0.0
6.169809579849243,-23.70879915822209,-33.36464619712324,144.45536002181322,-1.3101815598282218,0.7522213900721056,-0.5838611974106022,0.14120459569792726,-0.020447608657605813,-0.07903634264814118,nm,0.0
6.175992488861084,-24.267065069767323,-33.17098526674529,144.39038490448633,-1.278133397106226,0.6578707194234652,-0.6249672469837487,0.05567380010690157,-0.07224737382744534,-0.07021241545951694,nm,0.0
6.198913335800171,-24.60732902231524,-31.20933833703979,144.12154413983797,-1.159543175727315,0.5548456727489707,-0.570249133016834,-0.14688898992415317,-0.1935472642920356,-0.050617875082597075,nm,0.0
6.2199461460113525,-24.08975291599289,-27.01119544567013,144.3307525210843,-0.9391730886715649,0.42398625800890344,-0.5131414140282775,-0.32054884762860403,-0.3356831416534039,0.05031717233756449,nm,0.0
6.223224878311157,-23.594852733568842,-24.13090742920313,144.90639613307437,-0.7423006690275531,0.22273156338587535,-0.4406434704404581,-0.40466350734448375,-0.40500504299403217,0.12773117375018264,nm,0.0
6.237499952316284,-22.975161068761977,-20.78031088102191,145.86973423676778,-0.418210524761885,0.014293194674840151,-0.47138358984474615,-0.47325326561690245,-0.47389072885117905,0.1918290855844605,nm,0.0
6.243016719818115,-22.166984704541605,-17.126263544810175,147.15810977618108,0.03086652271710544,-0.27486116742778427,-0.45789196353710626,-0.5290870531209352,-0.5130771163718535,0.24221262140260402,nm,0.0
6.269807815551758,-19.906135995380232,-9.662188200338775,149.74751974570896,1.1202558862177932,-1.0766129763884111,0.273611517102399,-0.5863938901898628,-0.499654310463144,0.2561121024226539,nm,0.0
6.2715981006622314,-18.280079981599517,-6.2438224974588525,150.84543444319755,1.7124799807736586,-1.2922182632573842,0.6635581702165031,-0.6192090462099537,-0.42115020286466515,0.23163365865580188,nm,0.0
6.2940051555633545,-14.26696254293671,-1.8791078027955126,152.24155238614716,2.068459392519813,-1.3617862836000412,1.2668288047258018,-0.48299636232482923,-0.10790050301953208,0.11240818603540817,nm,0.0
6.317456245422363,-10.93076516842832,-1.8326471119993522,151.44040673782817,1.5092967756822797,-0.8293366186665249,1.374984521706697,-0.2300300179603657,0.26760122886808585,-0.10592556453652728,nm,0.0
6.319107532501221,-10.253485850383143,-3.5002839671778743,150.2202234201744,1.0601260110507618,-0.23080683006963723,1.1056879443495304,0.044358603122258075,0.37177023978647006,-0.2092421136347608,nm,0.0
6.346114635467529,-9.925788658227974,-8.582093698083737,147.58249669545333,0.3674933300178887,0.4758373503664726,0.5964552490009779,0.2794748132367836,0.4903975470160147,-0.21979115237784758,nm,0.0
6.34805965423584,-10.195720493961815,-11.583771218182111,146.73062787371651,0.15374294760351268,0.7131458692316429,0.3844237761430065,0.37166439978209137,0.4897815872238818,-0.13713937951004665,nm,0.0
6.3560614585876465,-10.777121061098596,-14.542335650160233,146.5348759654705,0.15672764986548934,0.4612547888897957,0.2773933767157098,0.42115014373891707,0.4463175145025609,-0.03955471643642197,nm,0.0
6.365464210510254,-11.9468580664036,-17.46896827064887,146.76010277688226,0.10203191429471356,0.33890307633150085,0.07718369348092322,0.5109389312740683,0.37934930759131275,0.016343768712560623,nm,0.0
6.388671636581421,-15.235357370398727,-22.161993235199258,147.55374827708332,-0.1027289711340557,-0.004671227883345845,-0.3115912390104654,0.5044391698308501,0.19362871324718853,-0.04309655156940272,nm,0.0
6.39776086807251,-17.067395233369478,-24.07377512108764,147.58006595945963,-0.30006291944056934,0.07877742175733937,-0.5077270176240756,0.4905055761052233,0.15630107394057666,-0.1289355635841731,nm,0.0
6.417047500610352,-20.258411189254677,-27.563945978466514,146.67202069916678,-0.869974045094603,0.3312139506667601,-0.4233101729875767,0.4136476626692244,0.14418078256382455,-0.2578075404417233,nm,0.0
6.432955980300903,-22.61142077409031,-30.66315699609595,145.47529001087173,-1.1960966132018411,0.8604520707444413,-0.5002444810185372,0.3022053705523989,0.1794037630761161,-0.19122257943245174,nm,0.0
6.4475321769714355,-23.29437878268774,-32.02084538681176,145.18721323249613,-1.3073243245397574,0.7439756744040321,-0.3869421926381935,0.2525838698549512,0.17097024547789982,-0.12499358355478984,nm,0.0
6.451351165771484,-24.010475635324916,-33.07267171162597,145.10018238026137,-1.238126219786167,0.9808092408477298,-0.5733914153596434,0.22157931333411232,0.11747380638944964,-0.09051129565662026,nm,0.0
6.477597236633301,-24.39123484579719,-34.101114441593054,145.0938156066498,-1.0827361031312772,0.6425305136587276,-0.5353703570246489,0.05028800914675918,0.05823737225114269,0.012878492305141868,nm,0.0
6.4809324741363525,-24.36157144174834,-33.91174970038376,145.0376623133795,-0.966808060291068,0.6625443111199621,-0.5427404993825488,0.0,0.0,0.0,nm,0.0
6.502790212631226,-23.882294545323944,-31.76445405221831,144.60762462606687,-0.8944490257434534,0.47268450302984244,-0.33067965274070604,-0.18386322214857792,-0.19003320645703353,-0.029899257551364192,nm,0.0
6.511210918426514,-23.770927228641668,-29.78295812175954,144.58851411322703,-0.891750681546478,0.5144133227007329,-0.27086572543316007,-0.24316669517545486,-0.29878003205973336,-0.016691920056536184,nm,0.0
6.539865732192993,-23.61502324674593,-24.126931443108376,145.42100001588017,-0.7587526851842327,0.335674571112161,-0.2684079829348778,-0.35806916917406556,-0.4858767153456152,0.10575006072857265,nm,0.0
6.545229911804199,-23.41675113668923,-20.66032666456904,146.47508796969578,-0.4724984342452788,0.10887251984414931,-0.3445848305672035,-0.4170271599654205,-0.5411729942699711,0.18523046860501882,nm,0.0
6.54697060585022,-22.957818500605214,-16.928156286826393,147.7655780775765,0.0008851907641726094,-0.24868088566096072,-0.39005801815524044,-0.47715574820969486,-0.5669558384932069,0.24767069321632856,nm,0.0
6.5594329833984375,-22.149260941609935,-13.132840851178974,149.34652322615668,0.7017180380673201,-0.7205471553255594,-0.21127806979080843,-0.5280092434484832,-0.5541031872401085,0.2854540147316215,nm,0.0
6.5788915157318115,-18.889598071776415,-6.5087664347828555,152.11563113370156,2.1832983038977725,-1.6262787908866736,0.8104594707802193,-0.6369602498899968,-0.33538609307895617,0.28936951642653264,nm,0.0
6.5839293003082275,-16.408134957672367,-4.333048032200168,153.02269350921358,2.3436987436681513,-2.024897366631686,1.5948840035221186,-0.6408008189668462,-0.14460659710372334,0.218457789173678,nm,0.0
6.597824811935425,-14.430911914640584,-3.108084818398242,153.17500970437172,2.3560574314236025,-1.3146666866200898,1.2367101092456094,-0.46448436727140324,-0.025652469899994822,0.0545457796190277,nm,0.0
6.618099212646484,-11.058702813524148,-4.310205781471736,150.99305192463336,1.3059009647067674,-0.601987042892119,1.2868938632896323,-0.12285199332455278,0.3746325642495353,-0.26914341694028254,nm,0.0
6.622298002243042,-10.652773666702537,-6.687078654054365,148.9865398706152,0.8457621726148886,0.2403313146855905,0.7211900471193795,0.16803955507890259,0.46677039429054956,-0.3744013675751886,nm,0.0
6.647262096405029,-10.44269887563937,-13.209687307767902,145.49578807980774,0.230412426730183,0.6396578466771347,0.5383974599017202,0.3906506809951339,0.5807945025067394,-0.2802467221558681,nm,0.0
6.6505467891693115,-11.124307191675351,-16.73366208486248,144.65566767311748,0.3612320200036617,0.6542807478615945,0.07694205871125837,0.513287000458902,0.516862096173461,-0.17570919855928618,nm,0.0
6.677051305770874,-13.439602253907095,-22.85533824960441,144.80673777322127,0.29163686363711705,0.017627738017042028,-0.1591284323560822,0.5266049307383611,0.3102521840188862,-0.03232735299350382,nm,0.0
6.685275077819824,-15.131722008832094,-24.79396016687105,145.05044489860555,0.1962064451121245,0.011717901264682314,-0.5681674848659499,0.47763450311861794,0.15378993968050086,-0.07932730834623213,nm,0.0
6.704890727996826,-18.11485457713294,-27.267302948097054,144.62020752484867,-0.5563588973256316,0.1697105297445756,-0.5295559742588309,0.33180052554023665,0.03426560091209985,-0.22406273407154112,nm,0.0
6.713548898696899,-19.510435960020107,-27.96022898257748,143.87044871226743,-0.9478459887932745,0.49853929340152514,-0.4398313685336315,0.2837092827481599,-0.01776039843177536,-0.2956439925829935,nm,0.0
6.73470139503479,-21.45017040659944,-29.26931215486725,142.43200167412573,-1.5991074881929639,0.9297635976913156,-0.2106677977643139,0.1900376394416934,0.04653041507446943,-0.18925484590727928,nm,0.0
6.739206552505493,-22.26695976278362,-29.930241005606433,142.20160650560075,-1.7663957072641554,0.9315566632431865,-0.11656046723405326,0.19583622055679525,0.03164824389850868,-0.12352615203345732,nm,0.0
6.761883735656738,-23.601586760164057,-30.94251404734134,142.7832680825736,-1.605307248158852,0.7079533820364432,-0.3826424328056342,0.12660695614886547,0.036748772720912995,0.060366805805133227,nm,0.0
6.767521858215332,-23.91597504880213,-31.213946122674272,143.28920918742304,-1.4549814023807863,0.4737319420241579,-0.43367098798966164,0.07811131271487501,0.02465439008881566,0.10241262761675875,nm,0.0
6.789294004440308,-23.328407504068505,-30.475027341979047,144.03603747737213,-1.0829597566477434,0.271727298419881,-0.6064372509300489,-0.14728746189399428,-0.025206343535728724,0.12966655255410584,nm,0.0
6.79320764541626,-22.50165696152823,-29.406077059401177,144.25047723892243,-0.9363277288006109,0.2930408153700753,-0.5515572825130526,-0.23976931058774806,-0.07552376812407924,0.12892743041356955,nm,0.0
6.8201329708099365,-20.213723948460345,-25.50336141958464,144.7839392566597,-0.6148536690497947,0.2697575385050035,-0.3623087193529524,-0.4394964576312968,-0.2253797658848199,0.17979122417472018,nm,0.0
6.824320077896118,-19.04986917282574,-22.794837384721397,145.47907157228985,-0.371148806931731,0.22438043814691863,-0.3229802967629874,-0.48315218786971137,-0.30964422984223877,0.21069901301492736,nm,0.0
6.847238302230835,-16.295930392978132,-16.385375279006375,147.3447401193018,0.3082833371543385,-0.38358358471967724,-0.11756127511567578,-0.6123164393720285,-0.38463178454437363,0.2688293977814719,nm,0.0
6.850618839263916,-15.13740115850519,-12.944631523703656,148.02987571339173,0.7897703870525927,-0.6984200505519902,0.1785455115154561,-0.5579745061311283,-0.4478328835003428,0.19567824199952624,nm,0.0
6.873902082443237,-13.091079456031359,-6.498344945669935,148.6280535308053,1.6974184390813511,-1.102846525164315,1.037997261435606,-0.522136442336445,-0.39033640997160707,0.03511093681427826,nm,0.0
6.883708715438843,-12.445512011392362,-4.032849950707975,148.45541973896448,1.8840561361318287,-1.1092996483003486,1.2925861603269948,-0.3671842411405683,-0.3399922419315635,-0.04770881257943635,nm,0.0
6.90021824836731,-12.150202850827897,-2.151477903443426,147.77976908542033,1.6060424067944303,-0.8071657305885072,1.2495343210803584,-0.05660117701945302,-0.03915273186777783,-0.058856564386790405,nm,0.0
6.908219575881958,-12.430265867429592,-2.995924319822236,147.65088109854446,1.4209444643270026,-0.5546259694276571,0.8515296421734816,0.13782424910392607,0.1273258793427478,-0.03040717898915859,nm,0.0
6.932147264480591,-12.986670854820394,-7.520693893128114,147.2844778420568,0.9313807740359652,-0.43665169437198037,0.5506584985880857,0.32839299459840593,0.41996379079740714,-0.02645916217877523,nm,0.0
6.939944744110107,-13.291804356230589,-10.46336565218285,146.77171299323814,0.8478634300209326,-0.2802532382487828,0.08049100098118651,0.37236659648984904,0.4752531145649404,-0.07275113635009424,nm,0.0
6.959922790527344,-13.595308533918226,-16.912778549179368,145.18998630470847,0.32143711384681944,-0.009527073432089363,-0.0782098246757857,0.39167964458644666,0.5266145174398476,-0.13942297836526915,nm,0.0
6.965532302856445,-13.784511769106718,-19.77164804721473,144.36183727793252,0.05521382998101494,0.2063084289501594,-0.2095779908639392,0.36109683670288095,0.4607732433037064,-0.14237008632416753,nm,0.0
6.991851806640625,-14.653548317740121,-24.739906853706948,143.63279493485,-0.558170475637524,0.5111438952475174,-0.1856850244924557,0.37037487100845246,0.3367449895521283,-0.055748440315319975,nm,0.0
7.000228643417358,-15.429240637057633,-26.82484920786239,143.8618467199035,-0.7823128306358571,0.5930158574453865,-0.20405578891719592,0.3610375956271198,0.26807149858441587,-0.007950749900467048,nm,0.0
