timestamp,roll,pitch,yaw,acc_x,acc_y,acc_z,gyro_x,gyro_y,gyro_z,markers,motor_input
15.022302627563477,-10.564148998230582,6.174279984430377,148.18654493566612,-0.18398114789024175,0.05841086805563015,0.23513306216070018,0.4747159643108585,0.3101345656547158,-0.004034398042758396,nm,0.0
15.028072357177734,-11.85257294578848,3.514564481143431,148.07992867540824,0.15147627669841884,-0.08713141435196352,-0.018561360357248365,0.5000455430589705,0.3302709132809624,0.016401244025452982,nm,0.0
15.040979385375977,-13.135598057948005,-1.2418613928383244,147.31102099812128,0.10137146564555641,-0.23363758673328036,-0.1828499303942605,0.30719894130284214,0.33506010439880035,-0.08488227785630091,nm,0.0
15.051370859146118,-13.212356697180004,-2.895216421639143,146.43717354798926,0.1985995728500402,-0.25422526773096593,-0.4414338903241589,0.1944871842729221,0.283017955145364,-0.15840954497129578,nm,0.0
15.073545217514038,-12.747481699642007,-5.979557118827318,144.48539124830745,-0.3459998554397396,0.33504455320876364,-0.12712122611193544,0.10493805428867993,0.27693344820686294,-0.1666229176178251,nm,0.0
15.076814651489258,-12.482573977398287,-6.73371811031185,143.78842609792022,-0.4518237906701659,0.5524812711065034,-0.20766653304971291,0.04682742728222193,0.1675764355059026,-0.1253362548514893,nm,0.0
15.097115278244019,-12.273696250505992,-7.8246506207843085,143.68321363749962,-0.7546664887595742,0.7613969741501233,-0.14666652638708363,0.05413842579675722,0.10391938789811751,0.032020900545481235,nm,0.0
15.121801376342773,-12.74498331021711,-8.186494133579213,144.31696358042998,-0.6567293732154529,0.6079078537164084,-0.36673633820811447,0.06344767388633618,-0.001073865189559092,0.05195274533212928,nm,0.0
15.136524200439453,-13.61080887016814,-8.394505262133626,144.49761577227522,-0.688576888039071,0.41868173400840486,-0.3342456415227313,0.08056871777044439,-0.03658184636690895,-0.015718241552867187,nm,0.0
15.144313097000122,-14.06927832179441,-8.153523093140569,144.4758546530207,-0.6307150252476855,0.3415146321330839,-0.44192828341555573,0.046869750429501346,-0.0776357885100341,-0.03421209666564801,nm,0.0
15.167972087860107,-15.052109054733359,-7.160742836672435,144.90253762660348,-0.6264263655714486,0.23485607358788754,-0.37617551786360537,0.01677792873827531,-0.14565758070949075,0.03732600551138317,nm,0.0
15.183490514755249,-15.814372446245581,-4.887648730765142,146.45465482178827,-0.41021539759364306,0.14250932549455453,-0.5467322199786444,-0.11176032827180023,-0.22144772564721044,0.1681865525495445,nm,0.0
15.20058298110962,-15.711159651746682,-3.3821591466397782,147.57779947096984,-0.3514189734373435,-0.13462848496768948,-0.4058297242922888,-0.18101055096017407,-0.227368818606967,0.21126964595731215,nm,0.0
15.20874571800232,-15.517520675725295,-1.6011342524378316,148.68687514858152,-0.05462431463614015,-0.2196801403261402,-0.5063423472149096,-0.22098884864379362,-0.2682122573316318,0.20655145594925217,nm,0.0
15.224646806716919,-14.194916778314578,2.4368404845997933,150.34368562633395,0.7707768971684948,-0.7241979873977757,-0.06980793546368683,-0.33806652881543525,-0.26365109340288523,0.12158003888403592,nm,0.0
15.233392477035522,-13.256286843054674,4.57228152760283,150.76265653132492,1.29779423934268,-0.8190219701892006,0.26178275501466647,-0.37371922239889044,-0.26622323306743684,0.05352717163733004,nm,0.0
15.237960815429688,-11.790287217405679,6.7961814041924695,150.87988426872175,1.7408748322604466,-0.9691053975050947,0.5971150969701268,-0.4722808283987284,-0.23258016672612072,-0.02089079714173321,nm,0.0
15.248686075210571,-10.141701472114923,8.947756554438568,150.6792969275493,1.6347786046549346,-1.203703221191446,1.3249866103413546,-0.49572686576994607,-0.20263811275187316,-0.09686804351483566,nm,0.0
15.271767139434814,-8.165532321277901,13.288542421312759,149.2242371916661,1.195486807717726,-0.24392777116732772,0.9852858985859124,-0.4055560182006089,-0.25897967475949774,-0.24094228917945934,nm,0.0
15.276506185531616,-7.552338718679908,15.228004679495426,148.1727584718853,0.42593242718381197,0.024238321489501967,0.9511154425722722,-0.30217797037585115,-0.2569543781157979,-0.2723790651869462,nm,0.0
15.305598974227905,-8.840741009468058,17.276976135185482,145.90158945227222,-0.3937473428080882,0.5511080986751152,0.4015511006487556,0.06488343350878108,-0.17683245656398439,-0.18374187013173368,nm,0.0
15.307279348373413,-10.20978443728311,16.94105576907201,145.05422872505216,-0.6617573884284594,0.4905301155895711,0.4026495588908973,0.255802919810745,-0.07955731820878449,-0.09954334346640517,nm,0.0
15.315999746322632,-11.876146805724703,15.807681844413608,144.36823504602083,-0.5281491315625841,0.33987365949594134,0.18898060810849282,0.3942615835515389,0.013625096300086209,-0.03223527536435534,nm,0.0
15.323638439178467,-13.415256459514733,13.974927845896046,143.827981083257,-0.4248467858960345,0.03129001456193478,0.11067611781731762,0.45844352423533086,0.13581347137721922,-0.005325097804800205,nm,0.0
15.388086795806885,-16.356122549592722,8.08151699384901,142.2228821533093,-0.12085520297881841,-0.192429153243931,-0.15744928062892016,0.3552817098120433,0.2342236799051413,-0.06305730775504269,nm,0.0
15.389942407608032,-16.75437168464345,6.310272161089744,141.81831072364267,-0.22514064257354424,0.016578940220581737,-0.14621823717835225,0.2828059659460593,0.24472313624714145,-0.050734597807981945,nm,0.0
15.391589403152466,-16.646863551249353,4.414371815473054,141.54501356164,-0.3790199785859409,0.22211540650309586,-0.33356244001422813,0.08775963309201809,0.15334357842479718,0.02312573034929728,nm,0.0
15.393620252609253,-16.354600877289915,3.6660404613155086,141.87636362846825,-0.574475920961335,0.44822249491013444,-0.35470267764191804,0.04906502333363197,0.1679110867439793,0.08615622717978516,nm,0.0
15.401148319244385,-15.834681658072933,3.1583551927674303,142.3689369359949,-0.6926139470458887,0.46867520013298797,-0.3020110904035794,-0.01773986235641323,0.15825903454096366,0.1147682368637658,nm,0.0
15.423754930496216,-15.102629015841348,2.21401423636046,143.31172161046752,-0.6416018143944361,0.5168434065770926,-0.3329491630348605,0.03417930811055951,0.119671391900803,0.11272620118475399,nm,0.0
15.427698373794556,-14.852652811554956,1.8045919942872632,143.64946816779334,-0.567840081843741,0.5345788777328361,-0.25338743399936897,0.01005367312319384,0.10986803269236951,0.09221525567760169,nm,0.0
15.438187837600708,-14.599797474548348,1.655952680234105,143.97858962398294,-0.4741211058383249,0.3843083091668065,-0.14053364169903348,-0.021976214475849427,0.0681441719176079,0.07846456370563316,nm,0.0
15.462316274642944,-14.456111965101877,2.151178988675737,144.85877825935148,-0.2503810625951926,0.3218869798405526,-0.2309799394447051,-0.06756199880776045,-0.038939902475830485,0.121645866494191,nm,0.0
15.469090223312378,-14.406628046533045,3.025585087631547,145.49394262735936,-0.18476519661887894,0.18137574817919458,-0.18811250392614096,-0.10737881737186213,-0.12371578661891777,0.15633898900097673,nm,0.0
15.476409673690796,-14.383080653969035,4.326874338711196,146.39135015886689,-0.03392194823762748,0.11755805422440904,-0.31651370580999977,-0.1491403750834996,-0.19900011044508192,0.1840566553422576,nm,0.0
15.504862070083618,-13.939131321797891,7.946681281683451,148.25775039157077,0.16738737098455334,-0.26330255134915864,-0.22721412386569154,-0.24851854776473922,-0.29613647348377076,0.1676164192607429,nm,0.0
15.50722599029541,-13.58785217655925,10.15713630718361,148.93643912558935,0.41183927031486195,-0.44368767030463846,-0.1335922680092108,-0.28953328730333977,-0.32757732801589146,0.12130528746880363,nm,0.0
15.533236980438232,-12.359261625034094,14.697313538266906,149.6485644310337,0.8506418256798035,-0.7144492550710921,0.43078405720039165,-0.34550362482267577,-0.30918052847275795,0.014368158172070149,nm,0.0
15.536041975021362,-11.480986852512599,16.93445592745982,149.74479191594486,1.0001058143159014,-0.7330324840022003,0.8352286738393966,-0.3714757701921117,-0.2877274692602653,-0.03336910519280666,nm,0.0
15.546244382858276,-10.470403608888427,19.042436017654893,149.70873580816314,0.9544701906176719,-0.6086839580211181,1.100382717247485,-0.3781707794176581,-0.2540267308755202,-0.07484165214723688,nm,0.0
15.552114963531494,-9.488898668722568,20.986973085529613,149.50963896467857,0.753655733380657,-0.3396733949587871,1.0167411341895811,-0.3551970149780107,-0.22914189037924554,-0.1126469081736128,nm,0.0
15.575800895690918,-8.262235310628046,23.70601708313015,148.57297425150952,0.07605238937067227,0.21578967889410616,0.5503176023487164,-0.17593153132043157,-0.12450943266131712,-0.15026741715634612,nm,0.0
15.581111431121826,-8.207437370295233,23.819321627257796,147.93547120235215,-0.25317428478346415,0.4138904070044511,0.3110795249273127,-0.01873856773505864,-0.0010099856244627226,-0.1381100365106181,nm,0.0
15.604686975479126,-9.112146480569145,21.475466499085627,146.51738746101347,-0.3109653654957992,0.36872270873334917,-0.05841158609968058,0.2625097949527936,0.2155175931565994,-0.08217689718042889,nm,0.0
15.609548807144165,-9.755756144287435,19.25987734125321,145.90857418153567,-0.17715583430959314,0.15379140179016698,-0.003615730848635992,0.34925332546931154,0.3144679904376616,-0.056730898068473944,nm,0.0
15.630438566207886,-10.943808462708313,14.222185104842136,144.82990947707265,0.19266012627559345,-0.3213523460248704,0.05656619875439453,0.3729564278042287,0.3599379470332743,-0.046479852275113684,nm,0.0
15.65630030632019,-11.636767619240317,10.394388813608881,143.64871867676987,0.14761920051630972,-0.44867335250463763,-0.1580168211674426,0.2535747765951763,0.2531510551030368,-0.08932751816488066,nm,0.0
15.658149480819702,-11.952014309334135,9.123318228955863,142.9918625971921,0.05724961018220393,-0.12335700599802703,-0.4452990133186929,0.20385547164812895,0.1806419488097792,-0.10553008492634973,nm,0.0
15.691678524017334,-10.93192164674526,7.304044146217262,141.50432909552305,-0.6134867797372971,0.5285831273519906,-0.4774169762480586,-0.013991131299195854,0.12773122299035236,-0.0728959222224013,nm,0.0
15.70686674118042,-9.1537394039344,6.910740647008389,141.56417143775695,-0.7906308040486495,0.793465227906853,-0.43532753642223754,-0.13902329873538347,0.15947258819608684,0.013387019554336233,nm,0.0
15.722859144210815,-7.911476099234097,6.960728994706623,141.88567828574682,-0.7974812494880261,0.5652334979360324,-0.0944354863691313,-0.19800122790022406,0.15897276633251928,0.05355366104294767,nm,0.0
15.72456979751587,-7.0690284565277155,6.9550286018787855,142.36649229764853,-0.6294552924790219,0.5632703746852614,-0.23209373362559862,-0.12958474103769743,0.11748454809581421,0.09799813472857317,nm,0.0
15.756297826766968,-5.469044229584586,8.310851740803285,144.76709547373562,-0.2987470579321039,0.4037118929973666,-0.11038277431313837,-0.13576912302053995,-0.07607209422542081,0.16747315201267712,nm,0.0
15.7723970413208,-5.232019144108619,9.186660064605528,145.6663193504858,-0.2522501761449508,0.3867111291823824,-0.27391549733682,-0.13753067389667253,-0.10371889000031824,0.1819548329413164,nm,0.0
15.774184465408325,-4.941982495288328,10.294610858776775,146.67509517943893,-0.29016586614657264,0.22702827955392313,-0.06403067043008681,-0.1701024714136441,-0.1390209668790411,0.1868293674450534,nm,0.0
15.782179594039917,-4.756096205310073,11.663247829352922,147.74275737177732,-0.03447998218606031,0.15134661779615707,-0.2973627414484402,-0.1782110482289097,-0.19735354809252145,0.1888387596177431,nm,0.0
15.791301012039185,-4.364713253805866,13.105977875654963,148.8134808775563,0.09213936435131115,-0.046633470432013734,-0.08119231061465751,-0.21622112055576895,-0.19234812308844212,0.1804313174172681,nm,0.0
15.832591533660889,-4.025791195560268,14.60380915242272,149.8744538682052,0.3463620380694715,-0.23125825509462578,0.06010277646400008,-0.20888221988778208,-0.21140523943994505,0.17468390842740542,nm,0.0
15.835054874420166,-3.471748237073674,18.001848993298058,151.66331111695084,1.0011398282806385,-0.5868317152204064,0.4784399485646279,-0.2193959103864609,-0.2690919990770674,0.13524264209996756,nm,0.0
15.83792519569397,-3.1704307462677925,21.740507543420755,152.57683326908983,1.1693943710167765,-0.6055925943431346,1.020079675896878,-0.19513957107624572,-0.31321025182750967,0.05859546354293744,nm,0.0
15.853028297424316,-3.1451388797698505,23.531809805361018,152.55978411009215,0.9785886804507715,-0.5153800628680718,1.156694360552022,-0.16875261904635913,-0.3034756170925768,0.0044222222995394305,nm,0.0
15.862435579299927,-3.381882012773918,25.00151309759568,152.26799079009615,0.6395994933384935,-0.3179738735094244,1.0526040758303712,-0.09689195086977381,-0.268304846014286,-0.045994318169494196,nm,0.0
15.865319967269897,-3.927838718319612,25.994404680739507,151.6219338652803,0.1906772699353848,-0.15000279098583233,0.7865881427765316,-0.005116287977238148,-0.2093275496674651,-0.08932264612271171,nm,0.0
15.878831624984741,-4.883793672608985,26.36019620277893,150.6955466711947,-0.17354486118781162,0.006563555924967608,0.42181603710341714,0.11665628520346265,-0.13442991253468242,-0.10791844302925521,nm,0.0
15.902669191360474,-7.526176153780543,24.70231648169367,148.6413411821229,-0.5394205454687442,0.09399100786406038,-0.027883168656186962,0.3402093910163336,0.09942606209958485,-0.08963982346851196,nm,0.0
15.907896518707275,-8.843902777093096,22.801811562206005,147.76103122441543,-0.5525859114774523,-0.013661298406832199,0.045220821250739535,0.40759399934703133,0.20900208318351335,-0.06050173539582648,nm,0.0
15.914544582366943,-10.231471292874977,20.494221448337843,147.0626552699527,-0.2636694030714769,-0.045360838018751355,-0.007825584967528283,0.46835308973549017,0.2629947198648427,-0.01568274631855427,nm,0.0
15.937865972518921,-11.52177960682588,15.685090102447601,146.32131781428805,-0.03550366283737308,-0.4092742624313387,0.17412959575969172,0.3186057928196309,0.3681058101957762,-0.014206552775618327,nm,0.0
15.946873426437378,-12.002340680035347,13.676433971687311,146.0278288233894,0.1543069795335767,-0.26891608025748454,-0.13014151679875877,0.30286706222499216,0.29572724694262525,-0.012743662502830402,nm,0.0
15.96875524520874,-11.808997912554462,10.679218026801037,145.30926992023046,-0.15652347760871538,0.20175364866772183,-0.41975151453165466,0.11234123522539846,0.2672929988532012,-0.06919384881082707,nm,0.0
15.972220182418823,-11.077420907470872,9.738475415384059,144.83969748872798,-0.3587266251664514,0.5013898519298534,-0.3871949784664119,-0.008705319969139879,0.2508260077271962,-0.09674452258557886,nm,0.0
15.994988441467285,-9.485751385364575,7.683950840451846,144.16260868950607,-0.504372300071291,0.7609185548217882,-0.2023474103137079,0.06202203847955113,0.25545874583168937,-0.06722321080823628,nm,0.0
15.999435186386108,-8.909666628682123,6.74023747922567,143.92572487601421,-0.4161532129451794,0.8926951172916894,-0.27583231756700655,0.01977143126691321,0.23395462369510042,-0.061602375626098715,nm,0.0
