timestamp,roll,pitch,yaw,acc_x,acc_y,acc_z,gyro_x,gyro_y,gyro_z,markers,motor_input
18.006547212600708,-12.718833786686723,24.05945625651696,142.32469691866274,-0.3227564375969903,0.199098912327751,0.024146548414952233,0.15384094551721786,0.12643523473883628,-0.0630409672212788,nm,0.0
18.03001618385315,-13.34683654599007,19.78338932891266,141.3745347266112,-0.044948063931573995,-0.08512128458979408,0.13422076889881202,0.35496170210254036,0.3636112441605878,-0.03877559860291964,nm,0.0
18.041141033172607,-13.51568018864231,17.046761485143925,141.01603571606205,0.15331000102790024,-0.2694768533362076,0.28565265389501626,0.37156152782511187,0.42004014000121315,-0.038788108014381026,nm,0.0
18.045635223388672,-13.581333935530617,14.539962585165954,140.70654570094203,0.32882742384525787,-0.3816154777373626,0.28248180856434507,0.32957968425691186,0.39471675477662843,-0.04352409098319322,nm,0.0
18.056543588638306,-13.575815902371621,12.530175405636777,140.43943674719222,0.38476815317463275,-0.3319094193118372,0.15885021279875217,0.25750641958833126,0.3251081030042093,-0.044503898501391956,nm,0.0
18.082754611968994,-13.391550250892816,10.011618624732298,140.14224858854908,-0.09815636451793743,0.16930593319279352,-0.12147932361701264,0.1181530032557227,0.1846541567424425,-0.023509935075541447,nm,0.0
18.091335773468018,-13.279693743696606,9.277056296968741,140.1207829255679,-0.38203581205936665,0.4636570113309255,-0.26263136538851245,0.07985369354906788,0.14084434916564006,-0.007429102685873447,nm,0.0
18.107892513275146,-13.067221508111645,7.67175179918626,140.37569388186844,-0.828905614328945,0.8039305524305013,-0.2477053774569719,0.09962174673643186,0.1569740887242271,0.029834804276532918,nm,0.0
18.109864234924316,-13.132536655184966,6.760810896852672,140.58997854442,-0.8006879522179701,0.819413374677118,-0.2374991734326844,0.12834328598195896,0.14637397937303875,0.04135436686237025,nm,0.0
18.119741201400757,-13.288240281485447,5.84984707556312,140.72474390282474,-0.6842359975008865,0.6955615347820349,-0.20841875294103088,0.141922142935953,0.13524862250065112,0.04963327723805108,nm,0.0
18.12906241416931,-13.567346060338808,5.039856010647636,140.90437782548938,-0.5747779438340191,0.5498519876146075,-0.1731718522739089,0.14780653872518618,0.10443821151509057,0.05877029841375188,nm,0.0
18.169025421142578,-14.38754130824871,4.584786309987183,141.5850639287968,-0.3995370306760186,0.3069647845439804,-0.2733878676008401,0.06674302763927335,-0.0408676294280532,0.07793106146894006,nm,0.0
18.172512531280518,-14.797334824342489,5.0839553074589245,142.1345370101443,-0.4128949872042504,0.26629734351175943,-0.383569826203544,0.004508752174753086,-0.11501456677209802,0.09710951037388102,nm,0.0
18.17444896697998,-15.10470857934394,6.034231102609994,142.80788233985098,-0.4765613832761004,0.2759406346887747,-0.4683770510288764,-0.06546481739009934,-0.17417843843462427,0.11832681573742397,nm,0.0
18.18934178352356,-15.208106110013269,7.37131721595928,143.57163966728828,-0.5026533129598667,0.26384910700883685,-0.5748074618182522,-0.14218902205944783,-0.2127193231805506,0.13223215872444383,nm,0.0
18.192538738250732,-15.077977989225854,8.932555589304622,144.3279925596459,-0.4431610887101033,0.20871628089056307,-0.6507525178140191,-0.20327768816088077,-0.2236154502152353,0.1343364817507057,nm,0.0
18.199558973312378,-14.728024625962043,10.55336141303517,145.04433521764687,-0.28698320226290347,0.11317711853140462,-0.6351865626763031,-0.24253588524026976,-0.21099544725261787,0.11985029035954156,nm,0.0
18.222300052642822,-13.597578571289592,13.77921061856072,146.1334400001958,0.3622929785928558,-0.23253704015765822,-0.2791360319009311,-0.2769391282044544,-0.18586383466809273,0.03538871238149594,nm,0.0
18.225889205932617,-12.990175817950373,15.333398933995884,146.28628915427598,0.7393330897710999,-0.45526691682833015,0.09560239306478364,-0.2694548404273012,-0.17959836852814384,-0.0197178804927313,nm,0.0
18.252187967300415,-12.123494184911646,18.461001635954695,145.67420891568923,1.3123862349824547,-0.743665239694418,1.0321571299977672,-0.23099879839575016,-0.2119824684815123,-0.1223762831902793,nm,0.0
18.253994703292847,-12.021441950336376,20.057495484036817,145.0099924046987,1.2846060429809345,-0.7445652294608999,1.2876883313756016,-0.1955751393443542,-0.23865762581362535,-0.15586324915825794,nm,0.0
18.279480695724487,-12.858731701072081,23.082730734330884,143.30671081430603,0.6039894177235987,-0.4179351330803685,1.0253308479554122,-0.07827204799769631,-0.28407789347003454,-0.14568314726819115,nm,0.0
18.283030033111572,-13.740446698729068,24.0727427180315,142.54339838648028,0.2403843749158305,-0.24358797815159877,0.5124841188113441,0.012403845837773075,-0.24245396861868945,-0.09176731148275555,nm,0.0
18.30920171737671,-15.517974505101217,23.46357919246586,141.88306967722653,-0.12987874053070747,-0.2928168741907827,0.11006669511741929,0.22145169515471785,0.04964242337230879,0.03894875356713211,nm,0.0
18.328083515167236,-17.114764777040048,19.90363794754273,141.73592869650827,0.02525173029019519,-0.4150552858493317,-0.046105706037686614,0.37768364018058,0.2221274221016013,0.05087192092016021,nm,0.0
18.32980728149414,-17.411002558362124,17.547464748094047,141.51725524009257,0.18938254331867274,-0.36519520337309536,-0.11501667880806048,0.3397730175604463,0.3484274162325802,-0.003432859027567862,nm,0.0
18.355640411376953,-16.602329652541975,13.000299504106735,140.83823581826567,0.1313109226350815,-0.1558597549427645,-0.19056571067425135,0.2044534003974274,0.3854294634495725,-0.06471127724251818,nm,0.0
18.367805004119873,-14.089918047150409,9.567303309591477,140.83505136332298,-0.2724100355903232,0.2218948413217738,-0.059219639666100096,-0.021287161723158348,0.45988804568999847,-0.001732462461348091,nm,0.0
18.37832498550415,-12.649648502152736,8.28610343836023,141.2415641698047,-0.5370993413637131,0.31801825367468833,0.14949667162137903,-0.05770792897874307,0.39254277070859106,0.05407437993677084,nm,0.0
18.4043185710907,-10.719808791918569,6.0380225364258555,142.52297376746517,-0.5640586191483368,0.7049424998033038,-0.09662041102687337,-0.00664330804976158,0.3198839869899792,0.1305863843754828,nm,0.0
18.40595245361328,-10.2089923700233,4.839866595604856,143.17325134249594,-0.6476606848271663,0.6990098296402457,0.032684477025028295,0.06541637067954174,0.2666069518439922,0.13193220664751318,nm,0.0
18.428352117538452,-10.603727575146369,2.772809765048096,144.11040191606418,-0.5151464103716492,0.5731359896617659,-0.12849511705559588,0.17179126883134824,0.1398638858053354,0.08617333513646547,nm,0.0
18.44601011276245,-12.293082461210433,1.3520902535457706,144.83363060358275,-0.619997202918026,0.5159502834711562,-0.31593423721952674,0.21636227384768403,-0.009079257958447974,0.07662618388332128,nm,0.0
18.45417547225952,-13.200665744743135,1.2039930605484885,145.39429488149304,-0.6773346546004787,0.43274160041262505,-0.403885240646462,0.16691475346612383,-0.06528002293029729,0.10049172321115692,nm,0.0
18.47693109512329,-14.572502302725429,1.8531315587954145,147.01500004672937,-0.6669971991771366,0.37267427591506436,-0.6314368808592455,0.03330588832302147,-0.12682478573712458,0.15840861052640837,nm,0.0
18.48696541786194,-14.697811227057448,2.68036528117164,147.93143221614517,-0.548098339563616,0.21730031769402477,-0.682967303208414,-0.06745332549455729,-0.13895540162387993,0.1579101458525876,nm,0.0
18.511296272277832,-14.05037358418666,5.023247395031699,149.23142494421774,-0.1634064918211198,0.020944413485118888,-0.5404197430162444,-0.21493244052373342,-0.15881180629920463,0.07969474338593464,nm,0.0
18.51284432411194,-13.44519603531314,6.638784379868758,149.49897098183666,0.0648685127810711,-0.04767278200189578,-0.42611882434845183,-0.2683008536354176,-0.2030397339768001,0.017501616962042752,nm,0.0
18.527421474456787,-12.830027725806598,8.5569098122064,149.563597445907,0.30760307044011936,-0.07078782166720672,-0.3756087567173232,-0.2995283511120893,-0.25545262288581566,-0.03375680659197188,nm,0.0
18.53040385246277,-12.230233577248761,10.725858899017965,149.53200390614856,0.49399435180378526,-0.09225500316980033,-0.19760089147272183,-0.3214490834606095,-0.3009287368073088,-0.0637556618216477,nm,0.0
18.539088249206543,-11.757905547726715,13.102236745396269,149.4574664421982,0.6852154616191731,-0.13405912735950784,0.04331048182347428,-0.32029503307227525,-0.3496671624657429,-0.07252757132417116,nm,0.0
18.561850786209106,-11.119902709572866,18.0180774799907,149.21436199524183,0.9840283361501229,-0.33346002035977623,0.8332135058531368,-0.2926162357782549,-0.3808489994736128,-0.074537142929451,nm,0.0
18.58851432800293,-11.85530461466785,23.873942126365815,147.78689858468476,0.520985620309974,-0.3520923987019035,1.0651195387172212,-0.07299712828005606,-0.30557501650174757,-0.09780987693250683,nm,0.0
18.597016096115112,-12.725075371130131,24.831778930058768,147.11942321172705,0.13006096153722854,-0.17800285610560562,0.6053971223402949,0.03236762692871967,-0.2337176115553456,-0.06708668932592182,nm,0.0
18.642554998397827,-15.6275642580283,20.12123554703412,146.70511289935845,-0.22334667479589843,-0.5027508768972828,0.29386967969074396,0.35360104093388856,0.2989412388573675,0.09703259297223653,nm,0.0
18.64425563812256,-16.43975838049561,17.59682164586639,146.5232429589215,0.23979863795765186,-0.4200678883467325,-0.05063570839446454,0.4087937821589118,0.3502847156780263,0.06779289650743384,nm,0.0
18.670043468475342,-16.713708681196593,12.660672027477514,145.99996397463158,0.11704618936119987,-0.5780392616455284,0.10918921828664635,0.2656211602826112,0.3762854759564957,-0.04542015392053007,nm,0.0
18.672242879867554,-16.59039046458584,10.981537987667682,145.73677105413987,0.24227358801844315,-0.22794517654517218,-0.18407756833826566,0.16997399539761726,0.30588357649050785,-0.048378141370185666,nm,0.0
18.698888063430786,-14.805614354356852,8.93186545981386,145.96971649120314,-0.30469872906429296,0.3477025400350403,-0.2769489798598583,-0.06790896662817528,0.25410247634399197,0.040928031161430706,nm,0.0
18.73709797859192,-13.20090932141539,8.369680038832369,146.48727236951353,-0.48836281435492446,0.5296579696014962,-0.4088355514725358,-0.20031789763644892,0.28439269626544217,0.075272671282882,nm,0.0
18.739455699920654,-8.981821719206067,5.9954079433632845,147.8123546426765,-0.6088635795005163,0.8940274816393144,-0.07640187242652853,-0.13406736486254847,0.2997345085586847,0.03038918560438029,nm,0.0
18.741832971572876,-7.999111599389858,5.135713539846152,147.73798705723127,-0.5283625519946423,0.7622370958799705,0.14087476737715432,-0.07324387000939732,0.26400537030404975,-0.014133607690871013,nm,0.0
18.756468772888184,-7.770525544799219,4.3930821362441135,147.51702405092766,-0.3096942386393122,0.9721439956491731,-0.1274922007705087,0.04159878034647652,0.1638642735923704,-0.034820519943549164,nm,0.0
18.761131763458252,-7.710000782177486,4.009676549365801,147.35902960220966,-0.28593753607308336,0.8187304283396075,-0.009842436825844325,0.03157896710756358,0.08508115024541385,-0.02382078224560292,nm,0.0
18.78014850616455,-8.951014890865354,4.484333747652583,147.87512564766973,-0.27538956551601124,0.6468824447918753,-0.30296745762312266,0.08832904107479238,-0.1451137289059459,0.09002482761858444,nm,0.0
18.785576820373535,-9.789006784661517,5.351603706106219,148.55178560363717,-0.3621585358588757,0.3808810914408685,-0.2739415191378652,0.05086109492155896,-0.22171423267784687,0.14614123077420396,nm,0.0
18.809619188308716,-11.739487714125746,8.196850258349212,150.1463751148526,-0.18922044822868928,0.04518963245368258,-0.5124400922710488,0.0035359697965788714,-0.3538311799288134,0.15298992504561587,nm,0.0
18.8136248588562,-12.46098827788765,9.988967792685486,150.6556672753513,-0.011568297629127318,-0.19238249124414927,-0.47802853796576705,-0.05285124521786512,-0.36857553245385255,0.09861275642678746,nm,0.0
18.837923526763916,-13.5059172719217,13.965631937577541,150.66367887762433,0.574762863138154,-0.5119625516333892,-0.2442850072213823,-0.12025158774334929,-0.38412758029673966,-0.03987834531477979,nm,0.0
18.843092918395996,-13.708543596646098,16.058452241746032,150.27226347402424,0.8239074033813116,-0.6554047201347094,0.25873725988094276,-0.17170370699268497,-0.3702785101980864,-0.09387088231790988,nm,0.0
18.870790243148804,-13.502458642701155,20.61373956425654,149.21330634435697,1.0207234237802492,-0.6974246990159257,1.09703716438837,-0.26708922393412443,-0.37304271083845986,-0.14700027584691058,nm,0.0
18.87241768836975,-13.299178606646464,22.93682245301621,148.6146300364754,0.8248957112176788,-0.5808986974644318,1.200159557448314,-0.27114085306900015,-0.365468749346645,-0.14859583165708345,nm,0.0
18.88111662864685,-13.246194829958911,24.918786026071917,148.0897539003554,0.5405666838376714,-0.3693448222308265,1.02144645342553,-0.21470154196218835,-0.319540314168284,-0.13126993110038443,nm,0.0
18.9045889377594,-13.606203894545557,26.490543488898933,147.13166789618944,-0.06902947344954452,-0.030298847266773787,0.2697129822215896,0.007849602229119955,-0.06563787251421209,-0.07634262188887019,nm,0.0
18.908992767333984,-14.007114002633159,25.79084032327625,146.73912558218476,-0.1730471510045136,0.0016083094638541327,0.025710702427110797,0.13873836482232488,0.09147267041125814,-0.04837227616631908,nm,0.0
18.934396743774414,-14.827214388250182,21.767512959633844,145.9709293029767,-0.11166660977099287,-0.20562517947178832,0.08766138670187892,0.32416960467748634,0.3634809237981025,-0.014304134220572778,nm,0.0
18.93994426727295,-15.10077035055975,19.142015712555136,145.6195760566318,0.0743322324024912,-0.37792630203129796,0.1809275091013444,0.3404393786808077,0.4190176257012232,-0.011174036589236845,nm,0.0
18.96097183227539,-15.0485404168778,14.411457556927253,145.23747284326785,0.313094338657908,-0.46374769766761914,0.04048297799684254,0.22745211364128984,0.38610701976741946,-0.01711974615774852,nm,0.0
18.969801902770996,-14.612534767054202,12.769462878178704,145.18332121866868,0.278166162309218,-0.3765568213560833,-0.057514185122834426,0.119523551261649,0.3322968133804723,-0.02078733829270321,nm,0.0
18.992027044296265,-12.900099371789514,10.804721926781177,145.23593580323762,-0.2717658500067125,0.2019613472280918,-0.11326761296863566,-0.07502318688568234,0.2515219275874005,-0.01651334857280461,nm,0.0
