timestamp,roll,pitch,yaw,acc_x,acc_y,acc_z,gyro_x,gyro_y,gyro_z,markers,motor_input
43.50100326538086,-1.1585701921197813,4.069973871522336,29.383836367293757,-2.122196294769625,1.6984024077125124,1.0391788104238604,-1.3193757575215868,-0.7424629681011612,0.15474003604847691,nm,0.0
43.52474904060364,-17.407657136012006,4.798752607416745,29.665390497653043,-2.4731853859138018,2.0349805168319235,-0.23973156165667037,-1.4021336021093167,-0.7279340062853905,0.06639733358365152,nm,0.0
43.532333850860596,-24.631125572778032,5.2859098906588775,29.346162443661708,-2.270516900288734,2.428091904982856,-0.5541053071447322,-1.289734190531479,-0.6314159750242565,0.07368525297086012,nm,0.0
43.553210973739624,-36.26824561352311,6.700858126715277,29.271991913571615,-1.4219153079730693,1.8089363955040503,-1.7434630040668948,-0.937634763189573,-0.3724757579176935,0.15676243293380807,nm,0.0
43.562363147735596,-39.543713570205874,7.18644183018322,29.826901996886043,-1.3906794095591486,1.799544414415439,-1.8821383075927798,-0.6016431873251844,-0.24303746994079864,0.19277302604006621,nm,0.0
43.57245349884033,-41.475089486696966,7.235972831567751,30.457096504187895,-1.3595141580253407,1.42194269015129,-1.9381444017777214,-0.324036546055853,-0.1903295586340938,0.17750357646717874,nm,0.0
43.57692527770996,-42.066295348765436,6.619929217778119,30.98163086129735,-1.4234444481985302,1.05541722270982,-1.710017321770882,-0.025246623885206827,-0.17218057801284606,0.12228080804139282,nm,0.0
43.60551834106445,-39.99335148541043,3.499077795513189,31.004759000454698,-1.2280041874600933,0.4595376778310084,-0.9936410560941509,0.44616809458745316,-0.1591746520669384,-0.0682338808802114,nm,0.0
43.60819983482361,-37.72875959114434,1.715584934204804,30.21265046261401,-0.8530584989702868,0.06696330284237882,-0.7951237763844573,0.5842453727785469,-0.08330297500304884,-0.1765030064969108,nm,0.0
43.6150176525116,-34.6336045774233,0.13791027455268198,29.14419075738023,-0.2766953947185662,-0.2331238164833686,-0.6683268175057709,0.7072138068847516,0.025407049441815276,-0.22164619666423935,nm,0.0
43.64057636260986,-25.919168690431682,-1.9548653310410031,27.14625869003568,1.129915085951218,-0.3955444143856774,0.33684874381103547,0.9209653130825358,0.27598124081519004,-0.160428561809298,nm,0.0
43.666367053985596,-2.1644988261907376,-3.52336132833325,26.63932104002862,2.929608837344917,-1.1043722878698952,2.9018494436529005,1.7041663600494248,0.6910909147022671,0.24063661705468162,nm,0.0
43.67287826538086,6.688017800850339,-4.247649727544122,27.607086848981215,2.5716733342078713,-2.0632403001187294,2.398699967607204,1.6541240595832611,0.6667194963573665,0.377220102987955,nm,0.0
43.69964551925659,21.976689484622266,-6.103272941313359,30.084433475315052,1.1491102955768024,-2.7685208313612963,1.617211327857177,1.2793087281217548,0.5111393197899569,0.3298455421579084,nm,0.0
43.70147442817688,26.02318908938439,-5.99798175291252,30.479969921732792,0.7194974007130904,-2.6762178126980474,0.38368615148997587,0.6964506629863743,0.42188153570791415,0.15590700313999864,nm,0.0
43.71066188812256,28.121804787744686,-4.594501766111685,30.266840011815447,0.31727581256579435,-2.417263166700306,-0.19350077212180325,0.22982869361139668,0.45154330953035693,-0.013058051844892879,nm,0.0
43.73484802246094,27.170933123834963,0.3435841680737396,28.466740540553214,0.5821094905726112,-1.1372897515825735,0.12215420032953067,-0.5166795894346506,0.31824073739064657,-0.21339355944676852,nm,0.0
43.74090075492859,23.955091747773075,2.6853442629254434,27.738539090064116,0.6450723751982977,-0.5442755536590913,-0.2956460590982225,-0.7786555062197715,0.10615576954511499,-0.13830393233586163,nm,0.0
43.7628448009491,15.044127781669618,4.5108457545553735,28.42225532463302,0.387675673814496,0.5564943204374635,0.3158353782359967,-0.9116667721235331,-0.3802082430834178,0.22296734429117138,nm,0.0
43.76731562614441,9.549810488976831,4.942607498435321,30.04789601337272,-0.17136409855013285,0.7412391027391283,-0.14541019124124127,-0.987991096257364,-0.465694155711409,0.4084718274572129,nm,0.0
43.790576457977295,-1.1687414355321537,6.045414218442467,33.568286573251136,-1.6883946922766244,1.440427578950789,0.24500037153925452,-0.989553447605649,-0.5139772212402783,0.41434562739514075,nm,0.0
43.79612588882446,-7.028069685768568,6.824117888186262,34.32453300678473,-1.9423359240816478,1.4411865666210888,-0.26624071601201216,-1.0418011965240983,-0.527735669457439,0.27833448460427523,nm,0.0
43.8228816986084,-17.930674971003363,8.20256855125349,33.78972658481594,-2.125604425523327,1.8788675679555606,-0.5251235198800528,-0.9399964235397271,-0.5214806665880631,0.06053887226721891,nm,0.0
43.82987356185913,-23.058544114786105,8.442038252982375,33.41560345431549,-1.7481967197885033,1.8264753874435626,-0.92186786694355,-0.859818119727257,-0.5287034764405133,0.07248763738430627,nm,0.0
43.849785804748535,-30.49828735693543,9.073811266786786,33.943189691825914,-1.6382896737947197,1.7910038351886914,-1.264972244337311,-0.5636061541850631,-0.3058187717067761,0.2060168556586226,nm,0.0
43.855252265930176,-32.869113747070166,9.349474970740447,34.8842723649457,-1.6505874867905774,1.5064073067371644,-1.3882577451176012,-0.4045285356967823,-0.22502280377166514,0.2651162930480758,nm,0.0
43.87635612487793,-34.82470472607856,9.155058268904426,36.385610303321876,-1.8888243890778047,0.9664885801448053,-1.1177739134443174,-0.05310911378894057,-0.12577526139860246,0.130038523728818,nm,0.0
43.885326862335205,-34.929683502946524,8.253058549902875,36.29705837103886,-1.6558889294951693,0.5355401192345683,-1.0394241053326172,0.10369019281679435,-0.16307613003045296,-0.01328648102453907,nm,0.0
43.90262532234192,-33.45355840538921,5.21814912793876,33.721832791311805,-0.8334179405866166,0.28730618132307045,-0.7028273092689157,0.3492396126857751,-0.16636480580490481,-0.30050994011648335,nm,0.0
43.9181764125824,-32.15162970836051,3.6772831827193553,31.951060710635687,-0.15529049399322412,-0.032738516559612685,-0.691081111086766,0.39842770872586536,-0.1251745310709913,-0.3468172818884073,nm,0.0
43.92738103866577,-29.96429341543933,2.3560733704416106,30.42256954956119,0.40062103214825656,-0.1100657098977672,-0.5288623415813674,0.5238507076291753,-0.0072546322317402,-0.301044904761442,nm,0.0
43.92913603782654,-26.958491962146017,1.3734826952019206,29.29471787756672,0.8865951752113244,-0.06097746457595255,0.02543279743651027,0.6324021004652659,0.12072672756384742,-0.20741887854441066,nm,0.0
43.94709300994873,-16.353401471773452,0.3933400924435192,28.338151239543386,1.9131186047370958,-0.5968069897126499,1.2704057977999137,1.1981899960623146,0.5441726817264225,-0.01737831048363086,nm,0.0
43.96258187294006,-8.161905866537733,-0.11548106778890403,28.406728278848597,2.0577802041960997,-0.7720850715757307,2.1814292589862423,1.5052470585033308,0.6798566708490988,0.05457911855783264,nm,0.0
43.96757221221924,0.5440272271957538,-0.7312789058001828,28.57817748539396,2.1903665995101282,-1.746997984688917,2.3857882761469074,1.6044066238891332,0.7135844133504927,0.09282380292384457,nm,0.0
43.99142670631409,18.4021509918972,-1.127721334431656,29.156558256692566,1.3654893167536533,-2.8194008236727806,2.325064879129601,1.5123748043814256,0.8404963474708983,0.10038893673649131,nm,0.0
43.99559044837952,24.520169097816375,-0.3541682681353461,29.277620452445376,1.1118525777126558,-2.7622270457581357,1.0732326022210854,1.0041436933251515,0.7294816501585806,0.03081392814749565,nm,0.0
44.02194857597351,29.939594179725614,3.3365946017699546,28.999988277406402,1.2106993664329215,-1.7478035379126204,-0.18457033886179008,0.11509504176948054,0.5483759280067239,-0.058693862576077775,nm,0.0
44.037084341049194,29.791202866291957,5.691139883859899,28.878527571834567,1.1198779044140936,-1.0565900192258186,-0.1461225757503422,-0.24493426459311446,0.3949273130803974,-0.032696380558498085,nm,0.0
44.03910827636719,27.623577835200585,7.4681023461255505,28.68139656039371,0.9828195632028743,-0.5387155498497339,-0.46678293504177265,-0.5401904886578672,0.10038200148773135,-0.0003470706059140522,nm,0.0
44.04423642158508,24.498561398790777,8.32929354910108,28.5793732667575,0.6784664128463243,-0.03174667640380637,-0.4586874658037856,-0.6174528195006469,-0.15003683768148748,0.0553036577461138,nm,0.0
44.0549521446228,20.493055504768904,8.634593421232367,28.843185164813306,0.17947699626345587,0.33634411789347407,0.2747904136008574,-0.7155781847677724,-0.3323591730984148,0.16140844135563176,nm,0.0
44.07684302330017,10.348162135518105,8.804538916386518,30.208321236004682,-1.114246116581194,0.6417959385555163,0.03585316929594338,-0.841384473771415,-0.4821420677870965,0.297114052620205,nm,0.0
44.0814094543457,5.27066981976526,9.034140133795574,31.230770113208774,-1.6662033787879247,1.1736498503782318,0.5060847085601141,-0.8745087276986103,-0.48222998380607257,0.28644561956230535,nm,0.0
44.105061531066895,-6.118162227799439,10.365621071556951,32.18488836448395,-1.9389271241294486,1.4797971832644918,-0.33413820456105614,-0.9938655927367317,-0.4601347470424872,0.2044141490003141,nm,0.0
44.10999321937561,-11.346703805786364,11.03212350224633,32.166024954404676,-1.9248607686101948,1.97788604891836,-0.2768886669924629,-0.9294359294392922,-0.4420654295483202,0.17545025744335582,nm,0.0
44.13441181182861,-21.09486029307704,12.016871070527754,32.06913278207758,-1.5504764292732058,1.8657018296277283,-1.0962267944062314,-0.7787150241580045,-0.4008130316126655,0.1985609096728063,nm,0.0
44.13747024536133,-24.578729653474703,12.17156275395498,32.36914178736067,-1.6425258858267588,1.9547221067362406,-1.110457856695695,-0.5811737028389445,-0.34347308400655663,0.22831422228089393,nm,0.0
44.16326665878296,-29.12940193662147,11.755737472252163,33.73114500666662,-1.7449259349538448,1.3722353916808907,-1.2399477541876782,-0.24683735440940843,-0.24787448984379595,0.2125702011657559,nm,0.0
44.16828894615173,-30.021608082406466,11.266878281313039,34.2468165148632,-1.876010007684955,1.1748751105014628,-1.0170570188790453,-0.07726641175864936,-0.18500351859999453,0.13874528657358837,nm,0.0
44.19459295272827,-30.237051449444984,9.737131363855852,34.126632125634764,-1.3850319912337132,0.5283602196976946,-0.8080452859520262,0.1377099556354705,-0.11853999377044584,-0.06433470437075695,nm,0.0
44.20047926902771,-29.577038759863264,8.923384002280537,33.423157363915664,-1.0364865545049764,0.4462907800493309,-0.7094464497353078,0.2120574440232828,-0.06910470935786786,-0.16224207755918402,nm,0.0
44.21976184844971,-27.53723499828891,7.183931122101119,31.428221567451583,0.14783989579321488,-0.026459487058665476,-0.8638446443809369,0.3139221894578531,-0.02981051462533573,-0.20773692095983137,nm,0.0
44.24407696723938,-22.655441084293983,5.112730575650344,30.292299682879783,1.008936900943608,-0.15881349826184998,-0.2959152815746282,0.6020763191514432,0.08143331635817443,-0.14864756443821112,nm,0.0
44.24615406990051,-18.541311308158264,3.9176523480971235,29.752732856244137,1.6870499888930435,-0.6040322391235209,0.15703473812312274,0.8436526603303234,0.19508629483269538,-0.12946814213409702,nm,0.0
44.252933979034424,-12.056367308981827,2.7636847371224653,29.37557714645992,1.9665165091197734,-0.5351294777489846,1.3504484673896706,1.2545723022228712,0.4296182834745878,-0.11288568401645135,nm,0.0
44.27764129638672,4.035730741108128,0.9460257225707184,28.979369919937877,2.2884325150186746,-1.7795578892499653,2.1676587866266837,1.532445828199227,0.6548627014462817,-0.018370486251922825,nm,0.0
44.280866861343384,12.359953448152293,0.34302381624499473,29.31010394280278,1.9260673877126417,-2.439067686465547,2.165001973177216,1.5257701689170682,0.7013604443688052,0.03997476208725686,nm,0.0
44.304829359054565,24.551781316307096,-0.01863755239834544,29.832806929934577,0.8439757936319622,-2.7706999050336107,0.7995236280724776,0.8661774318108494,0.49604485712425267,0.02598181791703863,nm,0.0
44.329588651657104,27.224807647165363,4.324688457584917,29.47981018348182,0.3300694628558091,-1.143407742396014,-0.07566622334498191,-0.3596069068235019,0.24303986075456402,-0.04560075958885324,nm,0.0
44.3468222618103,24.536697652234253,6.037160160619273,29.07326646231104,0.37378634140621503,-0.4855807976550404,-0.054075999133654275,-0.6256914860978897,0.03280556460066549,-0.04281107586771394,nm,0.0
44.365617513656616,15.304128749175707,8.059411258406831,28.65511226586108,-0.0033850439629446883,0.576392162419081,0.18253035785066182,-0.9772632097352127,-0.3606499174279774,0.1155668399605428,nm,0.0
44.36872315406799,9.428319751167718,8.541654860912162,28.85538950475596,-0.5169002191429884,0.8171676254248129,-0.0005258646983001059,-1.0565860665681948,-0.4815425781143031,0.20208080895860847,nm,0.0
44.39305782318115,-3.2818468516536545,9.13408160327546,29.648312794522354,-1.7129960303784062,1.754394038261744,0.5057219149873836,-1.180196485188493,-0.6059044362604693,0.2576287215100713,nm,0.0
44.3947331905365,-10.337786803325187,9.6057972757327,29.796597988693694,-2.1011902439927295,1.8596703226483446,0.05860304431244741,-1.2450749728655102,-0.6172482866214583,0.23877111675788612,nm,0.0
44.42525887489319,-23.901143090785098,10.446019384757863,29.53859980973184,-2.33511948573369,2.3363895630895053,-0.5139933827194568,-1.1837315292128285,-0.5961734242971399,0.20473558363588998,nm,0.0
44.42711567878723,-30.12827625447787,10.861046666417812,29.36408536791185,-2.0677181436513057,2.0464814591618854,-1.1051984807685893,-1.095288215912839,-0.5372861285771121,0.1955351458427104,nm,0.0
44.44991850852966,-38.93642613469105,11.332839783978352,29.39041377893083,-1.8179188314042318,1.7639426566786574,-1.6648807301028206,-0.6547019154302122,-0.3539526490778866,0.16715524045982602,nm,0.0
44.4516499042511,-41.57298649209949,11.147182452603074,29.45540193550136,-1.585900192799196,1.3197255059916706,-1.832032160058857,-0.4199875785004042,-0.2931169580302644,0.11817125515631255,nm,0.0
44.478342056274414,-43.27431370916318,9.50531837866723,29.099843306482644,-1.2052760520895813,0.7658350718044951,-1.5134368927414392,0.051579066227020805,-0.22722977798219943,-0.040693374711272844,nm,0.0
44.481191873550415,-42.670710575924375,8.085158833614637,28.554966606349346,-0.7760127296210394,0.37377352222654364,-1.3311418906537729,0.2543122487005261,-0.19807837484910099,-0.12470534574886598,nm,0.0
