timestamp,roll,pitch,yaw,acc_x,acc_y,acc_z,gyro_x,gyro_y,gyro_z,markers,motor_input
13.007379055023193,-7.305195681162666,6.018337398059646,152.48251472544285,-0.03702026534285829,0.17527607113502802,0.665871165317963,0.0838573599383814,0.2714426328129624,-0.15885243457170906,nm,0.0
13.013439178466797,-7.863900055162375,4.161104925886355,151.73133990442665,0.056076840673549115,0.4640590550543011,0.21208903562836973,0.2721387542555985,0.29012805474438896,-0.11867645448014488,nm,0.0
13.042659759521484,-10.030600377496546,-2.365073916270654,150.99816051164572,0.07133140223147622,0.019713020864952947,0.006992608388821296,0.38977546530996643,0.3199532949247033,0.0038210631266677067,nm,0.0
13.068689823150635,-11.236458538790771,-6.25818772937922,150.97606049018407,-0.08994240468322752,-0.11799702233540772,-0.19512577330768455,0.27234340216310043,0.28466205445212145,-0.02281650963665853,nm,0.0
13.070539474487305,-11.415588622512722,-8.020299505997864,150.6811694515054,-0.2535654353983685,0.12105708498423139,-0.39816918192928824,0.20245730463856598,0.30495129477338173,-0.050464404849022454,nm,0.0
13.113431930541992,-9.108658104771681,-11.906018388808116,149.19988839750204,-0.488651966001749,0.6380709028522987,-0.4778619831914992,-0.045605267366707544,0.30074473818156894,-0.05080939561570193,nm,0.0
13.115323305130005,-8.283892221541095,-13.17013085916425,148.86048135182722,-0.47688253293234606,0.7693446593211298,-0.08176675298116362,-0.008413602514808247,0.3143527969421302,-0.01734743553058461,nm,0.0
13.117326974868774,-7.628386119619436,-13.877502827194203,148.65718380350822,-0.4136352718881535,0.661974556548929,0.12342119872953969,-0.03617544001856088,0.20166598312792985,0.005283816858853183,nm,0.0
13.13073205947876,-7.519468719313495,-13.89744239974475,148.56391961758376,-0.31547601474034753,0.6344847592362431,-0.000867188636737892,0.0,0.0,0.0,nm,0.0
13.147109270095825,-7.84351233941048,-13.645994580714909,148.57055588407286,-0.47348447813464795,0.6609282504672268,-0.0037878471955500787,0.02683162930607107,-0.061500149658602885,0.00389735950087197,nm,0.0
13.161913633346558,-9.901711169392351,-12.012088593699282,149.1685604100458,-0.7086827742058268,0.34214233446314984,0.10277549594385736,0.11447345634096562,-0.29508626629423795,-0.01926109770185208,nm,0.0
13.164811134338379,-11.500642531379018,-10.795056726377654,149.56795966658237,-0.667491497904115,0.12235307492449958,0.03231914238468006,0.14577701828993156,-0.3550301886946253,-0.012385363810676956,nm,0.0
13.188144445419312,-15.247018944092488,-7.558531708538513,150.566624003881,-0.20572152321522727,0.022574373769651625,-0.48256002579514967,0.15001284166566986,-0.493392662123024,0.011271805376530867,nm,0.0
13.209900140762329,-16.677470238885718,-3.1729146912792996,151.9455193020238,0.3976632296435102,-0.7997298582900161,-0.32041614396477297,-0.1288542239983871,-0.42352413933496547,0.10967496759736226,nm,0.0
13.212417602539062,-16.769817864289756,-0.8818773724587944,152.6687255207905,0.8116651696877693,-0.7336259585597877,-0.25345147386796,-0.1974247229574257,-0.40061752434712516,0.12274692662079074,nm,0.0
13.238341569900513,-14.618305376827294,3.1464175606629707,153.56251971671142,1.0262522643278758,-0.7557163539866012,0.24780970819329035,-0.3914663315223543,-0.19829366292904493,0.03970910048979865,nm,0.0
13.247234344482422,-12.75530814401425,4.510051832360027,153.31797333054385,0.7994829861522286,-0.44894373562930384,0.2589686769251685,-0.4559888927049424,-0.06367819362311722,-0.07682832410347737,nm,0.0
13.262924194335938,-10.016956586991789,5.263320486010521,150.97682091869743,0.05790424352150734,0.3813313137313982,0.1819239575979537,-0.1300138537438214,0.08719884582588043,-0.2877071557255664,nm,0.0
13.277218580245972,-9.210540895595814,4.409649937746812,149.36522530806275,-0.18933877286755244,0.6068549099935684,0.23846365461717797,-0.05430451630230409,0.2423651692034764,-0.3103647271126706,nm,0.0
13.300039052963257,-9.415897644289258,0.7614330481165297,146.99471492307637,0.002123846443243222,0.7489132876005414,-0.00017706194590338064,0.3147493340560631,0.3049684349785925,-0.1829824087682183,nm,0.0
13.301653146743774,-9.955046862459831,-1.5451460808214799,146.49165262463384,0.09634931121317009,0.3265456627765324,0.2538421336855694,0.34418308186900665,0.34096455907048784,-0.0893421550427166,nm,0.0
13.307133913040161,-10.991484072867186,-3.843734553968453,146.26130639421538,0.22012951619791052,0.011908025769632355,0.1991912852342794,0.4281804513922527,0.2822863002095547,-0.03498171737813269,nm,0.0
13.321834325790405,-12.290285882113768,-5.87536313752574,146.09313275371147,0.3240914558967011,-0.0038008628219324196,-0.1653177475411021,0.44234452331806223,0.20765903754854123,-0.03756332047045955,nm,0.0
13.351916313171387,-13.218283397279603,-7.530332519871025,145.72791361574312,0.14265248337722353,-0.16261114384416966,-0.20693395458108446,0.3392646959791122,0.1851066281654351,-0.07775189305414552,nm,0.0
13.35418963432312,-14.535907114268543,-10.147297808633809,143.93716856436853,-0.29592785200632665,0.3062664516625193,-0.5685843696295434,0.23077695353957206,0.15839184587301944,-0.21747016444332778,nm,0.0
13.368168354034424,-14.705619604271996,-11.303268956290252,142.78029787515084,-0.5794766961205603,0.49864281439955377,-0.42082427010907186,0.16625141995599915,0.1801803658846311,-0.23841817203222032,nm,0.0
13.37229609489441,-14.784576040748341,-12.18551559929963,141.588421534675,-0.7580716104522696,0.6797893889981029,-0.15689855978056413,0.12224477029607518,0.14433874069081634,-0.22671516971322198,nm,0.0
13.377962112426758,-14.936690217875995,-12.743424819446467,140.55752514021762,-0.7159160334970698,0.6816294523969995,-0.2049240417098668,0.09532261292065537,0.08238575078623955,-0.1747066543865471,nm,0.0
13.406823635101318,-15.956510625186386,-13.199242632137683,140.18459233131043,-0.7867012303273043,0.525173768659237,-0.07352866085842875,0.10226264102250297,-0.0632134666770632,-0.013551052588754026,nm,0.0
13.40979528427124,-16.818733831333823,-12.644475860851097,140.55432763318086,-0.7510764446621302,0.4032190733025718,-0.17513303753560044,0.0607313586585055,-0.1785727435479515,0.03553591867571539,nm,0.0
13.418266534805298,-17.73948631181376,-11.699534408709852,141.08827287308884,-0.7353471581816989,0.20985165603018693,-0.2773001996004824,0.022068548496758572,-0.24620193596589024,0.0682130613364923,nm,0.0
13.43601107597351,-19.850280324313868,-8.891654347140493,142.18853856745142,-0.5741126300238206,0.19133152357001734,-0.454710170465415,-0.035527719513251045,-0.358222806347317,0.04776770527565945,nm,0.0
13.455012559890747,-20.65561652893059,-5.104013062686461,143.03913675739483,-0.43083723077141,-0.15844885664689917,-0.4362207781840152,-0.18726374078137234,-0.33675486252272024,0.06453185248969152,nm,0.0
13.500572204589844,-20.133068724422397,-0.333248906644643,144.12417261429508,0.14755663339956152,-0.5042255057508114,-0.28625399638934523,-0.384904181447895,-0.33068712488932117,0.1295363383200477,nm,0.0
13.502761125564575,-19.208249971691732,2.3180665025901326,144.98029466367078,0.5706454055160964,-0.6558237210009137,-0.1307353177165025,-0.45767839918794184,-0.31073937659481593,0.16685404877400553,nm,0.0
13.52068042755127,-15.498719998079494,7.267266500091063,147.0324758144551,1.3035422146985913,-0.8920205547988526,0.5361802292504506,-0.6279738383415809,-0.13331357210224223,0.15647039179700256,nm,0.0
13.523041009902954,-10.698102115834674,10.519067863420073,147.51464094168733,1.2528105476381148,-0.5046809721811132,0.9104421941793108,-0.48810342948682495,-0.0015204377809407222,-0.03548648400887359,nm,0.0
13.526278734207153,-8.717091464497779,11.373523949257109,146.93248626410292,1.0599345288454227,-0.15450966636749489,0.9193861913694366,-0.41897632389314526,0.08139169605287533,-0.15579259442485419,nm,0.0
13.538620710372925,-7.290334791166681,11.443650017564428,146.08492853316508,0.5928963855243925,0.004294605368636739,1.0896027536791144,-0.2400256392504803,0.1565055715116469,-0.21639836758053324,nm,0.0
13.546121835708618,-7.185220660377415,10.722390540269126,145.12625172543397,0.5622322451499284,0.4867590550032072,0.7183011456660212,0.06596768387041788,0.14434298326241002,-0.18939718739405337,nm,0.0
13.570093631744385,-8.370211539719554,7.504562442511803,144.0149977244162,0.23684209577393017,0.2659278314159835,0.5975623706843523,0.3630816485271837,0.2150749385323751,-0.036590319372339725,nm,0.0
13.576244115829468,-9.942675693878941,5.392985872662232,143.94243134911983,0.19311400981644167,0.1829828483460396,0.3614294223773516,0.5032241893544397,0.17134372979353968,0.04061989397833435,nm,0.0
13.603077411651611,-13.524477391192727,1.1115969789506848,144.23413428249523,-0.03657912323325114,-0.3102395512040211,0.1270150527242165,0.5595056458098563,0.14039059025009873,0.05408571075041885,nm,0.0
13.60481882095337,-15.330213150708147,-0.9834908577293557,144.11086993822389,-0.10526884047531894,-0.2324613677446775,-0.17644491076600374,0.5400154940898714,0.14221931107630273,-0.003339417876627142,nm,0.0
13.619225978851318,-16.71032215395434,-2.941404154545589,143.72600583726285,-0.2738470977382052,-0.23052472414605354,-0.24591431771237837,0.45544313854113144,0.16826616683140402,-0.07513517659205472,nm,0.0
13.63094711303711,-18.001469174146468,-6.647398147451248,142.37945784586609,-0.5705723409975976,0.23163396189827026,-0.4338157935837766,0.2663294438404641,0.272180797474036,-0.136924909359397,nm,0.0
13.64534330368042,-17.907791061693896,-8.295486888776685,141.73332479721006,-0.7391999023369579,0.37690195644776914,-0.31745541074964845,0.1901839336146419,0.2858991659903406,-0.11086375568178532,nm,0.0
13.651803016662598,-17.641725853522374,-9.658518109871348,141.27440207587028,-0.7254901244982919,0.6408882200527005,-0.38732632043139037,0.13084707658828398,0.2605414047096109,-0.05535624928943822,nm,0.0
13.674858570098877,-16.363445556014213,-11.495312560039968,141.42650820923953,-0.843836714827049,0.7465483210342578,-0.21285247641880076,-0.014341941821003156,0.21763053706921853,0.10325884843914945,nm,0.0
13.689681768417358,-15.60249406171408,-11.890797103925028,141.88704099319324,-0.7884731178390085,0.4363540156776332,-0.18069551387829122,-0.06615265645731512,0.16911791628338604,0.1474690716784912,nm,0.0
13.697587013244629,-15.260853278821726,-12.201839837319783,142.49010451682523,-0.7322646768303681,0.44890759756447374,-0.2055832107024723,-0.013204904242534725,0.10461752954175674,0.14928869671791895,nm,0.0
13.701680660247803,-15.07056055542968,-12.196480969149961,143.04442361909824,-0.6380867539259074,0.43982564756723114,-0.24686876940542948,-0.029029537681909353,0.03609497288453051,0.13156051426765508,nm,0.0
13.708364963531494,-14.88346654328648,-11.721835328025744,143.49408178992022,-0.5437698398443217,0.2388458851510059,-0.24845947538291308,-0.0851039428692738,-0.03980601104570761,0.10906088059434892,nm,0.0
13.720087766647339,-14.886965704634282,-10.984174005100028,144.02643375846299,-0.41982285235580896,0.22094686266796854,-0.32410997369621786,-0.08571494700419935,-0.10516201590419244,0.09792173884287352,nm,0.0
13.726501226425171,-14.806271112164415,-9.931005517609893,144.7052697583978,-0.35074767574845933,0.11207752092237776,-0.2857936874867117,-0.13479986947516398,-0.14784066297648418,0.11905040892188973,nm,0.0
13.753957986831665,-14.498368930060668,-6.327799139044872,146.57898513020507,0.010761730015542084,-0.17278529307269275,-0.30886719053240125,-0.25214070463206534,-0.30600560685318023,0.18784106067564105,nm,0.0
13.759470701217651,-14.12924491688227,-3.956003407085406,147.75406145954142,0.2128932206174488,-0.23102342038447934,-0.334656485897563,-0.319161167867613,-0.3448324406934188,0.23642826860177038,nm,0.0
13.783454895019531,-11.283213606569351,4.075109964023146,151.97937149470832,0.9138465055222613,-0.6603685374452196,0.386594791729303,-0.4502734562184612,-0.3239073278391694,0.25062502512878465,nm,0.0
13.795571565628052,-9.763885220709268,6.287183150232716,153.13857789975557,0.9909403872589378,-0.6212780635102454,0.5889544372751705,-0.4737258990915618,-0.2398030583798376,0.18805293842104995,nm,0.0
13.8163902759552,-6.8797164401536985,9.482196704546942,153.9032727275265,0.6936346995275631,-0.070812055145335,0.3921406649246425,-0.34837274346170427,-0.11847436374558737,-0.022384671957142763,nm,0.0
13.821426630020142,-5.717147846274491,10.209248162183577,153.55253327532904,0.35375129575285225,0.1641245818999173,0.49534616144822113,-0.2707795577979021,-0.015522949517292793,-0.11514545113157915,nm,0.0
13.851561307907104,-4.949828013598134,9.61592215336161,152.15239624111956,0.005024468747200199,0.533365273116445,0.337582084650515,0.04233381890208241,0.12919125447076157,-0.15745146147583924,nm,0.0
13.859423160552979,-5.237009623566044,8.507685918758467,151.43646888874062,0.010967291421778472,0.4482988109560785,0.3090220165158406,0.15473099757923017,0.18217434784865597,-0.1253682697582492,nm,0.0
13.878932476043701,-6.9803100535567255,5.418480952170752,150.54417323422487,0.14091444393578095,0.12205232099829397,0.25377245994277303,0.3349284159982518,0.19542354635257597,-0.049480788462687886,nm,0.0
13.885686874389648,-8.13550885400273,3.9173914846001208,150.14908671810488,0.1361521854151391,-0.11258788811407687,0.22144007646016656,0.34889259003411127,0.16083547179400814,-0.049698118867970265,nm,0.0
13.912022829055786,-10.595075775872354,1.3829414241957856,148.89672824576454,-0.015478512410435616,-0.12139921559479933,-0.1573862844859702,0.32642322272138147,0.09933143013555183,-0.12246846991612692,nm,0.0
13.913742542266846,-11.571173256699435,0.31362021236455545,148.02020606803697,-0.23281579885464646,-0.06446985175464949,-0.22413312131305316,0.2787533007109291,0.09431584853629935,-0.16493460553285297,nm,0.0
13.928349733352661,-12.396359419848308,-0.6766096962954954,147.06012900169276,-0.4075141946372498,0.10412389524240843,-0.3302261996983331,0.24622579767539873,0.09281005937926042,-0.19021002185965344,nm,0.0
13.931274175643921,-12.973780710107283,-1.6627988650877044,146.15355942051718,-0.5736974021650958,0.273768690491692,-0.3576952853315732,0.2057790137941064,0.11552565205264835,-0.18599273962594443,nm,0.0
13.950082302093506,-13.578643657496707,-3.554897395012233,144.554721512034,-0.757705156350637,0.5262803213662839,-0.3248145878603419,0.1473786234580186,0.136831098320679,-0.11389445659317955,nm,0.0
13.954476356506348,-13.671238580976967,-4.428758145654242,144.10397995857736,-0.781449421518507,0.6499653966904414,-0.3771118857458194,0.11825965151688347,0.14554315311548455,-0.06501348865999247,nm,0.0
13.96631407737732,-13.607040771750828,-5.140954467863098,143.89369477789893,-0.8248596882170767,0.5671285239706518,-0.12174538137391676,0.07462144003981343,0.13717723002805404,-0.026179913364114533,nm,0.0
13.989716053009033,-13.771942884276143,-6.383363683930092,143.87719929963438,-0.5519000464925747,0.49582856945931825,-0.22595596039486834,0.09363663832288988,0.10610066205673639,0.009132116500588677,nm,0.0
13.993218660354614,-13.814042493534036,-6.697952613834087,143.90444460632602,-0.47535410755645585,0.41410906669798353,-0.14969199988554718,0.04493484515525654,0.06031131576962704,0.003193942392220754,nm,0.0
