timestamp,roll,pitch,yaw,acc_x,acc_y,acc_z,gyro_x,gyro_y,gyro_z,markers,motor_input
17.023958921432495,-6.295106594129331,19.56656234189703,150.73382430158983,0.6650313007447375,-0.29971003886416825,0.7476097062417423,-0.06370937784847433,-0.1565096297906042,-0.12414411026071495,nm,0.0
17.025656938552856,-6.8363166829582465,20.099762901912705,149.84793240037655,0.45034283336558095,-0.2032768894805868,0.6373661735646454,0.03672912409339698,-0.13011713545444484,-0.15993670161660567,nm,0.0
17.052443027496338,-8.78219150605784,19.76980809846726,147.68659993696136,0.0473304632311343,-0.07650661208846966,0.299794324405046,0.21631071984464958,-0.02472989792946116,-0.14993135243657352,nm,0.0
17.054404735565186,-9.870020149827255,18.922132587599805,146.75400636608094,-0.05491325325944532,-0.10690590224749877,0.1592388192400165,0.266245777325719,0.044804173664951326,-0.11979135637206857,nm,0.0
17.0781192779541,-11.44798658918309,16.323929629157842,145.37326386261915,-0.08014157951583123,-0.13145244940489828,-0.02987199879707063,0.26053630636386965,0.17326112033587734,-0.08347837986716493,nm,0.0
17.083898305892944,-11.702152261917462,14.98298959549974,144.7540579142617,-0.0035209758358565276,-0.3089958240102295,0.05543001309342543,0.19577089426104205,0.2055766331646797,-0.10000842984027353,nm,0.0
17.102646827697754,-11.713306178008175,12.053770831311404,143.49301287816925,-0.04815391495467649,-0.09973831593582551,0.0915415701829125,0.15540936656602639,0.25628741306151986,-0.13572500484760555,nm,0.0
17.117213249206543,-11.50813017969596,10.963268035656192,142.74426189858946,-0.07331471390452408,0.055761392800886975,-0.017843230292880492,0.10085146275693771,0.21254100929741473,-0.1557960812900975,nm,0.0
17.142743825912476,-10.821419069561957,8.255285285848606,141.02486152059785,-0.4123472572604451,0.5712645007069201,-0.02549072732998971,0.08352771241732873,0.16214549315975194,-0.09259309923061891,nm,0.0
17.152011394500732,-10.873717936834456,7.481238493220197,140.73328418403722,-0.3881579018364065,0.5884274168677419,-0.07714902791978102,0.10808835613283767,0.12747898416869635,-0.060686555430603265,nm,0.0
17.176477909088135,-11.114512387300348,6.700075850873322,140.5377033153948,-0.38191657280048324,0.5366470832853246,-0.07056105454611133,0.13845839743600924,0.10439818917721436,-0.03680502425945794,nm,0.0
17.192053079605103,-12.191112716168112,5.586842847503024,140.16104535279354,-0.36732044086977594,0.32470770975407204,-0.11309009313478095,0.15561751449407188,0.003126556746296158,-0.0309882898564851,nm,0.0
17.19379425048828,-12.932427547403023,5.340527436583323,139.94755194847957,-0.38849261667752766,0.2606621183079743,-0.1614859846509997,0.14731209610789056,-0.043135153163485526,-0.03165383697541525,nm,0.0
17.19745135307312,-13.720089446616596,5.323659900237629,139.71641537556673,-0.4634226002778404,0.27041540528987595,-0.22933264966139658,0.1245538282068999,-0.08482355441625118,-0.022925728888427175,nm,0.0
17.233837842941284,-15.173050354081376,6.859305140545322,140.12752548812998,-0.6084131177745695,0.29713641913783356,-0.43809751753952264,-0.047499182256930964,-0.12762209694672075,0.06242930540595487,nm,0.0
17.237141132354736,-15.156170320629927,7.6908196806793105,140.58971446586511,-0.5434466062124736,0.326365840822414,-0.5062604732785722,-0.10647454154859626,-0.11212148326611059,0.08504872158992702,nm,0.0
17.25105357170105,-14.77402809462631,8.596276299471187,141.14389638914503,-0.49430926073032777,0.2332721676681743,-0.44361834782593335,-0.17093909748711383,-0.07894454919726097,0.08854367638557645,nm,0.0
17.254541873931885,-14.259121748177435,9.492188431086925,141.67456371648146,-0.3584532744190865,0.17757270428136296,-0.40706693989152454,-0.18933804254266542,-0.06285616888005036,0.07921237130051885,nm,0.0
17.279358386993408,-12.943544776762778,11.325974754552613,142.385220823638,-0.078249407729696,0.01057852651306021,-0.17138889687910636,-0.2229228380786166,-0.05128137039537936,0.030008900957982913,nm,0.0
17.30442190170288,-11.963550673993566,13.384545874921928,142.7539025371449,0.33982154942923537,-0.08937318619491737,-0.01585409594852304,-0.2004848448075754,-0.09502703080557305,0.007700365533970034,nm,0.0
17.314964056015015,-11.37541107557438,15.548037112890444,143.01182172783518,0.6012764310992917,-0.28812588899175356,0.3145478848575127,-0.15904635714317475,-0.13940204595760866,0.006538775745477244,nm,0.0
17.329920291900635,-11.239981562313726,16.601495846084816,143.01693513679118,0.6765822607329883,-0.43181588454671627,0.4969977489756975,-0.1454925955410454,-0.13935271899073917,-0.011202923308549212,nm,0.0
17.33183264732361,-11.302021892680296,17.54833722285079,142.90679417683694,0.7256985562999937,-0.5187008214468745,0.6148267690091713,-0.1022909771082715,-0.14514943798516328,-0.04002146857074458,nm,0.0
17.34040141105652,-11.562442951261676,18.38434192295347,142.54500490569882,0.7625648889034028,-0.5509313954565881,0.6722246849696084,-0.05929659709680491,-0.14992926013479624,-0.08455176165172576,nm,0.0
17.365797519683838,-12.546143432454745,19.49761970630242,140.90107495983457,0.6433872745479645,-0.5197321976190737,0.7468640326445848,0.03499675409989799,-0.12344075979662258,-0.1748269876077529,nm,0.0
17.37117338180542,-13.194385919110884,19.66373566134785,139.78812404048864,0.5032522804228864,-0.43740374789783326,0.7154424064870811,0.07609908197382924,-0.09031324474429303,-0.19395697393191758,nm,0.0
17.392327070236206,-14.551234316906434,19.228546996214078,137.85391691834408,0.20952462055568408,-0.20317367100421854,0.4210862147966024,0.1432224889307285,-0.020748309647343713,-0.1408794436978553,nm,0.0
17.39764094352722,-15.042466924839037,18.65789994424818,137.24368488841975,0.0650110766453321,-0.14119533388990638,0.2823135189070242,0.14939281350312153,0.034826873589686114,-0.08825199209178196,nm,0.0
17.420826196670532,-15.453668336476133,16.82485361134873,136.97156880923166,-0.1247134760866856,-0.08123185546733598,0.026801267928163997,0.1584355968768579,0.1459158377048822,0.021745124028809997,nm,0.0
17.426304817199707,-15.423429498463513,15.640657358652074,137.19308597506208,-0.13682657928784972,-0.11940299133693155,-0.057122352172133885,0.16076033630886827,0.19106129145495182,0.04889442456580522,nm,0.0
17.435161590576172,-15.287024336586946,14.29491301408347,137.4224578316344,-0.14241669366726256,-0.134697086396943,-0.0943844445788852,0.16682816240746448,0.22942526590217982,0.05099810064771347,nm,0.0
17.458096981048584,-14.7188004254243,11.47008844836102,137.53133849244472,-0.13030062516788268,-0.04373005574463357,-0.1565994040158657,0.14557615906085222,0.26590740993076634,0.001172092676794536,nm,0.0
17.466323375701904,-14.319983723016147,10.11042994105852,137.46515636980155,-0.15957752957884438,0.09207425618171836,-0.15840309508422673,0.12943041437096744,0.26734577588198755,-0.0168757931244579,nm,0.0
17.486311197280884,-13.409861690165414,7.81775632984758,137.40196062037387,-0.29510371832670373,0.39717910437466813,-0.15066687672554688,0.07978862817412337,0.23115195240937061,0.006518130298825481,nm,0.0
17.502066373825073,-12.988923200418835,6.897453881458542,137.67435342033545,-0.3679497074688084,0.5168088434329472,-0.17786874401510663,0.06575463619984934,0.2061413314804468,0.045530866132747386,nm,0.0
17.503856897354126,-12.63334552342829,6.069129108827784,138.169497946326,-0.46238869550684275,0.5812012249851742,-0.17665375618019385,0.06146155967378124,0.1843299628139933,0.08787971121752866,nm,0.0
17.529720067977905,-12.28329371501382,4.679758492693559,139.4728094403156,-0.5558116826379351,0.5691049045584394,-0.20990147590166122,0.07038647257466783,0.1274574786833291,0.12958377739352833,nm,0.0
17.533852338790894,-12.247806385444656,4.1116921736739505,140.10611968886334,-0.5713305294037495,0.5230577416657853,-0.21669329746727004,0.07029083697509558,0.10539145397723099,0.12320165859635603,nm,0.0
17.53943657875061,-12.263115027341158,3.6648838948136406,140.65173796779263,-0.5567641644542543,0.4769029778421465,-0.2380772744268481,0.06152430929974633,0.08095083971084814,0.10645961731954894,nm,0.0
17.568264961242676,-12.286430226950422,3.3510096615027924,141.52628446827882,-0.5354559464224208,0.4090244349285027,-0.31858127823527205,0.010357519256041012,0.017563746342582422,0.08004686100778577,nm,0.0
17.57017683982849,-12.249378814043116,3.5959238796599466,141.95787550429048,-0.5058690162904772,0.41566764693180325,-0.3920221657932466,-0.03439203054781531,-0.019893448248355445,0.0829841139162025,nm,0.0
17.578507900238037,-12.108490346446796,4.1393644903506885,142.46449385499128,-0.4913136495441872,0.3488613483540452,-0.383659972845859,-0.08723704023080943,-0.05472783857543277,0.09645459028113214,nm,0.0
17.589288234710693,-11.947803189197227,4.9468721406941105,143.1212185009237,-0.4056409557521982,0.3123544126196275,-0.4561535364374451,-0.12169986280890015,-0.09545442693041852,0.11215496518318183,nm,0.0
17.596364974975586,-11.697498167234414,5.99724619094961,143.81851978941663,-0.2853557511173535,0.20202059679111886,-0.4515650171585841,-0.1637673009418621,-0.12543476387940486,0.1172651919467562,nm,0.0
17.62592601776123,-11.122442608291523,8.700926214900214,144.79327847440808,0.18289310146212123,-0.12038451563159831,-0.39781196396107443,-0.21116383304217548,-0.18777487460099623,0.06950082673217052,nm,0.0
17.627963542938232,-10.83153716226973,10.251303391342235,145.03491319803047,0.4713237156384389,-0.3303564269726995,-0.1709653177586952,-0.22394787715360454,-0.20737503039392446,0.018528158732741495,nm,0.0
17.634577751159668,-10.592101286754499,11.93711899844099,145.02362097506747,0.7712187913493777,-0.5238095079106696,0.1266275971473878,-0.23030577784165712,-0.23619249875405998,-0.04024742258457431,nm,0.0
17.662043809890747,-10.30817679382175,15.879759391377446,144.18353321678546,1.1452957590983117,-0.7660051149788815,0.8449268060334172,-0.25528895544782876,-0.3130570605425193,-0.135400675579687,nm,0.0
17.67355704307556,-10.840511277632201,20.42042657870433,142.96034330452642,0.7533837384758494,-0.5597476663515899,0.9700596996094893,-0.21074822925717984,-0.401517753696581,-0.1294391729934528,nm,0.0
17.6929874420166,-12.282535840257463,24.095097803704878,141.99142460490086,0.0016885285628295134,-0.12473383572122947,0.26792889238627315,-0.0755681329107371,-0.32017262456038104,-0.04108684986280257,nm,0.0
17.712528467178345,-12.995874566575544,24.74160470451993,141.78775058772328,-0.26105815325304815,-0.046343355698397384,0.12435321143918335,0.02545830211814945,-0.1690084934704731,0.0130478139574543,nm,0.0
17.72817826271057,-13.664198096118461,23.383498806264836,142.0380371614781,-0.17474780285927094,-0.4171408046632586,0.4194329754648536,0.16283726389483205,0.16387682367405168,0.061771961742614595,nm,0.0
17.73045825958252,-13.792752026218729,21.637769356461444,142.21756700708653,0.13164481099251482,-0.47128244502045885,0.20993941167094668,0.2363467263502249,0.2744687963988279,0.06647098687895672,nm,0.0
17.740484476089478,-13.678247046992325,19.805559707487383,142.23591561057174,0.2478426350664085,-0.41124422966055835,0.195568093345371,0.2108389116642861,0.3162632832908428,0.02859291710908504,nm,0.0
17.76200294494629,-12.535647834343495,16.6485273210214,142.15656828412526,0.05857867083176822,-0.12493861484634516,0.022197472267094377,0.096309232685141,0.3237198673958498,-0.01289658774754558,nm,0.0
17.770747661590576,-11.651595490758874,15.363555605920157,142.304369435911,0.011640543185267783,0.19189743490218555,-0.20044844215494437,0.025740615993653466,0.32112413960138964,0.0018726359890493816,nm,0.0
17.791041135787964,-8.862225320798157,13.170044156237356,143.1233804015101,-0.4339544581002506,0.37149956020242875,0.09316967580228908,-0.07049799580178845,0.33752809485741375,0.05522053314002185,nm,0.0
17.79856276512146,-7.923897440892924,12.10730700904399,143.5991698633139,-0.20459912004620498,0.7326335483953847,-0.27758151240092244,-0.01796626401075022,0.2936626247059671,0.07625339380665304,nm,0.0
17.810010194778442,-6.724243876651666,11.080059409589678,144.01880407283912,-0.3798045777641637,0.6024462553533624,0.097720062033871,-0.06652771931171492,0.3184673030156865,0.05180737830449265,nm,0.0
17.814475059509277,-6.202692903050509,10.142520580347096,144.3059625341706,-0.2935169304457733,0.6353906969452925,0.04088405680351328,0.028212527865743204,0.22575809491009843,0.03322781302043412,nm,0.0
17.826923370361328,-6.186723848508931,9.326730887747091,144.3556113610071,-0.17117396707226495,0.7566173423070006,-0.16343310260071378,0.09413610482148904,0.14805401128397175,0.004463941807846671,nm,0.0
17.84749150276184,-6.3285714712193135,8.68945971073838,144.25541818268294,-0.34007280904798876,0.6366243687121098,0.07533338353243678,0.09866210548210139,0.10081374473598399,-0.020441244068688046,nm,0.0
17.86491298675537,-7.84058958807771,8.203206958352041,143.99496628440238,-0.4712343028784541,0.6586027544266215,-0.21714858771101544,0.14632313185577514,-0.06351755005551984,0.00022560039641126707,nm,0.0
17.868300437927246,-8.726650378644859,8.31545440761736,144.11141405029738,-0.6405749491533181,0.5368124274443554,-0.21275113308866647,0.13048870400762802,-0.10746917814507471,0.030375389895906307,nm,0.0
17.872129440307617,-9.750933194892614,8.647918458307048,144.3685337419966,-0.6464301560115583,0.5265963774494132,-0.429209312877281,0.12726677230698866,-0.15869936978126548,0.06059804788571685,nm,0.0
17.932502508163452,-11.786366745994771,10.621807522065696,145.16566996030403,-0.3217080748036006,0.05446450880923109,-0.5791882366618653,0.0022831602862929934,-0.17859178132328876,0.04236640110924183,nm,0.0
17.934621810913086,-12.415455930136796,12.732459994411121,145.03704835670743,0.2565171056972049,-0.34183194510271886,-0.41164923910138873,-0.0878205317867856,-0.2058070144667822,-0.02631151098959782,nm,0.0
17.936352014541626,-12.53938201681964,14.106712547978448,144.81128300045646,0.5586631910748157,-0.5409045879759364,-0.12388391729294089,-0.13671292583371797,-0.22536977182364737,-0.04814788765500573,nm,0.0
17.96292805671692,-12.475661226922103,17.602218745890028,144.30842451318676,1.030733743025207,-0.8024618666106771,0.6530261238442422,-0.23001066793874644,-0.28219720184989633,-0.057452844090927095,nm,0.0
17.97173023223877,-12.158708379192133,21.749921872360748,144.05953679817242,0.7919554534885509,-0.6532608794689859,1.064637466876561,-0.2614567025460841,-0.3127056560517425,-0.07004369316445039,nm,0.0
17.987088680267334,-12.143718080668542,23.616714852087036,143.7069053580349,0.4933445897014311,-0.38713220929338116,0.8552940426764293,-0.2199810129079934,-0.2871845220366584,-0.08204081701255388,nm,0.0
17.9897403717041,-12.21591629114987,24.804844252296302,143.265649311827,0.10939577941278746,-0.13621587115653913,0.5328386369358988,-0.12825015885521754,-0.18593585061801346,-0.08778314281700826,nm,0.0
17.998382329940796,-12.439373951100109,24.967090235414908,142.81934229797324,-0.18777457634108544,0.0767263472054831,0.170527064597105,0.015724338763683968,-0.037247888626283004,-0.07588363062303757,nm,0.0
