timestamp,roll,pitch,yaw,acc_x,acc_y,acc_z,gyro_x,gyro_y,gyro_z,markers,motor_input
61.515313148498535,-31.91045071269752,-1.9169127122698124,5.207532814780482,-0.5753776973439347,1.784031543107724,-2.453166100487199,-1.6597204816638842,-0.5274318604268888,-0.14262223150172573,nm,0.0
61.522757053375244,-37.55815102474315,-4.135232151204991,4.241022076264292,0.4338636054405742,0.3588473293457433,-3.07812658648479,-1.0809607016379115,-0.5468441334791414,-0.24964330528803935,nm,0.0
61.544429302215576,-37.28024665337121,-7.962176170177185,1.1359906727141569,2.1436062858708387,-0.4973656974335349,-1.528311251745266,0.45395088274735124,-0.3187968058857551,-0.28349701078706385,nm,0.0
61.551291704177856,-30.567642697001144,-8.387081846741621,-0.36887865332885833,2.364259455188182,-0.18223657952020306,0.06292246905678381,1.338034410414998,-0.0884245867275402,-0.10738365916112946,nm,0.0
61.57016396522522,-5.5860036285000225,-5.635889496218149,0.26729484025862893,1.2795313037367257,0.11136309750527143,4.889048395953513,2.783979426589571,0.33846838507966176,0.5366830262551004,nm,0.0
61.580641984939575,8.612019288788861,-3.9414489475808963,2.7127793579382526,0.68068390010503,-1.7502675933744885,4.706921421129961,2.832265948662948,0.4011086389084205,0.7183660065986166,nm,0.0
61.59858441352844,34.79042320461696,-3.050119718085624,7.060981563521586,0.36140877300689755,-2.913455812530236,1.3698838214370503,2.4959842719839114,0.29066320561613634,0.45919977391521255,nm,0.0
61.60835552215576,45.140946967438936,-2.412980980205322,7.3749838242869545,0.47345877589782515,-2.4599960043426843,-0.09980054898315988,2.0462260323152077,0.38296335203151577,0.15020068499889827,nm,0.0
61.62732434272766,56.89031416778682,2.3182154629792655,5.536775087396125,0.0018764741203733325,-0.8613443795794271,-2.006758410813649,0.7881825728730087,0.6683746065152021,-0.2664240462685623,nm,0.0
61.63492560386658,58.81995750729244,5.5953204375505985,3.991733693041999,-0.3718013888286107,-0.35487017053553427,-2.415556424842463,0.3359596792500863,0.6847662749635187,-0.3489816581679469,nm,0.0
61.65731644630432,57.16375266855946,9.87405096221681,1.464655131805923,-0.8488355547788263,0.24587531734756427,-1.9731117205093252,-0.3627469864049095,0.29582668376915777,-0.15505038858798323,nm,0.0
61.67126774787903,53.6669324061605,9.94611256768296,1.3265699259239276,-0.9759424623263184,0.5079728535939799,-1.5724400790458244,-0.6846076903825437,-0.004925446958476049,0.0796428914155425,nm,0.0
61.67326807975769,48.716631263610104,8.770130505217876,2.10853647961465,-0.9137050658579742,0.6771518195355188,-0.7144644450773034,-0.9649266633592096,-0.2680304385954506,0.3048545171016164,nm,0.0
61.69501447677612,33.94030731208486,5.483197657646804,5.088359159862025,-1.0801887678008775,1.3471156423416257,0.4886903709140604,-1.5551469661839155,-0.4450106243396436,0.4653810851890282,nm,0.0
61.70354223251343,24.821900166726532,4.160424864803879,5.799650229966037,-1.3111928343411385,1.9066524717865305,1.3419996729046317,-1.7786976702831565,-0.44320042570286583,0.28578336209392785,nm,0.0
61.729127168655396,3.706085171221053,1.0112623946384869,3.4657185356683518,-1.390399196387412,2.832271362329919,0.6939973210800401,-2.089631904992006,-0.5327695955099039,-0.27797673466087397,nm,0.0
61.73445272445679,-6.308003644830829,-1.5166551267747184,1.3888660541032336,-1.0944022614963118,2.8882252395815198,-0.10993190900928641,-1.9745373339003987,-0.6010605757931577,-0.4271532703763984,nm,0.0
61.74956393241882,-21.698348162287445,-7.549871000732722,0.009158175176135699,0.31997839827108887,1.1095096015424535,-2.100897560475573,-1.2995529631821179,-0.6022213119342221,-0.21165409291641352,nm,0.0
61.76365542411804,-25.70012434735547,-9.38616556844751,0.9277800463026753,1.01672961113377,0.49834287249813186,-2.1524888002915885,-0.7815277113219039,-0.3875912757152038,0.030332255808200728,nm,0.0
61.769487619400024,-27.05662402491387,-9.797552703165337,2.393160481826856,1.416443509380279,-0.010375854629706456,-1.718066939385523,-0.25763125697484224,-0.10219688764195692,0.2500818129184057,nm,0.0
61.79508090019226,-19.27529998438442,-8.609058448695666,6.854920162319249,1.1601712619754811,0.16880936743921718,0.04427448910245443,1.113435069045141,0.23027004451008132,0.6622806642863053,nm,0.0
61.80341935157776,-10.730328220643221,-8.15626134897859,9.156179330433256,0.8183155346856292,0.3788093733101472,0.9242476111195737,1.6734957742854883,0.31470970043801,0.7076690947353405,nm,0.0
61.818408250808716,8.79759635087753,-8.117330554693371,11.391189402779505,0.32044684335307383,-1.368845776458017,2.1455459636991736,1.936039696544655,0.33822362829044045,0.3945717162221767,nm,0.0
61.826794147491455,18.23836658682172,-8.202914231692636,11.036017363834356,0.2694687071880051,-1.8480548840255893,1.8047507702240095,1.8490110285816619,0.33973391276487763,0.19018173496387347,nm,0.0
61.85189604759216,30.20299017438513,-7.095675057036718,8.758524065169077,0.38311249562890354,-2.040984219105898,-0.5451757071275154,0.908535047015655,0.2882653353896604,-0.13809148812416666,nm,0.0
61.85840439796448,32.6438440314165,-6.424882419855111,7.702104612199499,0.3414685395425439,-2.03723732052747,-0.580351682749802,0.47049743771669966,0.1967536402356069,-0.16344270367584698,nm,0.0
61.87547039985657,29.982351821619186,-6.651540535581564,7.077667510155449,0.20123289749481912,-1.5068134101064978,-0.12037817413683942,-0.4688883632986049,-0.16044888917916733,-0.07198216997291183,nm,0.0
61.896995067596436,25.513200095827024,-7.649717006214359,7.601895976241484,0.013144675512339945,-1.0452992384138038,0.6747747053682632,-0.8455640812396763,-0.31843090919252476,-0.014821940135199522,nm,0.0
61.89957880973816,19.278812784953868,-8.59706004295514,8.543520588803306,-0.24420043645101802,-0.3871273755319576,1.0494338039911715,-1.1871541979397415,-0.3688399705744942,0.004681495865368679,nm,0.0
61.90220880508423,12.024351646306085,-9.159480019698853,9.432902352291144,-0.5923267093728435,0.33708180216298567,1.295549972844547,-1.3900289454855057,-0.34382834222264985,-0.052345333599714876,nm,0.0
61.93052577972412,-2.665390967160506,-9.50661963761574,9.049966755435028,-0.6787930098322876,1.3578904031739987,0.6311886567925106,-1.3480498802599608,-0.25780055082162184,-0.33144195948872807,nm,0.0
61.934091567993164,-8.899657349919446,-9.72919043455061,7.813851368854407,-0.5077058509516381,1.7146400641463424,0.1883761830906718,-1.2018431362640936,-0.23430645833050193,-0.4382698543514717,nm,0.0
61.94065523147583,-14.247486317960393,-10.150088113504733,6.31981020229203,-0.07499410580576452,1.4935614332886367,-0.5019842652753708,-1.0278466820729253,-0.2230873715420547,-0.4496029443412919,nm,0.0
61.96417760848999,-20.218246399388175,-10.557464903503174,4.675472437016275,0.4105063716476728,1.3551101355721764,-0.7556977636395786,-0.42908989142862647,-0.052124428240802594,-0.1462064919068087,nm,0.0
61.970824003219604,-21.075959995879433,-10.117025929293826,5.0443065176386295,0.4124372510700711,1.1453648108148047,-0.8444311116899881,-0.16736203144539838,0.061866035649415,0.043734247783703974,nm,0.0
61.987841844558716,-18.619479560144818,-8.848475133853505,7.130397929011695,0.010488683453946393,0.9229814857058453,-0.3991013993263907,0.35387566208900023,0.14886523320933787,0.2882203737557157,nm,0.0
61.99920630455017,-15.690487482069274,-8.516180322829795,8.066036614718573,-0.1767564058317933,0.6780040477110818,-0.20967999382522398,0.5751566648873314,0.1315077153869185,0.2751943726704464,nm,0.0
62.01009202003479,-11.887008990349482,-8.51299162506755,8.465407269314882,-0.28848470750517224,0.5440305354377171,0.18651639809166465,0.7547298590430802,0.09805005060925402,0.19124647544163204,nm,0.0
62.02027344703674,-7.701827390668221,-8.674139139390372,7.987397295025115,-0.19524027051433293,0.17534472524823336,0.22722855987955567,0.8343291399955263,0.07428552440795624,0.07317330009552017,nm,0.0
62.02821469306946,-3.404685981648525,-8.763374995270262,7.074982139397031,-0.13341857051700157,0.023897596335002616,0.6628593897078355,0.8550507216061097,0.0817046813017248,-0.014191856051625222,nm,0.0
62.044652700424194,3.2195171143690446,-8.486226727684835,5.455822626213473,0.24105395351024334,-0.7762197510292302,0.2572536786276442,0.6065439380867849,0.08555884731229017,-0.009671021255780413,nm,0.0
62.05423903465271,5.504449887799614,-8.354550003895694,5.3099820705842875,0.2503582017343463,-0.8035096932993612,0.3864792463031466,0.4574460601205585,0.057903735209615274,0.07404021974455599,nm,0.0
62.07983160018921,6.687100960077237,-8.419051510847323,6.29982241672966,0.14408033478316237,-0.7775916672052987,0.10865152943591466,0.03937688053801635,-0.024803073528287718,0.15342691524163846,nm,0.0
62.08263444900513,6.022581628416881,-8.569971470861928,6.78285342045662,-0.020866540972142376,-0.5427670722801589,0.22097202183678552,-0.11791013860303112,-0.054525967331938936,0.10620947413886343,nm,0.0
62.10716533660889,2.6895806092833223,-8.744406540744578,6.625207229538081,-0.18120979509871932,-0.11635375552342003,0.18836272039000188,-0.35937281300217916,-0.06594116218283204,-0.11862121884604629,nm,0.0
62.11401653289795,0.47957927073889667,-8.812434593014078,5.785209105277594,-0.1426651814311039,0.07631279195066829,0.18592986105103185,-0.4241993654854899,-0.0707017693172375,-0.2111676236404954,nm,0.0
62.12150716781616,-1.9152568735835014,-8.91224150146238,4.867492108426473,-0.03274354895499208,0.18015989360958748,0.11056745648878867,-0.46100741892884933,-0.07423202769288773,-0.24010394199522958,nm,0.0
62.145023345947266,-6.924349347136929,-8.983915282901872,3.869872218797809,0.22240177869713043,0.14472283836848943,-0.3029154408706569,-0.4871032392573238,-0.04401664779228523,-0.11005104896586655,nm,0.0
62.16391706466675,-10.053902498634919,-8.632842277407933,4.539975183695468,0.03324763922356875,0.7291521314302135,-0.1160813957970782,-0.28140480676196394,0.013782301019543306,0.08660893471854363,nm,0.0
62.171173334121704,-11.18577270679873,-8.329054620183836,4.9966839158261,0.025665541460445886,0.546125118846653,-0.4995449672647257,-0.21962585057408826,0.030988110151344592,0.09549268652966802,nm,0.0
62.17999768257141,-11.35552407666867,-8.074050307575686,5.2575465564208335,-0.11862739016930769,0.7419038258233313,-0.3148337457995977,-0.029211686477155812,0.03655170060046802,0.07804829866908773,nm,0.0
62.242714643478394,-10.397788477574036,-7.90714278367842,4.659481710950859,0.0029343155500871966,0.45391621891405765,-0.2865456590754837,0.1445963862643279,0.008497510808734461,-0.05381264316027624,nm,0.0
62.247556924819946,-7.931206948556847,-7.859458746949713,3.4319130977695425,0.11962303130128975,0.16672242681104954,-0.03711787391662823,0.25775470610456824,0.009049814684767368,-0.06046553140253788,nm,0.0
62.26296949386597,-6.596678864541061,-7.8240926494388665,3.154255912972479,0.165105587942753,0.003391074618304187,-0.027063496424630927,0.27238927705712623,0.010652003537059827,-0.0017049302180942726,nm,0.0
62.266244411468506,-5.124898636645361,-7.770110082211635,3.2609363852892765,0.11388529027848762,0.006488683724685151,0.015565024753204528,0.2994850263171784,0.015645380979104073,0.07466498153730014,nm,0.0
62.27622675895691,-3.8446542789020883,-7.749107929646008,3.5794868564091855,-0.016479969644125604,0.1229670882691616,0.26590004639729836,0.26196283025170375,0.00792579355312784,0.1213878011785547,nm,0.0
62.27998328208923,-2.125869021381881,-7.871558260483978,4.229514676180377,-0.13705489348106448,-0.001104621946950027,0.2260273386621646,0.09709532630212234,-0.01611254236084308,0.0232458114634061,nm,0.0
62.28672528266907,-2.319991995838855,-7.883760851600344,3.915895888332388,-0.0396166180871621,-0.13923553415732945,0.06552031762496717,-0.0006460367802105241,-0.024376454056300702,-0.05034516570248943,nm,0.0
62.297144174575806,-2.494448533875179,-7.942741937284938,3.4248746641254613,0.027898384148283047,-0.10689952052808514,0.14211102568615216,-0.025149288912660224,-0.025020983362793545,-0.08414149303949278,nm,0.0
62.30297875404358,-2.911802645341446,-7.9993008826558825,2.9390416509805686,0.090035045193582,-0.031534069689176304,0.19677623655603615,-0.07348886601344641,-0.02696836808417021,-0.08637472893611509,nm,0.0
62.33182215690613,-4.2822970045192825,-8.099362568773808,2.631730518688614,0.12863016249435472,0.10919266651252603,0.139926074008783,-0.12773521381984448,-0.02605864763233037,-0.005602948434083279,nm,0.0
62.338600635528564,-5.045331154373951,-8.111998351309682,2.800704975552374,0.07670802642007221,0.1940497123822223,0.07137600533198754,-0.1425198759792061,-0.020878278278279358,0.033357860986243396,nm,0.0
62.35900521278381,-5.959465955567247,-8.101660307710667,3.15373375398843,-0.07830902345148308,0.3572654094225688,0.089762164962514,-0.09222479884859419,-0.012062319754042863,0.03989537955096119,nm,0.0
62.36211800575256,-6.1280935484470564,-8.01309401101538,3.079191140117868,-0.05872104450510772,0.2408069815611417,-0.09087149998764764,-0.08333559542397577,-0.009474396395369103,-0.0006909555548346924,nm,0.0
62.38789105415344,-5.494705468111268,-7.9410583457264465,2.3733214781741663,-0.019528542905029547,0.2863484210579501,0.05487041427196814,0.037566402596725675,-0.0067694968069025255,-0.0568364659117386,nm,0.0
62.40467286109924,-5.129961283966878,-8.031418940057097,1.958918125572184,0.0795050630820894,0.18190973544070452,-0.004147624356264687,0.040811753513949854,-0.008278438837287743,-0.06392622308453383,nm,0.0
62.40685224533081,-4.647827902673673,-8.139978757736442,1.6755468717430695,0.10866204369224063,0.15922054665839258,0.029428734349226895,0.0705143412856788,-0.006949374864038889,-0.03876415142320563,nm,0.0
62.41582942008972,-4.168132059506484,-8.242412384767567,1.583524749758648,0.10157540274574739,0.14513203378813877,0.05492459679888988,0.07356644441112473,-0.008061414940980038,-0.003349263246694829,nm,0.0
62.431578397750854,-3.3231991298564942,-8.34803866480919,1.7732555775265277,-0.008151448940784843,0.12255346764545828,0.029679756092290115,0.07087840718447504,-0.01307272362591088,0.04670667180417725,nm,0.0
62.44038772583008,-2.954531791110377,-8.323650840384783,1.8366406555350494,-0.053575016242289976,0.11263597047995343,-0.013267960452413434,0.05614073705139008,-0.016479662087099944,0.03699481041358981,nm,0.0
62.46375346183777,-2.3569187061689854,-8.24173580072454,1.5677846365431998,-0.07891439251347411,0.10291163600894684,-0.015386466617424197,0.042129338457335824,-0.019944189066082182,-0.023956431299837055,nm,0.0
62.46554613113403,-2.1917255722020386,-8.241199254624947,1.2390132414178396,-0.0448505176842979,0.07734858107045127,-0.009280159311020535,0.023477063436174474,-0.02009678395098849,-0.051236704801640005,nm,0.0
62.473796129226685,-2.087185206544459,-8.296961542159645,0.9193865834794553,-0.000806780361121649,0.0747868468259978,-0.0026971523795069558,0.012284242827452684,-0.020457101544616597,-0.05704668487173978,nm,0.0
62.49665689468384,-2.0673662542883156,-8.513815021634995,0.6017296481159915,0.07233013229893827,0.10309347937314593,-0.05830380984274343,0.0,0.0,0.0,nm,0.0
