timestamp,roll,pitch,yaw,acc_x,acc_y,acc_z,gyro_x,gyro_y,gyro_z,markers,motor_input
24.010098934173584,-12.624236953640983,10.061636642274081,145.75458173185,1.381948611230679,-1.0645889479501216,0.7731148105554456,-0.3004615837261431,-0.25545193368790653,0.12138162019549383,nm,0.0
24.01572585105896,-12.13069966349466,11.877142111808428,146.19941614520266,1.2282357047892862,-0.9655257693982172,0.8936533298064187,-0.28253769650515675,-0.23332015760810812,0.0551062373450653,nm,0.0
24.038597106933594,-11.64232881234335,14.387984666871949,145.8589521727879,0.463760207831111,-0.33641332996074036,0.6620293405868921,-0.13421649614532252,-0.14036335268798336,-0.09227644574575825,nm,0.0
24.044970989227295,-11.753481453896821,14.614608596648274,145.27046972157888,0.13494088375871485,-0.02204936298603477,0.3395892596688814,-0.006333739292648387,-0.035937102956729444,-0.11663755078759612,nm,0.0
24.068320274353027,-12.30546851703082,12.559516586643811,144.42971595772516,-0.1703336034848443,0.25606263217219855,0.007601243631817504,0.20778499594254865,0.204898169272119,-0.053311667722059045,nm,0.0
24.077450037002563,-12.634977303379861,10.699008165002638,144.30528099304726,-0.04295401876004111,0.13962619792237893,-0.0018310011908347294,0.27127838587464526,0.278857138601758,-0.002081540138474039,nm,0.0
24.082268714904785,-12.959729798694426,8.550440632430593,144.3594952160501,0.09889078573464644,-0.04609435338986256,0.0804308560291305,0.30459685668397823,0.3258959386250667,0.034185608777124316,nm,0.0
24.091630458831787,-13.26993943054827,6.450080745771063,144.43851576478588,0.22934542791307053,-0.22294093754044084,0.10367114325022002,0.2964286866654186,0.3199717399699235,0.036044020948839746,nm,0.0
24.11703324317932,-13.728058186689186,3.211972675847792,144.11896878062205,0.20303051555416088,-0.21530716401366284,-0.07473785490948819,0.198712849674107,0.22780616425587724,-0.0451309223860703,nm,0.0
24.12021017074585,-13.784264702497351,2.1399495816448337,143.66486681649027,-0.05090137407859905,-0.007854128218818769,-0.08612150655175999,0.1369231143241194,0.18097845147757555,-0.09284807416700172,nm,0.0
24.130609035491943,-13.75798957354843,1.4038147372001373,143.06445595533322,-0.3104039167542764,0.2628737907734753,-0.10633229202799195,0.08519859760761646,0.13560100485477622,-0.12273622944088629,nm,0.0
24.153488159179688,-13.62044996574241,0.40450973570360077,141.96358442709393,-0.7729251813075059,0.7078807149091412,-0.05194604520227427,0.046827830622459835,0.09285489694613945,-0.10196494735055771,nm,0.0
24.159360885620117,-13.616983651027573,0.06548927539060566,141.5461508090881,-0.8369073701865237,0.7868493816101121,-0.046187891959436435,0.043298300072819484,0.06788608819565985,-0.07314095373410517,nm,0.0
24.16805148124695,-13.701575645980316,-0.22785262059846423,141.25549871406804,-0.79637403614573,0.7670013480139081,-0.0731710563270349,0.051760740828092754,0.04947314922765479,-0.0464996569474714,nm,0.0
24.177398920059204,-13.88201396482966,-0.5129826400052777,141.10949894191407,-0.7137753164567399,0.666881094388379,-0.06510359511945851,0.06582876716186802,0.03600934556259424,-0.031562129848717826,nm,0.0
24.188244342803955,-14.173406995803344,-0.7093096559534184,140.9436903863524,-0.6220565708008081,0.5298472198465404,-0.06707834536036124,0.07201736581440035,0.00804501528032195,-0.035827272318143914,nm,0.0
24.215550661087036,-14.990232791158776,-0.5905392832407311,140.35823315133953,-0.43845209119223716,0.3364739662989829,-0.18060970648906724,0.05136402151027395,-0.06385027484270285,-0.0699088800005104,nm,0.0
24.22725796699524,-15.486181736018622,-0.26477998925515994,139.98166377024876,-0.416558583536879,0.29976297077823105,-0.22991367013916175,0.03669137506033573,-0.09953417384383302,-0.07791327172142301,nm,0.0
24.24295973777771,-16.471689881699415,1.0461097624723408,139.3458884014452,-0.370670703277052,0.22315587891076427,-0.3445634971873521,-0.024140741289287157,-0.1638624879866958,-0.05619611636653988,nm,0.0
24.24463725090027,-16.892229318740583,1.962163926676526,139.2421371733244,-0.2872308136324724,0.132399668723573,-0.39290581564447263,-0.05324624201415704,-0.17985621364643065,-0.0321811841448114,nm,0.0
24.27176332473755,-17.445952134602123,4.105942370662297,139.32074774243318,0.10895496298158165,-0.2836486167681753,-0.3205057627500819,-0.1087179254623488,-0.18437262075953945,-0.004586839884106494,nm,0.0
24.27380084991455,-17.54648710449123,5.266326352779881,139.40154099670946,0.4054955471398234,-0.5759725894640336,-0.16847765784241261,-0.13340793501211595,-0.17543653075673848,-0.006092820989538015,nm,0.0
24.28237295150757,-17.50886869607754,6.4727107439602785,139.46770356137483,0.6979200453677943,-0.8658531009539893,0.1004101984039984,-0.16008979636563408,-0.16473294872342775,-0.010608912441699573,nm,0.0
24.29437279701233,-17.31247712769684,7.77594868276343,139.54513928734082,0.9542833365895441,-1.080872684763131,0.38592268062920804,-0.19642652300721472,-0.15927529467367874,-0.01184326234770026,nm,0.0
24.310418844223022,-16.918025051532258,9.19664931612794,139.6853769285002,1.0941597564021883,-1.1708635687672857,0.6165766109457685,-0.2411118225419279,-0.15231984579302751,-0.005826823894696633,nm,0.0
24.32618761062622,-15.766525989897906,12.021677164376785,140.08702118242903,0.8652751165376997,-0.8597923782760918,0.7316992031981824,-0.26271526500788334,-0.11709556932046289,0.01838900806603644,nm,0.0
24.329599380493164,-15.074299932938962,13.043403377924342,140.3567251367584,0.5502497050453685,-0.5382354855465434,0.571011581519638,-0.23229349223949208,-0.05688876509589452,0.02039209945916743,nm,0.0
24.347596406936646,-14.432147775618843,13.509645552080306,140.54096384615198,0.2256243955713869,-0.20986064143380664,0.3987845106251075,-0.15335555502246187,0.021514442346374275,0.01648035598381126,nm,0.0
24.365651607513428,-13.5023666377493,12.298049458037871,140.68539852074028,-0.11129518443423705,0.1870275478969678,0.05412262906674492,0.06457620747395416,0.21284383781448804,0.002849842118391674,nm,0.0
24.367269039154053,-13.324291614599012,10.755712725467143,140.67159992569134,-0.09393299532868643,0.21357679536657076,0.03217606400665692,0.1712880507945087,0.2747186217273886,0.002738084938501427,nm,0.0
24.399513721466064,-13.739874411774336,4.959583005760474,140.88326829803,0.14422448833062193,-0.0915494506631822,0.13808752327641083,0.28297265092466306,0.26922713170928203,0.04226082514769839,nm,0.0
24.40634250640869,-14.062982416890998,3.3951570550523167,141.10853155776462,0.11853224961087602,-0.11812233404149736,0.07993255294582946,0.24939449682210496,0.21681765306112538,0.05522246840983771,nm,0.0
24.429408311843872,-14.652697018170752,1.2634634035704198,141.575279759907,-0.2177758412676595,0.12243934804017774,-0.09447556686109028,0.15628620878730767,0.12549956040015312,0.05140660466759453,nm,0.0
24.43666100502014,-14.745239262927173,0.5345062189083593,141.73467421208804,-0.4606865754380333,0.3112439289481919,-0.0770535913129267,0.1069026791727023,0.11715049589671704,0.036643230067907755,nm,0.0
24.463221073150635,-14.754052513289823,-0.8416572663905894,141.87061489666775,-0.7948684808349702,0.6239150637569585,0.014844823083386366,0.08942623616677473,0.12367856082388146,0.007461288264157663,nm,0.0
24.465262174606323,-14.828037966328681,-1.5488815856354248,141.88931238302374,-0.8100443052466002,0.7134649778224104,0.04540737818874515,0.10076597384355179,0.11651193262268228,0.0016691790260217787,nm,0.0
24.476969003677368,-15.025047703520192,-2.2184731083063083,141.93963623787545,-0.7735937999571024,0.720703271868399,0.06512874411923862,0.11540880295959911,0.09547417782017487,0.0071412953876414855,nm,0.0
24.485615491867065,-15.36454434350413,-2.8075039294383313,142.08585810166932,-0.7036495218260042,0.6714029009030721,0.02505159058261126,0.127753312554772,0.06544247320507444,0.02480648924037637,nm,0.0
24.509844303131104,-16.4319062617846,-3.45125474973225,142.72674483111535,-0.5371177254162973,0.47138462251089747,-0.1262384557571374,0.1195317294021786,-0.023878614911813763,0.0663590393632171,nm,0.0
24.511799573898315,-17.053930956580263,-3.387478594383433,143.14248598170113,-0.471176053143718,0.34892541129062543,-0.2182532688117208,0.09291673016393391,-0.07078137217800629,0.07475653557717454,nm,0.0
24.537501573562622,-18.13885192848156,-2.426532041681691,143.81879833423548,-0.3352145472468164,0.19268936810785517,-0.39314976236883015,0.007082706704522813,-0.1434052670415487,0.05262231906672265,nm,0.0
24.539984941482544,-18.506992969777794,-1.5662734730679129,143.9845247244502,-0.22317619242121495,0.10684122777183476,-0.42815119658140427,-0.04071546539368908,-0.16822701939576837,0.02964701021419911,nm,0.0
24.554973363876343,-18.75249969704684,-0.5115294513500671,144.03460859133503,-0.0761757926166713,0.03285249145582374,-0.4191828448738318,-0.08309064749407416,-0.18541447931002317,0.008090331567677907,nm,0.0
24.560510635375977,-18.85812765533373,0.7477052675014545,143.99004120726056,0.12380860842557287,-0.07272465941743654,-0.3762869700644622,-0.12976810977496192,-0.20211157095389837,-0.01005974957016773,nm,0.0
24.58226990699768,-18.81760131719377,3.8240657654763015,143.77726734871555,0.6737905328240682,-0.43827252878663986,-0.0775114369815534,-0.19627716568525458,-0.2410234989154432,-0.03358683932910436,nm,0.0
24.5902099609375,-18.731138378602303,5.549455977017132,143.6656540241748,0.877227657286817,-0.6843916729965257,0.20161076965436828,-0.2166548231482053,-0.25423509576726316,-0.044731885040527726,nm,0.0
24.597666263580322,-18.642284517514817,7.388569965396394,143.44489703153636,1.0454891688232824,-0.8429660050608119,0.4250129065109716,-0.23122055492745336,-0.2716946249616319,-0.06421827285173609,nm,0.0
24.61981749534607,-18.56177418397269,11.061312355507216,142.68945732056292,0.8681716145945534,-0.875792075907168,0.8419258944632105,-0.21558141260607436,-0.27063722061786155,-0.1057761063154157,nm,0.0
24.644793272018433,-18.997991584574283,13.722182265810815,141.5059640417284,-0.00902582657986527,-0.12613109692496585,0.3294017506240129,0.003863677566574744,-0.04551000096489725,-0.06155436666031003,nm,0.0
24.672815084457397,-19.25275449784931,11.806935736727837,141.24525619508015,-0.19717261970550715,0.07839046337074863,5.502733277118385e-06,0.18404398724106583,0.21159845713542305,0.01608496832265064,nm,0.0
24.674622774124146,-19.284481366033436,9.893137401273524,141.3730226530366,-0.09568800971498591,0.008435380157814152,0.016814333388010323,0.24682015232747992,0.3091336903195537,0.042754287723010334,nm,0.0
24.68232560157776,-19.254614963259115,7.66020606871297,141.52627661646443,0.07554295545881363,-0.12364365324093665,0.06763599609564871,0.2764755539408529,0.36722718454244535,0.05339869252487502,nm,0.0
24.70754337310791,-19.122171939111997,3.3684784418162463,141.78599953520146,0.2805953666685308,-0.22091782487478628,0.02101998810622168,0.24258223746993055,0.3417379054445115,0.033687847317676385,nm,0.0
24.709359407424927,-19.045764185626002,1.7283583745851212,141.80454240787,0.1893048317334247,-0.12612905079271142,-0.045119679475948,0.19313965067337968,0.28167478554744213,0.017333711413963424,nm,0.0
24.72589349746704,-19.001123182894556,0.4490545748912579,141.79908588506763,-0.024037645598518648,0.07480792053162401,-0.12806576556303526,0.15333441859075328,0.22105021692210158,0.010616612709111453,nm,0.0
24.744487047195435,-18.95267488857393,-1.486860309461443,141.92155459067052,-0.5978990739982041,0.559340685734522,-0.18724454792633224,0.10929647053633856,0.15888125890162502,0.02725420986726913,nm,0.0
24.753371238708496,-18.954707405808563,-2.3473887312535004,142.0642414292171,-0.8119519527398877,0.6983826295335895,-0.22263532718898715,0.10820452270861615,0.14980800976765132,0.03682712800477336,nm,0.0
24.76429557800293,-18.95295135255416,-3.245125242046639,142.30828473663396,-0.9080950753625503,0.7688853714652265,-0.2323665222511556,0.11155654410983543,0.15660133028350537,0.04238085802053988,nm,0.0
24.78628444671631,-18.887549373673508,-5.948667600404544,142.94421698941449,-0.6597448082561997,0.5697618158131355,-0.2225602715079062,0.09680841574659381,0.1489902171641947,0.035372704262402604,nm,0.0
24.79586172103882,-18.870328097939453,-6.51069072899532,143.10065873452555,-0.5067894826042548,0.45924201638859496,-0.264226673999889,0.06639029606580359,0.10634641577054015,0.0314434970154593,nm,0.0
24.814523935317993,-18.891060879419246,-6.68718732155802,143.23703390592027,-0.38063111042089803,0.3779952950398496,-0.3193243462617253,0.025888064040302913,0.040198168376251855,0.026606111894226892,nm,0.0
24.83554720878601,-18.994585046994747,-5.70115648706797,143.56264593679035,-0.30114939228296506,0.31440282003039827,-0.4292001612473766,-0.07532606862477054,-0.10783899439097121,0.02114522743299622,nm,0.0
24.838107585906982,-19.06918580426556,-4.590229115294364,143.7725040090322,-0.289072510617949,0.2888714904076411,-0.48808271484914756,-0.11833837104557957,-0.17375739403485646,0.016783946069154437,nm,0.0
24.843472480773926,-19.15249349951637,-3.17197225978944,143.98332215576286,-0.25965498391952685,0.25269924104748714,-0.5215690121113915,-0.152406477576696,-0.22503671387150428,0.009257247505529389,nm,0.0
24.853004455566406,-19.21556485966205,-1.491493943506609,144.13989841654725,-0.17819941096463843,0.17098240897496406,-0.531937644317875,-0.18564633590392948,-0.2657571190812216,-0.0040481685838829684,nm,0.0
24.878084421157837,-19.24205447992898,2.4769195291550106,144.27903200601136,0.2985585209666081,-0.17301467669795717,-0.49242053038126987,-0.24137999343912062,-0.32050671324374364,-0.032904419741200334,nm,0.0
24.884433269500732,-19.17727333007922,4.679079823632984,144.2566383799993,0.6522363446114363,-0.4728762986908204,-0.3082786148875409,-0.26624943408493923,-0.3364673873000798,-0.03879454801587001,nm,0.0
24.901801824569702,-18.842141966072713,9.459131091238838,144.21649239263436,1.2560289029931193,-1.1777307814524458,0.4992330878969594,-0.3157559175035326,-0.3598212339079637,-0.03019214313799133,nm,0.0
24.916962385177612,-18.552287181354266,12.007487909272276,144.30710663300687,1.2323606686565793,-1.3185428235248515,1.0535116043764778,-0.34231202980693165,-0.36723284295803554,-0.0262322527403172,nm,0.0
24.918882608413696,-18.093917724798928,14.641008664228414,144.30132954037202,1.0519950212368632,-1.2268657660609086,1.2419729952982734,-0.37841011136808766,-0.3623186873662872,-0.0367300793755675,nm,0.0
24.92885994911194,-17.48956964147682,16.997240529185543,144.24209473575328,0.7472625664842133,-0.9580095306749046,1.0483386975625013,-0.368256346582132,-0.3011165085013576,-0.048313292893609146,nm,0.0
24.939094305038452,-16.88765123809255,18.594878244799283,144.19674559925735,0.23161293255527118,-0.5279499596471467,0.8391005707644699,-0.278253781223556,-0.17862185061961638,-0.04969925029075212,nm,0.0
24.963961601257324,-15.861239108706245,18.545986147376684,144.0867607499977,-0.354154090074782,0.15368851865901734,0.1826152271890086,0.0009087986896263088,0.16969123007889358,-0.034749110773878,nm,0.0
24.966492176055908,-15.45970748990838,16.765673489332958,144.05789985038734,-0.3990188715341817,0.2496950371606542,0.12474434516207154,0.14934402309082256,0.3472819224612431,-0.012003204192937027,nm,0.0
24.977628231048584,-15.165948323710507,14.170780922622285,144.04494100276713,-0.23672420758613805,0.18283678533280734,0.26567910188054283,0.26155856523875975,0.46743132883301236,0.011147768446870114,nm,0.0
