timestamp,roll,pitch,yaw,acc_x,acc_y,acc_z,gyro_x,gyro_y,gyro_z,markers,motor_input
15.504862070083618,-13.939131321797891,7.946681281683451,148.25775039157077,0.16738737098455334,-0.26330255134915864,-0.22721412386569154,-0.24851854776473922,-0.29613647348377076,0.1676164192607429,nm,0.0
15.50722599029541,-13.58785217655925,10.15713630718361,148.93643912558935,0.41183927031486195,-0.44368767030463846,-0.1335922680092108,-0.28953328730333977,-0.32757732801589146,0.12130528746880363,nm,0.0
15.533236980438232,-12.359261625034094,14.697313538266906,149.6485644310337,0.8506418256798035,-0.7144492550710921,0.43078405720039165,-0.34550362482267577,-0.30918052847275795,0.014368158172070149,nm,0.0
15.536041975021362,-11.480986852512599,16.93445592745982,149.74479191594486,1.0001058143159014,-0.7330324840022003,0.8352286738393966,-0.3714757701921117,-0.2877274692602653,-0.03336910519280666,nm,0.0
15.546244382858276,-10.470403608888427,19.042436017654893,149.70873580816314,0.9544701906176719,-0.6086839580211181,1.100382717247485,-0.3781707794176581,-0.2540267308755202,-0.07484165214723688,nm,0.0
15.552114963531494,-9.488898668722568,20.986973085529613,149.50963896467857,0.753655733380657,-0.3396733949587871,1.0167411341895811,-0.3551970149780107,-0.22914189037924554,-0.1126469081736128,nm,0.0
15.575800895690918,-8.262235310628046,23.70601708313015,148.57297425150952,0.07605238937067227,0.21578967889410616,0.5503176023487164,-0.17593153132043157,-0.12450943266131712,-0.15026741715634612,nm,0.0
15.581111431121826,-8.207437370295233,23.819321627257796,147.93547120235215,-0.25317428478346415,0.4138904070044511,0.3110795249273127,-0.01873856773505864,-0.0010099856244627226,-0.1381100365106181,nm,0.0
15.604686975479126,-9.112146480569145,21.475466499085627,146.51738746101347,-0.3109653654957992,0.36872270873334917,-0.05841158609968058,0.2625097949527936,0.2155175931565994,-0.08217689718042889,nm,0.0
15.609548807144165,-9.755756144287435,19.25987734125321,145.90857418153567,-0.17715583430959314,0.15379140179016698,-0.003615730848635992,0.34925332546931154,0.3144679904376616,-0.056730898068473944,nm,0.0
15.630438566207886,-10.943808462708313,14.222185104842136,144.82990947707265,0.19266012627559345,-0.3213523460248704,0.05656619875439453,0.3729564278042287,0.3599379470332743,-0.046479852275113684,nm,0.0
15.65630030632019,-11.636767619240317,10.394388813608881,143.64871867676987,0.14761920051630972,-0.44867335250463763,-0.1580168211674426,0.2535747765951763,0.2531510551030368,-0.08932751816488066,nm,0.0
15.658149480819702,-11.952014309334135,9.123318228955863,142.9918625971921,0.05724961018220393,-0.12335700599802703,-0.4452990133186929,0.20385547164812895,0.1806419488097792,-0.10553008492634973,nm,0.0
15.691678524017334,-10.93192164674526,7.304044146217262,141.50432909552305,-0.6134867797372971,0.5285831273519906,-0.4774169762480586,-0.013991131299195854,0.12773122299035236,-0.0728959222224013,nm,0.0
15.70686674118042,-9.1537394039344,6.910740647008389,141.56417143775695,-0.7906308040486495,0.793465227906853,-0.43532753642223754,-0.13902329873538347,0.15947258819608684,0.013387019554336233,nm,0.0
15.722859144210815,-7.911476099234097,6.960728994706623,141.88567828574682,-0.7974812494880261,0.5652334979360324,-0.0944354863691313,-0.19800122790022406,0.15897276633251928,0.05355366104294767,nm,0.0
15.72456979751587,-7.0690284565277155,6.9550286018787855,142.36649229764853,-0.6294552924790219,0.5632703746852614,-0.23209373362559862,-0.12958474103769743,0.11748454809581421,0.09799813472857317,nm,0.0
15.756297826766968,-5.469044229584586,8.310851740803285,144.76709547373562,-0.2987470579321039,0.4037118929973666,-0.11038277431313837,-0.13576912302053995,-0.07607209422542081,0.16747315201267712,nm,0.0
15.7723970413208,-5.232019144108619,9.186660064605528,145.6663193504858,-0.2522501761449508,0.3867111291823824,-0.27391549733682,-0.13753067389667253,-0.10371889000031824,0.1819548329413164,nm,0.0
15.774184465408325,-4.941982495288328,10.294610858776775,146.67509517943893,-0.29016586614657264,0.22702827955392313,-0.06403067043008681,-0.1701024714136441,-0.1390209668790411,0.1868293674450534,nm,0.0
15.782179594039917,-4.756096205310073,11.663247829352922,147.74275737177732,-0.03447998218606031,0.15134661779615707,-0.2973627414484402,-0.1782110482289097,-0.19735354809252145,0.1888387596177431,nm,0.0
15.791301012039185,-4.364713253805866,13.105977875654963,148.8134808775563,0.09213936435131115,-0.046633470432013734,-0.08119231061465751,-0.21622112055576895,-0.19234812308844212,0.1804313174172681,nm,0.0
15.832591533660889,-4.025791195560268,14.60380915242272,149.8744538682052,0.3463620380694715,-0.23125825509462578,0.06010277646400008,-0.20888221988778208,-0.21140523943994505,0.17468390842740542,nm,0.0
15.835054874420166,-3.471748237073674,18.001848993298058,151.66331111695084,1.0011398282806385,-0.5868317152204064,0.4784399485646279,-0.2193959103864609,-0.2690919990770674,0.13524264209996756,nm,0.0
15.83792519569397,-3.1704307462677925,21.740507543420755,152.57683326908983,1.1693943710167765,-0.6055925943431346,1.020079675896878,-0.19513957107624572,-0.31321025182750967,0.05859546354293744,nm,0.0
15.853028297424316,-3.1451388797698505,23.531809805361018,152.55978411009215,0.9785886804507715,-0.5153800628680718,1.156694360552022,-0.16875261904635913,-0.3034756170925768,0.0044222222995394305,nm,0.0
15.862435579299927,-3.381882012773918,25.00151309759568,152.26799079009615,0.6395994933384935,-0.3179738735094244,1.0526040758303712,-0.09689195086977381,-0.268304846014286,-0.045994318169494196,nm,0.0
15.865319967269897,-3.927838718319612,25.994404680739507,151.6219338652803,0.1906772699353848,-0.15000279098583233,0.7865881427765316,-0.005116287977238148,-0.2093275496674651,-0.08932264612271171,nm,0.0
15.878831624984741,-4.883793672608985,26.36019620277893,150.6955466711947,-0.17354486118781162,0.006563555924967608,0.42181603710341714,0.11665628520346265,-0.13442991253468242,-0.10791844302925521,nm,0.0
15.902669191360474,-7.526176153780543,24.70231648169367,148.6413411821229,-0.5394205454687442,0.09399100786406038,-0.027883168656186962,0.3402093910163336,0.09942606209958485,-0.08963982346851196,nm,0.0
15.907896518707275,-8.843902777093096,22.801811562206005,147.76103122441543,-0.5525859114774523,-0.013661298406832199,0.045220821250739535,0.40759399934703133,0.20900208318351335,-0.06050173539582648,nm,0.0
15.914544582366943,-10.231471292874977,20.494221448337843,147.0626552699527,-0.2636694030714769,-0.045360838018751355,-0.007825584967528283,0.46835308973549017,0.2629947198648427,-0.01568274631855427,nm,0.0
15.937865972518921,-11.52177960682588,15.685090102447601,146.32131781428805,-0.03550366283737308,-0.4092742624313387,0.17412959575969172,0.3186057928196309,0.3681058101957762,-0.014206552775618327,nm,0.0
15.946873426437378,-12.002340680035347,13.676433971687311,146.0278288233894,0.1543069795335767,-0.26891608025748454,-0.13014151679875877,0.30286706222499216,0.29572724694262525,-0.012743662502830402,nm,0.0
15.96875524520874,-11.808997912554462,10.679218026801037,145.30926992023046,-0.15652347760871538,0.20175364866772183,-0.41975151453165466,0.11234123522539846,0.2672929988532012,-0.06919384881082707,nm,0.0
15.972220182418823,-11.077420907470872,9.738475415384059,144.83969748872798,-0.3587266251664514,0.5013898519298534,-0.3871949784664119,-0.008705319969139879,0.2508260077271962,-0.09674452258557886,nm,0.0
15.994988441467285,-9.485751385364575,7.683950840451846,144.16260868950607,-0.504372300071291,0.7609185548217882,-0.2023474103137079,0.06202203847955113,0.25545874583168937,-0.06722321080823628,nm,0.0
15.999435186386108,-8.909666628682123,6.74023747922567,143.92572487601421,-0.4161532129451794,0.8926951172916894,-0.27583231756700655,0.01977143126691321,0.23395462369510042,-0.061602375626098715,nm,0.0
16.041138887405396,-8.785855202589783,5.278173747302796,143.33036799826283,-0.30573200646295634,0.594021000309458,-0.07578826990835397,0.09260641246324448,0.036493332193566215,-0.032252644977430696,nm,0.0
16.057621002197266,-9.484474240596544,5.3217493572714405,143.1979384971126,-0.3631237739320395,0.4087908641169245,-0.06672768258443477,0.10793152690328678,-0.0764402191629424,-0.01735813170197485,nm,0.0
16.059279680252075,-10.537577602711005,5.6615895173729065,143.23311347051495,-0.2761470683215468,0.35757428975824,-0.38651555020497574,0.12903303715279463,-0.16619366692720938,0.008025537059494471,nm,0.0
16.06584405899048,-11.506077008502741,6.185097083834863,143.43544168209075,-0.3763393108110604,0.16236062312997177,-0.3055408712352803,0.0938179928125466,-0.1852536451240679,0.0398067842190165,nm,0.0
16.06758189201355,-12.488744264800113,6.986280552767088,143.79134306882128,-0.3714394884575637,-0.02427454586446424,-0.2662236654508601,0.06390410305653901,-0.23107360070350536,0.07001599384921278,nm,0.0
16.09052872657776,-14.135576324345973,9.414242652697473,144.82671465722674,0.06260833653727924,-0.16865033481813407,-0.4716336502659919,-0.05786894301918234,-0.27072856849776883,0.11442239921603843,nm,0.0
16.093257665634155,-14.108511517803613,11.023455551289436,145.4955306441371,0.02769769458322975,-0.5592548284013739,-0.11354205918502801,-0.18706951857507081,-0.24755007980585758,0.11889225842038521,nm,0.0
16.118217945098877,-13.531506370668794,14.924356035023484,147.10082011266715,0.5313390879336803,-0.6811914233038551,0.043032671476094866,-0.30720377416913164,-0.26527902677688153,0.12761276691426465,nm,0.0
16.122092962265015,-12.520474201394359,16.934807040872638,147.98412156458284,0.5225817401577584,-0.7670315040034072,0.4335218209034612,-0.3792151282057488,-0.22160049261333414,0.1112232515129352,nm,0.0
16.149880409240723,-9.81127281375614,20.695671360180576,149.32884266863456,0.6704623985865046,-0.3716650279916582,0.4064404843406771,-0.4333335065800671,-0.14257095363920588,0.0035183050380612944,nm,0.0
16.151909589767456,-7.888108799058191,22.079185471440795,149.57314733614928,0.20264911559093068,-0.3356148602954063,0.7459504605996177,-0.4483808192513555,-0.04319611059142639,-0.09748443773428973,nm,0.0
16.177187204360962,-6.185689930159447,23.300695098734348,148.72375119143024,0.13199332190932891,0.46714451778629007,-0.0006640446823803568,-0.1186015362366999,0.009502880274497454,-0.1644409655240908,nm,0.0
16.179484844207764,-5.589158815012,22.934884655218443,147.96063952939906,-0.3033353891673268,0.442266353923164,0.2966728527715097,-0.053238367228551985,0.1328479361168964,-0.19039749103856055,nm,0.0
16.208827018737793,-6.5857285654437785,20.609864540159105,146.69990771432228,-0.06505146490689957,0.5624220690556254,-0.08299525295102594,0.25398315956006157,0.17376464512277817,-0.042438304014027796,nm,0.0
16.216963052749634,-7.276582716613311,18.986399844783122,146.5059353802034,-0.16782799451654645,0.22434787619551266,0.24948328464895042,0.28940220519579235,0.21274105804248566,0.014874138565557185,nm,0.0
16.222763538360596,-8.432834188137987,17.29495138935166,146.4406541777203,0.047818554806299346,0.10509128675260078,0.05860143556143109,0.3721719686860597,0.17380749985214147,0.07439197391273253,nm,0.0
16.237059354782104,-10.351865752852424,14.50721587778959,146.30271960554916,0.009875358707329186,-0.2162979620470295,-0.06867785700803673,0.28550734146115964,0.13093161957915506,0.03127379576836858,nm,0.0
16.25086522102356,-11.039569328542315,13.507657006315343,145.92922808711393,-0.08230992411345436,0.09930951927154708,-0.47738365222563056,0.22392091886231555,0.10519033684977383,-0.028298859748836353,nm,0.0
16.257219791412354,-11.069467995731422,13.041499127131543,145.310952355926,-0.3794375404629473,0.05305152565760436,-0.18566323158535292,0.05904000081199076,0.08739831385566339,-0.10702193935099534,nm,0.0
16.27951717376709,-10.885832951479037,12.14638345296221,144.19265832318584,-0.5217460057166052,0.4710098487921187,-0.2713824664036232,0.034307738325595055,0.11238413325537205,-0.11188088679852992,nm,0.0
16.294979572296143,-10.454523459275228,12.109874969607244,143.84695788503,-0.640456101124958,0.5356376376545705,-0.20285199928854866,-0.062278428653549815,0.06918207546703763,-0.09173267239875761,nm,0.0
16.310771226882935,-9.736646666083635,12.992335114485495,143.86992855294028,-0.4140000082542222,0.4918058543310788,-0.26391428132806505,-0.10395334898928739,-0.016209800278950297,0.011352822413224767,nm,0.0
16.31590437889099,-9.446801903354869,13.576086023947129,144.22676596764538,-0.44701922339569655,0.3796030996939473,-0.08859371685763716,-0.1125808380770507,-0.04793100561420934,0.053350020764355736,nm,0.0
16.3406925201416,-9.54993800422728,15.544676936583977,145.03554548676928,0.018836657053320615,-0.09253200279649214,-0.060802104909612104,-0.09270323237761216,-0.16679582983336974,0.08211169884097833,nm,0.0
16.347552061080933,-9.782606119311145,16.543283974234562,145.3507359310769,0.1267875446792897,-0.21447885483298992,-0.027382993529807186,-0.07566691906382203,-0.17630088018380283,0.07096646950848418,nm,0.0
16.367640495300293,-9.930097850642696,19.50235037597903,145.76820896553218,0.5087443675699294,-0.5596117445524083,0.22768294889884272,-0.17972548861227367,-0.24880515557749333,0.028352306323491814,nm,0.0
16.37639355659485,-9.741270300885214,20.91250333020872,146.14031253716723,0.5762785037508301,-0.5906161852535006,0.4881407985290858,-0.18554275362689102,-0.20094505024688242,0.04639376624782574,nm,0.0
16.393827438354492,-8.555114138457506,23.682676490404774,147.23741499961633,0.71362239173624,-0.5716819083990509,0.8141025440613135,-0.26504842945490764,-0.1511794163078498,0.039034136371267944,nm,0.0
16.400335550308228,-7.75918630164888,24.832635897535123,147.6577081277473,0.6355708011548808,-0.4727391184796794,0.8457660685194137,-0.2444329471953971,-0.10307491726916639,0.007328359194411459,nm,0.0
16.408209085464478,-7.105532287709299,25.552538668545697,147.74217382059007,0.43245426125862135,-0.22419742545516375,0.7610409008016729,-0.1751611927252681,-0.04573329499189778,-0.03961018106748023,nm,0.0
16.43184471130371,-6.8481593046898945,25.499088806824467,146.80474205178248,0.10306235782768422,0.09811203370899078,0.42176173470471334,0.05210316038050924,0.06194635670027069,-0.11284150173161486,nm,0.0
16.437016010284424,-7.291172455478782,24.428871405238706,146.0512992396371,-0.019241304459174862,0.20271664930657074,0.2843695912372672,0.18786781500716548,0.14676158971125974,-0.10306077652365496,nm,0.0
16.46869921684265,-9.410971182334263,18.613205366861912,145.02108411909836,0.07801898604811537,-0.08070326764415293,0.17334444818084674,0.3650482854472894,0.29601997513465195,0.048217445442520046,nm,0.0
16.49278450012207,-10.487396237218297,14.553321372803286,145.24612049369645,0.1081636171461058,-0.16063391322836615,-0.181327463896834,0.28971113098110984,0.2799375873240758,0.06472103397999404,nm,0.0
16.496383905410767,-10.583751652939393,12.996842227101093,145.24985153853703,-0.07228216530324742,-0.18792791932848074,-0.026494913184936693,0.1947144245964892,0.2589254325753144,0.017369557475454902,nm,0.0
