timestamp,roll,pitch,yaw,acc_x,acc_y,acc_z,gyro_x,gyro_y,gyro_z,markers,motor_input
21.01560401916504,-18.453234869755896,3.128559449870362,145.36746492120838,0.051055693144610816,-0.44567342008082506,0.4734341194400527,0.2440351649530116,-0.032763589816197404,-0.11088349642716325,nm,0.0
21.022688388824463,-19.418884917787405,1.7824155124624312,144.89169914805547,-0.08553690141505946,-0.38342121788679184,0.23409229318059444,0.3136853147667668,0.12505645502616472,-0.08817097964515444,nm,0.0
21.045925617218018,-20.31038468409056,-2.152101501126597,144.05092967817316,0.028022630595620632,-0.3944539812033057,-0.04304622643984796,0.2831273720360008,0.3221535580866311,-0.07593121468711525,nm,0.0
21.049360513687134,-19.973653334554612,-4.274281768533926,143.5179737130627,0.08095380597345775,-0.37793762914080253,-0.11486927251033616,0.19848500253794793,0.39681583569896767,-0.08120761971909693,nm,0.0
21.080137491226196,-18.425131514994813,-7.753477369645692,141.96896118560335,0.14859433852456802,-0.04762393661561882,-0.18362516535473036,0.05929736526748089,0.3658189256837792,-0.13607272344266555,nm,0.0
21.082005739212036,-17.496701589636967,-9.064889887153665,141.02916355336478,-0.02027154347380861,0.20965524829358648,-0.10565678038657608,0.021659676319086104,0.3343030458081449,-0.14508363271895028,nm,0.0
21.105584383010864,-16.381142890989732,-10.642071770771029,139.2019273068854,-0.40977371073294233,0.7828723061475895,-0.07765430269800216,0.028046218836237882,0.1524233930762797,-0.13999134324519757,nm,0.0
21.107743740081787,-16.372267981959514,-11.10310121150876,138.69063284787666,-0.5828576672243552,0.9838364958561223,-0.10131764678135004,0.06171309979262233,0.08502354117012473,-0.10997367209922715,nm,0.0
21.132592916488647,-17.3704775068461,-11.809452219839864,138.1907472422804,-0.7768315465292188,0.941345995190763,-0.1206332367199695,0.14169163720386901,-0.028795479045086097,-0.06252371796874791,nm,0.0
21.13859987258911,-18.24286226488846,-12.000131445681124,138.02702695687321,-0.7625034614700853,0.761193245175339,-0.20951251774979607,0.15537662854030235,-0.07158454570502634,-0.05794791190035661,nm,0.0
21.162803888320923,-21.32374991806227,-11.437346358991814,137.68480692806222,-0.653130222250255,0.2796599137657724,-0.381570127995162,0.08137673175102893,-0.1917510627018443,-0.07367246209640922,nm,0.0
21.17860198020935,-22.369823234226693,-10.588622721415561,137.63945675046818,-0.6128232430306991,0.20087924557894174,-0.4072651396432679,0.040603245221509786,-0.2499669657740468,-0.06090754939249269,nm,0.0
21.181880235671997,-23.374670751789264,-9.391603673832524,137.76390720287068,-0.4304981813749562,0.325725550089394,-0.5905323524692386,-0.011605715752843125,-0.29654448521596877,-0.024933144342368894,nm,0.0
21.21077299118042,-24.010636258725533,-6.0127715305434855,138.8387115920564,-0.3191084963946418,-0.15557156544875655,-0.4430582333615522,-0.21368949616750407,-0.2847068094169579,0.0939745863488502,nm,0.0
21.21354603767395,-23.934394744610486,-4.037306114159229,139.6174865928719,0.017456073946586208,-0.27951466297282423,-0.43970843559701267,-0.2671506447795403,-0.2756589027849089,0.13540207443456262,nm,0.0
21.22180938720703,-23.278381966718726,-2.067046988606759,140.48832581346596,0.26152439467992694,-0.6720844910810174,-0.08212662305514323,-0.35155799959675144,-0.2041752787188207,0.16609293293400676,nm,0.0
21.247535705566406,-20.642256911363923,1.4214314911814785,142.02567800017738,1.0918502416545621,-1.092843119798969,0.3536326047762679,-0.4571929152355911,-0.03837370477966885,0.13998239842858556,nm,0.0
21.24922776222229,-18.678599431761082,2.7372824332315613,142.55268663227045,1.0929389278944046,-1.476695790441765,1.045057189266023,-0.4703394891314758,0.04621178811898293,0.08974747890709402,nm,0.0
21.25826334953308,-17.26356221060454,3.845984103689846,142.72967178195086,1.4539788454840947,-0.9048515502823621,0.7495269874806103,-0.3579016270975787,0.009427300946241285,0.017236248924190803,nm,0.0
21.287051677703857,-14.474979472272357,5.363969001745229,142.3795859979216,0.8134086757925685,-0.507295962625757,1.2093605628903104,-0.25032530116094603,0.057946873302077,-0.07550190356236143,nm,0.0
21.288829565048218,-14.185038319870555,5.473243704750755,142.09333015506758,0.5922848359858827,0.05026394389854731,0.6766756404447332,-0.057242542353943465,0.03215339631482106,-0.06558548490404162,nm,0.0
21.31946301460266,-15.93751603944193,3.0965577178663044,142.28133874298933,-0.025328714247354403,0.07772426962058464,0.2356576840890284,0.31403303871392596,0.08922024079385268,0.06493687528090919,nm,0.0
21.336024045944214,-18.232240976928715,0.03888529118752088,142.87429163459427,0.045222318686669594,-0.3114977787035697,-0.03016686060546571,0.38095728368579657,0.11767119501238686,0.05167713615806422,nm,0.0
21.361202716827393,-19.55594539484993,-2.9018984442242903,142.80397104426655,-0.04880188040963322,-0.3569856722641799,-0.2134057055265977,0.23555481344393706,0.187530346468287,-0.032351158473260866,nm,0.0
21.362900733947754,-19.682167625624842,-4.040910545166181,142.45332982413964,-0.14231468433899985,-0.14686824959852632,-0.3302828010909924,0.16011611762146144,0.1802949419030833,-0.07212701575440411,nm,0.0
21.392521619796753,-18.891093557273187,-5.7497212122179295,141.58341354220622,-0.5578967534071642,0.3529469094887394,-0.18119920083839625,0.015240634177441264,0.2033041943834864,-0.05484296701462473,nm,0.0
21.3955180644989,-18.271323691820175,-6.41090900400992,141.37699740461346,-0.6976902614939052,0.6762219522251804,-0.1742247233983609,-0.012133095210121753,0.19477575688198062,-0.013756507714841076,nm,0.0
21.41677165031433,-17.03226439691975,-7.617766899602675,141.6509625339775,-0.8626614668905974,0.8777050847316007,-0.15598760202097786,-0.00676016832663079,0.17913531907102787,0.07105370644224868,nm,0.0
21.420101642608643,-16.652506721763622,-8.284746389818732,141.97162113961173,-0.8066145304327569,0.884532516745396,-0.188642397367994,0.025109013385008067,0.16587334891414285,0.08961518100891262,nm,0.0
21.444400310516357,-16.368675406516953,-9.537193754308133,142.6220622511101,-0.5842202167569128,0.650582721369392,-0.28535383848734325,0.06581860221139695,0.11265120646302947,0.07393181084382279,nm,0.0
21.447805166244507,-16.437478765622636,-9.928928276648287,142.92828541255201,-0.47220805500401003,0.529046001658399,-0.3512382466553261,0.05963543266974118,0.06863126156397212,0.05865714358243841,nm,0.0
21.470834732055664,-16.910143159176975,-9.67171267817855,143.64228468533227,-0.355344403877018,0.28634359211343924,-0.49030721371332703,0.010560228240974067,-0.07407816449984381,0.05539939563793805,nm,0.0
21.501452445983887,-17.507584479158346,-7.620828469542379,144.93583785004242,-0.2843614173720469,0.032356784727595844,-0.5106926994384494,-0.10248391267511169,-0.22544377116004827,0.11601165228094472,nm,0.0
21.503123998641968,-17.781265214815843,-5.95377820672175,145.82670342829,-0.1963286556310852,-0.1323914253980628,-0.5155018569948433,-0.1439350809030295,-0.2912979024428536,0.15604331287859566,nm,0.0
21.5061092376709,-18.03503468043217,-3.9202413657487187,146.90126730834325,0.026043607934533204,-0.17531223516548655,-0.5374268311497813,-0.1825723779766537,-0.3528165838744597,0.1879302667720658,nm,0.0
21.528814792633057,-17.40785827140807,1.0006674267897604,149.3568498467245,0.6305915652270562,-0.7479580765281031,-0.12451495138514043,-0.3507626429801594,-0.36530157740107627,0.2324222555057873,nm,0.0
21.53596258163452,-16.764707793445417,3.6261457242978254,150.6838235634311,1.0120892534380281,-0.8320183892614357,0.10828180876113472,-0.37397387157936984,-0.3772814951712546,0.22714043318446028,nm,0.0
21.55711317062378,-14.327439604094604,9.151206689270666,152.80272718344554,1.2125055985299953,-0.929711798759333,0.9069388732141612,-0.5088489677403071,-0.34490602850344104,0.13205068056428013,nm,0.0
21.58199143409729,-12.121014620606193,13.71788902434261,153.76313599560763,0.4903382008696248,-0.19241955947918113,0.8624186406623331,-0.3298112422287815,-0.2813988398476684,0.0033768590906604326,nm,0.0
21.58383345603943,-11.180291303704129,15.15838222572524,153.90350291969784,-0.00896200763467328,-0.008733498406757682,0.6250363953399752,-0.29116885697712247,-0.16508866502369063,-0.05133067986675179,nm,0.0
21.592668533325195,-10.69995964425656,15.652565875037494,153.89247239843206,-0.17508472594470917,0.030073138040547478,0.6083447374435578,-0.12717420624352488,-0.034518522344994786,-0.05057894887283955,nm,0.0
21.601672649383545,-10.64881300005666,14.869814178942427,153.75670213623974,-0.058392067804537214,0.1281900216037911,0.4107363906873696,0.05987544017860983,0.15868698885453494,-0.02988133605949673,nm,0.0
21.61167812347412,-10.671926256835741,13.110785518188369,153.4236861633154,-0.12460468172153398,-0.1359428890249095,0.7091733921939294,0.16054696063689342,0.3270455082490139,-0.04582485013794101,nm,0.0
21.635037422180176,-11.892872238104438,8.867293702163945,151.83580278686776,0.24724035901204053,-0.22052406645856323,0.13780050826556725,0.31865419969910247,0.33485720047293327,-0.143672856886544,nm,0.0
21.64224600791931,-12.396114868124984,6.468718845450652,150.82425379286818,0.16529406879604702,-0.2738723016261398,0.11653600179295194,0.318127510869933,0.38727710956893785,-0.17212933364958258,nm,0.0
21.664661169052124,-12.974560475744282,2.414639213843122,149.0566068956619,-0.030184591823792295,0.0019568225014015834,-0.07854748955800599,0.20553707458193524,0.30376387764885504,-0.15390340363134955,nm,0.0
21.66650366783142,-12.915180111631924,0.933401780983072,148.5243701070178,-0.17326498335872134,0.16177941988871936,-0.21098858175178523,0.1436618443335142,0.274037206014165,-0.1038334373712802,nm,0.0
21.698050260543823,-12.35903251488858,-1.5571332808743927,148.09249742113488,-0.5703202551030494,0.5351351959428561,-0.17626003218822087,0.053908698885794824,0.24550093223431216,-0.020696141957144504,nm,0.0
21.69972515106201,-11.95753465540154,-2.5740260888783997,147.98124976708237,-0.5929111994434093,0.6183981809102781,-0.221081965581587,0.03969052286809898,0.22956036584597075,-0.021614856271265512,nm,0.0
21.70419216156006,-11.629261935959574,-3.717091316063425,147.7633283592045,-0.6230074794736855,0.7460509452487719,-0.17481438542743005,0.06620781190663398,0.24303142356200652,-0.04218078793951461,nm,0.0
21.72903609275818,-11.426419080464617,-5.787812118816261,146.8167634754026,-0.5387036084921293,0.753393547577719,-0.12344935260012364,0.10931983808781753,0.16923904476833476,-0.11292823108874629,nm,0.0
21.733805418014526,-11.733676430538331,-6.56378480155664,146.26117302812125,-0.4813787879848185,0.7474200908274647,-0.23383668468906826,0.13706984063258454,0.11023866448123701,-0.11960270656452769,nm,0.0
21.75728178024292,-13.096860716173083,-7.159260474357476,145.775763182701,-0.5270821587999251,0.5574737897048645,-0.2956711181225906,0.1444455558283391,-0.06413682874229411,-0.041593868818445026,nm,0.0
21.76644277572632,-14.064248585536019,-6.765440472204106,146.08554660543584,-0.5429638239676701,0.43076871289825824,-0.4326141653615653,0.11571121736469725,-0.15858080299391566,0.023992633030173273,nm,0.0
21.781108856201172,-16.01448167212207,-4.716340176136405,147.4879954338009,-0.4996001325902947,0.0720071271672621,-0.542766556481077,0.026589071925283515,-0.29591787214884363,0.11741566981904326,nm,0.0
21.832481622695923,-17.310074883834595,0.7820156261298737,149.2665406732501,0.11610913556790141,-0.5071134591254972,-0.4282169032685389,-0.2196211127760378,-0.3333527968013285,0.05102922201726375,nm,0.0
21.834349393844604,-16.580722365177905,5.530123192304251,149.51437770595146,0.7963309280078573,-0.6369680732865336,-0.0749457597734819,-0.35635909784255976,-0.3517261848919618,-0.02327171065727057,nm,0.0
21.84713339805603,-14.347390422437156,10.692378812019598,149.64558580189325,1.296782706912918,-0.7586265513131478,0.7668465313089561,-0.4703400262361193,-0.30573529905954766,-0.02951481719922119,nm,0.0
21.863325595855713,-12.689718379943402,12.946174267401597,149.8440348524462,1.0055972346054423,-1.0711108914917935,1.4959783491419387,-0.5076230816181667,-0.21238151331100905,-0.039692250617798935,nm,0.0
21.86611843109131,-11.905156054883015,14.751187285682924,149.82638317125273,0.9123281944170952,-0.6733657108648042,1.3435875563481592,-0.3130285020995314,-0.2220796341145005,-0.04550762648980487,nm,0.0
21.87665295600891,-11.36582294243039,15.88057664928824,149.5370818662705,0.7737964939456922,-0.29788809265921723,0.9246003558895156,-0.20344829823441044,-0.1289626620262987,-0.09105330609005816,nm,0.0
21.885599613189697,-10.96656955825957,15.9781283931501,148.97862722713384,0.12445522207136497,-0.2867881416779175,1.0478573330591123,-0.07528119558263498,0.036146678213812865,-0.13845425108484763,nm,0.0
21.910258293151855,-12.030061257422531,13.235167755799512,147.3548176743543,-0.08344322021509896,0.09925599433117906,0.32663393231834503,0.2850912160644968,0.2623471492839221,-0.14137164442016148,nm,0.0
21.91923689842224,-12.808473224724107,10.720650061455594,146.62457699508835,-0.12376721740023915,-0.05885231419467311,0.3749104743964529,0.403388666439453,0.35281137618365893,-0.10236197448162843,nm,0.0
21.945432901382446,-14.491633162079443,4.966199148265914,145.98935886942337,0.22898260026276462,-0.3760290430417196,0.23224837270381124,0.4331273112591476,0.4115081510082091,-0.002377758404480071,nm,0.0
21.961968660354614,-15.593489793828388,0.33531525030507425,146.02407310089404,0.304891501448687,-0.3654689224110244,-0.25966845171784453,0.3102107008521901,0.31320435047056444,0.02078930341997785,nm,0.0
21.96365976333618,-15.662790566423975,-1.303886525562172,145.93406705991814,0.009921934489169615,-0.23892721694958113,-0.31347827418947627,0.19598001956781524,0.2785403317668592,-0.008999814609712399,nm,0.0
21.9714093208313,-15.531250172347503,-2.572569905109327,145.57471674123056,-0.2713990519296273,0.13686487778039602,-0.46385514930844646,0.12215661743686414,0.2390645834918396,-0.05297720738152232,nm,0.0
21.98050808906555,-15.081799050892633,-3.6964332987357698,145.05758562288716,-0.5948426561436697,0.44838827689585486,-0.4232416884490717,0.055234157578624495,0.25049555524520123,-0.07954987738351628,nm,0.0
21.997414588928223,-14.502137608415184,-4.828740990479464,144.58460306529366,-0.9082202436245048,0.689982993417135,-0.23090976013676615,0.03701276526648167,0.26635241392658393,-0.08199723476705838,nm,0.0
21.99933934211731,-14.025542843855913,-5.912659754016703,144.16082255334052,-0.9976702136232384,0.9068432321164516,-0.20790260502165306,0.05031375008109151,0.24609293392635734,-0.0662718015119395,nm,0.0
