timestamp,roll,pitch,yaw,acc_x,acc_y,acc_z,gyro_x,gyro_y,gyro_z,markers,motor_input
5.519910097122192,-16.830326812712286,-23.661993878905637,144.58695759572328,-0.02412658218712525,-0.04682537105780244,-0.5161499437716683,0.6099748861694014,0.2547381588115616,-0.04155543175121004,nm,0.0
5.521799802780151,-18.779084344444737,-26.255441732975445,144.5602213016505,-0.23796427541949658,0.11014815510844374,-0.733348147601499,0.5905193583537185,0.23262813481333205,-0.18234354028348976,nm,0.0
5.530274152755737,-20.418216909326553,-28.68108725225214,143.92333659409044,-0.5873161719830159,0.3606908712018981,-0.6922374991288166,0.5217762226551756,0.23832156459461634,-0.29070399725648255,nm,0.0
5.552585124969482,-23.320986148803808,-32.565156296772656,141.7589124696431,-1.0701710084358718,1.1194579690334554,-0.6467677496384694,0.42757468796137515,0.14173363372135164,-0.38703551622350185,nm,0.0
5.557672739028931,-24.569327289865747,-34.090722892846,141.04351877044272,-1.2742454524114974,1.258223400616769,-0.47124403925011654,0.3568703600375221,0.12203819354606808,-0.2861800719491277,nm,0.0
5.576455593109131,-27.379512034290947,-35.691879888955654,140.8027714745725,-1.4266010805822724,1.1689909535923393,-0.4334649039224781,0.27041491692141517,-0.06709376253274331,-0.16762260233865062,nm,0.0
5.592423677444458,-28.75715689888769,-35.749486102973336,141.03179151532174,-1.4050011802670455,0.999023049384491,-0.516974369412671,0.1846949106266575,-0.11922743983499912,-0.11003363473650504,nm,0.0
5.597305536270142,-29.888107093957924,-35.38427065266359,141.22336134910742,-1.4446560511454587,0.6787133439170822,-0.4887612504115677,0.10121394832838652,-0.15955559580758832,-0.10046796386012877,nm,0.0
5.618304014205933,-31.42797728495513,-33.31604015022398,140.86720140781497,-1.340715180786703,0.7214929187817988,-0.6354821450010987,-0.08324892315468221,-0.2393510209664489,-0.14227807976554982,nm,0.0
5.637567758560181,-31.632837020288015,-29.466310554610985,140.6150646264035,-1.2418446386012874,0.6921709462308142,-0.6281071497708012,-0.27065308431550683,-0.3243253261863766,-0.034717631146534554,nm,0.0
5.659334182739258,-30.742089223353357,-23.62740040731981,142.00141587660855,-0.7662856748988376,0.1981941617643538,-0.658270052812411,-0.4722195171277768,-0.41598683079344256,0.21180956466501094,nm,0.0
5.662163972854614,-29.812316963367643,-20.05633392156478,143.42203818382532,-0.2807789693302429,-0.14845038526023083,-0.6831349004681344,-0.5677312166676035,-0.4514785987792111,0.3136888167882162,nm,0.0
5.6877148151397705,-26.304155675810552,-12.360197434428574,146.76629114261863,1.0629953206861489,-1.35655297460236,-0.18065787540353398,-0.7517313824134955,-0.4063417954066293,0.41309382159640196,nm,0.0
5.69291615486145,-23.925766504811374,-8.855445527011918,148.39113444951963,1.866762990699466,-1.7515543316446545,0.4066213625993545,-0.7708650069568355,-0.32759972931853365,0.3934094694168926,nm,0.0
5.713538646697998,-17.6670380515279,-3.9307248774030983,150.42253753963539,2.676498331297171,-2.199398917741917,1.6274923890984814,-0.7379018161717009,-0.03223432688304887,0.2112554487920384,nm,0.0
5.71936821937561,-14.751214019514302,-2.9882037843290132,150.39459657229503,2.7656575423433067,-1.4440160520819958,1.327113292536561,-0.6003568444614371,0.13846011860140578,0.042855130231684344,nm,0.0
5.748677968978882,-10.065334222707216,-4.629102885662182,147.9715932942188,1.4756225692073863,-0.40900884888504746,1.6043810610904456,-0.15763094217664103,0.4222427942627227,-0.26755138430039604,nm,0.0
5.750723123550415,-9.230322084334246,-6.785801390681916,146.17997828028777,0.9922125699033791,0.4323499476175829,0.9355964894928687,0.09575956204596422,0.46711207806123156,-0.32224757897655576,nm,0.0
5.7574052810668945,-8.712887928764808,-9.710553159813914,144.746702279859,0.4492596421328377,0.7348259442643277,0.7902930746539308,0.24851072143248368,0.5546775015419292,-0.2545139022566184,nm,0.0
5.784687757492065,-9.609930909862747,-16.927732167357846,144.01540291890737,0.09864969152385891,0.7951053132444111,0.3476333508120322,0.5553626030435136,0.5396581711549238,-0.01144660165426368,nm,0.0
5.786796808242798,-10.772786001104082,-20.667979885543847,144.516679716261,0.046559360032870395,0.33524132477472757,0.24091584320667803,0.6175870299966341,0.492746719293111,0.05775491697750768,nm,0.0
5.815236806869507,-16.547232698370472,-29.80281960885062,145.18321911923712,-0.26776737018970825,0.10204786368722178,-0.7939248298766551,0.5686450486716677,0.25797980377479224,-0.24601080362133704,nm,0.0
5.8237645626068115,-18.189944597104564,-31.983749102953993,144.33513798642056,-0.6042431606098003,0.3357702990549343,-0.8250905922226504,0.4839304065588661,0.2083103404955719,-0.3577261815133885,nm,0.0
5.846551418304443,-21.41901396352405,-35.39162613102648,142.21004478376818,-1.2076135381388937,1.2105131238599236,-0.5774330140973308,0.3934549873940599,0.10013188120311642,-0.3901284902867334,nm,0.0
5.867843151092529,-24.370553580000625,-36.88858543664097,141.57959429271426,-1.7244751765805066,1.1836681559350621,-0.2557401265848259,0.2742849136267562,-0.07335267720133298,-0.2251334128445469,nm,0.0
5.873970985412598,-26.179508789812854,-36.96410903073591,141.98889501325908,-1.7433358098868494,1.3173143541477041,-0.4195974837380748,0.24023103866794973,-0.15377748521341877,-0.15375692737257923,nm,0.0
5.8813440799713135,-27.64071375043093,-36.66488507489331,142.63429226685736,-1.7728311193751831,0.9671171217652708,-0.39765610034112364,0.1521038355741602,-0.17730394966608942,-0.06477308595627809,nm,0.0
5.894217491149902,-28.883228248766436,-35.99085719900058,143.17657262551424,-1.6503750605901188,0.8142054636468641,-0.5965395819687755,0.08181843555002817,-0.2153563615291583,-0.05654049099941587,nm,0.0
5.899461269378662,-29.72064723320502,-35.00497381015026,143.5157522634842,-1.4308989193954975,0.7444958320488789,-0.7713491942756161,-0.005011886933413269,-0.22678184230250684,-0.05127011876092485,nm,0.0
5.923607349395752,-29.87681178358223,-31.86077110933179,143.69203827666408,-1.072431305152791,0.39082545140432684,-0.7554742687767138,-0.22507454890959228,-0.2729162171737772,-0.0022873585616811102,nm,0.0
5.932882308959961,-29.465544490635793,-29.3874613268741,143.75099404763847,-0.8334340351680304,0.29800358673996946,-0.7392628096657184,-0.3474989702957473,-0.3440181893848854,0.05065362861735189,nm,0.0
5.954389810562134,-27.965355859910268,-22.513176570675842,145.02749064756418,-0.2522920833449719,-0.052584774534957746,-0.6410833453496567,-0.5582181084517315,-0.509762810601492,0.2161948592637135,nm,0.0
5.962430477142334,-26.772890463367794,-18.258917051715574,146.1931807664738,0.21553187587402992,-0.38589606372588536,-0.5907329088292784,-0.6639400693862482,-0.5632812716474135,0.28942681092113814,nm,0.0
5.983527660369873,-23.06463927538538,-9.665704186037587,149.0880827294544,1.4067505360138541,-1.1476931326111626,0.055364931413205525,-0.7958973797599607,-0.48235192358920803,0.3364186538841322,nm,0.0
5.985226392745972,-20.246753288258837,-6.020667574611893,150.34384901393815,1.8843457200011426,-1.9038359508833966,0.9714311213315352,-0.8505309397019755,-0.3352518966156473,0.288521070722495,nm,0.0
6.012501955032349,-15.062668870060806,-1.9661622491982953,151.19166756362773,2.4001245515114276,-1.2612995489609249,1.4007941141862745,-0.6081135467830899,0.02321660248658946,0.05430692248929055,nm,0.0
6.0148186683654785,-12.50534471404657,-1.6087647843327795,150.6215447986684,1.962298732875179,-1.0999352971817031,1.7620673189043587,-0.48235943119321956,0.2012013097060773,-0.07206520961416252,nm,0.0
6.03978705406189,-9.861056856364572,-4.20663991558696,148.3954690315411,1.087712558913786,0.16599461080628647,1.101775968471679,0.0014519951369606743,0.44098572951549014,-0.19370356456082347,nm,0.0
6.046709775924683,-9.272140309486957,-6.730855553730417,147.4422531545599,0.6656417003122952,0.35591176151701165,0.9732666195171886,0.16949773515176353,0.5046919800431234,-0.15529953251632886,nm,0.0
6.070044040679932,-9.773541038007945,-12.76689910380527,146.80447125813544,0.2733525077852517,0.46877164691458467,0.4655844296586842,0.40220834102232633,0.4970992991247966,-0.006334881541700252,nm,0.0
6.0736916065216064,-10.665399954479389,-15.832234825326278,147.06670965419588,0.18123845067169925,0.17253576107124882,0.2056321557098018,0.4800784792221636,0.4341429804891117,0.020130256616866828,nm,0.0
6.095388412475586,-13.63405585856895,-21.371483091290067,147.46682401437718,-0.15114016158967244,0.0397142389748319,-0.24673580119794555,0.5226547866709182,0.3019201559427169,-0.0870098620218927,nm,0.0
6.119731187820435,-16.785346218011533,-25.856774363171176,146.59456011154057,-0.6535191134410746,0.3202231786248369,-0.517988856844445,0.47406154751516366,0.2238494659694876,-0.24452446692167723,nm,0.0
6.121570587158203,-18.263326975537012,-27.889093342833817,145.90340817403398,-0.9217239955609453,0.49249226993351797,-0.4388017208605425,0.44663804752409536,0.20588667645034425,-0.2697446163755472,nm,0.0
6.144967794418335,-20.744492844715193,-31.122437676956086,144.745211001604,-1.2451306801145452,0.8185335183357819,-0.46805071673682763,0.32059371363514344,0.14829092988304263,-0.18761482878764976,nm,0.0
6.152620553970337,-21.807261136627922,-32.31954207125474,144.4540934349486,-1.3518743598324467,0.7611453272420619,-0.41055175042789577,0.28845432957955514,0.10401943730810895,-0.13628024886954812,nm,0.0
6.169809579849243,-23.70879915822209,-33.36464619712324,144.45536002181322,-1.3101815598282218,0.7522213900721056,-0.5838611974106022,0.14120459569792726,-0.020447608657605813,-0.07903634264814118,nm,0.0
6.175992488861084,-24.267065069767323,-33.17098526674529,144.39038490448633,-1.278133397106226,0.6578707194234652,-0.6249672469837487,0.05567380010690157,-0.07224737382744534,-0.07021241545951694,nm,0.0
6.198913335800171,-24.60732902231524,-31.20933833703979,144.12154413983797,-1.159543175727315,0.5548456727489707,-0.570249133016834,-0.14688898992415317,-0.1935472642920356,-0.050617875082597075,nm,0.0
6.2199461460113525,-24.08975291599289,-27.01119544567013,144.3307525210843,-0.9391730886715649,0.42398625800890344,-0.5131414140282775,-0.32054884762860403,-0.3356831416534039,0.05031717233756449,nm,0.0
6.223224878311157,-23.594852733568842,-24.13090742920313,144.90639613307437,-0.7423006690275531,0.22273156338587535,-0.4406434704404581,-0.40466350734448375,-0.40500504299403217,0.12773117375018264,nm,0.0
6.237499952316284,-22.975161068761977,-20.78031088102191,145.86973423676778,-0.418210524761885,0.014293194674840151,-0.47138358984474615,-0.47325326561690245,-0.47389072885117905,0.1918290855844605,nm,0.0
6.243016719818115,-22.166984704541605,-17.126263544810175,147.15810977618108,0.03086652271710544,-0.27486116742778427,-0.45789196353710626,-0.5290870531209352,-0.5130771163718535,0.24221262140260402,nm,0.0
6.269807815551758,-19.906135995380232,-9.662188200338775,149.74751974570896,1.1202558862177932,-1.0766129763884111,0.273611517102399,-0.5863938901898628,-0.499654310463144,0.2561121024226539,nm,0.0
6.2715981006622314,-18.280079981599517,-6.2438224974588525,150.84543444319755,1.7124799807736586,-1.2922182632573842,0.6635581702165031,-0.6192090462099537,-0.42115020286466515,0.23163365865580188,nm,0.0
6.2940051555633545,-14.26696254293671,-1.8791078027955126,152.24155238614716,2.068459392519813,-1.3617862836000412,1.2668288047258018,-0.48299636232482923,-0.10790050301953208,0.11240818603540817,nm,0.0
6.317456245422363,-10.93076516842832,-1.8326471119993522,151.44040673782817,1.5092967756822797,-0.8293366186665249,1.374984521706697,-0.2300300179603657,0.26760122886808585,-0.10592556453652728,nm,0.0
6.319107532501221,-10.253485850383143,-3.5002839671778743,150.2202234201744,1.0601260110507618,-0.23080683006963723,1.1056879443495304,0.044358603122258075,0.37177023978647006,-0.2092421136347608,nm,0.0
6.346114635467529,-9.925788658227974,-8.582093698083737,147.58249669545333,0.3674933300178887,0.4758373503664726,0.5964552490009779,0.2794748132367836,0.4903975470160147,-0.21979115237784758,nm,0.0
6.34805965423584,-10.195720493961815,-11.583771218182111,146.73062787371651,0.15374294760351268,0.7131458692316429,0.3844237761430065,0.37166439978209137,0.4897815872238818,-0.13713937951004665,nm,0.0
6.3560614585876465,-10.777121061098596,-14.542335650160233,146.5348759654705,0.15672764986548934,0.4612547888897957,0.2773933767157098,0.42115014373891707,0.4463175145025609,-0.03955471643642197,nm,0.0
6.365464210510254,-11.9468580664036,-17.46896827064887,146.76010277688226,0.10203191429471356,0.33890307633150085,0.07718369348092322,0.5109389312740683,0.37934930759131275,0.016343768712560623,nm,0.0
6.388671636581421,-15.235357370398727,-22.161993235199258,147.55374827708332,-0.1027289711340557,-0.004671227883345845,-0.3115912390104654,0.5044391698308501,0.19362871324718853,-0.04309655156940272,nm,0.0
6.39776086807251,-17.067395233369478,-24.07377512108764,147.58006595945963,-0.30006291944056934,0.07877742175733937,-0.5077270176240756,0.4905055761052233,0.15630107394057666,-0.1289355635841731,nm,0.0
6.417047500610352,-20.258411189254677,-27.563945978466514,146.67202069916678,-0.869974045094603,0.3312139506667601,-0.4233101729875767,0.4136476626692244,0.14418078256382455,-0.2578075404417233,nm,0.0
6.432955980300903,-22.61142077409031,-30.66315699609595,145.47529001087173,-1.1960966132018411,0.8604520707444413,-0.5002444810185372,0.3022053705523989,0.1794037630761161,-0.19122257943245174,nm,0.0
6.4475321769714355,-23.29437878268774,-32.02084538681176,145.18721323249613,-1.3073243245397574,0.7439756744040321,-0.3869421926381935,0.2525838698549512,0.17097024547789982,-0.12499358355478984,nm,0.0
6.451351165771484,-24.010475635324916,-33.07267171162597,145.10018238026137,-1.238126219786167,0.9808092408477298,-0.5733914153596434,0.22157931333411232,0.11747380638944964,-0.09051129565662026,nm,0.0
6.477597236633301,-24.39123484579719,-34.101114441593054,145.0938156066498,-1.0827361031312772,0.6425305136587276,-0.5353703570246489,0.05028800914675918,0.05823737225114269,0.012878492305141868,nm,0.0
6.4809324741363525,-24.36157144174834,-33.91174970038376,145.0376623133795,-0.966808060291068,0.6625443111199621,-0.5427404993825488,0.0,0.0,0.0,nm,0.0
