timestamp,roll,pitch,yaw,acc_x,acc_y,acc_z,gyro_x,gyro_y,gyro_z,markers,motor_input
8.005337953567505,-20.114693718037376,-26.498449084152185,143.09172762444825,-0.17343420692339123,-0.09963808774604319,-0.15814212795867483,-0.41263280806090763,-0.43676171830391725,0.3319281439847856,nm,0.0
8.018611192703247,-19.748655786339842,-23.042838508929897,144.9189672823167,0.24742131422105137,-0.4338651335222107,-0.23646979268739873,-0.4583013597870878,-0.5073714458200971,0.3542239071673809,nm,0.0
8.033396482467651,-17.931614860335216,-15.80431535042795,147.7372536965572,1.1107103100647555,-1.1589882793050135,0.12106823634991051,-0.575893858383635,-0.4691701519221674,0.29876008579396673,nm,0.0
8.042074918746948,-16.580124456846445,-12.45754434543412,148.7202429291813,1.3654621135365783,-1.2808036054065592,0.43573807253059,-0.5754741178939082,-0.417873589983782,0.23072000671041235,nm,0.0
8.06643295288086,-13.569580204976498,-7.625851886872581,149.97340383887212,1.459380470546233,-0.7743174640643846,0.6207154433056471,-0.47580381987579606,-0.17144930663254804,0.15322718565151167,nm,0.0
8.083361148834229,-10.249269344205459,-7.081852777027598,150.2332043063898,1.3119289155701683,-0.5310670660164917,0.8326166262438875,-0.23488359768388423,0.22600849102609827,0.07191494805804795,nm,0.0
8.089349031448364,-9.192523877204769,-8.603496418799129,149.8691095386325,1.3141092509769063,-0.3761002457651897,0.9793546289266158,-0.029671713355955753,0.3829907245923237,-0.009983959150536455,nm,0.0
8.12912106513977,-8.148745384926254,-19.96200626034162,146.1157428693596,0.28120057665930276,0.5735674824535247,0.0865624290954158,0.4379720168300503,0.5097434018658366,-0.18921770652711742,nm,0.0
8.140464782714844,-9.011049764251018,-23.199604012665006,145.46873790525345,0.026489047634682995,0.5006982852556544,0.1860498441532544,0.4979555022244112,0.4597237246881101,-0.16597428097320008,nm,0.0
8.145957946777344,-10.354208448676479,-26.304215212242585,145.14452091431102,-0.17138327771988673,0.416853517807969,0.03947100006205043,0.5553870846577433,0.38604532221587534,-0.15723617873028967,nm,0.0
8.173714637756348,-13.735567766491611,-32.1628984227761,145.08005138903115,-0.5304518200928808,0.2958117402757017,-0.23257986740527076,0.5671667527502152,0.3114878318067263,-0.17921424211009976,nm,0.0
8.17553186416626,-15.394189337191552,-34.682022730235936,144.83945082453417,-0.6597077361296957,0.262099281617623,-0.3386130669355706,0.5178259606645002,0.26796250946741207,-0.22840220949315712,nm,0.0
8.197155237197876,-18.241745916002746,-38.61501882945889,143.44697892561769,-0.8706278559649606,0.6974445527870926,-0.5640862938516017,0.37217737044539484,0.17871874146239086,-0.3201931828874076,nm,0.0
8.200986862182617,-18.997172156428128,-39.90618913977054,142.52031726735947,-1.0195981853812686,0.5481227908858941,-0.4171619685667152,0.25166925387321876,0.14960510596308177,-0.27729611680221833,nm,0.0
8.221184015274048,-20.945286113593237,-40.74916915365914,141.41273868277784,-1.2903024374981338,0.8814070214449337,-0.3247548990019786,0.1402958793854548,-0.07338645447464226,-0.23639189642477676,nm,0.0
8.239450931549072,-23.07372104618328,-39.14450868281299,142.07638099362967,-1.4940669105496212,0.73723182978106,-0.2646874509445348,0.00914984681886777,-0.2587035269418587,-0.050106288088524346,nm,0.0
8.255305051803589,-24.09513743092135,-37.71155443565225,143.02296842111878,-1.4605687698030332,0.7065518201890942,-0.3842019622922884,-0.0439497181419959,-0.31187256388963025,0.029053942901975875,nm,0.0
8.260188341140747,-24.684874600267282,-36.037127709975415,144.07882219881836,-1.3582012661364837,0.4630130829440519,-0.4523994721997616,-0.12018933058137407,-0.31251926356026444,0.1078094354342166,nm,0.0
8.281982421875,-24.535892249527745,-32.348104263690686,145.65433560659,-0.8246649015761852,0.11935409521303235,-0.5594164043429495,-0.25818299596973576,-0.26825869251511947,0.1583637355560275,nm,0.0
8.287440776824951,-23.690019304840302,-30.22942553517887,146.16526128130351,-0.4857619992168078,-0.09887514062167614,-0.47420718693578706,-0.35578298868425556,-0.2567523762890769,0.16660176066730445,nm,0.0
8.30992865562439,-21.161827542529153,-24.81249954899507,147.03547971818824,0.32950778537653663,-0.3864725849270785,-0.28686053872049294,-0.5226173593301647,-0.3427813583603573,0.1772789908380482,nm,0.0
8.316693544387817,-19.669727177224665,-21.485659661661096,147.73161543101818,0.7778487552379995,-0.4832251767575665,-0.20663815343655345,-0.5892302721629797,-0.39977168207586683,0.21568505649699832,nm,0.0
8.336316347122192,-16.17931043964022,-14.442645195157521,149.93093604395398,1.6673239340868893,-1.3050705331998462,0.7569368200742284,-0.6243333324146906,-0.42180786793826786,0.287327918184639,nm,0.0
8.345700740814209,-14.600938985656443,-11.574203391582383,151.05128798388506,2.015422189896677,-0.9515469398895954,0.6867967936707892,-0.5512499969783649,-0.3344506899606155,0.2645519458997514,nm,0.0
8.357851505279541,-12.462767573584879,-9.69515062210667,151.72687735146673,1.8319542774873583,-0.9583697436395112,0.8135435461979784,-0.5506020749513227,-0.1145100641675661,0.20856926311677632,nm,0.0
8.384342908859253,-8.81388594441856,-11.105492221573053,149.36471745658673,1.1171306437602624,-0.0843010175488384,1.1855418375461197,0.037629112799992655,0.38817976588377734,-0.25067705517854666,nm,0.0
8.40446925163269,-8.603354192554471,-16.27290462342589,146.19564972823792,0.5518040434803969,0.4444359566961928,0.4750511175067558,0.31618466697387887,0.45049716548307417,-0.28331414132652993,nm,0.0
8.416935920715332,-9.344893651667277,-19.20625841518451,145.34506374217105,0.3960696707193046,0.40052801454749476,0.28146288784796847,0.44790022039335164,0.4201587100124815,-0.1980200252897176,nm,0.0
8.432765483856201,-12.554345736526805,-25.310588916404797,145.7198223501534,0.10240870952890824,0.020418214875147358,0.15461103106668853,0.6112217296612112,0.3089010583149168,-0.036668380440267205,nm,0.0
8.438650369644165,-14.556969805127814,-27.848101364764172,146.3606312504035,-0.04495416842549933,-0.07552586930751858,-0.23802695859437184,0.581885446952772,0.23526144663799076,-0.043609651150862204,nm,0.0
8.461294174194336,-17.818050205384566,-32.53608337420373,146.60274874824958,-0.5206737120935396,0.04781559208036538,-0.4964793788504836,0.4576939625868966,0.2672747185715446,-0.17612698946234198,nm,0.0
8.475263595581055,-18.853128957158784,-34.680931397497304,145.79958889530516,-0.7176236760090039,0.29308606163106293,-0.5063464707524019,0.3837791347420619,0.2748665223497006,-0.27218475140806764,nm,0.0
8.479186534881592,-19.40005393140876,-36.738978411384934,144.55348461419547,-0.8947360636262099,0.6913497967149947,-0.5154164570167414,0.31039466732067195,0.3012025425048152,-0.29639445908917184,nm,0.0
8.48747992515564,-19.463893795267676,-38.6701292918303,143.33337408495717,-1.0814058041637944,0.6378562263396483,-0.19583833544326226,0.23826485773515668,0.3202591690837871,-0.23385500621047578,nm,0.0
8.495388507843018,-19.684808479885664,-40.20043145064675,142.46849345529208,-1.1973944801509693,0.7744895732264923,-0.0627359442191954,0.21469358274186662,0.23742047072382888,-0.19714904509421316,nm,0.0
8.517550706863403,-20.72203566808078,-41.73170247498639,142.30136820733495,-1.2348872660988945,0.8189885258197968,-0.26521439816312575,0.14384341030913622,0.04871614598083204,-0.03009412868151937,nm,0.0
8.524210214614868,-21.61461794772524,-41.87271599430433,142.94221155385947,-1.1819657421564251,0.6576604235582567,-0.2474443959396118,0.1258142799673128,-0.04501409385643332,0.013725518079663823,nm,0.0
8.548321008682251,-23.09385240064833,-40.49055968249174,144.34027827605954,-1.0561213530947937,0.45156965945438576,-0.47705932866550416,-0.03390765998003504,-0.19082029581817522,0.024978530334477292,nm,0.0
8.554410696029663,-23.44725432160927,-39.28089671503785,144.70877820033903,-1.0159741089988557,0.3880188397657164,-0.43777413762611417,-0.09369814628771309,-0.2154039555651015,0.009402310592759849,nm,0.0
8.57470440864563,-23.36959966287465,-35.86014032887983,144.89278561016266,-0.8385619715638339,0.29607798223145654,-0.32792252572290387,-0.2363409720322904,-0.2831681451819776,0.009440938567325167,nm,0.0
8.587593078613281,-23.13654249001874,-33.638448874436456,145.095964650681,-0.6725027951299694,0.23673176288924855,-0.31432440893790087,-0.2843506085077748,-0.32891575606179496,0.05022989763749975,nm,0.0
8.593044996261597,-22.847286926840752,-31.072695023767995,145.66546475473962,-0.433897321763105,0.10188349965432635,-0.2803187549915657,-0.32996387253089143,-0.38158300293261804,0.11692651634162331,nm,0.0
8.614842414855957,-21.847609124926496,-24.685369691815676,147.60795975413524,0.31644122371420474,-0.3579971870576406,-0.38187720879992965,-0.45499714930041507,-0.49792428835862335,0.24084141093742162,nm,0.0
8.630735635757446,-19.65468391280307,-17.798333032271,150.03372120112638,1.3172274679526035,-1.208560646219028,0.23524927173171967,-0.5667059166301489,-0.43880324701345363,0.31765738646022273,nm,0.0
8.642961502075195,-18.00623636352006,-14.719425218927201,151.09481847401412,1.5746511599807118,-1.5078290625523192,0.6295964422959173,-0.5793316661187755,-0.36710939749582067,0.2902193968999266,nm,0.0
8.649019479751587,-16.446729997947553,-12.274957271701926,151.7294588081484,1.7286859819216065,-1.1154087269821054,0.6510693176246992,-0.5018087117363365,-0.26987760036239183,0.20750335248647736,nm,0.0
8.67085576057434,-12.375795887090067,-10.825665616740357,151.58984326098482,1.2148106245401502,-0.5928791476426339,0.8208079502014288,-0.36719646722085236,0.20022460751508156,0.037379401091804036,nm,0.0
8.675780773162842,-10.891196310331946,-12.047035381875844,150.68996883049283,1.0081583281411755,-0.12256927800331437,0.8236258571003865,-0.13748304941340245,0.36941218678329746,-0.08518167312522336,nm,0.0
8.696277618408203,-9.03072476130459,-16.946944358571255,148.11118121239994,0.7952465594530119,0.22797512173854353,0.9159804474449132,0.16436807325545646,0.5494984690541714,-0.17605254991866787,nm,0.0
8.704582214355469,-9.008711356190197,-19.8255661027786,147.16258856452026,0.7678704348158233,0.42755655380366747,0.4053397210794446,0.3053688195580504,0.5031820853303381,-0.16025314815423203,nm,0.0
8.72694993019104,-10.55779758323912,-25.573485645774674,146.77035452115942,0.4470036915179479,0.21957015128018167,0.1187792782538224,0.4742036752813676,0.37355969381323006,-0.05969019930774164,nm,0.0
8.73807168006897,-12.12068896308321,-28.01625837279089,147.07803765577836,0.20154572747380164,0.1712309777477111,-0.07423822474608449,0.5012623143581124,0.27156387104994495,-0.06776588984517865,nm,0.0
8.755343914031982,-15.516595631714349,-32.15389829173418,147.12868222320083,-0.43314056508742116,0.20253807679475724,-0.3095059329175278,0.46093689092459905,0.1937128449866522,-0.20078289109314476,nm,0.0
8.763706684112549,-16.986795627996596,-34.06339010619968,146.46578559096992,-0.7458385913459457,0.3798164452570264,-0.338023790658081,0.41672781592680974,0.19900055096554062,-0.2905957852245556,nm,0.0
8.791737079620361,-19.37330225294544,-37.544197287188155,144.11577699862585,-1.0601734190194188,0.587144141105744,-0.10660988217004362,0.3516800487680686,0.17363455211227022,-0.4025103066667135,nm,0.0
8.793429136276245,-20.5402477161039,-38.88802693665124,142.95132794232867,-1.0683068374979587,0.9151675794314108,-0.29738838467215206,0.3100719638394624,0.1210037328869371,-0.3807426416923024,nm,0.0
8.816471099853516,-22.972001457969114,-40.15016137442362,142.0791421829879,-1.2599963666379326,0.6032937852359396,-0.15214728235491215,0.21803129878819355,-0.07375066425034223,-0.2306387420159879,nm,0.0
8.818960905075073,-24.683212777151763,-39.73655734005252,142.38681596522494,-1.273914650636997,0.7580039231181898,-0.37811353564937267,0.16022438407213585,-0.2130280130139536,-0.16714644338174256,nm,0.0
8.844459295272827,-27.527730483971595,-37.39352382631124,144.0172240136619,-1.3866711897475046,0.48796612865241645,-0.5465445228233593,0.009214358096505842,-0.3332947916549722,-0.0036851236725112643,nm,0.0
8.848860025405884,-28.300100082985736,-35.69116124954834,144.70794441256572,-1.3179750161564139,0.48395920994348407,-0.6694743406201134,-0.09484670838585052,-0.3362168791968727,0.04434910603311076,nm,0.0
8.871546268463135,-27.73927123932509,-32.05915231908857,145.7248721477225,-1.010678571640958,0.21244783738673667,-0.6279529658194638,-0.2800456728596296,-0.23244147776619536,0.14323298999058226,nm,0.0
8.89278531074524,-25.137197113224474,-27.9116981596075,146.67009206797215,-0.3319016234994533,-0.15578522894209335,-0.3619042721326448,-0.46424835898453504,-0.2080868553441403,0.2452315682295783,nm,0.0
8.89798903465271,-23.44247175204334,-25.386886297858318,147.53528696919977,0.13542504519949636,-0.3512520162884588,-0.251050358144128,-0.5280585460754861,-0.24614504416970842,0.30665450753482487,nm,0.0
8.906226873397827,-21.615381771866957,-22.52275208984076,148.66434424779263,0.6473007465401476,-0.6042308379382586,-0.07412617874924653,-0.5865140207865004,-0.29591633583626253,0.3769169454105495,nm,0.0
8.91402792930603,-19.47925923798957,-19.404004299181093,150.14247155695276,1.2010579672449204,-0.9980979053055845,0.26041200782793184,-0.6619084414898019,-0.31980565945784034,0.45042918325371184,nm,0.0
8.923794984817505,-17.129768497979622,-16.32119809709614,151.88539076460276,1.6363163449270672,-1.4694597501813986,0.850287792284348,-0.6914811530959525,-0.3089940381230807,0.47677485757505605,nm,0.0
8.947180271148682,-12.895298932256892,-12.136231071279104,154.5917670522086,1.935937970248688,-0.8005074828387435,0.6650583283390206,-0.5335089326176569,-0.0778372911404663,0.3237386601893194,nm,0.0
8.96321177482605,-9.22440352754174,-12.82807564927018,154.295248180046,1.4184631336404394,-0.22609812237950713,0.9068475516190263,-0.18212136200554865,0.3037595723120459,-0.04389416592122815,nm,0.0
8.97742247581482,-8.173536460785877,-14.805050822072984,152.9096105185131,1.3171401545225645,0.05047680130534502,0.8411226278692897,-0.008324201033610588,0.45972627692717494,-0.20698782818427752,nm,0.0
8.984920263290405,-7.450004281045312,-17.591804749112974,151.09383645520154,1.0520078178928387,0.2726757673743196,0.7662368407077728,0.13844246760266468,0.5722022802211206,-0.2957074366981937,nm,0.0
