timestamp,roll,pitch,yaw,acc_x,acc_y,acc_z,gyro_x,gyro_y,gyro_z,markers,motor_input
9.510820865631104,-18.06264662964835,-14.9587200250282,153.94344683890273,1.2747389571505867,-1.2313477724461381,0.9347833256299483,-0.5271859003049887,-0.3362927955070906,0.22240454497138046,nm,0.0
9.51249647140503,-16.685814025235274,-12.262102623709044,154.472206216243,1.9059584986344695,-0.9884792367595188,0.5921331910654752,-0.47735221284398993,-0.35569783256995,0.14612525538187288,nm,0.0
9.532382249832153,-13.10813877771001,-7.913278242278576,153.93952049336337,1.5919372604071493,-0.7936981014297466,1.0178909962700293,-0.49990850439141815,-0.2065334020085807,-0.07844897789412578,nm,0.0
9.545201301574707,-11.97829647452206,-5.943693880977039,152.69430491604516,1.3259545727022788,-0.2710156829360394,0.7872593006904861,-0.37892902517450405,-0.23734665132590577,-0.23006018432443567,nm,0.0
9.563683271408081,-10.974696481816862,-4.772726086989295,150.05117797096273,0.35220633399368234,0.31118153240600666,0.6975929075963695,-0.046504582426366174,0.025250538668027435,-0.24288386044444146,nm,0.0
9.575461149215698,-11.383995242371926,-5.285392308575538,149.1898323545475,0.11719410939690535,0.49223659376251094,0.36368774510575225,0.122002700264593,0.06157579878873221,-0.18162330696316592,nm,0.0
9.595489025115967,-13.110422791144964,-8.636655621884007,148.5696253796525,-0.2345502606582956,0.34364251808829616,0.15838159219406395,0.38442487697739464,0.2696619851870642,-0.026937781149496742,nm,0.0
9.603565216064453,-14.147677795341082,-11.004207518609315,148.574742107732,-0.22400093729646756,0.20994900128277572,0.07446953619984989,0.4219721523345098,0.31179346586217527,-0.011010949522759607,nm,0.0
9.607977628707886,-14.95936445161252,-13.478070489236991,148.47489860582124,-0.08953153016924414,0.030297473487356643,-0.16920622596658536,0.39440913620054174,0.35351173608833425,-0.0270024443632382,nm,0.0
9.627629518508911,-15.695782992810834,-18.82963327124152,147.6001786611356,-0.1794400713513115,0.19263056122925987,-0.41806064495037676,0.314807504154523,0.44080874099641315,-0.07995069300875146,nm,0.0
9.640601634979248,-15.471370938719657,-20.984573334291422,146.93979715561525,-0.2443145672871049,0.08471476050424245,-0.0975825402098169,0.19870979497777688,0.39995139921062667,-0.08069872904308568,nm,0.0
9.661006212234497,-15.212823936317326,-24.553637462407924,146.405509757322,-0.5692206707331938,0.4676591580699613,0.03326302067976273,0.17829173856109837,0.3048106754463122,0.02291933510510688,nm,0.0
9.667609691619873,-15.353381692589096,-25.564894589920723,146.81104359384545,-0.8769960563346322,0.46229022976335776,0.16804244840104765,0.13328553731821355,0.16932336363678785,0.0854169317107477,nm,0.0
9.689500093460083,-16.984423599003133,-26.10985643982183,148.66105084994948,-1.2017011979821108,0.6138914581264059,-0.18744772801078297,0.16891164850650134,-0.04485342836324592,0.14306222935884508,nm,0.0
9.721153259277344,-19.898160388548803,-25.821187473813907,151.78288550227822,-0.8919977162355334,0.31964271411490885,-0.5515239185858523,0.050819584598614166,-0.11276790201903145,0.10026471152889632,nm,0.0
9.723246097564697,-20.074316235666654,-25.309522549957997,152.2719021980673,-0.6975410932974366,0.08286441002544907,-0.571161059918298,-0.02044314740779003,-0.09116805286076388,0.0850908371300485,nm,0.0
9.750190258026123,-19.43435061929354,-23.22259464522158,152.68462398237392,-0.21367297017301762,-0.09127953365271756,-0.4551063164674968,-0.2161894291313853,-0.17440660125477056,0.07640384287451957,nm,0.0
9.756822347640991,-18.688329321204076,-21.389073325878858,152.94595968174013,0.006315311602129292,-0.2255338334026011,-0.32309904845141113,-0.29144007264581545,-0.24926221323914916,0.09914458231693048,nm,0.0
9.763702869415283,-17.947835374809785,-19.15636464126999,153.48928208916925,0.20352744800979447,-0.1905620346903463,-0.2004874449546904,-0.3263107381697167,-0.3225237867002361,0.13008795100666987,nm,0.0
9.783390283584595,-15.695591509118406,-13.534259496147682,154.8538429014798,0.5613401157263086,-0.486563909609781,0.16712934318676229,-0.482877230563195,-0.4122817297337803,0.18027747422683976,nm,0.0
9.792234420776367,-14.45404550921877,-10.61356027225279,155.3924112828207,0.7766388223351818,-0.6313436522642107,0.44700081774596023,-0.4680857679533919,-0.4143699829769229,0.13910829186061294,nm,0.0
9.817712306976318,-11.840277519991332,-5.692582229559932,155.55409068965395,1.2422963430894534,-0.4784622945688713,0.9372554283558089,-0.46060645269443284,-0.27163825733169306,0.0011262768670748488,nm,0.0
9.82368516921997,-10.531725590712112,-4.0282326626989065,154.94489680647487,1.1467712399722014,-0.3946364125065141,0.9392750768561915,-0.3785355676901187,-0.17891549660968087,-0.08569359020866879,nm,0.0
9.844380855560303,-9.561219551843433,-3.0296095281022506,153.00631081695215,0.80369031126516,0.017047210850152563,0.5427920766272932,-0.05544666927052075,0.030424142111421196,-0.19616046911927107,nm,0.0
9.84647512435913,-9.837100580701984,-3.773230678436224,151.94711679926954,0.4948925623643344,0.08516417849607856,0.7065247761821475,0.11676200494559569,0.12065703360248639,-0.1988752734132616,nm,0.0
9.866480112075806,-11.589338620597426,-7.252951501753185,150.13043883128904,0.1564644958226026,0.003147441443504081,0.28944634704420746,0.3777120525311383,0.2776784333692694,-0.13078656254091897,nm,0.0
9.87639045715332,-12.865289626007511,-9.781423549964952,149.60732960852394,0.1154408818574526,-0.12304965169105449,0.184191080033651,0.47275071011605524,0.3246027616009006,-0.10388745326856898,nm,0.0
9.894800901412964,-15.057802050899943,-15.286825008401793,148.87805643105722,0.04761140306706393,-0.08646800853870375,-0.24788308624217137,0.43833501643661243,0.40015105956006863,-0.09226877590906364,nm,0.0
9.905435562133789,-15.390652868240572,-17.95485056967003,148.41588192662013,-0.11464290016057571,0.02635597177250681,-0.34397614006915983,0.3328742670305651,0.4371170659726487,-0.08858075043556399,nm,0.0
9.915399074554443,-15.214684609110373,-20.5097976672218,147.87005580300277,-0.3227472985349018,0.42454514443419655,-0.5508336463626622,0.24224266805124525,0.4663224856552211,-0.0773296658053415,nm,0.0
9.93386960029602,-13.935258226636511,-24.845378380148794,146.73217161021074,-0.4456891072469554,0.5514141967066912,-0.39432760108323095,0.13345623889946123,0.41720119911376613,-0.03194597469510354,nm,0.0
9.942864656448364,-13.533834761335807,-26.792183772840264,146.44143494587425,-0.6295327589760291,0.706978209648673,0.045193062720898236,0.155091623002943,0.3794532543439104,0.004889039911385123,nm,0.0
9.960975408554077,-13.702203653838994,-28.60571545743803,146.7527343677873,-0.8017801927184276,0.7347111899513066,-0.23159665998549006,0.12202330175921307,0.08942222461411341,0.03823519942543139,nm,0.0
9.9702889919281,-14.407830786279524,-29.131201990015903,147.41831335098308,-0.9864433596477086,0.6149476529193102,-0.1045135250846634,0.16134391499442055,0.03543943185594019,0.06684003896391177,nm,0.0
10.00097107887268,-16.765398596106174,-28.83046984282239,148.8696396336621,-1.0211033933644487,0.31996762528385625,-0.26496171901625165,0.16159877994931077,-0.1767538449534558,-0.006791799551100223,nm,0.0
10.009045600891113,-18.61180033282111,-27.62582729230604,149.9032356473472,-0.9211418050413969,0.14109547239173642,-0.3501204376553561,0.014148989249476794,-0.1456997305112349,0.02565175433749481,nm,0.0
10.019867897033691,-18.9455254926718,-26.616705910896137,150.19813753043923,-0.8585168982950048,0.04692922838408412,-0.4266761347214862,-0.04912373218196577,-0.19058216237671913,0.0034371559704461816,nm,0.0
10.026671886444092,-19.03272971769597,-25.297241099777352,150.45128711055537,-0.6208178632169715,0.2197946193436975,-0.7156345639841116,-0.11700909615150307,-0.2231946116347825,0.0178323390717885,nm,0.0
10.047580242156982,-17.94883841624257,-22.02765681431986,151.49198515039018,-0.2328612233882166,-0.1970967411435795,-0.2732564068752436,-0.2659813139251352,-0.2525167126714925,0.14930575264588108,nm,0.0
10.057476282119751,-17.121301778440355,-19.769948316268714,152.26719828444382,0.14759215984580082,-0.23582730270157426,-0.3039227390736437,-0.3502185438758879,-0.31167296533405,0.1953269565184976,nm,0.0
10.0782790184021,-14.57062788533322,-14.883910038135872,154.11314639509533,0.7686184827772169,-0.4762761323266534,0.130798109891601,-0.45845484735203007,-0.30995539588868015,0.22912607388562148,nm,0.0
10.088091135025024,-12.730613872526265,-12.299822179113415,154.78565128219384,1.0493933769098136,-0.8450431194636799,0.7136416558853668,-0.5476877371582453,-0.29876402336458874,0.1886301907872131,nm,0.0
10.093767166137695,-11.261329043155255,-9.749836265969035,155.0743785445289,1.3831523022809376,-0.6394861630179212,0.746148280314792,-0.4793790467074409,-0.3265619078063042,0.07886579945889736,nm,0.0
10.120041847229004,-8.24375178085303,-5.763596954847597,154.56734554993315,1.2982286772030578,-0.3845484930156714,1.0289250124542308,-0.4331386381974823,-0.17843276703705688,-0.0675143935592226,nm,0.0
10.140114545822144,-7.863986323711404,-4.030515219063803,152.86290949554316,0.8252935220826847,0.22636786422439878,0.4837709739406606,-0.01425934704939507,-0.07891599788609047,-0.19051149922096705,nm,0.0
10.14231538772583,-8.504961326744754,-4.627361557298336,151.87200911290213,0.40942209356633213,0.12956382203038805,0.6465443513112459,0.16773369690285866,0.060580603619099574,-0.19818818924182194,nm,0.0
10.153429746627808,-9.933509956712589,-5.984271599098306,150.9250566006993,0.21537819141571665,0.17883611431972005,0.44632222199430893,0.3793249456898969,0.11627284720276493,-0.2083158265844101,nm,0.0
10.160449266433716,-11.585595702329712,-7.945078168570931,150.05419732757372,0.15813014801846603,0.0023836779639616317,0.2343871145935902,0.4786918329678826,0.19389613433033903,-0.19866628860805888,nm,0.0
10.186399936676025,-15.159637548055509,-13.375814547656335,148.82205652443122,0.09035193516215907,-0.16817466826987976,-0.13274722999342917,0.5999868819559505,0.3228490219702401,-0.17570105589160026,nm,0.0
10.189987659454346,-16.424620627864353,-16.186361967061117,148.2807456780559,0.020878222731429488,-0.14201144329306414,-0.29395382970598727,0.5029694993658618,0.36623311160514965,-0.14909453156095603,nm,0.0
10.214677572250366,-17.255883944374247,-21.316547251046707,147.14018090991448,-0.2986120301444859,0.23744499326341445,-0.523934013997889,0.29589718130084736,0.41737801892758714,-0.09292218418757017,nm,0.0
10.218465805053711,-16.82067028673279,-23.680762346925025,146.53651524750856,-0.4954444993802287,0.3187596907598044,-0.361011876897851,0.19288932584085064,0.45439117161667925,-0.0484807364404583,nm,0.0
10.226929903030396,-16.155466888570697,-25.856893710651345,145.90810547497972,-0.6634147714427655,0.6071127675686476,-0.31491082405571247,0.14321129540395633,0.4435318454894127,-0.029977961730235342,nm,0.0
10.236254215240479,-15.232823696167593,-27.681464810007764,145.14805088167745,-0.8975043655101441,0.7747068897825302,-0.09396499326320511,0.07283729128383198,0.40866829587218617,-0.0017071951093698395,nm,0.0
10.245476961135864,-14.536785929153472,-28.906037426978074,144.45241472191216,-0.9809248108948181,0.7384562297331292,0.19938015931683836,0.042815376434992156,0.2853050164967817,-0.011570392187106657,nm,0.0
10.272237062454224,-14.70302669752223,-30.40537396890305,144.50900927280068,-1.0599286191400168,0.7253773819337267,0.11256287466827326,0.1150744417363997,0.09017110519405301,0.02622797071747756,nm,0.0
10.275307893753052,-15.629824313804745,-30.440723685658607,145.15583622229468,-1.0550445212125776,0.6012518082812975,-0.024081670142363797,0.1359895044075707,-0.0720287745761943,0.019600025729501,nm,0.0
10.298238277435303,-18.65525281709795,-29.058375986116303,146.96512100784545,-0.8549697700034923,0.5028890921398217,-0.5142748315137775,0.14551861886197767,-0.2832740948965894,0.01826495391692869,nm,0.0
10.305225610733032,-19.77848010802684,-27.786991839606166,147.93497397846954,-0.7786310460597072,0.17884154427119445,-0.45510244070877964,0.03083543421448492,-0.30678162865887637,0.060009658818979204,nm,0.0
10.314331769943237,-20.51322072392649,-26.0738315368135,148.64526142706228,-0.7124229962751482,-0.09841517683402502,-0.5138710822025241,-0.06783069299926854,-0.3466475962825904,0.05229772665121634,nm,0.0
10.325504064559937,-20.95018411964138,-24.146000921940402,149.16392313417094,-0.5432430712825829,0.09404535110593064,-0.7995162566650753,-0.13067540841127814,-0.35743132641191083,0.036268090413503186,nm,0.0
10.334337711334229,-20.6374126287807,-22.142677300580154,149.55352338088616,-0.36746221757599246,-0.2520003755846857,-0.4646873326055703,-0.2534792793940257,-0.3018134414077709,0.0760092058145791,nm,0.0
10.355766773223877,-19.040749958138964,-17.849018607072466,150.07391308766094,0.2977651696539725,-0.40403110324517627,-0.17217268041658676,-0.3764859608007372,-0.27712299683204666,0.10674357333936715,nm,0.0
10.35950756072998,-17.691358355548438,-15.600850777720352,150.46079832882612,0.6518521932055796,-0.5108334517365353,-0.020434985015440253,-0.4483166691114771,-0.2482955596366029,0.1467620777201669,nm,0.0
10.38232707977295,-13.661329681476332,-11.124238919377156,151.48696307230765,1.210557920690966,-0.9957517309395445,0.8274482756487057,-0.5935340908160752,-0.1676919502707719,0.18749423210569682,nm,0.0
10.389201164245605,-11.971560523254649,-9.179566514914862,151.80676389861435,1.4762061560399888,-0.5007641556041351,0.5081967842444227,-0.47905204297033405,-0.17028857017868074,0.1149611532649563,nm,0.0
10.401657104492188,-10.100828305686267,-7.6968601770941305,151.90980502334367,1.479154474783488,-0.36171983928358387,0.7244153544101364,-0.46784544189614335,-0.07313449814983795,0.053870077041588485,nm,0.0
10.406607151031494,-8.538606903433653,-6.710841425255,151.50926295541834,1.1399364407463175,-0.33479907701726686,0.96257639723793,-0.36795157970548276,-0.012551709376734832,-0.04335281732769843,nm,0.0
10.416588306427002,-8.094774530123319,-6.270442185003503,150.71660842830516,0.8700780783235953,0.2424073451620525,0.5582608797490197,-0.12082484285865693,-0.020363595828336557,-0.1511925164782787,nm,0.0
10.430856704711914,-8.06654839356631,-6.564712201686877,149.81151923084713,0.4574165300431663,0.42170356728359837,0.49902412007274305,0.023654986698409177,0.06816044595835136,-0.18308493729616235,nm,0.0
10.460762977600098,-11.18145097314557,-11.652562414318888,148.60482470798246,-0.15693763078144768,0.31760336088284324,0.4654894291178662,0.4359762784008125,0.2496113924463216,-0.04234790381837533,nm,0.0
10.477683067321777,-12.554334822717905,-13.823191977591668,148.84836944980563,-0.1091072899645348,0.148713139377314,0.13268382891948843,0.45465954202272724,0.24630199120190022,0.007949226584568982,nm,0.0
10.494241952896118,-14.706040913854189,-17.63260275938334,149.3834167848992,-0.12104386688393068,-0.16937185744511998,-0.13898586760348203,0.32326705456429383,0.22050800812058313,0.013941252640736018,nm,0.0
