timestamp,roll,pitch,yaw,acc_x,acc_y,acc_z,gyro_x,gyro_y,gyro_z,markers,motor_input
20.002315044403076,-13.858418736045056,3.2710654588487533,149.45067283157977,-0.17617945970424762,0.12088900420944096,-0.5245089934859628,-0.10680295673321347,-0.26133305900742876,0.004368422689097125,nm,0.0
20.026202917099,-14.120047373947063,7.328236865130507,149.9438117926112,0.263873876483422,-0.12915520409255243,-0.4632292429386876,-0.21046904567865785,-0.3725794088709724,0.022940811604052747,nm,0.0
20.03053617477417,-14.015666598163667,9.769759989079631,150.32153568485248,0.564216678941499,-0.3267027737086869,-0.2613587275286852,-0.2605768473090299,-0.40011063551226467,0.025304996718454844,nm,0.0
20.05618405342102,-13.283172798560038,14.713691184481137,150.75277216631557,1.1640387869995723,-0.6603253914407173,0.6552618399945205,-0.3179656150501912,-0.36539191670744997,-0.022536599108566095,nm,0.0
20.05896306037903,-12.688723041812478,16.950516533768738,150.65586874766268,1.2752554637897044,-0.7022653979848136,1.1180265459912457,-0.31831810458026677,-0.3211606128779326,-0.07896553802090017,nm,0.0
20.090111017227173,-12.017395135379575,20.661379027474123,149.56850630296321,0.6323512680694836,-0.3713507813843049,1.5065535510732184,-0.19551735240328375,-0.2680382262126163,-0.1678456734951236,nm,0.0
20.09901189804077,-12.35326618860964,21.801935165154248,148.83584228459694,0.32537074770960317,-0.0777624548438892,0.9776601754091411,-0.06180126190596925,-0.21482697189414596,-0.13746686526360588,nm,0.0
20.10087013244629,-12.871522630783815,22.04466711308674,148.3228869340873,0.09381200202746098,0.08144552597295597,0.5218773871946674,0.05809467393661971,-0.0781821703067329,-0.06232590221050777,nm,0.0
20.120887756347656,-13.655472185970373,19.50889786482492,148.41233965813854,-0.12677772787099678,-0.06664591733663583,0.38249266836401236,0.23650674211229455,0.273194496480003,0.09019128333479719,nm,0.0
20.129026651382446,-14.097234502357527,17.28051033129869,148.63835334948794,0.013781487352240752,-0.2703456586242731,0.2790948360107196,0.3059367575896854,0.3500818704930876,0.10293445497861863,nm,0.0
20.154611587524414,-14.94570413241087,12.057514546077927,148.4561085590917,0.370360813912686,-0.5312829992464319,0.10249430559874821,0.33987534487849547,0.44178971355383845,0.0015077058019297243,nm,0.0
20.156333208084106,-15.132017113268157,9.564633256550225,147.9908710493663,0.34020489805650345,-0.45094622019982844,-0.016050670754351307,0.2950818166561752,0.41880587268508074,-0.06168648098176704,nm,0.0
20.178279638290405,-14.731693871032604,5.805268397712599,147.0589537716786,0.02994522590779678,-0.002863090826874306,-0.26249668640034546,0.12899173707274697,0.34179242171195934,-0.08496750403080619,nm,0.0
20.183818340301514,-14.18411754562865,4.334423466180726,146.88859560735645,-0.19601057300447491,0.2893525624316044,-0.3031063168761898,0.06963600358314703,0.3206380859607987,-0.041666379671319746,nm,0.0
20.20874547958374,-12.606789810389518,1.8664821227273913,147.08394597867647,-0.43915974380072026,0.5565176268279509,-0.26702171084708143,-0.004141169361015808,0.3100977174972541,0.02537017089220483,nm,0.0
20.21235203742981,-11.93485458043449,0.4962793339837004,147.19532448449868,-0.49381068663037664,0.5974744983334052,-0.05421327406132652,0.03623828697191173,0.31766241862271866,0.016872910190897088,nm,0.0
20.222508430480957,-11.54286542294418,-0.884800308204282,147.05335134809957,-0.4703273989391656,0.6337169847866625,-0.06345647988050242,0.08453144232681466,0.28908706585325716,-0.03070804486054446,nm,0.0
20.244109630584717,-11.843970413007177,-3.27357965982041,145.84424137256102,-0.43123443258715316,0.6078675338177804,-0.10941642699144744,0.18707266164802147,0.16474135946858595,-0.1518033767957157,nm,0.0
20.254271984100342,-12.520651160684139,-4.1984603703926275,145.051529426442,-0.5521437331939073,0.6365078891144724,-0.12411519335907903,0.2171619145730798,0.09014486955178828,-0.16943157575261775,nm,0.0
20.274919748306274,-14.597634184950506,-4.864970902932891,144.08640779351535,-0.735131127521226,0.6069514512370717,-0.3589214743522994,0.20165949740235276,-0.09565887780806749,-0.08469586066905416,nm,0.0
20.280153274536133,-15.718055026389766,-4.640235540503829,144.2200330393133,-0.7904016331192233,0.5176500837383617,-0.4261548875446238,0.15607334984670024,-0.1529341606014377,-0.009581928802670137,nm,0.0
20.30203652381897,-17.58878332683798,-2.909927180070528,145.11332228805838,-0.5130651569277187,0.16870900532230285,-0.6279546539491521,0.022372976452843932,-0.26052721132542084,0.053952376999527256,nm,0.0
20.32938528060913,-18.292444524535654,-0.09630093273179673,145.55467393798486,-0.0055211949500884585,-0.22220842294068924,-0.5002840202997738,-0.1483464506830726,-0.2504009485656644,-0.01380341542164745,nm,0.0
20.331284761428833,-18.198698296672713,1.6758923795265013,145.33298476511573,0.27410797393672853,-0.36334116993839927,-0.3845057901175789,-0.21543915842865138,-0.2675332279007345,-0.07426114031769424,nm,0.0
20.354532718658447,-17.180622873942742,5.696578867982789,144.52018558247153,0.7791015466518799,-0.5259462122360135,0.1398997690051779,-0.35368737414267626,-0.23807859295856196,-0.1113618580534254,nm,0.0
20.37204337120056,-15.469321549814483,9.632582392241286,144.2315358122488,1.0786216980676513,-0.5581666679062284,0.6936027938459084,-0.3405225318286454,-0.20650004842262243,-0.048266805970304597,nm,0.0
20.37395668029785,-14.49036072681945,11.185171152998864,144.27881196789238,0.8559968823505661,-0.6121539369748366,1.1910465253133231,-0.3365345878516511,-0.12573909527852886,-0.029371790119307625,nm,0.0
20.40145182609558,-13.702546064535214,12.516961327688238,144.30074900470694,0.5168286483266099,-0.2355081147932765,0.7977380483336434,-0.05840600308872749,-0.017612568329763142,-0.015837560942806285,nm,0.0
20.404642343521118,-13.780991116224643,11.900260613840352,144.2306389840688,0.25588512722939566,-0.2064938208743461,0.7089252340315418,0.0862052793108753,0.10515757455291569,-0.014385290486140814,nm,0.0
20.41135334968567,-14.257961902080723,10.3868278719232,144.05633768656898,0.135943739329666,-0.1373438891278117,0.4808988091614183,0.25519495547587273,0.20449232106256954,-0.0023068923620332906,nm,0.0
20.42254114151001,-14.88578096120627,8.253498875610333,143.86791858928189,0.12566201531481536,-0.17325108852929375,0.2797927370923501,0.35345875452061953,0.2861157944837218,0.004321702384956296,nm,0.0
20.445528268814087,-15.983344411467325,3.076219839194332,143.66675715768096,0.22734105697253099,-0.3200762119060893,0.05658752541304099,0.40018858071628793,0.3835699442581911,0.019916350667700086,nm,0.0
20.45380449295044,-16.245651012059035,0.5731674173082879,143.63359767877347,0.21878171440392222,-0.35503184213603284,-0.0416376374974703,0.34110954194353227,0.3864769558546318,0.01851987194101907,nm,0.0
20.467933177947998,-16.307695644363985,-1.6077605771097145,143.5588843273267,0.16340786295127321,-0.3097849691015298,-0.17924895275596492,0.27084743740342104,0.3581521932647855,0.00767574584419375,nm,0.0
20.484375953674316,-15.980201382606879,-5.098886531145833,143.15190658937308,-0.1855899223141485,0.05600151711346781,-0.2845284759643979,0.1573709255179798,0.30016363953724695,-0.025875128908735688,nm,0.0
20.487497091293335,-15.747847654436935,-6.5325057905766695,142.78077062449947,-0.38598681649955385,0.30471276700618205,-0.29881184919812265,0.1376874465200754,0.27121620140200153,-0.04063858912713812,nm,0.0
20.507140398025513,-15.433004047621258,-9.062507000636096,142.2787396507259,-0.7299604508351144,0.6532370125217325,-0.2462725395392224,0.13329566381421662,0.2191237050765691,-0.041609113265266826,nm,0.0
20.51921057701111,-15.488918262423798,-10.182395362299017,142.14112159799052,-0.7606653949123668,0.741101796252915,-0.2441075697452911,0.14765703983930853,0.1848123612039457,-0.029907920625621785,nm,0.0
20.543652772903442,-15.97231753819702,-12.06087022830964,142.19987550636907,-0.7520342924636745,0.6404596044239179,-0.25143184984921646,0.15266359216692305,0.11264988264332156,0.003587915758884415,nm,0.0
20.545233011245728,-16.348772949134503,-12.65731721044716,142.41630538679453,-0.6894804286829426,0.5596930466391528,-0.31520695556451594,0.132745317600915,0.06395662287629147,0.010769978949012103,nm,0.0
20.569703102111816,-17.08392372461393,-12.971830378413138,142.8171732896277,-0.5827777454479273,0.42469024913456943,-0.3940106670782362,0.055774753926035474,-0.02711749100114939,0.004681324095307092,nm,0.0
20.57608127593994,-17.343036060144698,-12.61915493498509,142.92108362641514,-0.5226766718583757,0.3804921632817412,-0.41732470549658907,-0.0008145365212437798,-0.07246649404767361,-0.006553976328536866,nm,0.0
20.59359335899353,-17.611720303966173,-10.965390530237109,142.92830369441444,-0.3121724714915506,0.26407840918514597,-0.39937946133531804,-0.0994244939853815,-0.1531656993302023,-0.031656442627079256,nm,0.0
20.622008085250854,-17.668349013502056,-8.130170469822522,142.6496563305513,0.024780915339967402,0.10393904699803427,-0.30351127982441733,-0.1862820478530953,-0.23693373304707777,-0.06711061649009409,nm,0.0
20.62417435646057,-17.65740838550729,-6.33106482099887,142.43562337551862,0.2515956522648412,-0.048081339680358985,-0.22842296705126539,-0.21870129571882876,-0.2707321952959325,-0.08814518621401644,nm,0.0
20.63953185081482,-17.59802754925,-4.375559297846359,142.1180844868575,0.4812313105113918,-0.21499028447585666,-0.07080379639928655,-0.24670026631565475,-0.28863787330554835,-0.10796558061725828,nm,0.0
20.677180767059326,-17.40808896640889,-0.2713748304521843,141.14828645360717,0.8678191038514029,-0.6087177287612379,0.4800004601072477,-0.2695801676836149,-0.2960413650906143,-0.13734153919104197,nm,0.0
20.67928457260132,-17.460913827273586,3.5082123630921105,140.1985036471551,0.7766486203404851,-0.7282121229556783,1.0028978505235617,-0.21352057940911495,-0.2757530101523928,-0.11424890135580357,nm,0.0
20.681471586227417,-17.680652342963413,5.006899314815025,139.91615145518946,0.5651070893536256,-0.6030230255292599,0.913525104141224,-0.1564604723614829,-0.24425633221993379,-0.07162086509958718,nm,0.0
20.695750951766968,-17.99432051620496,5.939553849048399,139.92898798844715,0.27236553532300906,-0.4716718356099913,0.7982049469035409,-0.0698937898589634,-0.16909073685978077,-0.005557339034438323,nm,0.0
20.708218097686768,-18.32465245699589,6.069572733626792,140.19427563551955,0.10837458719254954,-0.34109225072230676,0.6170424845946175,0.036041064301421,-0.04808637712692636,0.06878091726554421,nm,0.0
20.724210739135742,-18.59616298984524,3.7764062480844567,141.2733957718678,-0.04365641911843892,-0.3637358965187245,0.3065172274480085,0.20788068424682232,0.23869543085643338,0.1411610281996296,nm,0.0
20.725966930389404,-18.520474151217996,1.65877082913619,141.7620040388024,0.10996912412456479,-0.4325496086429732,0.17498479517545645,0.25423151779241426,0.3553642935257614,0.11968430118662308,nm,0.0
20.74993085861206,-17.76534026563644,-3.4125553399367856,142.05427088558503,0.3257488827347269,-0.41274659824776594,0.09544659437383651,0.2445798004584712,0.47241212529594806,0.028189650245266668,nm,0.0
20.758124589920044,-17.146635043871107,-5.715298763338206,141.916326975201,0.35874880951616833,-0.27095055567540893,0.021733881619555535,0.18864536922081315,0.4535510109457879,-0.0031934169257462506,nm,0.0
20.764591932296753,-16.495033811186733,-7.707679877187868,141.8064976439011,0.26367414500542885,-0.044136689301312135,-0.031428430230672814,0.1462098671471212,0.40812372974936717,-0.0022582457048773655,nm,0.0
20.776081323623657,-15.939202798903557,-9.352990478861178,141.82922501812382,0.08417804807079991,0.22444760423647878,-0.05471505396923613,0.11876176053247761,0.34136335545010754,0.020555772483764875,nm,0.0
20.801274061203003,-15.350741060406046,-11.828764050185487,142.31396413030805,-0.32356226555681217,0.5716824192564178,-0.08721014169812798,0.11464486168188662,0.21931319204194416,0.0679575650465401,nm,0.0
20.802979707717896,-15.408650964227308,-12.948048811157728,142.63476282558784,-0.4854320983260175,0.6733174569490661,-0.1073271582251336,0.1468832181369662,0.1852401897409014,0.06159751544877366,nm,0.0
20.828895092010498,-16.022797444282684,-15.224646826655242,142.86328110704082,-0.6292731067736431,0.6531271450906777,-0.16490064239945218,0.19822835657520355,0.1538645057485708,-0.014846418761384761,nm,0.0
20.830679655075073,-16.496305104515198,-16.342022085728296,142.70191293483612,-0.6497435274349014,0.620220933456073,-0.2168692802778278,0.2094320317402873,0.13735900518400573,-0.05755229970279635,nm,0.0
20.85559606552124,-17.58779137173846,-17.94685841362074,142.42231021969496,-0.6849275492545113,0.5578479422447714,-0.3087065689817997,0.16703179943023208,0.051902118653406736,-0.07253874655005006,nm,0.0
20.862972497940063,-18.17852856563187,-18.19825347728766,142.51103252336128,-0.7234458886485274,0.5560802992130911,-0.3614803925497294,0.12148738396990505,-0.014180585667227045,-0.03588732448802101,nm,0.0
20.88306164741516,-19.18122429241901,-17.287001183670647,143.44862051595723,-0.7889943618756551,0.5044825220502396,-0.4557012985638042,-0.012544131351093423,-0.14775155008354054,0.07146570910818799,nm,0.0
20.89726758003235,-19.40996886096021,-14.883482224936193,144.9681940572899,-0.6638540417439764,0.39114696362758444,-0.5369275158835822,-0.1593970304422832,-0.19997192218607518,0.13066099611533072,nm,0.0
20.91396975517273,-19.09124071859275,-13.350402058945074,145.6048681370065,-0.5088835000598725,0.2749832467344295,-0.48747594082469475,-0.2246538509074359,-0.2029038788722663,0.12132775547771543,nm,0.0
20.92301082611084,-18.575899373220054,-11.661823420277019,146.06705950184917,-0.26402340673096386,0.19945713406257776,-0.45588805952971845,-0.2723275549371666,-0.20904712246143523,0.09155254602816347,nm,0.0
20.939378261566162,-17.18055198681274,-7.8458450939829225,146.51297525451724,0.3635158522568076,-0.06550068635604886,-0.237563489120645,-0.3380822994806761,-0.23800276299562365,0.03305556690086995,nm,0.0
20.943847179412842,-16.514447559197563,-5.730146507286286,146.64555919857668,0.735701584328573,-0.2419311089317712,-0.05833488231290807,-0.34313718045509123,-0.26656471742140064,0.018721751039619507,nm,0.0
20.97726535797119,-15.569307081705276,-1.4030339414294921,146.94939783321095,1.2633067167544372,-0.6503994220577284,0.6513648563164979,-0.2997988466157188,-0.3044170983165588,0.006594755263463296,nm,0.0
20.97897171974182,-15.419550748163275,0.5809637219481277,146.99836480627457,1.2588186939124475,-0.7705594774226218,0.8900937681920977,-0.24087657848473254,-0.30265943178217614,-0.013974008642253732,nm,0.0
20.98199439048767,-15.68282071022947,2.195010193846389,146.81860124829996,1.009421532594906,-0.7585838822678891,1.0185987545211426,-0.1315447965695754,-0.28533942639956356,-0.050524811991903236,nm,0.0
20.997958421707153,-16.34922707403631,3.2685952142026786,146.46290229793925,0.6441248679307774,-0.6466542534778809,0.9186938504241465,-0.00591582408125629,-0.23857285137457387,-0.09052887194947286,nm,0.0
