timestamp,roll,pitch,yaw,acc_x,acc_y,acc_z,gyro_x,gyro_y,gyro_z,markers,motor_input
16.51737952232361,-10.547595466701384,9.903985334763975,144.81233204358898,-0.21531374015845706,0.1971255411035998,-0.2524329191947931,0.16941763152591094,0.28402701324487134,-0.05777095319139294,nm,0.0
16.527636289596558,-10.233671784828719,8.676815075485315,144.43620725483163,-0.3583292708106475,0.35844479534680096,-0.20180910264434,0.0931469532972589,0.25006355893881166,-0.0839697480686435,nm,0.0
16.536542654037476,-9.840610226234228,7.711448195552702,144.19048809738274,-0.3116341604662626,0.4575705406517029,-0.2769728228834228,0.05082128455921162,0.2162905034701299,-0.07375792407711818,nm,0.0
16.555238485336304,-9.12030169171914,5.670194251143058,144.25407334056356,-0.48904563600275086,0.6170302046243079,-0.07197062609551777,0.0641318725421505,0.20630444873302292,0.0113423024828019,nm,0.0
16.561102151870728,-9.013587026182664,5.017254144788846,144.4398275925091,-0.3692432170191875,0.5313094167125747,-0.19425840687470528,0.0601165309748372,0.1325235495837767,0.03136577699770904,nm,0.0
16.583950519561768,-9.413781519941843,3.8956329023507217,144.71128135593858,-0.42757976392142333,0.4199324665146764,-0.152492193898127,0.11003007379488049,0.06255237242615316,0.007948574783420774,nm,0.0
16.590077877044678,-9.899411570394342,3.715819140454756,144.61644821122394,-0.3801601538295344,0.3248405877930119,-0.2890766142330115,0.10109691201458383,-0.0126958337371203,-0.031686670992197186,nm,0.0
16.61159610748291,-11.251952909294689,3.9710625483287574,144.08123012933413,-0.3778521085200158,0.190796085466312,-0.30348299568332715,0.09286352139601754,-0.10561713366956506,-0.05781166549175144,nm,0.0
16.630513668060303,-12.500710801251625,5.7348614220160545,144.18786829910678,-0.33975459932770496,-0.013812155951323258,-0.20756850240299227,-0.03706343074893743,-0.2371261180211283,0.027011825201782177,nm,0.0
16.64599108695984,-13.106169966510246,7.277038587290162,144.74796799399394,-0.207261274485207,0.07747722978573114,-0.3646914021195615,-0.07983524691349077,-0.30736773189998057,0.09946786867755501,nm,0.0
16.6476411819458,-13.208492100991693,9.28267505397287,145.66311158938805,-0.14425625560402047,0.02868774151871733,-0.37502790227883753,-0.21097036221372448,-0.3276460807989386,0.15564251155949713,nm,0.0
16.6565158367157,-12.842710008813903,11.673375742802882,146.82474206089495,-0.16940989362875447,-0.24758886010894618,-0.1736380973497273,-0.32440811382442375,-0.3445307317982213,0.1844437726589172,nm,0.0
16.6805317401886,-11.55504281190015,16.485833392624144,149.21087227688648,0.23470509665549036,-0.33084554374624386,-0.1410694999178914,-0.38630747958916734,-0.2990996092152399,0.16739592395162955,nm,0.0
16.684065341949463,-10.51812806841543,18.632761628768506,150.15212884132993,0.3662106477964241,-0.45869135242201103,0.30493356561558116,-0.3870988922271143,-0.2577879139024505,0.1131944468979092,nm,0.0
16.70730996131897,-8.220857320087312,21.90440120273161,151.06082908034458,0.7330646482650273,-0.5264001864516544,0.84040426077536,-0.35276127569233423,-0.11422743664936537,-0.040022214119123545,nm,0.0
16.735592365264893,-7.1498039033815415,23.29541023747119,150.83142582000397,0.7366121757687718,-0.06092743724541346,0.5028785479123092,-0.07116723636828985,-0.05421803845024932,-0.0656155167320753,nm,0.0
16.737271070480347,-6.8960935906462275,23.35474266986592,150.45052797449537,0.30917760469754935,-0.030336675345502162,0.6874141821809326,-0.04529533696666769,0.025507654015505223,-0.09000074832379541,nm,0.0
16.741947174072266,-7.251209526024017,22.94037175867398,149.96648538796185,0.1937642189719462,0.05043814444295682,0.4817321270899518,0.09923132023527664,0.05247867242933874,-0.06195519045679125,nm,0.0
16.751988887786865,-7.977083208657537,21.939408027453048,149.41249007428212,0.22106775527645645,0.13817519514065724,0.19813003409610927,0.21844800385054414,0.11822306159963314,-0.04757489785002953,nm,0.0
16.76388669013977,-8.681492430997386,20.466478752301054,148.8043910279338,0.04560533889333085,-0.029247994635981392,0.34809923445090296,0.26564005731807583,0.198648831293429,-0.0607112094013582,nm,0.0
16.783494234085083,-10.341696132490904,16.961073986840493,147.46142299625114,0.20381430605854772,-0.034866434106952636,-0.06591008448023233,0.30791507157682435,0.24468397592928867,-0.07890047822546623,nm,0.0
16.789990186691284,-10.647280462516397,15.360795607784452,146.76109025730105,-0.01868689101644198,-0.07895003066870478,0.08287437013948039,0.2249924607686454,0.25043057851452916,-0.0927901761254451,nm,0.0
16.79800271987915,-10.912932380350643,13.943146787168986,146.17667530347816,0.07696261250678414,-0.09846785252719711,-0.05062103634946726,0.2013203983995263,0.22158753314218999,-0.07510485105406073,nm,0.0
16.830406427383423,-11.107243576575497,10.513149148039382,145.6099813611787,-0.2738469187029514,0.2552810603404415,-0.3587352858306937,0.0920068687586034,0.13964925185104848,-0.020602386362306293,nm,0.0
16.85188627243042,-10.984318988898673,9.781017795108125,145.5849310665094,-0.4550341746137737,0.2941627804859611,-0.2782726008183901,0.0640398836537818,0.14848620980628394,-0.013354364204114386,nm,0.0
16.854737043380737,-10.85920018129199,8.976791329558685,145.59580439226363,-0.5921095873343392,0.4347198959570806,-0.2432544091470252,0.07176268593677806,0.1606893100974447,-0.005839178236956315,nm,0.0
16.85631537437439,-10.683998944318592,8.303382332388017,145.60879453886034,-0.6241005620155766,0.45372550467402345,-0.229860500275353,0.048669342591788484,0.14473495898415353,-0.0065565255367620754,nm,0.0
16.88361358642578,-10.303705174698289,7.146864798297506,145.7739732024501,-0.5272599300074702,0.4504446415660112,-0.2409677147429567,0.03735639083052208,0.12838341115383642,0.015797293756967704,nm,0.0
16.92168664932251,-9.877253608212415,6.8721646080298155,146.72792740479682,-0.424801069705728,0.33289163416692547,-0.326691115958157,-0.036148870749365986,0.0010228249421696488,0.05834466596872353,nm,0.0
16.923713207244873,-9.752078243572448,7.223226196926741,147.14403222119907,-0.44550459450762225,0.30363761642672854,-0.2988471723461363,-0.05850808126974209,-0.03147737871056251,0.06761477686532623,nm,0.0
16.925467014312744,-9.642773297818474,7.8328370885386835,147.58625615916685,-0.3870268541965696,0.26891134401015815,-0.33266893115761037,-0.0834591709575365,-0.07727232866945104,0.07127040516939326,nm,0.0
16.93296980857849,-9.474532178546221,8.626306466647126,148.04378626405776,-0.28752683544329377,0.20068122863613339,-0.3772619511758832,-0.11227196132902746,-0.1029209787630436,0.07519597870708469,nm,0.0
16.940424919128418,-9.23708038820003,9.547723943030988,148.5646700206892,-0.1725387001250907,0.11954903067401489,-0.341137751666175,-0.1363575798975378,-0.1186009393796667,0.08218677661160627,nm,0.0
16.9658625125885,-8.484407049391365,11.94571002702282,149.72469888876253,0.2508745826175898,-0.10799162768538721,-0.17024594998282686,-0.204192366819165,-0.16545735429387642,0.09293505121991753,nm,0.0
16.97136950492859,-7.973237122438874,13.320393499342254,150.3235257438701,0.4752050875982819,-0.25328295080078,0.015821541184027666,-0.22372649190309224,-0.1749977831117409,0.09247169138961067,nm,0.0
16.99597930908203,-6.829115471253108,16.177504887691384,151.3967198927254,0.8365620277555169,-0.4139956905985134,0.5210525288608052,-0.23459996088870275,-0.1858410410959967,0.04417931297828364,nm,0.0
16.998056650161743,-6.383169828377428,17.51906685423121,151.5225360040889,0.9062093977082788,-0.418324597640534,0.6739204516311577,-0.20300842413123116,-0.181927973539413,-0.006483742444298784,nm,0.0
17.023958921432495,-6.295106594129331,19.56656234189703,150.73382430158983,0.6650313007447375,-0.29971003886416825,0.7476097062417423,-0.06370937784847433,-0.1565096297906042,-0.12414411026071495,nm,0.0
17.025656938552856,-6.8363166829582465,20.099762901912705,149.84793240037655,0.45034283336558095,-0.2032768894805868,0.6373661735646454,0.03672912409339698,-0.13011713545444484,-0.15993670161660567,nm,0.0
17.052443027496338,-8.78219150605784,19.76980809846726,147.68659993696136,0.0473304632311343,-0.07650661208846966,0.299794324405046,0.21631071984464958,-0.02472989792946116,-0.14993135243657352,nm,0.0
17.054404735565186,-9.870020149827255,18.922132587599805,146.75400636608094,-0.05491325325944532,-0.10690590224749877,0.1592388192400165,0.266245777325719,0.044804173664951326,-0.11979135637206857,nm,0.0
17.0781192779541,-11.44798658918309,16.323929629157842,145.37326386261915,-0.08014157951583123,-0.13145244940489828,-0.02987199879707063,0.26053630636386965,0.17326112033587734,-0.08347837986716493,nm,0.0
17.083898305892944,-11.702152261917462,14.98298959549974,144.7540579142617,-0.0035209758358565276,-0.3089958240102295,0.05543001309342543,0.19577089426104205,0.2055766331646797,-0.10000842984027353,nm,0.0
17.102646827697754,-11.713306178008175,12.053770831311404,143.49301287816925,-0.04815391495467649,-0.09973831593582551,0.0915415701829125,0.15540936656602639,0.25628741306151986,-0.13572500484760555,nm,0.0
17.117213249206543,-11.50813017969596,10.963268035656192,142.74426189858946,-0.07331471390452408,0.055761392800886975,-0.017843230292880492,0.10085146275693771,0.21254100929741473,-0.1557960812900975,nm,0.0
17.142743825912476,-10.821419069561957,8.255285285848606,141.02486152059785,-0.4123472572604451,0.5712645007069201,-0.02549072732998971,0.08352771241732873,0.16214549315975194,-0.09259309923061891,nm,0.0
17.152011394500732,-10.873717936834456,7.481238493220197,140.73328418403722,-0.3881579018364065,0.5884274168677419,-0.07714902791978102,0.10808835613283767,0.12747898416869635,-0.060686555430603265,nm,0.0
17.176477909088135,-11.114512387300348,6.700075850873322,140.5377033153948,-0.38191657280048324,0.5366470832853246,-0.07056105454611133,0.13845839743600924,0.10439818917721436,-0.03680502425945794,nm,0.0
17.192053079605103,-12.191112716168112,5.586842847503024,140.16104535279354,-0.36732044086977594,0.32470770975407204,-0.11309009313478095,0.15561751449407188,0.003126556746296158,-0.0309882898564851,nm,0.0
17.19379425048828,-12.932427547403023,5.340527436583323,139.94755194847957,-0.38849261667752766,0.2606621183079743,-0.1614859846509997,0.14731209610789056,-0.043135153163485526,-0.03165383697541525,nm,0.0
17.19745135307312,-13.720089446616596,5.323659900237629,139.71641537556673,-0.4634226002778404,0.27041540528987595,-0.22933264966139658,0.1245538282068999,-0.08482355441625118,-0.022925728888427175,nm,0.0
17.233837842941284,-15.173050354081376,6.859305140545322,140.12752548812998,-0.6084131177745695,0.29713641913783356,-0.43809751753952264,-0.047499182256930964,-0.12762209694672075,0.06242930540595487,nm,0.0
17.237141132354736,-15.156170320629927,7.6908196806793105,140.58971446586511,-0.5434466062124736,0.326365840822414,-0.5062604732785722,-0.10647454154859626,-0.11212148326611059,0.08504872158992702,nm,0.0
17.25105357170105,-14.77402809462631,8.596276299471187,141.14389638914503,-0.49430926073032777,0.2332721676681743,-0.44361834782593335,-0.17093909748711383,-0.07894454919726097,0.08854367638557645,nm,0.0
17.254541873931885,-14.259121748177435,9.492188431086925,141.67456371648146,-0.3584532744190865,0.17757270428136296,-0.40706693989152454,-0.18933804254266542,-0.06285616888005036,0.07921237130051885,nm,0.0
17.279358386993408,-12.943544776762778,11.325974754552613,142.385220823638,-0.078249407729696,0.01057852651306021,-0.17138889687910636,-0.2229228380786166,-0.05128137039537936,0.030008900957982913,nm,0.0
17.30442190170288,-11.963550673993566,13.384545874921928,142.7539025371449,0.33982154942923537,-0.08937318619491737,-0.01585409594852304,-0.2004848448075754,-0.09502703080557305,0.007700365533970034,nm,0.0
17.314964056015015,-11.37541107557438,15.548037112890444,143.01182172783518,0.6012764310992917,-0.28812588899175356,0.3145478848575127,-0.15904635714317475,-0.13940204595760866,0.006538775745477244,nm,0.0
17.329920291900635,-11.239981562313726,16.601495846084816,143.01693513679118,0.6765822607329883,-0.43181588454671627,0.4969977489756975,-0.1454925955410454,-0.13935271899073917,-0.011202923308549212,nm,0.0
17.33183264732361,-11.302021892680296,17.54833722285079,142.90679417683694,0.7256985562999937,-0.5187008214468745,0.6148267690091713,-0.1022909771082715,-0.14514943798516328,-0.04002146857074458,nm,0.0
17.34040141105652,-11.562442951261676,18.38434192295347,142.54500490569882,0.7625648889034028,-0.5509313954565881,0.6722246849696084,-0.05929659709680491,-0.14992926013479624,-0.08455176165172576,nm,0.0
17.365797519683838,-12.546143432454745,19.49761970630242,140.90107495983457,0.6433872745479645,-0.5197321976190737,0.7468640326445848,0.03499675409989799,-0.12344075979662258,-0.1748269876077529,nm,0.0
17.37117338180542,-13.194385919110884,19.66373566134785,139.78812404048864,0.5032522804228864,-0.43740374789783326,0.7154424064870811,0.07609908197382924,-0.09031324474429303,-0.19395697393191758,nm,0.0
17.392327070236206,-14.551234316906434,19.228546996214078,137.85391691834408,0.20952462055568408,-0.20317367100421854,0.4210862147966024,0.1432224889307285,-0.020748309647343713,-0.1408794436978553,nm,0.0
17.39764094352722,-15.042466924839037,18.65789994424818,137.24368488841975,0.0650110766453321,-0.14119533388990638,0.2823135189070242,0.14939281350312153,0.034826873589686114,-0.08825199209178196,nm,0.0
17.420826196670532,-15.453668336476133,16.82485361134873,136.97156880923166,-0.1247134760866856,-0.08123185546733598,0.026801267928163997,0.1584355968768579,0.1459158377048822,0.021745124028809997,nm,0.0
17.426304817199707,-15.423429498463513,15.640657358652074,137.19308597506208,-0.13682657928784972,-0.11940299133693155,-0.057122352172133885,0.16076033630886827,0.19106129145495182,0.04889442456580522,nm,0.0
17.435161590576172,-15.287024336586946,14.29491301408347,137.4224578316344,-0.14241669366726256,-0.134697086396943,-0.0943844445788852,0.16682816240746448,0.22942526590217982,0.05099810064771347,nm,0.0
17.458096981048584,-14.7188004254243,11.47008844836102,137.53133849244472,-0.13030062516788268,-0.04373005574463357,-0.1565994040158657,0.14557615906085222,0.26590740993076634,0.001172092676794536,nm,0.0
17.466323375701904,-14.319983723016147,10.11042994105852,137.46515636980155,-0.15957752957884438,0.09207425618171836,-0.15840309508422673,0.12943041437096744,0.26734577588198755,-0.0168757931244579,nm,0.0
17.486311197280884,-13.409861690165414,7.81775632984758,137.40196062037387,-0.29510371832670373,0.39717910437466813,-0.15066687672554688,0.07978862817412337,0.23115195240937061,0.006518130298825481,nm,0.0
