timestamp,roll,pitch,yaw,acc_x,acc_y,acc_z,gyro_x,gyro_y,gyro_z,markers,motor_input
3.003361940383911,-85.3928005061592,28.866412643512668,148.92523951362202,-0.15208993273437818,-0.42111332994237916,0.3222611995721634,0.2815268404248077,0.019579669000962314,0.062224410076751675,nm,0.0
3.030752658843994,-88.48240253291618,27.590685334524565,147.82019024359602,0.8037610707372576,1.4659668585985028,0.3669320476610703,0.26111278182703546,-0.007269866214606298,-0.006010539998733375,nm,0.0
3.032499313354492,-88.28458223141398,26.874344497751807,147.20110086642688,0.8881627357861158,1.5323834794526405,0.36515032245145823,0.04030758863475846,0.15077774978958355,-0.1556256832216273,nm,0.0
3.0536391735076904,-86.37970531894926,24.66198962654768,145.55193361515458,0.5851158631323978,0.13321464822904883,0.46912109709300004,0.03430035762549121,0.29235956023954535,-0.21549071028227318,nm,0.0
3.055345058441162,-85.68184755515783,23.109773450599363,145.56414594863617,0.4241557406444894,-0.1377703247201073,0.730394701158777,0.06458677471947262,0.3397112261548354,-0.04703999251999783,nm,0.0
3.0733487606048584,-84.92725293763053,21.54073711735954,145.600366938403,0.16654460693950207,-0.5086126298203347,0.8212630727113055,0.05671202538938139,0.34928745991612986,-0.042819007433105606,nm,0.0
3.0753042697906494,-84.34633948805684,20.09484299759302,144.87889004595556,0.7035135009891011,-0.35468453442713066,0.8753773240451018,0.07054167014965826,0.31098268437985366,-0.17822266906852485,nm,0.0
3.098649501800537,-83.23848076607922,16.81686786281923,143.1642018861845,0.3272978939335213,-0.4964651604508533,0.6281462204818602,0.13437099171817382,0.3476866659634109,-0.18468482532046368,nm,0.0
3.1212003231048584,-82.60681300063388,12.409676492486884,141.10024806012103,0.06745231380315234,-0.2748647538923686,0.3158489147481548,0.2416739128647065,0.4225116987431719,-0.18649347090859253,nm,0.0
3.122988224029541,-82.47416954451003,9.669042450258164,140.40388995258155,-0.02913591184072984,-0.059836043283951604,0.17752210545801153,0.32462109870257905,0.45189037703236906,-0.11002129617940852,nm,0.0
3.175720453262329,-83.79464071700508,-2.205503725701003,139.2029575770649,-0.03270816548023886,-0.254424950540637,-0.24949329392427483,0.4718822314922017,0.34979578577528575,-0.0030759224851934813,nm,0.0
3.177823066711426,-84.74907270717245,-4.794153159319748,138.90003910642355,-0.024729251873723893,-0.21421740091032127,-0.4074262038561279,0.48295812659001125,0.27514596551393145,-0.053820735007719736,nm,0.0
3.180913209915161,-85.94100352384383,-7.149176159213574,138.38416805391168,-0.10131023508269785,-0.09581125887490483,-0.5378954518055258,0.4891797109407905,0.2053135073965916,-0.11117221568380146,nm,0.0
3.1935880184173584,-87.30353426699155,-9.308074485960757,137.66263974467134,-0.34796320671977,0.019036440792329554,-0.6578488341941583,0.4895404429173799,0.14848748184490546,-0.16674817011915477,nm,0.0
3.1988019943237305,-88.8389257608507,-11.302742270245059,136.7756378088394,-0.5266395254819941,0.2903380955534892,-0.7179572162089216,0.4931714077786811,0.09498374689163433,-0.22011634486614062,nm,0.0
3.2239832878112793,-92.18936653123266,-14.764060546602652,134.89522797556455,-0.877533553565972,0.8502264940589223,-0.7258468316154377,0.46565882210732945,0.005609542991135003,-0.2652672109605747,nm,0.0
3.227842092514038,-94.03682316577596,-16.148074345447537,133.97513695220238,-1.126773157722955,0.876385919822353,-0.7972075248873415,0.4478406361352212,-0.05470130423044776,-0.2779945746067159,nm,0.0
3.2561275959014893,-97.94222975690603,-17.938208453686237,132.8297421887569,-1.0033034662639149,1.272001153642338,-0.6680188102103434,0.3339878761824753,-0.14585805556336323,-0.19803219601857083,nm,0.0
3.26086688041687,-99.666790439318,-18.230863390779604,132.53893207644617,-1.2413208294252576,1.1411935468703343,-0.9673669125745821,0.26579829560828583,-0.19685998867328705,-0.1707023682908931,nm,0.0
3.27864408493042,-103.36778594582675,-17.396798837759572,132.5159943978689,-0.85051578915287,1.392016043842214,-0.8822777650933327,0.1140633692858891,-0.32112590389656387,-0.09784000085253815,nm,0.0
3.336609363555908,-105.42466784781756,-14.510863521257376,132.92078526300088,-0.7423520709717263,1.2832490702947337,-1.0392680169738766,-0.13658476187707216,-0.34640478841612204,-0.02424955496655901,nm,0.0
3.3393959999084473,-105.6924545501357,-12.37126568170876,133.31030683220231,-0.5825811847182613,1.1543563623190338,-1.0688031711238373,-0.2782061074807091,-0.32695487583545946,0.02619016167444302,nm,0.0
3.341242551803589,-104.43558915057099,-6.957618339786608,134.6974719297566,-0.14423109375679224,0.6334105016363302,-0.9807612298105521,-0.5387779085196448,-0.2676390822017865,0.15069832425717666,nm,0.0
3.3428831100463867,-102.68965680662691,-3.857919131126129,135.67746219415946,0.20649221960379557,0.20053785652218706,-0.8545807383502569,-0.6869773531047608,-0.18989894960300305,0.20016474919422836,nm,0.0
3.3448264598846436,-99.96412216003202,-0.6302498930690447,136.97956024383976,0.7629153962418166,-0.24236261820941232,-0.5683098453073986,-0.8437559754194403,-0.08525222899182545,0.25051881007574966,nm,0.0
3.3621253967285156,-90.637893700876,5.418731873990038,140.34643294518798,1.5984876532367296,-2.353813664238522,-0.01528152611275482,-1.145022194999499,0.2380176663332537,0.28250264177133944,nm,0.0
3.3719594478607178,-84.56444304515286,7.404009898117309,141.90677086652687,2.8323177976925384,-2.6972884415812173,1.0743296132132494,-1.1924915911830076,0.4613122827358878,0.22203943990041633,nm,0.0
3.3958024978637695,-69.71435320475179,6.616241104301582,141.65233117563898,2.3435721853800464,-3.643190456709678,2.0715415506769723,-0.9192497200849373,1.0585171129891784,-0.25604924825904984,nm,0.0
3.401637315750122,-62.358666081092345,4.232983197616298,139.25042375544865,1.7219923492245388,-2.128885498184273,2.1748173416920458,-0.8211542446306087,1.317435304452993,-0.5099197768205298,nm,0.0
3.408247232437134,-54.37044237788062,1.7811119298474638,135.20514411660145,-0.30775707568728056,-2.137651550145635,2.1711495113901886,-0.830524193798336,1.4619428111615225,-0.7715383296494016,nm,0.0
3.4188992977142334,-49.12341926980016,-0.6469472115215961,130.9597589878124,-0.15224913600386983,-0.007935016713660153,1.9507519499510493,-0.3558930125657697,1.1134051891819117,-0.7843569122869943,nm,0.0
3.4449338912963867,-42.47516115943951,-5.925613861843387,127.23737669457252,-0.962904792496732,1.7112641451620731,1.531177912050575,0.0697660773656753,0.7987493957633935,-0.11140017564044369,nm,0.0
3.4576833248138428,-43.17610934661286,-12.034175912400167,130.20045506152965,0.3478272120948974,1.0663555032477383,0.9147826701429258,0.5710280759372196,0.2960051120158099,0.3910790651288938,nm,0.0
3.472296714782715,-44.96974472296779,-15.268455400020638,132.51272511402976,-0.3136285308307598,-1.1397757307143097,0.867637863058557,0.7215082089143565,0.17711192983100824,0.41790815399959097,nm,0.0
3.4756805896759033,-49.156336282743034,-18.47283675548337,134.17355796663136,0.854508733378938,-0.8114724387693405,-0.33552240677216794,1.0214371339567916,-0.13158756273733796,0.09628772923374364,nm,0.0
3.484961748123169,-52.81912336925819,-21.50099280680141,134.455730627614,0.887295683649012,-0.9970013220170663,-0.938711795325489,0.9197273512730533,-0.05878473916384495,-0.18599824632007503,nm,0.0
3.5070102214813232,-60.60781142511387,-27.433325321961362,132.27023051122194,-0.32894094288081993,-0.17299622781870327,-1.0340953798166623,0.9720935583680679,-0.17511696945786467,-0.6957590103284342,nm,0.0
3.5146923065185547,-65.03556627162807,-29.602004203927805,130.69854075147646,-0.6882153092592572,0.7659655302623483,-0.602239606944259,0.8475102556688557,-0.2863248447713814,-0.7794029448312882,nm,0.0
3.534054756164551,-73.6236516508459,-31.094896218055904,129.1812215581342,-2.0490569374690506,1.633330687663823,-0.44047458283187896,0.5489721341093725,-0.5523508776592312,-0.6062273734105685,nm,0.0
3.5492172241210938,-78.33572504940459,-30.8452770590398,129.11149485456534,-1.7265608101924321,2.2311444970384584,-0.6474328799213881,0.47863359968032526,-0.6521631743342983,-0.5502100269202934,nm,0.0
3.557473659515381,-82.25740542272541,-30.63440101010078,129.09443869042198,-1.3319718349160732,2.2355336923900633,-0.8489282552252092,0.397329720496477,-0.545460468466596,-0.3918975919673277,nm,0.0
3.576401948928833,-87.11444535217521,-30.81031438897283,130.4476122540997,-1.2980190460430454,1.45482060247454,-1.2964802084972247,0.2621645311573344,-0.26998995767052053,-0.052826860506743956,nm,0.0
3.5820865631103516,-89.04362675396104,-30.630934254057873,131.26624782332686,-0.6422815263413276,1.3964313993638957,-1.0391136023567353,0.19356046163447907,-0.2706937733193911,-0.019977739023330443,nm,0.0
3.58825421333313,-89.50323221300991,-29.778658497042777,131.87466116412315,-0.6936410067497996,1.0367171928708794,-1.110628645645081,-0.07163320602079781,-0.168690753462448,0.08900602471257119,nm,0.0
3.602867603302002,-89.08757644197343,-28.061584199983475,132.09719172247384,-0.702733940623438,0.8096142275476467,-1.1258464660061855,-0.30113910496040797,-0.17167049440184246,0.08115859089294863,nm,0.0
3.608466386795044,-88.12473406870136,-25.456574432723663,131.9860477737274,-0.24047909799436404,0.8211187530175743,-0.8785404169247176,-0.4996979436346486,-0.2169729215370719,0.05443233502578809,nm,0.0
3.6171212196350098,-86.10726553802768,-22.117449946288712,131.95442378442488,-0.304680974710287,0.6053885668873655,-0.9558713349829147,-0.7415404366286636,-0.16753780498705168,0.13312303071463702,nm,0.0
3.639902353286743,-80.50224683859899,-14.820823818620758,132.42045711403264,0.15474747094839686,0.23260510578249943,-0.7642596520473078,-0.9291018692241476,-0.04411242004488579,0.24096356177865308,nm,0.0
3.6484909057617188,-76.29232992873462,-11.597052646142295,133.16972976865628,-0.1139724172675843,-0.6239295036554682,-0.8158140880520155,-1.029154366544957,0.17293025331501236,0.35371381078645314,nm,0.0
3.6689035892486572,-67.0022269555588,-7.20010905173719,135.55234298863493,0.8605336992691832,-1.8006495560167943,0.2513286760939686,-0.94396935411148,0.43883175934926844,0.42896306823010255,nm,0.0
3.6909375190734863,-54.96871276382363,-5.7474635393014415,137.13561596835743,1.5598652020788373,-3.204091368513138,1.4125692229407325,-0.9151395450044162,0.7914968269536566,0.35484445076142956,nm,0.0
3.6943984031677246,-48.84553009756254,-6.0826654732359975,136.7131841428478,1.879516179333598,-2.908528260285369,1.8154096569831761,-0.837099088606273,0.8996502016117135,0.1814317395583679,nm,0.0
3.7172765731811523,-37.51058305474974,-8.238776266602914,133.3722008691678,1.2986575014721737,-1.3671460933369095,1.9783224314655188,-0.5203227184245571,0.9379129138589332,-0.20150421583952002,nm,0.0
3.726304531097412,-33.4360912473708,-9.97473949536393,131.3160382282528,0.8618874142719026,-0.007009940513575772,1.753939442646358,-0.2812380699588877,0.8427629681908722,-0.27902715126745176,nm,0.0
3.731137275695801,-30.58331326291922,-11.977719469939167,129.4803445698714,0.4665970253945086,0.7818936242909252,1.5428374851263364,-0.05299464853707723,0.700161464935406,-0.25570274236010127,nm,0.0
3.7580347061157227,-29.4035999108316,-17.69771647649333,128.3765209881271,0.17608416855428816,1.2570739521244705,1.131798228394386,0.5101307884239566,0.39285747098991003,-0.012984247369617254,nm,0.0
3.7671959400177,-30.769403332015443,-21.105921980669724,129.02046709623895,0.08857477506364464,0.5617075518502337,0.9470890071253626,0.6994603806381416,0.23804523949701475,0.04204053845718234,nm,0.0
3.782723903656006,-36.72698671986017,-27.88585378843112,130.4550570741632,0.20550507248548644,-0.43749524994858024,-0.2562193725566769,0.9037886858311797,-0.01691694101885842,-0.17523064340638564,nm,0.0
3.7894222736358643,-40.433718365571664,-30.993454823807465,130.57555510119147,0.05575582187536967,-0.45952530878797143,-0.7657331442202908,0.8991290764854153,-0.07461269279046634,-0.3734638119023439,nm,0.0
3.8184878826141357,-48.35682711043564,-36.08477747246997,129.13251907762333,-0.5970018738787916,0.24624706825126147,-0.8715055443826667,0.7913729407121545,-0.20541287713200476,-0.6991989816305938,nm,0.0
3.8203794956207275,-52.69386286862657,-37.7295441896327,128.07618707635802,-0.7921135411921633,0.9693670950997134,-0.6340375944832284,0.6986750792737411,-0.3271400793375964,-0.7819256284394532,nm,0.0
3.8430981636047363,-61.42812281305957,-38.57705125376937,126.68776523502557,-1.847988395872981,1.5951773306320334,-0.23783769632109295,0.4402108397913762,-0.5536726945229115,-0.725910045752986,nm,0.0
3.8523061275482178,-66.07261136197963,-37.96696062143051,126.40982183668253,-1.8191579398870656,2.128014525588806,-0.36799261132646277,0.3454028973932559,-0.6523608491180777,-0.6807031480002201,nm,0.0
3.877826690673828,-74.16368748024944,-36.22200495732696,127.14823662515268,-1.5103946587568804,2.212314851805867,-0.7601637044315536,0.2302223499847908,-0.580917056174598,-0.36174531500054774,nm,0.0
3.8794589042663574,-76.76437311259981,-35.218897590709126,128.0787753969721,-1.33113726099762,1.9314320687461661,-0.9667582122544196,0.10577380655399325,-0.45229329991240197,-0.1633027809121283,nm,0.0
3.898235559463501,-79.8402968923212,-31.82625887630922,130.3132405675209,-0.7169323807729875,1.301418553774372,-1.2216059123241625,-0.16765660066528612,-0.4103205236642145,0.08225386579246413,nm,0.0
3.903853416442871,-79.50462046820526,-29.063466411769674,131.05229616920505,-0.632278991390166,0.7973607237920772,-1.380131803684325,-0.45301140165038567,-0.31094086530717485,0.19458458591047934,nm,0.0
3.9280049800872803,-75.89587462355836,-21.6615446242428,132.4762402693726,0.05593845116672283,0.020410276085114157,-1.281352805825854,-0.8560875987794657,-0.21745682827502893,0.31984418875799175,nm,0.0
3.949838399887085,-67.61924734167492,-13.587625547434433,134.92705057329837,0.47829351399415415,-1.3675192973572523,-0.843702303763717,-1.1980942402976076,0.10929538016265472,0.5203575246124418,nm,0.0
3.951692819595337,-61.60687139196803,-10.296837095472007,136.46640563836903,0.6326260004038715,-2.642530707484689,-0.30972477512264956,-1.2998499551823925,0.36513241333134006,0.6056674631908594,nm,0.0
3.974273681640625,-47.628748176058075,-7.484031248861978,139.05397099140845,1.966747742822719,-3.657553339956542,1.329114254273173,-1.1794404603734996,0.8758799770952104,0.5029787629046629,nm,0.0
3.9999914169311523,-32.35908599061608,-9.491801779203756,137.79245274322994,1.9214151634170364,-2.441143433964427,2.4345950413153816,-0.9061902883697792,1.1910822441028641,-0.06940601985569077,nm,0.0
