timestamp,roll,pitch,yaw,acc_x,acc_y,acc_z,gyro_x,gyro_y,gyro_z,markers,motor_input
25.001333713531494,-14.817231609453165,8.149104621865076,144.2427703704523,0.34139523352296774,-0.20333530695809302,0.44579740906213833,0.3350343341614684,0.5197029577691449,0.044495021686355475,nm,0.0
25.004244804382324,-14.759713804924333,5.469245260275628,144.4423738199114,0.4882831342358758,-0.28462766580101495,0.32121712988110224,0.3050505988885923,0.45665624450632736,0.04879952126299308,nm,0.0
25.02960968017578,-14.725256207407616,1.7497299181666903,144.68028389550207,0.15744569538680853,-0.0258870576769453,-0.05368395972918333,0.18270538654046692,0.27605010984692163,0.030170799563416856,nm,0.0
25.034215688705444,-14.675237699668461,0.5074146717121347,144.69483130702926,-0.18445234808877506,0.23537603954027625,-0.19063537080495946,0.13681331236284447,0.2229543157931604,0.0165581087828124,nm,0.0
25.059284925460815,-14.362610206000634,-1.632662662963335,144.56636406456118,-0.8138337861770182,0.6786263566496176,-0.18082987086188762,0.09205990565157829,0.2056753560177586,-0.008729890985672732,nm,0.0
25.061665058135986,-14.195490596888416,-2.688680606768723,144.42599762062682,-0.9087590752337026,0.7861623213220008,-0.15911022209142747,0.09669050445317386,0.20582715442745478,-0.017374781694281534,nm,0.0
25.07470726966858,-14.047910637960495,-3.7915645942137095,144.2902847347864,-0.9328094012081737,0.8003021271628862,-0.07267033498249514,0.1058321114514353,0.21093415317943348,-0.015072818632103144,nm,0.0
25.080706357955933,-13.973690407664327,-4.834456175560205,144.17594961676573,-0.8588261121597341,0.7591332798878829,-0.06280325742851055,0.11120242426505324,0.19235181710160038,-0.0042157040000162195,nm,0.0
25.109452486038208,-14.107478052891036,-6.3077026022538565,144.37148994009868,-0.6113398426207288,0.5490133132190247,-0.16274853577899137,0.09123798137789484,0.10116579263531346,0.03710821338610286,nm,0.0
25.117700815200806,-14.318267658116318,-6.616378521368574,144.6801092977288,-0.5108318260229949,0.4597666572243243,-0.23559927114321946,0.07089937876214945,0.04037348800740245,0.05582917975376287,nm,0.0
25.136325359344482,-14.785829143201425,-6.173440804564246,145.48989782724666,-0.3771042012532499,0.3158804094172523,-0.413273312621037,-0.007214062577379159,-0.0751492718064894,0.064858863762624,nm,0.0
25.138051748275757,-14.962358145138076,-5.493332016176301,145.875345691011,-0.3110034265584401,0.2578724778287632,-0.4482110488159573,-0.047002262202529455,-0.11795854023693204,0.0524727463495171,nm,0.0
25.14771008491516,-15.093936386637505,-4.516644120309627,146.12107307834123,-0.19961188468799004,0.19154301426188092,-0.4681670529242919,-0.08690061573251037,-0.16249709030202267,0.02866983438994238,nm,0.0
25.173557996749878,-15.236220143540843,-1.7671789405664098,146.28565271516473,0.20159422234352414,-0.002052422091752766,-0.4099503137210133,-0.1570025230565574,-0.24067980798548383,-0.023963478970502022,nm,0.0
25.175554990768433,-15.293131861970474,0.023443362112717813,146.28262845938514,0.43071749884392985,-0.18398018778769024,-0.31453390933410313,-0.18831903817505652,-0.2906218694064564,-0.04647766790593472,nm,0.0
25.200671911239624,-15.570294071239273,4.36678768377767,145.99839496874344,0.9538778458361964,-0.6272060700977629,0.03873800093555644,-0.22302371052790346,-0.3805290057218802,-0.06623052080898183,nm,0.0
25.21307349205017,-15.809651152103088,6.7839954135073555,145.76442050190983,1.0415237350281854,-0.781721151184734,0.36926403821654163,-0.23057112148579292,-0.4135332754661909,-0.0679809338800207,nm,0.0
25.229012489318848,-16.543816500969946,12.14532078289316,145.34381292862795,0.7096922200649028,-0.8367075934826393,0.736800359567012,-0.2440972859239856,-0.4798373892579266,-0.07081999454908114,nm,0.0
25.23479723930359,-16.938260733669466,14.641612391832673,145.20361709084452,0.35847306596164763,-0.6917345757823964,0.6895800851936882,-0.21938933643573075,-0.4409868599584746,-0.05123078767235993,nm,0.0
25.256133317947388,-17.436531547078506,17.856255766623654,145.15147865837295,-0.2064389212174705,-0.25359184081936376,0.16056623266621706,-0.11675661951672395,-0.2081489727321644,-0.0005099391816202105,nm,0.0
25.288185834884644,-17.209479925588845,17.76577399075505,145.13905542602427,-0.3511971111165602,-0.07849408945056173,-0.08562643975565169,0.028186679972729174,0.11292808573181032,0.005703100182119997,nm,0.0
25.290245056152344,-16.92329979623153,16.571075848955875,145.04070577359803,-0.23299001850192055,-0.10504624844876462,-0.05166067132897233,0.09391963073163505,0.241302072779103,-0.0079716851488587,nm,0.0
25.291958332061768,-16.583799095651013,14.925640861800707,144.8696751594078,-0.03643404409584521,-0.1758731508078151,0.0393067023910924,0.13763198565127538,0.32107757765801753,-0.022955848080802407,nm,0.0
25.307398080825806,-16.21635834696103,13.127028576330606,144.6481562640059,0.15504644302441023,-0.23259698654944724,0.10553189244663388,0.1515623872195944,0.34910146732833,-0.030580992916443853,nm,0.0
25.309319972991943,-15.825306570852907,11.475917290386572,144.48194612089958,0.2603214959721141,-0.24067816890718838,0.12495791613141373,0.13119692427762558,0.3276164274417615,-0.028432059506442463,nm,0.0
25.342084407806396,-14.97551629506504,9.270944537691596,144.34555389554833,0.13959168993133056,-0.022698170646666942,0.0020536016371833217,0.035941241848364704,0.21270832800080394,-0.004033684387320583,nm,0.0
25.34377908706665,-14.457473743785968,8.672232986099036,144.3689992200822,-0.06656280552967248,0.16716493876740524,-0.06358672767628801,-0.011865700219151414,0.17118181056351228,0.0022148290867864645,nm,0.0
25.347018003463745,-13.863322924894916,8.242717490240317,144.37982055629297,-0.2901023733939512,0.3664696408268209,-0.10627307199201898,-0.04406689538968244,0.1525040745965892,-0.004773061442474329,nm,0.0
25.373613834381104,-12.670871160984989,7.399520779470121,144.1627854328288,-0.551947947481086,0.6565649167794696,-0.06062516659953817,-0.03846883652131739,0.15302208393344074,-0.049676491613119204,nm,0.0
25.379148960113525,-12.239544769161403,6.905582734875573,143.87354024276794,-0.551499668162298,0.705800516306665,-0.0008050260986842378,-0.009771465364952351,0.14435740284520374,-0.07204850129001059,nm,0.0
25.40060520172119,-12.094106186490059,6.025153347337665,143.16737444950974,-0.4539333247250695,0.6720368679933035,0.04082264502341606,0.05808308509842228,0.06984843560634661,-0.07039276973559218,nm,0.0
25.4033944606781,-12.412394105874899,5.826401098273855,142.94976411779024,-0.43164367810726606,0.6010382863876268,0.00715608334263323,0.07622838755517383,0.007701297059836048,-0.0402013942229727,nm,0.0
25.41915202140808,-12.943386319818767,5.896372770147185,142.92074176760505,-0.4718164359143743,0.5150643920838801,-0.041729472742085195,0.07761306535553912,-0.06091640648175852,0.001937302763934246,nm,0.0
25.43947124481201,-14.331697284493378,6.872915258944818,143.39052768890795,-0.5898461317689349,0.3685244554527827,-0.3011981379618889,0.04142070455476027,-0.16881863309721243,0.0746083839973359,nm,0.0
25.44651484489441,-14.963763903140478,7.656417750939443,143.82583127047488,-0.6262212581887964,0.29194896523023744,-0.43203873893137257,0.009629720366567814,-0.1867011748758078,0.0854238806511696,nm,0.0
25.468321561813354,-15.804412877673132,9.39582614611396,144.4929349373482,-0.40712205618407926,0.09640998614746532,-0.6138538669382729,-0.047058319563468454,-0.16605827447233792,0.05506443443487588,nm,0.0
25.474868535995483,-15.946163823971483,10.292918841938178,144.65871987667194,-0.18156588214532524,-0.06843662656796884,-0.5596008981578822,-0.07985811780789004,-0.14856194023755492,0.02642865696180337,nm,0.0
25.480412244796753,-15.977556126672935,11.315092810651548,144.71156733400957,0.1636794923913348,-0.24427802084213282,-0.4641673737803585,-0.11177882078793899,-0.15659582763976662,0.00048120449770325106,nm,0.0
25.49134612083435,-15.91600657159995,12.557240906310758,144.72327109101727,0.5670078206417011,-0.4845441967510967,-0.23265560033258142,-0.15191859934837051,-0.1821640415690226,-0.014791791355388976,nm,0.0
25.513750791549683,-15.665261395527272,15.990678877496139,144.79961047339305,1.3597770694665785,-1.0224640402761636,0.4722425991117437,-0.23900707632754528,-0.2799870825185335,-0.0045208515043371885,nm,0.0
25.52308440208435,-15.476854485195977,18.207807890721146,144.95673612495352,1.5146867716978358,-1.1858163420872534,1.0163474528670933,-0.2830598786294038,-0.32871522114370283,0.009203975913406251,nm,0.0
25.54767084121704,-15.059842083939444,23.28256010082452,145.32852329822433,1.0517614655654315,-1.0152802312108635,1.4390399223059738,-0.3225541080862792,-0.3918698967018521,-0.0010070066057666176,nm,0.0
25.549582481384277,-14.956555923318207,25.61125490176009,145.27340006414346,0.5071022971286642,-0.6680621225470298,1.2150020020869672,-0.2787619593721856,-0.35926137652662016,-0.02450485341335698,nm,0.0
25.55813717842102,-14.99346385841295,27.24316730956688,145.07014253512105,0.008340029731155052,-0.2905168475927575,0.75456523574559,-0.1788651002851257,-0.25871421603253686,-0.04247530632064334,nm,0.0
25.57596516609192,-15.25651395575632,27.01440771408511,144.5442245383447,-0.5635811980120811,0.20422767381996632,-0.04676913147772368,0.10857477151929296,0.11982914378730275,-0.028918516784590707,nm,0.0
25.59059238433838,-15.358747256867257,25.191855673424566,144.34331559305704,-0.5417157843686179,0.22029094109989578,-0.0992382483484979,0.229906791086479,0.2993390826649642,-0.005515637336627563,nm,0.0
25.597609519958496,-15.3591260329341,22.56816554411042,144.2727284457735,-0.36627346143727346,0.07821729160029711,0.07570268738644578,0.3094842510302947,0.43968610978226397,0.01983871373088034,nm,0.0
25.618074655532837,-15.09093339253032,16.546446986501522,144.39811810818242,0.220968018588763,-0.31340582988683513,0.32304234620748273,0.3242392958178964,0.5174463866351863,0.050298238952787434,nm,0.0
25.62373447418213,-14.864771942739612,13.951551073902804,144.47227690794142,0.4211987905683839,-0.4006599665949221,0.2239545380507026,0.2692089122780424,0.4614484453883763,0.04439030137154195,nm,0.0
25.646328926086426,-14.253782733867176,10.331166754025773,144.476236411662,0.18393411089052916,-0.08778150137454496,-0.10517902673368212,0.12684836414167264,0.30382787592883026,0.0009170405362248025,nm,0.0
25.65627145767212,-13.810002520511455,9.206461596882361,144.35206052247347,-0.09584101701161692,0.21948904916507553,-0.2656853104059193,0.06145634747020279,0.24805920493310013,-0.027384447588907856,nm,0.0
25.661304712295532,-13.23433890033916,8.289962184109257,144.13512773915483,-0.4011299355206075,0.49196045047973463,-0.3075128619617501,0.016402524722588175,0.22947456003665223,-0.048210402360808105,nm,0.0
25.68731117248535,-12.156488265577222,6.5961310216726226,143.60835624637454,-0.6660878682323388,0.801824759437569,-0.22327628451821915,0.022137933037090714,0.20502747765349927,-0.05554817490671573,nm,0.0
25.69338297843933,-11.815791427890755,5.8433855339823975,143.3943279012255,-0.615441523571613,0.7898295636675376,-0.14575649153709744,0.03670417845185698,0.17547532281981756,-0.04803843862689214,nm,0.0
25.70463728904724,-11.692227516193332,5.209716025333974,143.25146471417384,-0.5133206825894423,0.7046015106844357,-0.11519376638044429,0.05757197001928478,0.13046304782955032,-0.03427844786659832,nm,0.0
25.723198890686035,-12.175151973777519,4.631565417850926,143.21740905721833,-0.4014880191581622,0.49503486458822343,-0.1497768641480743,0.07440802939247267,-0.004789150652888934,-0.00048392775262215795,nm,0.0
25.73254919052124,-12.704985776555635,4.796146945093266,143.31442442981603,-0.43314776173751307,0.41188764213804635,-0.2193463849155266,0.06657596181387988,-0.07557661688728647,0.015889652939659722,nm,0.0
25.74040389060974,-13.322182050388678,5.2220224883782995,143.45533905333374,-0.5161745097200002,0.3746166646591971,-0.31675876026481126,0.04949289767702159,-0.12780119941123783,0.030715992523741104,nm,0.0
25.76365852355957,-14.418740269490188,6.605310653719558,143.91980158181084,-0.6252364908810203,0.31726228889119956,-0.5655715865920785,-0.006378654692927236,-0.16664841774376424,0.04597809110351678,nm,0.0
25.76994299888611,-14.747798676909447,7.391896208791104,144.1661813503522,-0.5527782498431978,0.2586812246384454,-0.6551300549862992,-0.03806064034095528,-0.15182985828577955,0.045626476762632776,nm,0.0
25.778443813323975,-14.841500051040962,8.204912729069346,144.3899815842624,-0.4200263274595326,0.1427433445816559,-0.6319703467093409,-0.07851682842638626,-0.12898055653897808,0.037622286111945416,nm,0.0
25.793855667114258,-14.459053496712462,10.207529640290284,144.61879307149616,0.1725224716899078,-0.1639160818099743,-0.4950547025646559,-0.1696547612591574,-0.1320828538623056,0.004393551346138126,nm,0.0
25.810079336166382,-14.049913321548521,11.541766690905808,144.65578418729064,0.5434851769303164,-0.37141214245540255,-0.3256090006668059,-0.2187415799198914,-0.157390457334222,-0.011606298754669024,nm,0.0
25.81510591506958,-13.59756496973888,13.181954625921666,144.77180729405893,0.9406693897364627,-0.6007466687629383,-0.07030120891493141,-0.2601817793188901,-0.20339009626975768,-0.021737922419235653,nm,0.0
25.82230257987976,-13.161810120128878,15.122576158194748,144.9168449126613,1.2815409458279687,-0.8311083898387938,0.298875495358048,-0.290946704528591,-0.25562190885203434,-0.02524688478889932,nm,0.0
25.83326554298401,-12.758242305601641,17.30745014226176,145.0676795539867,1.577131257781423,-0.9502203796261214,0.34320671556733606,-0.31238427756744797,-0.30062521265409703,-0.02702363630648338,nm,0.0
25.866679906845093,-12.065967817190074,22.113715770223724,145.20424686854773,1.1992783481274176,-0.8906241023164408,1.1277896817101647,-0.319639146227039,-0.3499765927947853,-0.036992496155097455,nm,0.0
25.869609355926514,-11.807501829321943,24.044801985762497,145.22401595051815,0.514189840432617,-0.6211006025035707,1.8547875515203127,-0.25728240986829143,-0.27738693951842275,-0.03790452130611478,nm,0.0
25.87258005142212,-11.675262239862413,25.56215524889102,145.0693037514144,0.3030480187056261,-0.43547173209827644,1.0189504064808121,-0.19090781436822432,-0.2225439863628703,-0.05435381233858523,nm,0.0
25.87972354888916,-11.992491443604843,26.740583390364154,144.69196505701325,-0.1387919093043853,-0.24296012579986487,0.6183534709417644,-0.08650835090886012,-0.21277866585550465,-0.058371707669233275,nm,0.0
25.889782667160034,-12.65445435040555,27.104628642776156,144.23885052337695,-0.23929585474969622,0.027659371799420487,-0.023635492781579837,0.05645858749841827,-0.11492828606885383,-0.036219381276337635,nm,0.0
25.915889501571655,-13.26083112714868,24.53840743017258,143.68261734571414,-0.8435654144020571,0.2023380352210554,-0.1459617297261757,0.2396287090194902,0.26048024678552384,0.013158561081774222,nm,0.0
25.918543338775635,-13.362205511988703,22.35078236416032,143.68996952588526,-0.557030881958906,0.04079997200587854,-0.10311741676427237,0.2772255154480325,0.3550155479955998,0.031029971471452686,nm,0.0
25.940560817718506,-12.750751457913182,16.882025171446088,143.89461333296143,-0.15959637053940326,-0.2228208126532267,0.2616635179992838,0.2584000254301008,0.515914369153378,0.015170939912547858,nm,0.0
25.969077825546265,-11.642934304265234,12.487219110550193,143.72326527648818,0.19137776184448638,-0.16336673218951878,0.002932888351644786,0.14891464555272482,0.4044536949480859,-0.043776615186133856,nm,0.0
25.970898866653442,-10.820517726000041,10.82664136850466,143.52627461262156,-0.040319864804704286,0.08197036225702997,-0.06269568396987746,0.06929878706202604,0.3770726606977819,-0.06407024783661405,nm,0.0
