timestamp,roll,pitch,yaw,acc_x,acc_y,acc_z,gyro_x,gyro_y,gyro_z,markers,motor_input
52.01587224006653,-18.14094753265625,0.19623547795431748,0.7709519611360525,-2.5876910843701208e-05,0.008617877954202196,0.026301287291487525,0.0,0.0,0.0,nm,0.0
52.021469831466675,-18.13999228574433,0.17033649656242844,0.7826925833823716,-4.474128346731965e-05,0.009754757550545851,0.02977328147602624,0.0,0.0,0.0,nm,0.0
52.04778289794922,-18.140345041785093,0.14056406939516478,0.7551528340996165,-6.24445809926714e-05,0.010970446082989875,0.033483762859009586,0.0,0.0,0.0,nm,0.0
52.06694459915161,-18.16266953746029,0.1137973301992071,0.6549865085058186,-6.212975596935003e-05,0.011553357974875072,0.0352168482833435,0.0,0.0,0.0,nm,0.0
52.06887173652649,-18.181885434561355,0.09875342505311756,0.605056490687951,-6.080285819324071e-05,0.011445325534363409,0.03484824424013593,0.0,0.0,0.0,nm,0.0
52.095229387283325,-18.224793168849974,0.05798405663969095,0.5618921078469421,-5.717867299095145e-05,0.008491787566111637,0.025790750181088336,0.0,0.0,0.0,nm,0.0
52.09870624542236,-18.238586436553852,0.04010462095173628,0.5669481819441128,-6.681477919287944e-05,0.008597785794261733,0.0260918029079243,0.0,0.0,0.0,nm,0.0
52.12732744216919,-18.258943571984577,-0.029138135231062963,0.5784002254387272,-0.00010678789746035568,0.009176623285536877,0.02781623337657373,0.0,0.0,0.0,nm,0.0
52.12897515296936,-18.271470623516155,-0.0684173689530668,0.5610386597806789,-0.00013880950155156863,0.010351618697399203,0.031355353945080065,0.0,0.0,0.0,nm,0.0
52.13566184043884,-18.288190604314117,-0.11537074065893266,0.5293477455077038,-0.00015343360418698418,0.010006915600846844,0.030281986332769614,0.0,0.0,0.0,nm,0.0
52.16169261932373,-18.337937275953948,-0.20722545886615265,0.45952410814508204,-0.0001843472481844564,0.009736377389439098,0.029378151218022067,0.0,0.0,0.0,nm,0.0
52.17597699165344,-18.391976923020707,-0.2691533586492706,0.43024340985772186,-0.0001933591000520023,0.008935388276272209,0.026876644038608823,0.0,0.0,0.0,nm,0.0
52.190292835235596,-18.410014037497564,-0.3043318278534123,0.42814770236338884,0.0,0.0,0.0,0.0,0.0,0.0,nm,0.0
52.21603870391846,-18.420537925604158,-0.4157445554950557,0.35158639054991686,-0.0002320451008469627,0.008309119352634986,0.02495142143495577,0.0,0.0,0.0,nm,0.0
52.21808981895447,-18.43202231329889,-0.49916067146563736,0.3324295007140272,-0.00028853584729973626,0.009031700819038752,0.027103254664555047,0.0,0.0,0.0,nm,0.0
52.22588133811951,-18.453785458620107,-0.591518696156206,0.31078101681726783,-0.0004034008735847886,0.01109228528392895,0.03324472099935771,0.0,0.0,0.0,nm,0.0
52.251206398010254,-18.501198245468075,-0.8012467161661422,0.30470932381672106,-0.0004920072560668133,0.010441716914625832,0.031209159900004096,0.0,0.0,0.0,nm,0.0
52.25472116470337,-18.52051211318949,-0.9014327787619589,0.33078789625606836,-0.0004431854285479351,0.008401496090371167,0.02508369825596339,0.0,0.0,0.0,nm,0.0
52.260709285736084,-18.538570126553264,-0.9933590344465487,0.3707471840318093,-0.0004690479873405503,0.008060902811322003,0.024042644407366653,0.0,0.0,0.0,nm,0.0
52.274850606918335,-18.552369203599696,-1.0820725392440735,0.41570059244893015,-0.0006577001361407665,0.010349238488369187,0.030844821800670157,0.0,0.0,0.0,nm,0.0
52.29398989677429,-18.58117255814022,-1.2653260884471,0.47972187220163254,-0.0007962045794419323,0.010744807846790043,0.031973201230049264,0.0,0.0,0.0,nm,0.0
52.30060648918152,-18.602941451862634,-1.3653606031380303,0.48818548317570243,-0.0008576441681001228,0.010807100798837585,0.03211862019590112,0.0,0.0,0.0,nm,0.0
52.32528567314148,-18.644886807037018,-1.573498843756697,0.4762028659967674,-0.0012681222012502918,0.014128730428508617,0.041888115317095624,0.0,0.0,0.0,nm,0.0
52.329731941223145,-18.67014131898556,-1.6675693922604995,0.4615651669413584,-0.0013756027217526386,0.014596372701646779,0.04321032528560386,0.0,0.0,0.0,nm,0.0
52.35121393203735,-18.751456565419787,-1.8152047568054752,0.4100474985379029,-0.0025859886506086854,0.025723391152706374,0.07578686310886412,0.0,0.0,0.0,nm,0.0
52.356892108917236,-18.826851525518475,-1.8784311430664224,0.36108430091810767,-0.0029526590151835474,0.02880528338369153,0.08449262868341541,0.0,0.0,0.0,nm,0.0
52.36361265182495,-18.93137538187302,-1.93358775672249,0.28916283673748217,-0.003435179316564206,0.03319910888713536,0.09678784028291437,0.0,0.0,0.0,nm,0.0
52.39136028289795,-19.33083847967884,-2.019444395669886,0.09984768157825286,-0.0036473652826855786,0.07024551811379309,0.09996850256994519,-0.041849733659385414,-0.0191452292685345,-0.022048954701464545,nm,0.0
52.39306354522705,-19.542108975477635,-2.1030756577126413,0.02717306070508459,-0.029020698983657982,0.06187410316957159,0.09519819974004093,-0.047363899928635586,-0.03503511105316944,-0.016749180860544652,nm,0.0
52.41619300842285,-20.072386084078286,-2.631908259575117,0.07442264273524071,-0.0018309694508243798,0.06874320200693283,0.03788904326242723,-0.07079489227535574,-0.06904368486538172,0.007195580225759614,nm,0.0
52.42291975021362,-20.552823137074945,-2.8411209098452703,0.16458345677649117,-0.0072348961317669,0.053542625414784425,0.14268400077027085,-0.08853475618762195,-0.054458660869068566,0.013097303760681432,nm,0.0
52.43230438232422,-20.93246812812904,-3.067236928870654,0.35467921099971955,-0.03492025733734285,-0.0002161703293372992,-0.0018712232141608236,-0.07092462402155178,-0.06576496893131897,0.0339147948148112,nm,0.0
52.45621418952942,-21.740052000288525,-3.784692221343932,0.9328253656018685,0.11549864899645979,-0.0812481909960568,-0.07914039129869492,-0.059580714061464375,-0.04361326989750643,0.05143174835355772,nm,0.0
52.462961196899414,-21.966210186360158,-3.8707103308563595,1.1884514742086794,0.09180878113063054,-0.008328041932332449,-0.019223570934606908,-0.03578763815513929,-0.009530332977231841,0.04820195279417758,nm,0.0
52.46840763092041,-22.413118096866786,-4.028399862987367,1.468094259319736,0.13456626221593004,-0.24154517824309948,-0.12368469170023473,-0.021501051841653105,-0.012649368103419208,0.04998495596677894,nm,0.0
52.49494290351868,-20.951044291727438,-4.022198779754481,1.9453134274464197,0.03206858367050947,-0.23367082600835676,0.6535933088295655,0.21164812909056765,-0.005385809146321525,0.05815568988542853,nm,0.0
52.51231074333191,-16.821055418192113,-4.124237596324293,2.146208874977122,0.2205029961136123,-0.3327236552612911,1.0802834426695362,0.4692269808770188,0.009992798655537035,0.03683464527172294,nm,0.0
52.52294087409973,-14.583413847241342,-3.904495891746416,2.034921396505622,0.21060798007806328,-0.5825914718174774,0.8272970638223567,0.45302774120377404,0.048305303658384854,0.007583053161668055,nm,0.0
52.53213143348694,-12.477319257313177,-3.783214569147758,1.9554390697897486,0.25688168094347014,-0.7702948584462276,0.7845187750363867,0.42764673411101245,0.027023000552187766,0.010390272259193322,nm,0.0
52.53494095802307,-10.453431546529352,-3.6278510573036504,1.9140106568815205,0.3376918149994259,-0.7503187032943558,0.959023299929889,0.41113958259977657,0.032735461298551226,0.02695640284912578,nm,0.0
52.56209659576416,-7.177053397786109,-2.7129520701873795,2.073239682715649,0.07250581665865115,-0.7189514214404069,0.4270353210055613,0.31247288176539256,0.09004693088697283,0.04052273912596817,nm,0.0
52.565587759017944,-5.703415975307785,-2.369006416611404,2.1152184738853945,0.069800770030213,-0.5162956054689317,0.4307562890063492,0.30011497148252664,0.06795397437298853,0.029209922679622705,nm,0.0
52.58977389335632,-3.2224483866728777,-1.13857383429788,1.6738673700899462,-0.08256292198552677,-0.2516488061078949,0.12075456699811668,0.2381193851511429,0.13489287782428855,-0.05844928918497415,nm,0.0
52.59218072891235,-2.0496219747854343,-0.5333991027459086,1.1610185268260018,-0.03188588918608843,-0.11645520911918393,0.0827983687461737,0.2394885518459283,0.11550421567815443,-0.09530064626000397,nm,0.0
52.62159490585327,0.11000626183467448,0.9504793722305844,0.2165042964093282,0.12016553209238051,0.0009463428822673633,-0.2584210618383708,0.22001700749258016,0.15794744692545815,-0.0913032550410329,nm,0.0
52.62328219413757,1.2161020090539503,1.7479740096266683,0.019258304104397543,0.10562387951469449,0.0636976940141516,-0.3460350047711909,0.22834870006270272,0.14891413930780245,-0.050205619494753405,nm,0.0
52.63124084472656,2.289310599526185,2.431557433896035,0.06668025903415745,0.14457485928342617,0.17512608417955453,-0.19599924709218203,0.2218414443806882,0.12591752759352765,-0.004131572302698367,nm,0.0
52.65733766555786,4.173729945940567,3.973609786982389,0.564777741449502,-0.04430273994439633,0.20323338645806846,-0.6089098625155499,0.21600005514508216,0.14677702985431126,0.03672000701163134,nm,0.0
52.664501905441284,5.303422688425792,4.62494004406871,0.746645272595753,-0.06757160072788207,0.4382197391368754,-0.2608081702051638,0.23110760140505807,0.12225722856815587,0.012820337274632117,nm,0.0
52.68670129776001,6.8232477706830235,6.063369029793938,0.5725056714790555,-0.15212394512808153,0.40418532480219344,-0.5276993939245849,0.17442048224518084,0.14412631998790687,-0.054847565006179065,nm,0.0
52.70893406867981,8.012074122966437,7.450604078065093,0.1911237833990283,-0.12809546032681038,0.4071886459574176,-0.509066897121925,0.08950047070335429,0.12459542390184172,-0.050154439116662536,nm,0.0
52.711522340774536,8.541899873963134,8.150886155303906,0.25444299853334484,-0.15743797792839015,0.4633474103024501,-0.43972784584783875,0.11100299524721688,0.13019476656822487,-0.009367313496504933,nm,0.0
52.728150367736816,9.00951152292789,8.787083705371053,0.5679962907227708,-0.20359416400188682,0.5473549944007775,-0.3430153303930456,0.09809233281065516,0.11770686863273765,0.04119504455927325,nm,0.0
52.730125188827515,9.288973872184481,9.29426004343477,1.0702335945373354,-0.23795118282899286,0.5410254114868636,-0.4341453066404608,0.06021253852245207,0.09207865615364534,0.08386994282356271,nm,0.0
52.73642635345459,9.58257639758258,9.741125741276356,1.6692423506125726,-0.27431574220375876,0.612911201189696,-0.3302031574454376,0.0622670684428234,0.08068396788178464,0.10221948288066587,nm,0.0
52.766069412231445,9.60433937395959,10.404461584891495,2.6556006853765695,-0.3238149279411679,0.645085341559139,-0.35081598289293536,-0.015014950338487737,0.043585232065629996,0.06948078345053356,nm,0.0
52.77471733093262,9.372280528760188,10.580368393196157,2.9148845100900296,-0.2675962762290459,0.653763171043113,-0.26624045524858153,-0.04082017053553791,0.022881243993860302,0.03685903881170044,nm,0.0
52.79833745956421,8.989045200080705,10.728096296242297,3.5852866241308647,-0.13816115646481011,0.5688568392461302,-0.21498465455551402,-0.14385296791518448,-0.06497261409119504,0.036688941474415475,nm,0.0
52.82377290725708,8.258751982717781,10.17121274396339,4.384705227357845,-0.19513257034579448,0.5481771049208658,-0.19844218668262179,-0.20781721177339005,-0.12869782542282357,0.08336298678480994,nm,0.0
52.82557654380798,7.605149233305122,9.727211024624246,4.754049037937541,-0.23302080766135322,0.5342871347321336,-0.16998737026486682,-0.23888505173653793,-0.16385947348917582,0.08152068784080965,nm,0.0
52.84340953826904,6.753293878851546,9.19625041139638,4.926642367832189,-0.2621046564559731,0.48570687344678976,-0.18289508620527029,-0.2675536224795492,-0.1932687879794677,0.054993513877177394,nm,0.0
52.8451988697052,5.739259760963133,8.564627786379102,4.845815690159613,-0.26699897984134047,0.3901518483465426,-0.21307741266039634,-0.28103360454957077,-0.22129987731198794,0.0079277312035131,nm,0.0
52.8488826751709,4.257118759259148,7.466339469271902,4.514615726461183,-0.19677026534897885,0.2038655977817331,-0.3033240231195887,-0.26735655532633457,-0.2537573558535252,-0.0493912871861672,nm,0.0
52.86102771759033,3.139562938182461,6.256988673096424,3.95845665776178,-0.01854615042011837,-0.0691867926335342,-0.21231140855704764,-0.19603933010995414,-0.26858720326185964,-0.1045249423178539,nm,0.0
52.886117696762085,3.8225096378161334,3.900389387548836,2.6895359741051514,0.47268260202118745,-0.6884093173085657,0.45809950675465766,0.23203665935884876,-0.22949693281056455,-0.1605718011140808,nm,0.0
52.88836193084717,5.894283782041998,2.891104607192155,2.2240415781275975,0.7507955291686526,-1.0541731607235876,0.9269424947270065,0.4300887317466515,-0.1942448602679132,-0.14503641687236976,nm,0.0
52.897043228149414,8.83907547380373,2.1976051943732795,1.9938055371742798,0.9122974271699665,-1.7874234878788964,0.8148433641743583,0.6014079671909929,-0.12676896014556577,-0.09768133814248023,nm,0.0
52.923163414001465,18.08912805333425,1.6749851959417994,2.5863339644390257,0.7730727951803946,-2.4733093069716237,1.1831010202458199,0.9806285453356545,-0.0001266336405428879,0.05318209908427043,nm,0.0
52.925105571746826,23.359089998867496,1.6687802522205504,3.2497282527814035,0.6045966013415988,-2.3745754300768684,0.3854823679902799,1.061122286089698,0.044466077470284,0.0926313053571248,nm,0.0
52.95207667350769,32.400232140226464,3.185937218071695,4.434382844806211,0.1652956811361069,-2.03725928777044,0.13088541714652244,0.7533134794398771,0.26749879477245325,0.06361919583287723,nm,0.0
52.95722222328186,35.14003581110379,4.783228755268473,4.713167821855189,0.08617321111513636,-1.4892215961374238,-0.4360054510952706,0.5270605275037346,0.35659389199285313,0.006440510002209923,nm,0.0
52.98391127586365,37.14724248942515,8.451583813341157,4.78987004335833,0.2477924187101328,-0.5270811808349007,-0.6804093710224226,0.023500277872340044,0.36442589393725217,-0.012887557073853676,nm,0.0
52.98654866218567,36.33915535892743,9.893388085357419,4.974307349999505,0.14752301417046756,-0.11767579218779788,-0.8081735174477479,-0.1777772753168895,0.2684104877570768,0.050814563817202826,nm,0.0
