timestamp,roll,pitch,yaw,acc_x,acc_y,acc_z,gyro_x,gyro_y,gyro_z,markers,motor_input
36.509026288986206,27.83474959757016,21.623953714886266,31.30153518366484,2.470227793759202,-3.049705386979583,1.9859392944779388,2.0287433514532585,1.2693479342300826,-0.7257174322963861,nm,0.0
36.51655387878418,38.584087137035844,21.151319028516284,32.97623535222386,1.6724350731402922,-3.4063543067275432,1.2685444075769639,1.7541692640279463,0.9802064052698293,-0.4272881873940875,nm,0.0
36.53735160827637,50.844102491378,20.41280664430109,37.32094916732442,0.6070300354204538,-2.4081334863046426,-0.8326971553655611,0.7400356001724919,0.5283237067502682,0.16046019828406105,nm,0.0
36.542418479919434,53.18782711810453,21.127266757283024,39.5746214365935,0.5141942038337811,-1.7599758007171513,-0.9637508988221465,0.2591591307454246,0.3838972291256611,0.31673058750373717,nm,0.0
36.5605092048645,51.012767862231186,23.273643780141466,42.016666916434694,0.9417439524053317,-0.17635100129613193,-1.0762446624104771,-0.41706119666364133,-0.07753405652513864,0.32124608076977607,nm,0.0
36.57733345031738,47.375713554633506,24.17977751189886,42.81187237887307,0.7108665759090291,0.3789624794692697,-0.8746790216716444,-0.6098117878967152,-0.3186626506612607,0.3903382212346251,nm,0.0
36.579299211502075,42.26231957036246,24.406858221469243,43.41916621176067,0.34673597770398035,0.6382326372538997,-0.58554125261307,-0.7054948556907357,-0.609106496942295,0.4581719519995768,nm,0.0
36.592652797698975,36.216630601906644,23.828538887097388,44.090295069516216,-0.011896856228314684,0.7675019401493595,-0.3816750729595535,-0.7088647906897128,-0.8531471567538577,0.5301456108933889,nm,0.0
36.61246347427368,23.103432990606002,22.32050420885823,46.974480797671006,-0.9337353616619842,1.4336357860393705,1.0872467074168721,-0.7820043479504256,-1.019622156703732,0.7674218375831853,nm,0.0
36.63330006599426,7.4031632097280005,22.186787351433097,50.01295992094856,-1.9582109503546536,2.092999863976486,0.9817228386442256,-0.9722831880495879,-1.1043661249569325,0.7969451818673174,nm,0.0
36.6352264881134,-0.9770495885733896,22.761224702620407,50.48979950900939,-2.376971221799234,2.3363289203630044,0.6111340250775911,-1.0666414448818147,-1.123489714238406,0.7041970231560275,nm,0.0
36.65146732330322,-9.644958248608097,23.248034213070802,50.13909020675443,-2.483151121599602,2.106135506174582,-0.19235023815672697,-1.0805846723903727,-1.1723022438169095,0.5697845561863688,nm,0.0
36.654642820358276,-17.706782966619144,23.178793017913645,49.07628458544113,-2.417920950349011,1.945244197047726,-0.6007792542280534,-0.9361343610969738,-1.1432254100128396,0.394590257547496,nm,0.0
36.67892670631409,-30.211483098099805,21.645366712170965,45.88571513817008,-1.946958692674436,1.1382119214533357,-1.5681924513316048,-0.5607791709129404,-0.876810927962645,0.09497725418793576,nm,0.0
36.687673807144165,-34.03580315418912,20.751749429612204,44.36052969215688,-1.6175912632145413,0.7563625696881555,-1.6565734783173407,-0.3636139733611619,-0.6350754776058037,-0.0053382440065314245,nm,0.0
36.702885389328,-36.71835400016126,20.184880657251586,41.65363514386829,-0.8838124667366845,0.1658602107324941,-1.362305796155721,-0.06648954334284873,-0.08162477126011206,-0.18308267453110605,nm,0.0
36.719402551651,-35.65723626551801,20.437985896902234,40.29091553831338,-0.4710523218617365,-0.24680589488511204,-1.2648225692563881,0.13147280748677198,0.1644426642911782,-0.2883532605064112,nm,0.0
36.721059799194336,-32.751539942604346,20.55822817104171,38.949721565306426,-0.042821586857571314,-0.4748352707131253,-1.0148992938549146,0.41902406718900304,0.3603377911621272,-0.41464992364678926,nm,0.0
36.74801421165466,-19.8176358863552,19.888359938392554,35.85004960729876,1.0178744637635906,0.13255010356105654,0.8452175401315586,1.2243977593313942,0.7797547048150607,-0.8161878060211648,nm,0.0
36.74970746040344,-10.524307193498679,19.354685383794763,34.05247334419352,1.988709698031747,-0.2663957039555762,1.4349043921246547,1.5113319799177132,0.9078808293981764,-0.9517869213931147,nm,0.0
36.75908970832825,0.3067294794180197,18.991490604495347,32.51225593216045,2.7592707823862486,-0.9313037522085649,2.062948369054006,1.7647694227111757,1.0544855367372776,-0.9934636726268317,nm,0.0
36.78748297691345,23.369206732650376,18.56195190976247,31.8812812332289,2.159202991929372,-2.990452085669343,1.720912574114837,1.8849821851837212,1.0792795559529123,-0.6789180337852797,nm,0.0
36.79001235961914,33.397635520749034,17.635572893254984,32.53202937510219,1.3988606358820497,-3.3774471268177386,1.382444630877897,1.721861580792056,0.8544002854828957,-0.4690043482574161,nm,0.0
36.81381583213806,44.396353134507784,16.79742920343759,34.84684768169052,0.28029004565303633,-2.764790520044666,-0.4729921196414639,0.630184752058481,0.4318632309426156,0.058687845124304375,nm,0.0
36.81791424751282,46.163071783203215,17.86395628679236,36.43943779242513,0.4656183797071832,-2.0663165834880104,-0.5661531462515389,0.1557283106386235,0.36884071536041396,0.22848858040056896,nm,0.0
36.825157165527344,45.719930067031996,19.470769504100588,37.76401718961803,0.7926479766242751,-1.0779965720649314,-0.7458826247433828,-0.25594822895894953,0.2045911619160008,0.29490125592764915,nm,0.0
36.8516960144043,39.29540403752487,21.95074320084848,38.88054350128371,0.9971588078382544,0.5861458043357806,-0.684037002137242,-0.695034500502001,-0.3191249571113466,0.30397690264868854,nm,0.0
36.85540270805359,33.7478340484073,22.14116951073516,38.83956907337582,0.6865265957253124,0.9113736035781461,-0.33870729807655986,-0.8179328295848555,-0.6213840833400366,0.3487309631569454,nm,0.0
36.863537311553955,27.109675507726763,21.583248552075204,38.61977079811469,0.17488297870268013,0.9831628694863657,0.06600260187452939,-0.8836797114248206,-0.8642999630776622,0.40279251110179914,nm,0.0
36.88752102851868,12.627050460704819,19.94342180298268,38.854789970257436,-1.19158159493759,1.5669271359961519,1.5902834646570456,-1.0081490449733514,-1.0134656078307944,0.5241080235212491,nm,0.0
36.89180397987366,4.371284160091304,19.687862939205637,39.22615129450512,-1.8619111322137818,1.7012428067393444,0.9841469562952142,-1.1634736194629738,-1.0264610852124991,0.5909477467951569,nm,0.0
36.91845965385437,-11.826794252783788,20.896983216672677,39.5934112303611,-2.1638873656248867,2.492556884198193,0.15254065791115662,-1.264735758211265,-0.8352253866928963,0.5937146147967877,nm,0.0
36.92065620422363,-19.586302686560256,21.89366654823905,39.70212537554321,-2.0058862234931096,2.3247642540674622,-0.7007271801759641,-1.2275201534718079,-0.7761170691076561,0.564822686870564,nm,0.0
36.938544034957886,-26.266198664290307,22.62021235392199,39.48400763396723,-1.8442450292063195,2.1502793784743126,-1.2185386469718158,-1.0338521313019184,-0.6811743926307965,0.4807109162399089,nm,0.0
36.94026255607605,-31.61195575572836,22.848193322124395,39.07687915804496,-1.7571708804227641,1.789780469109784,-1.6567350351768049,-0.7803012246102816,-0.593544237168253,0.36070009175201645,nm,0.0
36.94805860519409,-35.57919405012525,22.48678061928574,38.50402323472543,-1.5800615601775185,1.2049305651877862,-1.9230569286044743,-0.5131108908129488,-0.5194967350435051,0.22409547975094782,nm,0.0
36.959290504455566,-37.92790087792671,21.59869563794413,37.79093629537924,-1.4018537472187027,0.7738513932558012,-1.7845976136681991,-0.2200404117863001,-0.4132867745463177,0.07531628995135133,nm,0.0
36.981582164764404,-37.77608400723249,19.63483176573158,35.9018974191914,-0.7629853299882652,-0.09896927201492435,-1.1654579452587244,0.24938588196544406,-0.047770796313588056,-0.23114446319829574,nm,0.0
36.99034261703491,-35.102054084297144,19.158295579067644,34.79103065924143,-0.40610795960648904,-0.5617660939034286,-0.9421908445148482,0.48085444832003316,0.20808604111466905,-0.3634908735071967,nm,0.0
37.01114320755005,-22.363981399797318,19.17472743598879,32.97622158156453,0.3391609399316468,-0.34439093284824307,0.45053774305396377,1.2359762089958142,0.8309159657836995,-0.6324483868764432,nm,0.0
37.01682806015015,-12.697039397710466,19.318509135034123,32.26086382248691,1.077185164081116,-0.40054249911321527,1.3387408359147857,1.53757015910312,0.9994576210115232,-0.741708611198567,nm,0.0
37.04092860221863,10.233451764014186,19.038566199533104,31.028287071861502,2.9211097599013796,-1.7811482307980946,3.0739494744045484,1.9714811808659551,1.1327306743683432,-0.8768032936483257,nm,0.0
37.04939150810242,21.811306260456742,18.705775274612655,30.621201517013553,2.8724605110196983,-2.6225169767315917,2.511181774445298,1.9271655009764004,1.0596255398783276,-0.8161784069626788,nm,0.0
37.069788217544556,38.52819115970439,17.891630416831603,30.484650726678545,1.524304798880153,-3.054474478740669,0.20049017326582458,1.1915401759186484,0.6081967827000447,-0.42012427481687287,nm,0.0
37.072211027145386,42.95902261479615,17.80077076174425,30.991329997067126,0.8112741021141977,-2.508075956183587,-0.6238599322348454,0.7408710003500073,0.4134240671953424,-0.17561473431999894,nm,0.0
37.10420894622803,44.389950569721776,18.291084959372043,32.80636903481534,0.5830023814091694,-1.4079840563489254,-0.9742207038325773,-0.09474120166375717,0.009980379767382731,0.20039033919533533,nm,0.0
37.10673213005066,42.668700211604985,18.62129131783795,33.82096281567583,0.6219659449499586,-0.7139488035385402,-0.6696690939308253,-0.3038858105903701,-0.1267701275368591,0.27972027455976906,nm,0.0
37.12639379501343,34.818984916293594,18.90924057759272,35.42979407870296,0.32030941594887735,0.419627181834547,-0.26295384721539966,-0.7198082158321717,-0.5010021692875607,0.37618936302559774,nm,0.0
37.13860893249512,29.26098680767123,18.824835840384054,36.148080291175376,-0.0005651444595819679,0.7062274497425142,-0.3330230747329952,-0.8344950759251767,-0.6366438483895207,0.4021001152166257,nm,0.0
37.1448028087616,23.525398862439474,18.620445336747377,36.84605088123344,-0.272128969227225,1.0626545489456105,0.32428971886568747,-0.839111004098911,-0.6874402340286926,0.4070659247922437,nm,0.0
37.1487991809845,17.113694793197254,18.299042528942685,37.4942866874854,-0.7025895342623728,1.5001076964939646,0.6752348946620547,-0.9198053655047005,-0.7947572286025946,0.4519501786550263,nm,0.0
37.158451318740845,9.990067379682001,17.967994342397994,38.24550518494798,-1.0764613218851316,1.7293711188310275,0.5008122609762775,-1.0166765598440666,-0.892548898758419,0.5175892756172181,nm,0.0
37.18443250656128,-4.272084363915775,17.75847613871504,40.02317658443179,-1.8955145101610789,2.3973238532919754,0.5325487973906076,-1.0417513003934076,-0.8857012039082203,0.5840442477920574,nm,0.0
37.18634557723999,-11.597803544056164,17.819393594061232,40.77528992883617,-2.0901898169158506,2.1898335100237305,-0.1555464146154981,-1.0587966877487913,-0.9014439347300018,0.5876375158135282,nm,0.0
37.20099353790283,-18.19275376232202,17.92959585390289,41.29004281981776,-2.212595295593204,2.0016903425298933,-0.5770206177953046,-0.9496241114069338,-0.8131743384637292,0.5100844945298535,nm,0.0
37.205585956573486,-23.886466140867007,18.003354934646897,41.3554104259412,-2.3973660398150285,1.855455396837838,-0.8340474377926904,-0.8113735764302913,-0.7089748213822711,0.3826564460688533,nm,0.0
37.21414494514465,-28.700146448863784,17.882217009224156,40.87236430600844,-2.2119093214777372,1.3091983980680304,-1.3070170856240333,-0.6621742886687176,-0.6248041968752973,0.2320416603847492,nm,0.0
37.234527587890625,-34.21488786641531,16.997456503231536,38.42026554823007,-1.635228654182732,0.7578322163071944,-1.4529783898418518,-0.23705669173938437,-0.34453724718902146,-0.12804221170109342,nm,0.0
37.25577998161316,-35.22550223162992,16.40326652453816,36.62069745434677,-1.0004281889796647,0.27018064871292635,-1.4634206620922983,-0.06808967381763927,-0.2173868257866298,-0.2666425234085006,nm,0.0
37.257988691329956,-34.640787802327424,15.865142482546657,34.669324269463694,-0.45265994506009755,-0.005950731851410188,-1.3218676282075705,0.1674773822105663,-0.02785646916458531,-0.3859554339260194,nm,0.0
37.277838706970215,-27.684735494710385,15.216344054630973,31.144651266890243,0.6184929739707575,-0.6632144600901493,-0.8384908127108224,0.8025728056140105,0.4291035430530849,-0.5211848056285328,nm,0.0
37.28714036941528,-20.07345582617768,15.195886244854204,30.011079738557374,0.8836515442799995,-0.12798257109196814,0.7137428919268619,1.2821411287409026,0.7347655987403543,-0.5805650454258005,nm,0.0
37.31024694442749,0.9419152155620556,15.614991393898356,29.181573290880355,2.3846373909035905,-1.27155209126068,3.1185972753404,1.911051371055713,1.1134498916083533,-0.6075439596186637,nm,0.0
37.3135199546814,13.01581917072135,15.797085924300099,29.40111975290624,2.88955726575708,-2.2122294593596603,3.5626324266637552,2.023683191991959,1.1602026968149914,-0.5742041936048841,nm,0.0
37.33492088317871,33.588179785891214,15.314887973720175,30.346242373204365,2.163452554999778,-3.166494863305822,1.127734134979849,1.632930155445543,0.8510563889049202,-0.38176964234539396,nm,0.0
37.34280800819397,40.57699856636931,15.025780431180056,31.07397763247931,1.4881487574542185,-3.0873277155025765,0.17038522791934402,1.1971401630653562,0.6376784123719846,-0.23339626567526026,nm,0.0
37.36477255821228,46.40437204643871,15.40917459189216,32.538037115473514,0.5891506266640706,-2.2052318822227783,-0.8724631075366944,0.23662663426801064,0.23246953473816723,0.04573349100174662,nm,0.0
37.392067670822144,43.76787939150855,16.952618142231834,34.121023680555325,0.48441991892680913,-0.8991136570698346,-0.6930687202018634,-0.4352341791502044,-0.0949637823342979,0.27080468894573556,nm,0.0
37.39387011528015,39.9535482853763,17.65079362426905,34.94715040772589,0.417980966913933,-0.17523753075610354,-0.45775191872187493,-0.6734109978186845,-0.30159085627838667,0.3472886256561828,nm,0.0
37.39911723136902,34.6317073922105,18.16712119286787,35.855581764596224,0.36884820326963635,0.44981636929974705,-0.07659633648784339,-0.8781289282313405,-0.5088529477141804,0.43016385178854716,nm,0.0
37.42579412460327,20.25098183706595,18.879061758476585,37.77470310104808,-0.32098435634797445,1.3588448454255164,0.4627572424311388,-1.1623479653868867,-0.8338103657199277,0.5816785184331608,nm,0.0
37.4278359413147,12.031683212746675,18.93724279940013,38.494546417284475,-0.7417477086745282,2.0857799879809513,1.182719237520714,-1.2198189272339974,-0.9602527218535888,0.6140159172942671,nm,0.0
37.437076807022095,2.829402123936539,19.028720001353246,39.088325333788646,-1.2993267893769376,2.5815249569196363,1.0691055786489312,-1.3566729935741344,-1.0852813246811148,0.6684345922042437,nm,0.0
37.44729447364807,-6.639239604352157,19.22974010160935,39.5640066094696,-1.8565079393338024,2.917022919516864,0.7826395392950618,-1.3977098085115365,-1.1115598999520908,0.6796520418109607,nm,0.0
37.45201349258423,-16.090337168454294,19.35136487473629,39.988458723349275,-2.315556086347537,2.920849403757207,0.06386939872166926,-1.373894995562913,-1.1315816557150566,0.6713574245298687,nm,0.0
37.477471590042114,-33.11659735535384,19.224417616350028,40.01733364919026,-2.2921260760986444,2.00608038815126,-1.1419051632150234,-1.1110330662796049,-0.9750852828890432,0.5134513315280548,nm,0.0
37.48105716705322,-39.22271661521041,18.97533168776951,39.54874748203175,-2.2598982765502345,1.4250065350567704,-1.6725059857199127,-0.8436982251471423,-0.7799630003220386,0.3529425566728865,nm,0.0
37.49121713638306,-43.85514223981926,18.46472296237268,38.849012168642865,-1.898800248357806,0.7061083772280538,-1.9930269473526172,-0.6037307236812177,-0.6369437322629763,0.20786781791120923,nm,0.0
