timestamp,roll,pitch,yaw,acc_x,acc_y,acc_z,gyro_x,gyro_y,gyro_z,acc magnitude,gyro magnitude
0.0,6.015763695668612,-4.868580066323882,-22.52090342115989,-0.0905799786612892,-0.00174700861405,0.0232967544063454,0.0,0.0,0.0,,
0.009504000000021,6.045248019179297,-4.941622249325151,-22.603770683317777,-0.0892498340306662,-0.0046401620410489,-0.0110715246621988,0.0,0.0,0.0,,
0.0190000000000054,6.083454095713726,-5.036837233807624,-22.73736368667986,-0.0981051445186807,-0.0095734671261259,-0.0126501260169572,0.001937859516879,-0.0426059847773894,-0.0341238365186743,,
0.0380470000000059,6.231114253720748,-5.351579017111982,-23.087948393630093,-0.1078622195314374,-0.0172047265392795,0.0159302161941203,0.0062601769524075,-0.06266827164099,-0.0466901250568436,,
0.0475460000000111,6.355144747427365,-5.528842034600297,-23.32883122075817,-0.113631597064098,-0.0124120965505,-0.0159347300114682,0.0115253037643283,-0.0679399379431122,-0.0540202839911036,,
0.0570660000000202,6.5083878553482,-5.74787029972609,-23.62968521031664,-0.1118111989787034,-0.0127977028238863,-0.0162776682731813,0.0134561902967142,-0.0776028689036669,-0.0630008896225418,,
0.0665740000000028,6.669185220323644,-6.020265466424728,-23.97902662252313,-0.1156083461958255,-0.0272848123057156,0.0499570743167944,0.0129801176128528,-0.0872206188293678,-0.0725509760525741,,
0.0760840000000087,6.854997128323493,-6.310998794385786,-24.32573162313127,-0.1163057070585359,-0.0274387047570446,0.062453228266667,0.0156098420788071,-0.0925013858931992,-0.0804497529127598,,
0.0855780000000265,7.067822251591343,-6.634323006960915,-24.69620324754494,-0.0952462082886039,-0.0238764369683274,-0.0165795959206609,0.0170979631837393,-0.0980545392768432,-0.0867776311346391,,
0.0950940000000173,7.302117555474049,-6.988451865500095,-25.12006664879988,-0.0811237900445418,-0.0258657823669458,-0.0151270725832104,0.0182788958559186,-0.1024366570831716,-0.090086068987438,,
0.1046150000000238,7.547290459097103,-7.358500992644649,-25.529841888034014,-0.056623372955178,-0.0377962968386988,-0.0123112099724937,0.0209062711082406,-0.1009098575538815,-0.0896356549787832,,
0.114134000000007,7.82077307107538,-7.695254130833395,-25.91442613101735,-0.0307067038061843,-0.0499309184929975,0.0429086163433635,0.0292136729567734,-0.0931417193112484,-0.0847921541163631,,
0.1236379999999996,8.118982086424705,-8.005081607312428,-26.282511143016915,-0.0310080093646811,-0.0467380283978638,0.0505361862048141,0.037927197272134,-0.0838088691599053,-0.0770936181292392,,
0.1331430000000182,8.451536470886554,-8.297250117243928,-26.5975391194556,0.0326736182995802,-0.0688110702594067,0.0340154289237566,0.047809803301931,-0.0747403818302128,-0.0674410227472109,,
0.1426620000000014,8.832144158721572,-8.56484454813386,-26.897725034277293,0.0624595516187728,-0.0632563486013433,-0.0198409056903743,0.0575787427573473,-0.0676645645425209,-0.0575388869784735,,
0.1521700000000123,9.234803570707983,-8.798136249920493,-27.19179696860115,0.0533068392019943,-0.0604189854081194,0.0067779775191567,0.0630958031167862,-0.066064587612148,-0.0507078710764936,,
0.1616750000000024,9.659171114596038,-8.974589291670295,-27.45768945184909,0.0324110447063323,-0.0280167572625084,0.0655664296199703,0.068707054608274,-0.0653093680347997,-0.0471973575290671,,
0.1711910000000216,10.095362728981495,-9.05507190781835,-27.713438689103576,-0.012240218237828,-0.004652339229757,0.0544174779528417,0.0751179047097204,-0.0578981356604776,-0.0469782329483021,,
0.1806900000000268,10.559659085263158,-9.04670200870678,-27.96142995588692,-0.0430118465285537,0.0143694025654516,0.0334835147426265,0.082707176864071,-0.0525145464865288,-0.0491483206161549,,
0.1902040000000227,11.01248507913887,-8.970319914016544,-28.229958087068727,-0.0697305880159127,0.0269445112643669,0.0363779802992827,0.0825294897419933,-0.044646013113158,-0.0535405880615575,,
0.1997120000000052,11.404539543413849,-8.813383988547653,-28.53283097360657,-0.0903879581014696,0.0403565843399058,0.0234269632441578,0.0786568254479665,-0.031003783415919,-0.0586010293976142,,
0.2092220000000111,11.79062900050401,-8.625344559432001,-28.86855348591556,-0.1102948799523829,0.0411938022113445,0.065556868565291,0.0778846979105846,-0.0272977115053454,-0.063917276070889,,
0.2186720000000264,12.13770447491891,-8.556606059645224,-29.22627541057168,-0.1081947387108949,0.0329106385583046,0.0967220994695857,0.066762740927931,-0.0212992119774176,-0.072202879964354,,
0.2282470000000103,12.411098605778196,-8.377812783385362,-29.639134607171144,-0.0866004825616985,0.0369571433297756,0.0353942994957326,0.0556257717131049,-0.0132893504276136,-0.0821277990618124,,
0.2377560000000187,12.68733854759867,-8.23294768155548,-30.10713929682664,-0.0837374133160121,0.0377804431489936,0.0286100313057451,0.0494117148828716,-0.0176685058516416,-0.0952423773869919,,
0.2472700000000145,12.941367693645375,-8.167408802508412,-30.659762253132023,-0.0586440574137644,0.0347646122672378,-0.0097844524218247,0.0391964115387443,-0.0259287764911746,-0.1122944467799389,,
0.2567820000000154,13.202971065994198,-8.13350807061487,-31.26771689920103,-0.0665662149228007,0.0297860833107964,0.0288017721470747,0.0388451647899432,-0.0336138489600431,-0.125566242885431,,
0.2662820000000181,13.47649950101656,-8.140617178765764,-31.92227670344875,-0.0650753756528405,0.0299785092474908,0.0276221538168156,0.0382978845870778,-0.043256630836225,-0.1340470021224012,,
0.2853139999999996,13.971594820680538,-8.275422802168737,-33.12636625226751,-0.0386893481429692,-0.0423149909174755,0.0637793038138112,0.0386326516508199,-0.0502279355042967,-0.1186587497276763,,
0.2948170000000232,14.188242616240125,-8.31996436116991,-33.5639301715185,-0.0308865492236569,-0.0367656392444037,0.0369960514629086,0.0381906101458103,-0.0386332369783566,-0.0929669569503587,,
0.3043410000000222,14.298380429713692,-8.400699400306268,-33.85739815832992,-0.0297810772578958,-0.048172668954288,-0.0142696039016055,0.0218695059036031,-0.0308646728950597,-0.0652319375664168,,
0.3138430000000198,14.40945817682889,-8.546846180697694,-34.02305719823801,0.0057292488345717,-0.067052890166619,-0.0072542088364278,0.016751627060665,-0.0345951763482941,-0.0338209029269051,,
0.3232959999999991,14.544756334372323,-8.6558481493495,-34.02799069690103,-0.0353924775921321,-0.0171516334974109,0.1296303038912399,0.0,0.0,0.0,,
0.3327950000000044,14.630683693221767,-8.8153445157747,-33.96073234640442,0.0069573109319408,-0.0390011612960372,-0.1776961228134287,0.0,0.0,0.0,,
0.3422840000000064,15.041679775462836,-8.934037372724555,-33.84640918762148,0.1603298389518754,-0.0664887469052839,-0.7990055780030528,0.0542493478918432,-0.0650585662279262,0.0276669621621994,,
0.3518190000000061,16.287421874450498,-8.796233121828877,-33.66332704010087,-0.0189351038913478,-0.2739220708057912,-0.2631041907793313,0.2202723971422946,-0.1139268766292144,0.0676956076626498,,
0.361327000000017,18.21582218556272,-8.425252202971784,-33.47101584250668,-0.5852486517065922,-0.2712129545678891,1.172840058956642,0.3592332645364978,-0.1490376461881564,0.0862160194286792,,
0.3708300000000122,19.63967959578075,-8.510965020142422,-33.563885207953234,-0.4345299616462076,-0.0164567647528527,0.473391400696772,0.2257614339555343,-0.1698281070954796,0.0041373612006614,,
0.3803560000000061,20.16465739247776,-9.27164766626187,-34.067464518337935,-0.2574116248475826,-0.0302234365630068,0.0222213332709142,0.001740329132542,-0.1843378036707014,-0.1121310842017678,,
0.3898709999999994,20.324391837824088,-9.97894015008474,-34.70150392734711,-0.1999190430313016,0.0448248088415041,0.0256164056832238,-0.0538190874936757,-0.1347388954381448,-0.145279257345488,,
0.399390000000011,20.08881392577385,-10.266566821150134,-35.25443007465767,-0.2128320948445537,0.1828295760462286,-0.0123447491162203,-0.071053382902547,-0.0206074169568581,-0.1310604551335975,,
0.4088950000000011,19.6863547281011,-10.534553048487348,-35.708399045949335,-0.1469549043438343,0.0924952054061634,-0.1841815917444241,-0.0956877903573338,0.0023106528334408,-0.1054418141071983,,
0.4184660000000235,19.542028988685058,-10.919593661323187,-35.86962929529455,-0.0678676559064158,0.0222136447064732,0.0493308932213822,-0.0681178322366982,-0.0459340566768082,-0.0376600904420558,,
0.4279280000000085,19.347333599043854,-11.467834228307582,-35.66194433297022,-0.1514717192872671,-0.0240701181960625,0.1277217465598771,-0.0951882046623524,-0.0667195178310341,0.034016125573924,,
0.4374810000000195,19.146862389154137,-12.45590680236595,-35.173130160438504,-0.2499877422034868,-0.0457700527565477,0.0534386920507085,-0.1466539479248907,-0.1384708729787926,0.0895531706388813,,
0.4469250000000215,18.92465416097543,-13.640188521199248,-34.32318200797611,-0.3017691429870848,0.0316276633734878,0.1563218542685637,-0.1706596315621841,-0.1702395508624747,0.1456909272984871,,
0.4565100000000086,18.371708760509826,-14.601331876765466,-33.240340040606945,-0.5481797360375907,0.211130951286792,-0.1073085559824747,-0.1961927796065153,-0.1003545158429547,0.1777346554164128,,
0.4660230000000069,17.76067794724117,-15.61937898460774,-32.25938443004381,-0.5276956292536287,0.3330719979756713,-0.1744567524855924,-0.2095799798499298,-0.1075959743814349,0.1583363145125799,,
0.4754410000000177,16.887639592017614,-16.550091331405746,-31.46670454215493,-0.3850592543716132,0.2468665015913041,0.1490806667445246,-0.2410006380027101,-0.0696843617757291,0.1025460708571773,,
0.4849760000000174,15.847628990382283,-17.132658817776818,-30.804894457536072,-0.1719245365316281,0.1646343725356422,0.0697223894906977,-0.2309062137580609,0.0031506465426919,0.06563504178253,,
0.5039820000000077,13.630571078079008,-18.92104813429896,-29.67597958008136,0.5851198783610674,-0.0281778058485642,0.0586703076615126,-0.3076386687962441,-0.0757925190350608,0.0260357340265739,,
0.5134720000000073,12.400781669614878,-20.27771156650472,-28.797188445801464,0.6669807331195284,-0.1072661527087708,0.3787072058463836,-0.3350125769710543,-0.1239358813176431,0.0790580456547734,,
0.5229960000000062,11.092639821149426,-22.0377810664547,-27.473642580250345,0.6208658840827688,-0.0324667922830928,0.6435409992360097,-0.3814783087641156,-0.1957788511737439,0.1577845682441051,,
0.5324990000000014,9.49012458035154,-24.338794086895632,-25.55322759889847,0.5545589917694188,0.0350672088381402,0.5613196293821148,-0.4693243672974465,-0.2810364455615384,0.2355354615391629,,
0.542016000000018,7.682877266186234,-27.02431352870277,-22.96643132259967,0.3673341342048805,0.1688422075887092,0.28916759680847,-0.5177989766265205,-0.3568697632220713,0.3312388929528711,,
0.5515430000000094,5.714796144076461,-29.88353239628515,-19.768042296296265,-0.0523205967229439,0.4479087818443919,0.1626905772510285,-0.5307136732925151,-0.4075760932043584,0.4220058221573876,,
0.5610460000000046,3.420418634157277,-32.74394626814948,-16.0727055238392,-0.4891249053264127,0.6048386232155014,0.1960281775139818,-0.5490299367842502,-0.424981656973797,0.4652462236554825,,
0.570557000000008,0.9729053586276322,-35.24136332821669,-12.042662528053548,-0.5320877738728904,0.5999815061851846,-0.023306505337788,-0.5149505386151587,-0.3872310748903883,0.4927264977800341,,
0.5800590000000057,-1.3859595309879578,-37.25758851114573,-7.9305744342180065,-0.5342996132673229,0.6388881428714891,-0.093715223420595,-0.4446878409798616,-0.3321150870041276,0.5124162805207726,,
0.5895880000000204,-3.701539462789909,-39.134679352885264,-3.869465975319797,-0.228438001862555,0.5238160879567686,-0.1453129575672488,-0.4007591564213674,-0.3367669659684558,0.5040019096976797,,
0.5990880000000232,-5.967269639790898,-41.03397815630686,0.2278106223471108,-0.1084917949366178,0.4396041971066782,0.1692050344584132,-0.358677017386613,-0.3693772275862962,0.5075592218741937,,
0.6085940000000107,-8.308705783699427,-42.958742113118106,4.577436565825106,-0.0694248180394024,0.3694991957027612,0.4629815170018675,-0.3314743392517629,-0.4000460019631963,0.5291087378925301,,
0.6181050000000141,-10.907323500189788,-44.90944342477013,9.358216292878774,0.0415895079931455,0.2994046746434411,0.6000029498081298,-0.3240464489693819,-0.4335107061932161,0.5692312237879716,,
0.62761500000002,-13.916053239105151,-46.850528362415815,14.749889973535886,0.0997750336894729,0.2493872491659445,0.4573161132720308,-0.3285503527538598,-0.4679416675950382,0.6255500572518171,,
0.6371340000000032,-17.60609455452612,-48.81166746029132,20.963074809454337,0.0480471029368149,0.2083409830439709,0.1554273917968431,-0.351170161023701,-0.5261312338630683,0.6722688479829391,,
0.6466570000000047,-22.141025016178663,-50.61430717144409,27.860876085856763,-0.3577781530190892,0.1257005018660901,0.0754727013080369,-0.3854913619332967,-0.5711776783326032,0.688044782541636,,
0.65615600000001,-27.06749530034628,-51.78193439454986,35.115050328062274,-0.7073436039643262,0.0877272763305483,-0.0015481323179257,-0.4049644572168374,-0.5220756727971063,0.6833456322769852,,
0.6656540000000177,-31.83919317584328,-52.116371005670366,42.06210158362951,-0.4653116717308008,0.0731796970815437,-0.3675234105022558,-0.4184538622190978,-0.4195710357169828,0.6383170920164084,,
0.6751830000000041,-36.39347713650361,-52.03089975799843,48.584775216947335,-0.348472898845933,0.0393431834839151,-0.529639548384343,-0.4061495316115548,-0.3864806677740122,0.5864498798826259,,
0.6847080000000005,-40.919029407492175,-51.852826320925686,54.89187751743621,-0.2486789680911922,0.0858372720371452,-0.3521257978612276,-0.373799608135775,-0.4164731386395972,0.5491107361135621,,
0.6942410000000052,-45.04128900290092,-51.33456620005741,60.733724398453,-0.4120577567905109,0.0863810686722797,-0.0138538531171494,-0.360846451897241,-0.3786420161832672,0.5226804205938657,,
0.7037450000000263,-48.464656231586815,-50.36924665117832,66.03534171017398,-0.1274896614163841,0.2185104042242437,0.079459809400767,-0.3665729147101773,-0.3002794164214307,0.5297724551018005,,
0.713232000000005,-51.43302018128506,-49.10363039915295,71.16206583480329,-0.0174965518000973,0.3523958020384676,0.1288570192476599,-0.3760285584266455,-0.2651626869363102,0.5728050066031308,,
0.7227400000000159,-54.45800327676948,-47.69125940793236,76.49504515744405,-0.0639488150579013,0.3870738680158715,0.0798125988241095,-0.3835305058616706,-0.3074667380758361,0.614691780907365,,
0.7322800000000029,-57.65854789317213,-46.11618604759236,81.99316768982312,-0.1824019235357469,0.1732000379959334,0.0317879230469523,-0.3914480269111631,-0.3712821787115976,0.6326789963766214,,
0.7417410000000189,-60.38847569540408,-44.26524100268297,87.2431134331694,-0.2706408468901051,0.0166242022059007,-0.0668550356827898,-0.4050446115401137,-0.3487602436310154,0.6631446009465239,,
0.7512730000000261,-62.35328408865718,-42.12393852967352,91.80850939607402,-0.3365727030025442,-0.1392400183702574,-0.3151410200433804,-0.4310899252082378,-0.283248929965186,0.6446311942577202,,
0.7607760000000212,-64.0499385803057,-39.936703538357385,95.86765833665054,-0.17492531896107,-0.2108907886140175,-0.4614337069358082,-0.4197961894824227,-0.2850081759956304,0.589563175729949,,
0.7702370000000087,-65.61664390785882,-37.81877630629548,99.59347922421512,-0.1935300465745063,-0.2112705644463978,-0.3836443255353173,-0.3873510386662222,-0.2990315115016214,0.5489605716552629,,
0.7797540000000254,-66.76821441073305,-35.637506497785495,102.7667499601496,-0.1414671005216897,-0.0648675040413435,-0.1639294191591823,-0.3926270726617044,-0.2659760705514936,0.4973624243660796,,
0.7892730000000086,-67.21042438175304,-33.30528442459328,105.41922602194602,-0.0432836894048885,0.1577409969892304,-0.0981101255759818,-0.4351642216431012,-0.1844992833476565,0.4808822641784838,,
0.7987740000000088,-67.3854016500928,-30.94466895724456,108.11043149736564,-0.1018793686761419,0.3224850492354331,-0.1187334991787597,-0.444036788627943,-0.1647410644466153,0.5201204214355656,,
0.8083180000000141,-67.74510797634946,-28.61213810543264,111.1132284546859,-0.2020921677010855,0.2743016216181045,-0.0704532435967346,-0.4189848132100023,-0.2156465124571196,0.565357293746499,,
0.8177960000000155,-68.04270600502844,-26.216244354563628,114.1986371315054,-0.1441286306630464,0.1174841707854564,-0.1484703862575557,-0.422358522992419,-0.2336049512300275,0.5902234712932586,,
0.8272940000000233,-67.97922546102271,-23.74626037956239,117.18040043254808,-0.0558460646823727,-0.1404699918378633,-0.2498656969099426,-0.4507058415878756,-0.2040064152729275,0.6022755912615941,,
0.8367980000000159,-67.43106097459206,-21.26799911202449,120.01436757294258,-0.0449863518908338,-0.2650922789194591,-0.3329313009048938,-0.4842557836464803,-0.1484769957403865,0.6093335324795697,,
0.8463390000000004,-66.56477194808917,-18.782046008472395,122.5490983779061,-0.3814870170615913,-0.5685763295837432,-0.3663150390254766,-0.5100472504256096,-0.1191642288478903,0.566808943826495,,
0.8558470000000113,-66.17024355788092,-16.3934071937511,124.8925441251926,-0.3050220891765958,-0.778335816240175,-0.4181750096191477,-0.4396266893376226,-0.2028719451296306,0.493001413298129,,
0.865366000000023,-66.27995935206192,-14.21254859703796,127.25433704806537,-0.490725505811025,-0.9381151287625444,-0.0058745782788741,-0.3404755347304851,-0.2742465368097648,0.4670159932337051,,
0.8748460000000193,-66.01004321505957,-12.106395369955166,129.3336254197809,-0.7466712437321111,-1.4704517187628348,0.3391757248268484,-0.3635954521514424,-0.2200246907784931,0.4285677072287194,,
0.8843710000000158,-64.90956308824488,-10.134493714554386,131.0911837792924,-0.208589834198877,-1.453817201306146,0.0848409661073774,-0.4411073694542343,-0.089780504941155,0.3943491144816173,,
0.8936990000000264,-63.36608420823399,-8.583574429789808,132.76361995265688,0.6073975380205147,-0.7416725951835913,-0.678223315282453,-0.4347853749678677,0.0193968304514154,0.385067004381249,,
0.9031970000000058,-61.64660524801725,-7.567200158494074,134.21380628468785,1.1961470557180556,-0.90585272871527,-0.5507531076307491,-0.3822276861474287,0.107272307087506,0.3386823332082678,,
0.912710000000004,-58.8368377423723,-6.999109696413335,135.18796054581705,0.941685217376974,-1.248758347673164,-0.5602751157239796,-0.4733652441491925,0.3166658797665929,0.2663195086606021,,
0.9222660000000076,-55.5066369979008,-6.630745213011558,135.1394303890202,0.909724154068194,-1.4926530271676073,-0.6569548908382773,-0.5214780773100961,0.4145258283546834,0.0694109017750235,,
0.9319100000000162,-52.145113261041416,-6.3277995240011,134.0450463502278,0.615067697217289,-1.143493877914182,-0.1767521587476796,-0.512692378641848,0.4336558003802379,-0.1430911252336758,,
0.9414250000000096,-48.16950227545018,-6.006951335761498,132.3097279862534,-0.2622178900954338,-0.7134323364670668,0.2846130490320958,-0.5883721102321445,0.5331813871591693,-0.2617693330345393,,
0.9509330000000203,-44.17852860655872,-5.815686709193495,130.61500857527594,-1.1345580480979542,0.0765532549308729,0.6873138449949342,-0.5549882694225333,0.5702989274068784,-0.2568661985025756,,
0.9604260000000124,-40.50100543330304,-5.543188018469177,129.31431063880547,-1.384647615058598,1.129834889219799,0.9895613937177116,-0.5124465923227406,0.526547005689656,-0.1874540047367966,,
0.9699510000000088,-36.37463308218688,-5.21856171797665,128.89424712342347,-1.3411384549165908,1.337372287674353,1.0787685001346556,-0.5692335543719229,0.59732361003147,-0.0065861523345261,,
0.9794510000000116,-31.77518678191053,-5.584880499296615,129.9829988341831,-1.4853936718710952,1.01704487209111,1.2894990361492962,-0.5258148546046761,0.7546684771042163,0.3045554840562712,,
0.9889720000000182,-27.43105970848601,-6.610519454514274,132.27271903015003,-1.4551830290001586,0.2831979704469223,2.109105406450008,-0.4142975522041519,0.7865656279852612,0.5505868858635725,,
0.9985080000000152,-23.63673172329852,-7.762714696063401,135.08144374088053,-0.7526927271621966,-0.4302347872739279,1.959403454055208,-0.3537963293474017,0.7045207037038815,0.6571526513201031,,
1.0080130000000054,-20.61869278045415,-8.971931057714029,137.95525042521328,-0.0149728885555756,-1.2015548603277386,1.8546617546973296,-0.2672754842620214,0.587133891668317,0.6631446280597304,,
1.0175160000000003,-18.66331694337228,-10.19190121790375,140.45747159365146,0.4577147872153519,-1.352108553832727,1.523507215603218,-0.1327120447881338,0.4371915666529929,0.566069265533928,,
1.027035000000012,-17.61543169896499,-10.97401802815231,142.23405344532807,0.5887780569813067,-1.2244289535009811,1.2465681446665855,-0.0632535349778717,0.2511339773143639,0.3942054115659159,,
1.036566000000022,-17.390913289963915,-11.280819694372417,143.28773357081715,0.4526508728523964,-0.9129384575207604,1.0130197863931574,0.0020576410639502,0.0756025690120254,0.2196297788144836,,
1.046075000000002,-18.10339035801848,-11.600217066946149,143.96448413544132,0.0605879138995356,-0.4466307637605391,0.8061939048532106,0.1505061260324299,-0.0314281200442015,0.1071921625614631,,
1.0555870000000027,-19.84043174104209,-12.173966462351611,144.68309856563096,-0.3366557132887874,-0.0681568864565217,0.7602316014132848,0.3434628234163055,-0.105174008928777,0.0722179320817758,,
1.065101000000027,-22.720178891135085,-12.99563657677203,145.7844142324593,-0.4351538306061484,0.0608338694514498,0.3849086019177525,0.5560855898521618,-0.1857695083411815,0.0948100884287244,,
1.074622000000005,-26.7956916491002,-14.28371002985577,147.5794044732267,-0.1908142343821195,0.0108790839623156,-0.0060354711535537,0.8042809364021813,-0.2201630773762763,0.1667766336431348,,
1.084142000000014,-31.85421103630636,-15.972799090465085,150.17084749213558,0.0703658535238915,-0.3074230831102766,-0.1550043988284314,1.0117221386653912,-0.216075401572986,0.2541297724786776,,
1.0936300000000188,-37.69600589831671,-17.496054218258113,153.21868899509778,0.4013833664034412,-0.3891940273988866,-0.6225868960064085,1.1307150930627887,-0.2628271874547586,0.2728748822919806,,
1.1029510000000189,-43.84538848354415,-18.61940174435589,156.42805683283743,0.5379359262232492,-0.5274305684713207,-0.8807417434399617,1.1549840041673314,-0.2946032066561601,0.2602924191878503,,
1.112470999999999,-50.16310090095705,-19.367211899055327,159.674935487615,0.2671133711564856,-0.2401643778729673,-1.106724601165161,1.1652676338176218,-0.308290239048484,0.2377555969803194,,
1.1220870000000218,-56.36560157575143,-19.651680621502404,162.7697811038886,-0.066941212281317,-0.0595842764821231,-1.1035482478816985,1.1265448677552916,-0.3228901032461277,0.2043283081448655,,
1.1314880000000187,-62.38871246433104,-19.6842456204012,165.72195809108072,-0.3213744860001332,-0.0700406155139027,-1.121871904500657,1.0940516774206408,-0.3042513508329538,0.2314971751410512,,
1.141007000000002,-68.5035020971138,-19.68003809567635,169.12684064348977,-0.4787501680965836,0.0504788064570968,-1.0718193504359237,1.1243243627776327,-0.254374811479663,0.3218068124693909,,
1.1505170000000078,-74.42928332393029,-19.528107165740906,172.83521146530833,-0.4022155769175813,-0.1799375431473578,-1.0619213858543688,1.0985473237695331,-0.2081021985158423,0.4045728359952187,,
1.1601020000000233,-80.10035126007917,-19.16643969506481,176.6807736939041,-0.08707194555634,-0.346125981127951,-1.3076743173203664,1.0597917957928775,-0.1727671933841731,0.4552785498137423,,
1.169622000000004,-85.7640352516845,-18.600290759007475,-179.4017809813145,0.2484824359737693,-0.2834462857639668,-1.3713440919748774,1.069576184789258,-0.1416930924230103,0.4814838983747401,,
1.1791190000000142,-90.9715676320559,-17.75829698380822,-175.75778994567003,0.3840784586752828,-0.1712858790769179,-1.3876223803980312,0.9964827016309606,-0.1293388845697333,0.4700466060319456,,
1.1886360000000025,-95.70648797185528,-16.61125379409663,-172.62276504308397,0.3741497441591386,-0.1666722452539334,-1.407008171572657,0.9239178369528842,-0.139181681972302,0.4099971090987999,,
1.198061000000024,-100.16648627408644,-15.117890094402298,-169.86573618661015,0.1133236304295334,0.2501964413009533,-1.118347687412633,0.8939987328454728,-0.167102703824347,0.3717827548944865,,
1.2075690000000066,-103.9047947930814,-13.21525463307937,-167.37263807570312,-0.4437323678459113,1.5256598918760296,-0.4236115303470346,0.7860058600947366,-0.2322225282467075,0.3773357355340963,,
1.2170890000000156,-106.3990910023457,-10.931457162517312,-165.16553725211045,-0.518959969030145,0.903164349879056,-0.4470318432492624,0.5821348765980835,-0.3296719543286383,0.3948834108632669,,
1.2267730000000086,-107.27877975556504,-8.379845959592318,-163.15310636761424,-1.25347860401933,3.0301989694919893,1.0283423036912178,0.3054472043242272,-0.4448300777940953,0.4282956712542958,,
1.2360980000000268,-104.12449702222204,-5.898929170375164,-162.12014078268405,1.1220938673230083,-3.1768225200205964,-1.3650165676003536,-0.4514470120902419,-0.6599924703372881,0.337608964652912,,
1.2551320000000032,-96.49580737464768,-2.3992275698670205,-157.80807406663678,1.296272633317807,2.467977984054448,0.0013617967943354,-0.6059051078824809,-0.5348394782689595,0.7856684990601419,,
1.2646260000000211,-88.6629416603495,-2.131272465395569,-156.7081023408751,2.180241631121091,-0.6021783574140702,-1.3193428533328757,-1.4265119009107683,-0.6509576722542697,0.3501214847501694,,
1.2741320000000087,-80.23563323596943,-2.920652714623388,-159.5321789937567,2.2744141965741256,0.4586884514329972,-1.83779556905685,-1.6245011131490503,-0.4771577058761908,-0.4241744764444169,,
1.2838400000000263,-73.15387291734415,-4.549799489804739,-162.82964979393063,0.9623049265754596,-1.39728380487312,0.0764975167968725,-1.4449700466308435,-0.1432782255703242,-0.4904748066374276,,
1.2933510000000012,-64.46618699819618,-5.950793491613523,-166.22307946193484,-1.4213034046872597,-0.9970530947385704,0.1206613358074419,-1.7449084274711897,-0.18566541550151,-0.4312532773495272,,
1.302847000000014,-54.6554770494615,-5.808017213807438,-170.40240379464865,-1.9626959525689192,-2.299164057070485,0.9349044857825648,-1.910596725358991,-0.4110181446284929,-0.4803657037198837,,
1.312375000000003,-45.72940817281898,-4.519622883208594,-172.58456536558498,-2.335066022114171,-0.5412650509470057,0.4187227322073791,-1.7235515340261225,-0.5138523083409599,-0.2209501507004802,,
1.3312850000000085,-26.234000940919326,-2.0667416380506745,-164.67779707824457,-0.4236272600136012,-1.5420132374056268,1.339187550046922,-1.900719614497616,-0.7049218089688536,0.7149049072846441,,
1.3407940000000167,-17.50751446638361,-1.3637775962519638,-160.79464726468606,1.1458845679616352,-0.3799721667455707,0.911969467543302,-1.6264746789439004,-0.6525925559787015,0.8282260464920628,,
1.350404000000026,-9.33623727401151,-1.7004287960419378,-157.23989409019055,2.179237381210668,0.3815354916456934,0.6929797819973789,-1.5514403464035065,-0.5229181867964157,0.7542248414961475,,
1.359921000000014,-1.1857199841217674,-2.503434012023587,-155.19819886293735,2.532262522189491,0.3367322998573556,1.336381470114172,-1.5572210271170406,-0.5107829682301728,0.4679233693093193,,
1.36943100000002,5.869630623262383,-2.185927893117117,-155.23183259086093,2.1137612486781494,0.8268692222408371,1.0472124657577246,-1.2548500117300945,-0.6493574263057929,0.0510683003813884,,
1.3789500000000032,12.53435409012481,-0.3896603843879053,-156.9624854134862,1.4165363338338843,0.8954764710048111,0.3818226375492514,-1.0742107844867133,-0.8690519418556871,-0.3160813635729745,,
1.3884470000000135,18.871121810827947,2.2406218337385937,-159.694290835137,0.4277024569896108,0.5595521952866883,1.0039195870453914,-0.9848673711944927,-0.957538921455704,-0.5667775270937745,,
1.397958000000017,23.183005512348213,5.264491571390852,-162.59989659993707,-0.399316119306971,0.7146560165780155,-0.0456529224285287,-0.6199041013125911,-0.8512197559939674,-0.6378377575072466,,
1.4073940000000107,26.760616359763613,7.970229785709742,-164.9450138997109,-0.2318819383834688,0.7839662367462209,-1.5009389634718453,-0.5319788009256785,-0.7189295701008444,-0.5518401198317665,,
1.416825000000017,30.8630576855862,9.390320535881514,-166.48983236379027,0.2371019295189521,0.8476651375467568,-1.0522396069713025,-0.71684935153656,-0.475781294563164,-0.4331170370737889,,
1.4263190000000066,34.44281524169491,9.157536485006,-167.36245735877182,0.7458010113011642,1.2268268175717454,-0.8413851320117053,-0.6996085044949967,-0.1146271102056088,-0.2901573162029787,,
1.4358310000000074,37.75665136971161,7.755856827291543,-167.4535062755809,1.4524359852325694,1.536580697797323,-0.7664460452456519,-0.7016940863429987,0.1307461616068756,-0.11579410890359,,
1.4453320000000076,40.91833344631974,5.738417498395704,-166.797003881149,2.0032382041791363,1.914203514265308,-0.0673017218125411,-0.7028687850222065,0.253599187231565,0.0570238381950685,,
1.4548530000000142,42.95555460618042,3.658909836273802,-165.44771134643952,1.7696328598757112,2.190163926632978,-0.0379746403567059,-0.494545575470422,0.3066612707986796,0.2366790966348315,,
1.4643520000000194,44.08551025406324,2.262754131723652,-162.88724460820774,0.7214732979089908,2.0994725303338755,0.2010799859875749,-0.2936582280047977,0.2072891349536091,0.5009055750756826,,
1.474047000000013,43.84312750337884,1.859520130919074,-158.85583131975488,-1.0052629741968906,1.8091946785683304,1.0928656613086636,0.0193789880755613,0.0921679313921009,0.8088636160957936,,
1.4930490000000134,37.96290448261374,3.3047935560484305,-147.61324341531602,-5.720095504972106,-1.5433944582599115,2.767056221194713,0.7520509917018654,0.1565951712450894,1.252013860535656,,
1.5024010000000203,33.313334286805386,5.762987911017537,-143.32205122739197,-4.013359020425477,-5.63112574092314,2.412329176328631,1.0437456671251415,0.1208915044936413,0.9321161084042968,,
1.511905000000013,28.425953591925342,9.660056364021289,-146.3139382229145,-3.0371926849972746,-4.135471481052454,-0.426085591596578,1.242115099365998,-0.0785257149055541,-0.4671000937133653,,
1.5213170000000105,24.331268487714205,11.494743168840897,-154.29419485184516,-2.626059523506516,-2.7360857723725425,-0.4169851835808765,0.8825714451365686,0.0803715815119751,-1.4464246674068766,,
1.5311030000000017,18.30870607721084,10.133854358396432,-162.66990845392854,-1.9149856153477287,-0.198030561531583,0.7030858627426384,1.0032090079048068,0.6874142790344485,-1.431753328780032,,
1.540442000000013,14.626599195582244,8.95094148191769,-168.5442827605876,0.161775796021926,1.2887407902510883,-1.254297043447449,0.6461162005281598,0.4093810182094674,-1.0240816601096605,,
1.5501410000000249,14.0964139401909,8.507171635928596,-171.24953307212058,3.117564753931584,1.3091609045095591,1.0921932618033547,0.0879153500719101,0.1057291572499423,-0.4822027471354964,,
1.559467000000012,11.873941608443902,8.720438798940313,-170.7330758153236,4.909641439298713,2.378112989310917,-1.110535549765771,0.4413005285232214,0.025751546476896,0.2205363770935189,,
1.5786670000000242,9.491016559660514,14.674836498117168,-168.53160202522287,0.9668219427611966,-0.1648148437185635,-0.1868295122998434,0.5530279931199724,-0.7226079083327375,0.2565895798593945,,
1.5880800000000193,7.465411026190276,19.4150533603874,-166.9063968728965,1.6237020489454204,0.7661770060691598,-2.988436869316096,0.5806733882052103,-0.8450068581102015,0.4502807922041615,,
1.597582000000017,9.163487657550126,21.39998109133732,-164.98968155527504,0.8560312033650834,-0.286470729149941,-1.9204842625354128,-0.2133235244568349,-0.4625899475473352,0.2987376700810489,,
1.6070980000000077,10.646532869300724,21.13359192892719,-163.44127411171382,0.2773159149687392,-0.3070367599614613,-2.0602717540281126,-0.2808695630610423,-0.0230636370609142,0.2748617634765461,,
1.616609000000011,12.428997142114977,19.94099384546045,-162.18807249648876,0.9682997159382616,0.3960273876333569,-2.5034638207604365,-0.3893463863385017,0.1308494279142243,0.2133056336496852,,
1.6260400000000177,15.678073628918815,17.058091264864423,-161.62213351235377,1.3725955504284977,0.4428339590985843,-0.4482874146674372,-0.764066577444621,0.3603945265342052,0.0116480762174818,,
1.6357200000000205,17.915480885891903,12.57824057474787,-162.022277702445,1.2166851165432162,1.1822602669053357,0.6674608984146368,-0.6874601261893157,0.7207140481445196,-0.0699706075044582,,
1.6452400000000011,19.69892100017371,8.764263114137472,-162.25978398491208,1.2091753285988192,1.6566307265892266,0.4276071011864042,-0.565375457715623,0.6217817755197133,-0.0077279814265063,,
1.6547450000000197,21.473173716193617,6.712832408420778,-161.61629099054394,0.8594351376834682,1.465311196157672,1.3198840791051618,-0.4610448600676057,0.2829388119300177,0.1609366381065259,,
1.6642470000000174,21.717688988103472,6.308856940710251,-160.25900435918777,-0.8971450629524512,1.0470594552136383,1.6491881406612838,-0.0721545757860207,0.0608431202522053,0.3556565559580487,,
1.673765000000003,21.12939363213425,7.8162457178158995,-157.78347391738205,-3.358866671759084,0.0154310460683034,2.7673449926840874,0.2165613297448495,-0.2406001637357522,0.5747431796365973,,
1.683275000000009,19.434146875922263,11.367460713460591,-154.40676141714658,-5.314078986154996,-1.6878521482943762,2.6635129816264995,0.593213966681413,-0.5156721097323518,0.7789063324927916,,
1.6926180000000102,16.60707188358235,15.162961734261344,-152.03201621106,-4.220740956739931,-4.108913621545971,0.4734175533818548,0.8336615411443438,-0.4315207720741541,0.6448604053076695,,
1.7021220000000028,12.87173244759052,17.672802871592836,-154.684139910467,-3.6489737249623526,-3.470079358549601,-0.9703907913982108,0.8664016182051092,-0.1283954179547035,-0.2902666855425127,,
1.7211320000000114,3.5931986780917065,14.8819997149156,-165.53731220483206,-1.5236069895985591,-0.3251742440017392,-0.5494691295596025,0.7105864231586683,0.833461550828716,-0.7512587655993209,,
1.7308340000000155,1.502757420222388,11.88020833378572,-169.2779293943829,0.2556216485418906,0.5777169321251003,0.0615056767184481,0.2682310526300243,0.6746677482430712,-0.5913133661980557,,
1.7403380000000084,1.0489976963068477,10.375536997876198,-170.95071143130212,2.671133477123208,0.8935011712593598,0.8929264669221233,0.0368920638527191,0.3120193254476268,-0.2591481780944786,,
1.7496849999999995,0.1812959008271987,10.526401519514389,-169.83002716104747,4.965844609398636,2.3253793507705365,-0.8015267153675664,0.1735035088335607,-0.0016913200030505,0.3128344621335889,,
1.7686960000000056,0.5559330545367847,15.625207370008718,-166.32594631899704,2.457461984130028,0.497894438035827,-0.6431217210778188,0.1981506512801537,-0.720395429454361,0.274671817105731,,
1.7782150000000172,0.5707646681168709,20.10764819301152,-165.17204317560507,2.47939925772414,0.7111280237400711,-1.7280677544896317,0.2188297323861668,-0.8704368740913063,0.2135608321836663,,
1.787727000000018,1.8068490741511865,22.1941543183017,-164.3819818401634,2.083725106979408,0.3138275995927533,-2.085088845032661,-0.1130399046459836,-0.4637119189207356,0.0688423409564159,,
1.797302000000002,3.0916783989168946,21.7590472834917,-164.27650541984644,1.308370382051426,0.374812429863209,-2.329882914888565,-0.253185654295317,0.0199618829750454,-0.0279626052888396,,
1.8067350000000035,5.090805370419346,20.037465234695528,-164.54689189645526,1.6467447290532715,0.7653639964577017,-2.040758803608753,-0.4521602015747227,0.2327999122063558,-0.1311528190511679,,
1.8162480000000016,8.269870938818132,16.33076602552284,-165.16324484043318,1.9185660569934035,0.8470173641144861,-0.5906343668559312,-0.7755844007806271,0.561133523142468,-0.2353725693404865,,
1.8259390000000053,11.379758161464125,10.909078209322615,-166.0782563195173,1.3833597487059757,1.3546023576225954,0.6746281982019617,-0.8514832744049441,0.9051960078849234,-0.2160769074361557,,
1.835452000000004,14.277011877509937,6.219980912089175,-166.2929132959485,0.9697563637167782,1.6765615029007663,0.4523377447584451,-0.7778298611094978,0.7780321791069705,-0.0259344952458608,,
1.8449390000000108,16.95791438011561,3.4934267784570663,-165.3026091842942,-0.2603467690670684,1.27609916783484,1.6777612903198462,-0.6501611532339728,0.4017066860363691,0.2863096507576513,,
1.8544740000000104,17.744991621285816,3.073883730691489,-162.567168145325,-2.9906014402549466,0.7484622657365556,3.8283275672114776,-0.1742940013831991,0.0379225312036536,0.6364760227282422,,
1.8639860000000112,16.769516907296083,5.76240864076077,-157.92614223107958,-6.791793207219289,-1.2272442463344413,4.426986466636633,0.3643547751218672,-0.4417714715493818,0.9956211587768664,,
1.8733060000000137,14.84690985883164,10.899761780592046,-153.8359729801244,-6.553917164350041,-5.360857004263414,2.280381040420832,0.7675367275110155,-0.7839536038443778,0.8951095089977646,,
1.8828090000000088,11.817653959272722,14.514347626121948,-156.7319062062417,-6.373659765342157,-3.911672398646731,-0.2221775208023469,0.8402269004659249,-0.4097000522193493,-0.4506352214774171,,
1.892341000000016,7.813605066803949,15.1680006071594,-163.09487318237143,-3.340155830722278,-2.5699464942911487,-1.451974356975435,0.7729331196601212,0.1438364825565797,-1.082740021139842,,
1.9018350000000053,2.9057090791859097,11.644596169456891,-169.26851195581068,-1.657173550217081,-0.01260167050076,-0.7691601066321491,0.7611967767976835,0.912427234553586,-0.9821198150926468,,
1.9115260000000087,1.407571809980359,8.116240517881762,-173.62089360971456,-0.6498764778688908,0.3989127294985704,1.0524402858392097,0.1890893308159276,0.7421973664275628,-0.7616374444987761,,
1.930366000000021,-0.7491826518871205,8.31904250147546,-173.95235941252335,6.077984457176245,2.5214347036871305,-1.4768883530227703,0.2761787192723064,-0.0878442081119987,0.3784941633326133,,
1.9398760000000264,-0.1560775366588121,9.908433168416945,-171.22761412092123,5.025749296287732,1.5070260258735142,0.2000736113716126,-0.0755131223772874,-0.330668067325041,0.5455994994738295,,
1.949387999999999,-0.1294232503807949,14.10174889044898,-169.9080352594557,3.6056522550820382,0.4464878471805836,-0.9972222804959426,0.1328332971700896,-0.8290715578418201,0.2523856842672691,,
1.958908000000008,-0.6263369865051974,18.683435273975583,-169.50976355195723,3.0612178670102645,0.8178702702014056,-1.925742759781972,0.2589099824776337,-0.8852413708881983,0.0797899574943235,,
1.968407000000013,0.3470645550067345,20.586075728010776,-169.60346349033955,2.6185968192651923,0.4630205144262196,-2.022433201290253,-0.1112160637915407,-0.4079898267391416,-0.0992922454840021,,
1.977994000000024,1.6207659447341698,19.38082468014493,-170.18423119471464,1.331641509620083,0.5177616119768863,-2.381773223901372,-0.2780126677878555,0.1959319854571431,-0.1689745628943338,,
1.987513000000007,3.788311113951934,16.94960056308234,-170.70096215293063,1.1234848603845988,0.8477793196974772,-2.076047986222396,-0.4862265870848907,0.4130075898709506,-0.1682065758955201,,
1.9969420000000184,7.195900272127982,13.16540014817468,-170.88541444368153,1.3719150729198428,0.8637372224929238,-0.645139441202596,-0.7687134674504825,0.6458251328329546,-0.1085144478056129,,
2.006638000000009,10.485873150288,7.806212388981368,-170.6564389065754,0.5850511814337567,1.3581901954475009,0.2460482539645576,-0.806442262963817,0.9593261502332208,0.0501309058007749,,
2.016156000000024,13.889234005562724,3.3056647083775816,-169.25716555586118,-0.2135947560097162,1.134819472509903,0.8115626358801422,-0.8212193881910973,0.7729617651864106,0.3306899926542488,,
2.0256550000000004,16.187572646802845,1.2201544727961282,-166.19694977954126,-1.5613624494734382,0.7431488665756585,2.8309179121687644,-0.5370703779955455,0.3121588390818861,0.6753492141059246,,
2.0351560000000006,16.309804397026987,1.7872443677424128,-161.9471705290092,-4.5496411213455845,0.1310110768436482,4.016446115459655,0.0071791267464056,-0.1159742296280625,0.9415819842515288,,
2.044661000000019,15.781686455284072,5.458507040424037,-156.79605055510578,-6.565205710996435,-2.783909251206682,3.757914553007023,0.3567634136445182,-0.65163278539726,1.07752148522974,,
2.0539910000000248,13.363895449850572,9.541258963694874,-156.11798056378953,-6.43113548917462,-4.030630021519717,0.0646981326023236,0.7665947812453986,-0.5575672305805032,0.1988661263782102,,
2.063515000000024,11.688055850726116,12.219670437339344,-161.195997602929,-5.021708122975519,-2.6824999438047983,0.546170924602224,0.5026556080258734,-0.3791072270252349,-0.97761878280544,,
2.073024000000004,6.860705534863103,11.320792259729323,-167.37488679265363,-2.1185082605755468,-1.4400986096697377,-1.3685285320590752,0.8621784016368631,0.4301135030018166,-1.0532480653904182,,
2.08271000000002,2.617136197711995,7.433228308403137,-172.75272884918925,-1.9963610669737253,0.711449135297932,0.5021871375303724,0.6930666350511588,0.9103325855636007,-0.9060272640413946,,
2.0922250000000133,2.2680313370258007,6.052860109587794,-176.02543789070202,1.4092875649689138,0.2296364567537764,-0.0735860658033484,0.0425384166055977,0.2818105349590026,-0.6084190188675969,,
2.101565000000022,1.1262330913831795,5.93752080532408,-177.00577222635368,3.721699198038461,0.6632419761353843,0.380889582965878,0.2255708591128694,0.0367070900646592,-0.1558560349645107,,
2.1110710000000097,-0.2709791971506052,6.661990533860972,-175.1156791540164,5.043116098753127,2.029504207890464,-2.187996470502039,0.2872728278373087,-0.1258966798588527,0.4318692607042032,,
2.120581000000016,0.6597856324056156,9.220887481673389,-172.77689807101515,4.146406062383944,0.476536388581547,-0.2176016078154929,-0.1296390257478286,-0.5289638690576939,0.4469720153472916,,
2.1300930000000164,0.3105174249463737,13.59684626820153,-171.33443792598027,3.4134772060009064,0.4105130753721688,-1.9079511645161884,0.1901610394588797,-0.8580601312262075,0.2718554621921113,,
2.139611000000002,0.6399571758590028,17.22337586556323,-170.50388674318305,3.69994649556669,0.9251472355781404,-2.501266194344825,0.0527822484402106,-0.7269949976353739,0.1177320570737987,,
2.14910900000001,2.5172177905941533,17.8030367293458,-170.50472384511508,3.223473387346677,0.4976991049820572,-1.973961642830628,-0.3343671248583027,-0.1736597437675653,-0.1174435605220806,,
2.1586200000000133,4.540219830810257,15.795533337169909,-171.44533537141962,2.622936080619556,0.8834218797810478,-2.01652081437116,-0.4453258498604019,0.3370671431746979,-0.2562869795362932,,
2.168136000000004,7.860729614791897,12.33293594463272,-172.74201221725153,2.5940305923308915,1.149325427898244,-1.3714019558994337,-0.7317840629158623,0.6008285692204683,-0.3266983936159932,,
2.177636000000007,12.102418932268472,7.5599060685649455,-173.8203704608342,2.5600165343409764,1.5999838438203915,-0.0430047666298663,-0.9380689172682468,0.8560101733006973,-0.2354104544434064,,
2.1871650000000216,16.05095601444008,2.781808421255709,-173.87504561443356,1.8459447997560807,1.6368388720053264,-1.1972058014610676,-0.8809762016864843,0.8710636697728597,0.038785667700715,,
2.196838000000014,20.266038671792103,-1.2933775108207424,-172.51787506570184,-0.617275539715129,0.9637062967083162,0.6488721174939216,-0.9313371084898856,0.7144012225565366,0.3716505139572727,,
2.206338000000017,22.26890457600595,-2.9680161535226346,-168.7265118993926,-3.428784357131313,1.0731609536092683,3.334826526007538,-0.4493180627949412,0.2669173247532965,0.8444055485359949,,
2.215851000000015,22.216751648917487,-0.8424933715927889,-162.50175909516233,-7.141546995620292,-0.3307184627420593,4.945084499755284,0.1146815132787495,-0.4102415183065002,1.3149085762227188,,
2.225188000000003,21.172824052829515,3.009788222826854,-157.66402471252246,-6.742153365423935,-4.847686226735691,2.2869851821961573,0.4587852208668517,-0.6546344770822795,0.9946058944006744,,
2.234694000000019,20.00927778678749,5.687592268614154,-160.3745367630354,-8.06305459469415,-1.845235662673378,3.495442353221401,0.4092101762672578,-0.4171650152607266,-0.5408118367679973,,
2.244207000000017,16.510809147533188,6.107728322759316,-164.90934941698856,-3.18297099805498,-2.129517405610798,-1.8052091777512844,0.6901998481886201,0.128101821176799,-0.8506510371175895,,
2.2539020000000107,13.040138274489989,1.5995887417896044,-170.25548537611593,-2.292096147261562,0.2752101867817004,1.1752944208051987,0.4845238809278071,1.0302050163089431,-0.9979807847087552,,
2.263405000000006,11.509381999279388,-1.0381350471113937,-174.15997487773876,-1.0033326461392258,0.0445740654901644,3.1960977670064468,0.2331129826912289,0.5644908684551335,-0.7400486290173105,,
2.2727450000000147,8.173640848723718,0.2884707600974304,-176.08901258684384,3.532504557238797,0.1801649322280742,-1.9180188365853263,0.688014577408959,-0.2080635371120772,-0.382569778984692,,
2.282266000000021,5.529156462578411,-0.1022686325308304,-176.5849977654973,3.757454799363393,1.3152741306384157,-0.7085165428443808,0.5234172181021522,0.1118914265444885,-0.098420815394343,,
2.291763000000003,4.811401174565444,1.1538824960145109,-174.81310014232665,3.908509989256809,0.5864755737263956,-1.132210841165333,0.1620191722888461,-0.2401420111488739,0.370941185158452,,
2.301265000000001,4.271738318703035,5.045953761382674,-172.84639935819948,3.6684336455357376,0.0515888631714246,-1.7627929584183828,0.1915143474292906,-0.7630985733583331,0.385894153140026,,
2.310789,3.9867868454392186,8.989980994250692,-171.3918609514174,3.712996258288845,0.3546883123600339,-2.3895378484786822,0.1658289146110336,-0.7741807939544908,0.2553768710658435,,
2.3202970000000107,4.947992698811472,11.35008782507233,-170.81450264033373,3.887070239170992,0.3818318301586627,-2.086984563599747,-0.1132723849186973,-0.4963452766941839,0.0439657672832153,,
2.32981700000002,6.469921015524724,11.346100857418689,-171.45280149654658,3.7604308420323536,0.624737564538099,-2.419743903884781,-0.2953151739382506,-0.0453570900433786,-0.1952304909168431,,
2.339316000000025,9.099202923569107,9.527186042767129,-173.0559559971961,3.6039230559762654,1.0782621711022309,-1.524128111867631,-0.561651966166409,0.2919837600204691,-0.3777844873765198,,
2.348827,12.359475483435848,7.227574521625761,-174.7920627902798,4.808299838334932,1.9790210527941807,-0.3760011981340919,-0.6897814881033855,0.3915320630196764,-0.371328611696364,,
2.358334000000013,15.393138048560283,4.52049106898405,-176.37897077804027,3.824479572236581,2.066581834592334,-2.2674603939948046,-0.6425594852680754,0.4959600502939639,-0.3027290796736319,,
2.3678490000000068,19.884094918614224,1.2473883441240492,-177.01351478258985,0.9709407056384955,1.057344407244874,-1.4667269088875088,-0.9321915637145288,0.6056598630484641,-0.0866184719835569,,
2.387051000000014,25.24960348140158,-3.745801698145719,-172.51609981355304,-3.281721960538232,1.0762823155322665,0.9968910374855924,-0.3368344513713207,0.3641891715540586,0.7606189278162024,,
2.396550000000019,26.16709224816257,-4.30435834233698,-166.91066906617206,-6.490845856941959,0.3874639770198061,4.539706793626756,-0.2001731047861831,0.077821490977974,1.1922185579295477,,
2.4060520000000167,25.30910931218129,-3.538298310393824,-161.6674205551696,-6.921208730061509,-3.587217694099844,3.775980722491521,0.206297863676467,-0.1019268487564798,1.1071575408434615,,
2.415582000000001,24.476515160991685,-2.264401194932099,-162.46741879438136,-7.175970046631318,-1.927009728898784,4.817994897900329,0.2367652873715807,-0.1916253720207636,-0.1474270102206175,,
2.4249060000000213,22.862693941992884,-0.9934340555196548,-166.71539951550253,-3.588841991341183,-1.7419996620652023,-0.0419639593608976,0.3791724495952418,-0.1593280656570427,-0.8710836266665025,,
2.434607,20.475724102648712,-3.30707840885476,-172.32582203001684,-2.5191535935643823,0.2262012498860236,1.836816796166292,0.3853448082319787,0.5427440471661417,-1.15080554327207,,
2.4534430000000214,13.851451574240562,-1.669156949678421,-177.9595833451059,1.7086275982855772,-0.2024346723699748,-1.807263307908824,0.7788893926076795,-0.5240523332910634,-0.3660372890586368,,
2.462943000000024,10.524178796995807,-0.737469131004746,-178.70089990688925,2.8362668157889974,0.3529926620908745,-1.0969207821242266,0.6714301772266248,-0.166185002026055,-0.1905115569671858,,
2.472459000000015,8.466365666347642,-0.7370488786183924,-178.60467749750794,1.522875266986535,0.3038489872262652,-0.5970456686800533,0.4118760076393714,0.0098411776398823,0.0006555599038828,,
2.4819780000000264,7.12452194398797,2.684803497755544,-177.21449999818518,2.71902108730468,-0.1656370480910427,-2.2564290230705306,0.2942802082923188,-0.6745288748488479,0.2560081683600556,,
2.491488000000004,6.602402089877125,6.772023417900845,-175.5289658746943,4.469270121895015,0.0452202883230488,-3.0731637383139865,0.157171747275115,-0.8098872732400281,0.3069493838525173,,
2.5009900000000016,7.507464889932704,8.510144195604846,-174.5095142357103,4.493755012776988,0.1732731653978349,-1.6297065285538794,-0.1481886685130064,-0.362512235733872,0.1462513793007175,,
2.5105070000000183,8.901815888312862,9.51008516719279,-174.81551078347735,5.827911177902023,0.817157399204895,-1.569676564667802,-0.2557635875261932,-0.2251724590886277,-0.1216101515917534,,
2.520025000000004,10.367946306713373,10.461897471749513,-177.34196366525475,6.119151640552528,1.5348506213876962,-1.6409024717396,-0.2752300668774179,-0.2101839626864928,-0.5794799103027924,,
2.5295250000000067,13.21175128882582,10.2350134735617,179.95265832978535,4.16159169644093,1.5134345364991066,-1.4659106444578878,-0.5611207361123223,0.0324637919271741,-0.651730559246293,,
2.53903600000001,17.53001352329115,8.703123761021903,178.91395067537994,2.472289706816116,0.7608322146054356,-1.3926148975555632,-0.8491835693032391,0.3167188826274819,-0.3039680013633784,,
2.5485450000000185,21.725283257281248,6.032465208129033,178.87217766035357,0.871619577227161,0.8489203599678881,-1.2035299597834253,-0.8205382371399285,0.5536403397640333,-0.0281427441175853,,
2.567752000000013,29.3956786732311,0.3991954036329315,-176.927671960998,-2.892212189011381,1.5245357692274666,2.0865863945049337,-0.7361347029397433,0.5118927813535721,0.6548551724819855,,
2.5772500000000207,30.26572269040737,-0.54245710590251,-171.59510098952518,-6.810054498101391,1.7156659810113557,5.124852236232993,-0.19185094762451,0.1706768846209971,1.1227783168740613,,
2.5867780000000096,28.415763204599624,1.2315752953701689,-165.23679348160687,-7.486881463347835,-2.5938998330506724,3.88683734123696,0.4337316439332654,-0.2748753640353137,1.334822008072357,,
2.596087000000012,25.968673907203684,3.993296828350576,-164.87281770888612,-6.9297204151600535,-3.724969849914953,2.945441319510432,0.615266042693387,-0.4083533483997163,0.110425012159847,,
2.6056020000000046,23.203471986728413,6.523057483441193,-170.55531705470713,-4.341457613873697,-1.671831870743694,0.0655066313538719,0.647253959090725,-0.3767780738763409,-1.116706600379428,,
2.6151060000000257,19.531425418367984,5.6872719790512924,-177.54629009162562,-2.487332471744354,-0.2989470086907325,0.1958420670628169,0.709831977228067,0.243405890836097,-1.3559425922359831,,
2.6248020000000167,16.271811708351265,3.674225314832228,176.83294652836423,-1.776867808538104,1.0700930057299345,1.8136254668986724,0.6530830404828177,0.3993340004974837,-1.0812548253755985,,
2.634151000000003,13.7248494751618,4.286476733529363,174.2474908516177,1.9812235801908349,0.2794200734311482,-1.391201785326781,0.4977358129599196,-0.1616675398430259,-0.4865427402611252,,
2.643642,11.81953613419969,4.370687639689433,173.9832012481344,3.8419721585044577,0.665458906960424,-0.2459315592686363,0.3766905979898145,-0.0556440675666286,-0.0318929663586188,,
2.6531590000000165,10.468868819204904,4.914905986401153,176.20634127588093,4.7965062583993,0.7083852656639188,-1.9718586377770464,0.2592677236539137,-0.1316243531118222,0.4669534552023756,,
2.662662000000012,10.77798198569391,7.297251681007959,178.58603196882046,4.436196733613894,-0.0029588990154194,-1.2453258643360912,-0.0831548283199007,-0.4737560329793828,0.4697725324552362,,
2.6721880000000056,10.98744397801887,10.780733934007674,-179.9972187908823,3.6286066357972255,-0.2915116074877552,-1.748551954379988,-0.0491891114672892,-0.6969958617121182,0.2499606721268973,,
2.6817000000000064,11.915039504477567,13.55226036178176,-179.33189068286055,4.085842659660668,0.0675388399782776,-2.539070415752989,-0.17761734463977,-0.5562018775159909,0.0649672523258138,,
2.69120700000002,14.7230180745728,13.854438182492864,-179.9767402207497,3.630328815486288,-0.097050044907098,-2.0265492130524367,-0.5458774751168052,-0.0636587061813138,-0.2569377035044305,,
2.700716,18.213346990847747,12.449289256784606,178.16843888203718,3.1119414932359004,0.5008893975254701,-1.053866669029499,-0.6752619393013066,0.2938346910878827,-0.4675506345330951,,
2.710230000000024,21.908614119478315,11.16437679926087,176.1149189895917,4.49615007622071,1.291971395672021,-1.3473652859527645,-0.7096205899460666,0.2953092163973673,-0.4880159365446409,,
2.71973300000002,26.112449798517893,9.887021615643892,174.0167301098751,3.92592269291436,1.4206673031855837,-1.1856821692333352,-0.8016078209570346,0.3282816597202037,-0.5058687484105275,,
2.729247000000015,30.338254582033333,7.961481771514208,172.7952745885597,0.7166000831371324,1.2612800288611792,-1.6792810446589908,-0.7848395709842069,0.4809656333659314,-0.3132449926137227,,
2.738929000000013,34.47263778854114,5.622259696510394,173.91240723023034,-1.8682138078516568,1.77914823739987,0.4951829741519886,-0.7603794892499148,0.5628373140332408,0.2061399704419658,,
2.7579620000000205,34.9233325542878,2.342566233332376,-174.0714115144378,-7.607680899370422,0.5570842411647509,3.845531980546221,0.165172452775232,0.3183154721748283,1.559198971904457,,
2.767454000000015,32.918993010344224,1.738156179571449,-167.62268998015665,-7.141903923742169,-3.790849427705805,4.544663659001099,0.3777118276608995,0.1817761485310206,1.4005003202669213,,
2.776971000000003,30.735618510278567,3.149997453374984,-168.34341549500596,-6.232101033853666,-2.891697755543537,2.981686074475262,0.4857487854862976,-0.1863221396749833,-0.0877441431286966,,
2.7863060000000246,29.17548828129516,4.490174517701671,-174.16957345726323,-3.861698491720735,-1.0720661259047517,0.1855440107822556,0.3491316781675687,-0.2176731785729181,-1.1597421950069031,,
2.795997,26.021251937422253,3.3884749644534846,179.39089460632204,-2.1937304448505217,0.6501719023751068,2.1198442242966014,0.6193917955069249,0.2498983026858353,-1.2729109696984946,,
2.805501000000021,22.25741167619085,3.033514627878227,174.95692379203027,-0.9717217431856268,1.1767151154544124,0.571406926971058,0.7551704838760357,0.0345322921064339,-0.8648257582428811,,
2.8148470000000145,19.81206527159887,4.840490268957471,173.37507457048534,2.440256121123608,-0.0083465710207935,-1.1555325067495654,0.4495843886441297,-0.4091098953558078,-0.3046935200234628,,
2.824349000000012,17.93988627263115,5.210104860619359,172.93527742253804,2.877528322440232,0.201848849156835,-0.1803470955507,0.3620364435407928,-0.1176713074128175,-0.0744727451269539,,
2.833859000000018,16.525985845059765,6.181369387643928,173.80171792352525,2.4507513001755434,0.2634272075815566,-1.073478337322459,0.257366378965116,-0.2256991305554901,0.2015486352843868,,
2.843369000000024,16.365050194091786,10.109915107581717,175.76287052401202,3.0530876049771467,-0.555317185300805,-1.6731542290518882,-0.0387150859090166,-0.7863309912326036,0.3665903634481839,,
2.852876000000009,16.59270916089783,14.283549235265337,177.64094566597956,3.753498844226767,-0.500039902378397,-2.0965793696866823,-0.0904754604047857,-0.8319833255891607,0.3085828575681567,,
2.8623830000000225,18.21986111086951,16.96391248207793,178.4440753102267,3.659334414787407,-0.3866352823936108,-2.192232738683068,-0.3308994809309734,-0.5262654160395707,0.0279086742956971,,
2.871898000000016,21.36872318760442,18.74958316550288,177.93915053234542,3.940457158784586,-0.6249768788678307,-2.2015053006727228,-0.6107244704524838,-0.3390723783056525,-0.321971610353324,,
2.8814080000000217,25.37426702755487,19.689380306517407,175.94293310863551,4.601946153747558,0.1285751229524038,-0.7046599406058346,-0.7663178878191251,-0.1477407838476308,-0.6730117324368902,,
2.900435000000016,34.67160216938377,21.881175213954126,168.81984983862526,5.017350334376413,0.8752909869456525,-1.1106752344840982,-0.9562788619289652,-0.1098627042140775,-1.112967234133809,,
2.909936000000016,41.63825270408433,22.456061054187185,166.70672753474344,1.5219875503088478,1.433862537251682,-1.4781514109785794,-1.2867841594876572,0.1634857761637681,-0.9133188875540398,,
2.9194540000000018,49.55513547851698,21.06663086683004,168.26335449756408,-0.3113274400257065,1.8460774432556049,-1.3530947542958838,-1.3745626020964394,0.5955542229346514,-0.1857800066066682,,
2.928947000000022,56.8148706945783,17.03084591226947,173.08906118766131,-1.4937514269905994,1.2648981948501148,-1.6595548809766594,-1.2194460504069553,1.0261106906059678,0.6236420784687019,,
2.938465000000008,63.27649501479724,9.751601682559093,179.11914920662792,-3.029413725146216,1.3432519074833584,-0.0893131512301329,-1.1467494469445505,1.546998964156456,1.0711625552915318,,
2.947981000000027,66.5256442811035,0.6725955858100026,-173.25294117240074,-6.150695455678919,2.533354171435237,2.320207663238087,-0.7411754530428548,1.782946631481659,1.4644762993546891,,
2.957488000000012,64.92625825507258,-7.095769535614641,-163.43743594578666,-7.203232198856464,-0.7109209566294031,3.827386461284588,-0.0008131128803746,1.5897211671539972,1.9441048636849168,,
2.9671900000000164,61.562292085658015,-9.812265921561082,-157.61642880539463,-4.701874100296075,-3.784081021572128,4.446671198843066,0.447066699846887,0.7349810484794852,1.0658540717852447,,
2.9767020000000173,59.443696423708765,-4.649187798346151,-161.96487018684635,-5.255154066097861,-1.4317989366621011,2.339320559803489,0.7523169830313914,-0.8247968107347711,-0.923353251375378,,
2.9860070000000007,56.851640483686296,2.634540964098755,-170.3959873328196,-3.181928768082668,-1.4324808025484967,0.2249522973258512,0.8532842160339644,-1.293014877543423,-1.6945950377766337,,
2.99570300000002,51.632747373442754,7.623611106969145,179.319299779901,-1.9587812677054413,1.83414838114288,1.7363203330343315,1.1169299694488133,-0.9152796954317304,-1.9629448793761,,
3.005051000000009,45.44825799290192,11.126876291878329,170.90157498966474,-0.0895115504425686,1.112722118053626,-1.5753339543329163,1.1585325907225388,-0.8028578902403998,-1.4814434981714917,,
3.0145530000000065,41.84757998784815,13.43932461152939,166.78797400662216,2.642552178288861,1.4100901403888224,-0.0930764678875145,0.6017033102025953,-0.5904637985423471,-0.6698298840554482,,
3.024058000000025,38.43744801351514,13.243079955095403,168.0866999056947,4.660141214812719,0.8167677742984777,-0.2203567733151396,0.6570360963099812,-0.106175870895132,0.4174953530213948,,
3.0335730000000183,36.6359013104164,12.495623808448936,172.26565526944464,3.607616783988951,-0.5214050410001594,-1.8216420173838603,0.3721350014818214,0.087453492032455,0.916923168253554,,
3.0430840000000217,37.53770040480215,13.03635202790273,176.7724960790848,1.949836489751072,-0.9338087643430868,-0.4167324883478011,-0.1856694659233301,-0.0909998419192357,0.8623732020000278,,
3.0525930000000017,38.65486649192544,15.152721395876489,-179.30889963233304,3.1026443507347223,-1.554027873853772,-1.9116836429408528,-0.2263136600081448,-0.4189290502943028,0.7299294698679955,,
3.0621050000000025,41.44706409440411,16.26773443464317,-178.68455571888654,3.613680913772359,-1.465603858877197,-1.622924799134297,-0.5341935025184279,-0.2326038960180985,-0.0264185993473152,,
3.071617000000004,44.94264410094572,15.882727941356707,178.03490183251296,2.396165981749506,-0.4719476865565368,-0.5388200284322795,-0.6722391357837361,0.0809178348304722,-0.8503947861772225,,
3.081119000000001,49.04192975826812,16.20860351891905,173.72990622580568,3.185610777352571,0.2192581989630757,-0.7610650239180331,-0.7917378550433595,-0.0083830745684444,-1.088414000880055,,
3.0906319999999994,55.51714363061551,17.798013399818608,169.91664292931966,5.5453506980305765,0.7305972667355966,0.6972601358417199,-1.2729368433288442,-0.1383491071238653,-1.1418007157826084,,
3.100146000000024,62.0222213923641,19.994085962355587,166.60938899811157,3.9081544221352553,1.6874716880079326,-0.5963941745755186,-1.2963389622705377,-0.1794008698046414,-1.083265201780934,,
3.1096600000000194,69.05807404023348,20.35348378930211,167.60362054684342,1.6630449078531349,1.79304935894081,-2.3871029075113404,-1.3049354805452165,0.2249774919298677,-0.2869980369130063,,
3.1191630000000146,76.21562479656328,17.181682506639174,173.94153238048457,0.3671521520320976,1.724764528554262,-1.366607740756658,-1.2379538181619705,0.8437109286450798,0.8059950601037322,,
3.12867,80.10037456620005,9.910547071880304,-179.03995555403475,-1.9706964840391727,1.35107561700201,-1.1891781103857275,-0.6914992572776216,1.488152972014872,1.2205233525396595,,
3.138181000000003,81.93580251081079,-0.1211691020511461,-172.4418115523477,-6.136826471083835,1.8664738877477645,0.3615462636793298,-0.5150216003108109,1.9766436305413604,1.2862044733220102,,
3.147701000000012,80.37058834294321,-9.638002527175146,-163.65771053670687,-7.086642765105948,-1.0161924215330227,3.489989593478956,-0.0887765653205976,1.93058165465228,1.7278846628997206,,
3.1572140000000104,77.60787080209057,-11.128019067038323,-160.51750941405055,-5.69046924831976,-3.59082593182375,1.815595821946872,0.4260300122381477,0.4511796132304004,0.5288559435032367,,
3.166897000000006,75.75672386513673,-5.638354267073466,-164.7351296780639,-3.934899230627252,-0.5045600558175417,1.9225144214785024,0.6784348914505083,-0.9396051411517624,-0.8977862373861882,,
3.1763710000000174,70.9636782629177,0.4698814466525952,-172.15334917703672,-1.910920749204224,0.3186181678968424,0.1837583744677054,1.1854177670494292,-1.0060796684752662,-1.5262519942299713,,
3.185922000000005,65.27610286695094,5.244503200026807,179.64212900954757,-1.5705253441726867,3.257959295267503,1.3558576144502938,1.1985767200236344,-0.8795116172711934,-1.5835647492139375,,
3.195258000000024,58.38987707705273,9.282507375842984,174.12480588999924,1.1906475874180635,0.1053028456532447,-0.7760344139577927,1.3224052422647226,-0.8809077275017848,-0.9285151513634056,,
3.2047600000000216,51.94654895368036,11.229981513149388,169.79448484397335,3.011647865087854,1.3281510142020925,0.2854453411152888,1.202711485243994,-0.5632979591627989,-0.6362917102908587,,
3.214269999999999,46.43321569868471,10.6032096651316,168.33259691096342,1.8961571763869904,1.1113101060374069,0.2155616071514431,1.0880157288125876,-0.0825099568266647,-0.0833974275675065,,
3.223956000000016,42.05519569279552,8.61099770769835,172.45521156812677,1.47971026786612,0.3822764601186355,1.2118399602494438,0.9190157512999416,0.248921402571185,0.9712155046309908,,
3.2332970000000216,37.64507060359939,7.729087035454562,178.8713015011948,1.6259072692970773,-0.8799946954165773,-0.9367884701269452,0.8854635174894553,0.1099273469534264,1.4093888966796857,,
3.2428040000000067,35.88345881964619,8.46440141274179,-175.2138261588553,1.897336524625724,-1.1334010227211169,-1.391420760764031,0.3539057888259254,-0.136096200586152,1.233763654075355,,
3.2523180000000025,35.64118063700814,9.670661814039592,-171.94571666900808,1.917178459250385,-1.2578141978715405,-0.4121035828980864,0.0746298374367526,-0.2347033623570491,0.6619106443731769,,
3.2618240000000185,34.24845142466879,11.023227986922144,-172.3085089725405,2.043651256837393,-1.3486200367339884,-1.384188996857007,0.3088369285963198,-0.2306753448916183,-0.0225485104580578,,
3.27133600000002,33.57168201027203,12.493312725699749,-175.78186762657452,2.3313588206165656,-1.2887941942883765,-1.847042913359312,0.162501226584653,-0.2790163336844115,-0.6677374864021017,,
3.28084800000002,34.231574667743395,13.55290929910982,178.66056845034925,2.486771700234367,-0.6203446017224817,-0.4804401118988116,-0.1234242149884471,-0.2153816269681314,-1.1423981709015674,,
3.2903490000000204,35.35113962999293,13.847458374509293,172.59749644545994,2.8581123584230936,0.50591221047841,-0.4760110621674045,-0.2217704087320987,-0.0421902339948583,-1.2669214594820797,,
3.299880999999999,38.76511619088594,14.068823415300422,169.76886672004173,4.126390529196979,0.5385773640331688,-1.2108702869768253,-0.6624405071355297,0.05792147389734,-0.7310380768553287,,
3.3093720000000246,43.814889027338886,12.8692234172487,169.8507582553043,3.142904701160554,0.9803039790199514,-0.2020046019618833,-0.9253158348668842,0.4102095570127024,-0.2191138843418455,,
3.318883,47.92195269159356,10.788542802259986,171.43845629367942,0.6656388875380517,1.14034305964956,-1.2900662570041788,-0.7265088266769698,0.541722160749798,0.149138856624082,,
3.3283870000000206,52.319403113732776,7.97203559810424,175.26703474924457,-0.2688726595499906,0.6602497596342204,-1.2258020760192796,-0.7977869477909586,0.6604870434230787,0.62248911941742,,
3.3379070000000013,56.129528544555214,3.6117964612919793,179.35256718558068,-1.5738145163108277,0.9202441504132938,-0.3246705127294877,-0.7174844788499588,0.9075052512787036,0.7402882250948483,,
3.347415000000012,57.97304707098235,-1.7887776421156645,-176.98979485969735,-3.557862268860072,1.766887606382408,0.7110214521334234,-0.3914818208639267,1.073550579741185,0.7258485703553829,,
3.356925000000018,57.42404305118702,-6.521792314217166,-172.37989855987985,-4.901707663580493,1.6253343887812013,1.4787655995019764,0.0214125333591585,0.9539653452081664,0.9144722821240744,,
3.366613000000001,54.84117937338832,-9.740565946054726,-168.01598737527377,-4.642129029811462,0.0861889016044024,2.7944942862139897,0.3949176147547464,0.7222457906354794,0.8001811593799351,,
3.376123000000007,49.95842929084591,-9.574064067362665,-167.27898873600836,-4.04862914585936,-0.5397834391847047,2.587764370119684,0.9485910673927084,0.1736245170260576,-0.0165398504241708,,
3.40467000000001,30.158768208511564,-1.1687281374564815,175.9316870937742,-1.1687631407034904,0.7398679560515796,0.3992335004207313,1.749265986330907,-0.4151759010923548,-1.4319742222855742,,
3.414178000000021,23.56682684813304,0.0959402871393345,170.7825668555218,0.7163485790629056,0.6481250153204058,0.9729645408468548,1.2821641776996608,-0.4040440152093719,-1.0420706855203026,,
3.42369100000002,16.525339731753494,0.4718128679160303,167.95410280106393,1.9629000103639385,-0.0337212524251744,1.6931575104125158,1.37193794287879,-0.3340149644622182,-0.5585786916221024,,
3.4331980000000044,8.21637344175857,0.3968216314857559,167.77155915571828,1.248374020134945,0.5349769560575377,0.5960757871221873,1.6295878423584167,-0.3351275386371287,-0.0238714001881339,,
3.44269300000002,1.4026494029641794,2.420932361201725,170.44935144820158,0.5702219553052728,-0.0803900147053727,0.6511855363766565,1.263040996371792,-0.6552505738377952,0.5689695212827023,,
3.452204000000023,-4.653550500604018,6.451299386495924,174.657836975921,0.1162836907206292,-0.913866627593218,0.014108492012747,1.0948486681451115,-0.9564065378183776,0.9352538769528408,,
3.461626000000024,-9.869739837018448,10.860297688832585,179.09847384874217,0.0098537718424754,-0.4317634497148278,-1.4338767174778837,0.98354343128832,-0.9374317354269264,1.0452343559338062,,
3.4711490000000254,-12.977155093443782,15.203287127207286,-177.19058351125764,0.1387016327619247,-0.7633074151491047,-1.5210241915084817,0.6208562587421584,-0.85935182438883,0.8827670066137591,,
3.490074000000021,-19.8815490345278,20.96109636963005,-174.68418746213953,2.414855909519899,-0.0216055969368291,-2.249327330135088,0.7786762931039933,-0.3259472879218157,0.3416506552719528,,
3.4995890000000145,-23.757898308893136,20.737897093839912,-175.79442465225745,2.971078876739387,-0.0202198629790771,-1.5839010886747036,0.7191818198097285,0.104106716554753,0.0732732920972347,,
3.509086000000025,-27.3277532724868,18.96620142334484,-177.8182674215055,3.6868129948551975,-0.0213910730628528,-1.2095557361700342,0.6521118975449821,0.390517418963563,-0.1270921596589792,,
3.518610000000024,-30.378388267422324,15.98126645495135,-179.9482122607163,4.027255011406597,0.3392871913547536,-1.0810947851868224,0.5727548406809775,0.6070432735106428,-0.1740927208898043,,
3.528116000000012,-32.2597985449372,12.620356903854818,178.41829965570966,3.4764661643025923,0.3090768555195401,-0.7880406668169005,0.3768080172074392,0.666384697210201,-0.1384926614776568,,
3.537635000000023,-33.09306239685035,10.039651504440767,177.38616557163667,3.1103294482313424,0.2375409054032973,-1.1012172278652317,0.1847530047868157,0.509534703973831,-0.0682586637544518,,
3.547139000000016,-33.653761615843635,8.657062152553628,176.97550338863576,2.6869658737212627,-0.045773408254962,-1.034600363138939,0.1253587689998812,0.2705385520643007,0.0292306001974307,,
3.5566440000000057,-33.954636238869064,7.941848728636127,177.16281955352693,1.702892183785733,-0.0141319613833534,-1.1969456978410062,0.0673700923100136,0.1397268462604396,0.1303829755804655,,
3.566158999999999,-33.55551536498461,7.511113413360009,177.56949921777496,0.7219052670426661,-0.11570881066057,-1.3837117023366077,-0.0748235099427093,0.0900613591894114,0.1515657089129547,,
3.575677000000013,-32.63192169590344,6.720388692305991,177.89028243498092,-0.4101410192605132,-0.3671312893592205,-1.220613935944243,-0.1764796266366974,0.1661180453382169,0.1254656656272435,,
3.585182000000003,-31.352836899075573,5.1189690460336905,177.66914097198045,-1.5693816325719538,-0.3756025619372096,-0.8425767986754725,-0.240450347360521,0.3314916388416419,0.0460824675599997,,
3.594697000000025,-29.46281398840951,2.934285314887436,176.59789334042478,-2.5843898830786625,-0.5821255578211882,0.2289509609329827,-0.352488406816559,0.4578027023670909,-0.1061673854098755,,
3.604387000000002,-26.83025832108851,0.3581563915191312,174.71612382317915,-3.468806716151326,-0.3376944499985534,1.274998095499188,-0.48269294610677,0.5573533603204596,-0.2398965393169597,,
3.613888000000003,-23.003812188796,-2.436759229578593,172.1559629338566,-4.3095862810318,-0.0219317350703563,2.019203323310484,-0.6912044793645321,0.649710034980427,-0.2875169874879497,,
3.6234129999999993,-18.57187720190852,-4.710651685258011,169.4519183262602,-4.715312394344794,0.3621465433359753,3.0374221411260187,-0.7958029856777281,0.5985946406011277,-0.2612259402658334,,
3.632924000000002,-13.894658563596336,-5.764474994969187,167.2328203680173,-4.2454946033747465,0.8065774391394901,3.019529938787693,-0.8669800822771558,0.4031997266190237,-0.141611167995894,,
3.642423000000008,-9.378450946944644,-5.856179483382338,166.16660823837694,-3.0911079015096465,0.6638609456832908,2.7665141127493293,-0.8693629897730158,0.2320617418957683,0.0689739434183483,,
3.6614330000000166,-3.635727576453784,-4.941875787547192,167.99390361068768,-0.5415863807032802,0.4411549692504168,1.1619754506655455,-0.4726453288114823,-0.0235939562429426,0.386098164147524,,
3.670946000000015,-2.1131105788612787,-3.510147453268027,169.7444676754118,0.6597142129361105,0.1957917678827327,0.5261719625056153,-0.3538974718170685,-0.2222346958062083,0.3949463393345757,,
3.680454000000026,-1.0460849517223492,-1.3892003375009865,171.23897659131032,1.4771059152898642,-0.0438735755863261,0.2046698186622167,-0.2803058091266854,-0.3838492476188425,0.2855035570656425,,
3.6899680000000217,-0.4906008280181604,1.0141277825196964,171.71051193837533,1.366770243866701,0.0039812756472572,0.257602697805696,-0.1813377828497722,-0.4594002999780806,0.0947543760938078,,
3.699484000000013,-0.3897465717436658,3.955718087795279,171.67932470638965,0.7927765663436241,0.2118184588017475,0.0543353495963775,-0.1028321954956872,-0.5802895913639202,-0.0944587952270852,,
3.7089990000000057,-0.7218831253247805,7.257033677314866,170.5760356714771,0.2700178923984974,0.3149707405836741,-0.2801043670666163,-0.0365501248531936,-0.6633178185640646,-0.21432554235979,,
3.718327000000016,-1.717824364855433,10.102800295976756,169.30017754336154,-0.125942620300756,0.4832162348590074,-0.8090574827769443,0.0945687166895299,-0.5954738613780773,-0.2252780215418736,,
3.727939000000021,-3.0936838339814026,12.27919148429118,168.39362114408192,-0.0628930978080964,0.6147655921881356,-1.3625769953860352,0.1808681537531274,-0.4798000828813648,-0.1279980954576127,,
3.7374560000000088,-4.425807107847556,13.977478027410548,168.39594929625798,0.6814715340621067,0.4131414848197817,-1.6064886586431515,0.1865204840482677,-0.3851048668684275,0.0331190437494159,,
3.746864000000016,-5.740467958720622,15.082257159449613,169.1657583986027,1.8839364490631016,0.1840505231438577,-1.7289367920952925,0.206993369963461,-0.2664888133464234,0.2133061489911198,,
3.756367000000012,-6.855414185114431,15.598502022138463,170.4968737731029,3.1115342503933667,-0.0820762331296545,-1.4977263931391664,0.1935585835148296,-0.1399057845080573,0.3438224249929897,,
3.76588000000001,-7.712795112488393,15.63742672630856,172.04817226743725,4.061480852463959,-0.3492524439853319,-1.0370462532125195,0.1621927314402172,-0.0330631974903288,0.395367098326494,,
3.7753739999999993,-8.372923266546103,15.492655045393647,173.52203381802255,4.664213640846776,-0.4960102197633129,-0.7264288426715648,0.1299957503531027,0.0125113807382531,0.3760546872476398,,
3.7848980000000254,-8.730391797133347,15.40599129946343,174.5853815091432,4.995458518619055,-0.5979187056634193,-0.925096509462932,0.0704413139352591,0.0099673511797751,0.2795267911060246,,
3.794411000000025,-8.73452614372657,15.08278946838906,174.8344082074685,4.330985089189111,-0.6227465793146125,-0.951042723860852,0.0069600986091174,0.0643444304087455,0.1201923972156637,,
3.803930000000008,-8.350525903827686,14.585073927008851,174.2558181050931,3.2813119340431736,-0.6252471686377831,-1.1274583094860675,-0.0641662320243732,0.1064810235999715,-0.0602257485747703,,
3.8134290000000135,-7.751687287242551,13.810613853907544,173.0944528888758,2.0470857961083,-0.5053548952259379,-1.452723727663624,-0.0980076493242791,0.1671925348098566,-0.2005385115273384,,
3.823025000000001,-6.989784590612089,12.27582464503047,171.62190295531747,0.7221782087920244,-0.2527739549600967,-1.6630180254645366,-0.1055954992341551,0.3246187718172969,-0.2693974682697064,,
3.832448,-5.956529634046084,9.707522345420283,170.12569582940935,-0.7364007177329531,0.0673925828248225,-1.3930091869627383,-0.1171150321993995,0.5403511479612024,-0.2598250236068448,,
3.84196,-4.599221156190255,6.695751753417509,168.8035337501419,-1.6281338122207851,0.3443284635355109,-0.8197034242251408,-0.151125525967738,0.6427756002565025,-0.1924981397031908,,
3.851471000000004,-2.951031446688918,3.4845817735103988,167.86617937225168,-2.0814313109610905,0.605611400759249,0.0284830520026413,-0.1880353235611654,0.6971831040531834,-0.08733150575076,,
3.86115700000002,-0.911748592226864,0.1216313728301999,167.49525420433238,-2.616020311518085,0.830711162826556,1.5509018249004554,-0.2512198797794283,0.746190813727082,0.0330494054469172,,
3.870670000000018,0.9836513381803124,-2.7166866102051483,167.668711705444,-3.195526495265294,1.0102499417360282,3.024968884656748,-0.2452358271024603,0.6377785118785737,0.1563633456817725,,
3.880178000000001,1.9629352964052784,-4.332535993267861,168.13687368517546,-3.6448247734283625,1.427906693423049,3.1193774375605936,-0.1212653917010761,0.358154579368847,0.2535154753805201,,
3.88969800000001,2.385986807921064,-4.855915560007454,169.2147289834626,-4.003877214435152,1.518961740421202,3.0285947507567146,-0.0617268831562759,0.1195904759065257,0.3165815652086109,,
3.8992020000000025,2.283275332858625,-4.492180894510972,170.53846700970706,-3.73551033370388,1.2410474321843068,2.6562288637088103,0.0072459133409131,-0.0753134176072125,0.3029910053216544,,
3.908706000000024,1.479849723331111,-3.649212386155365,171.47002886679843,-2.6492735813426944,0.7905538842574118,1.8927662271924464,0.1320986326620877,-0.1917976616864924,0.1750787078380812,,
3.91823100000002,0.0555149768400715,-3.0002804251134503,171.36141486019574,-1.3669002548815283,0.3368271920542734,0.9254174844691084,0.2621278862129276,-0.1709681285317456,-0.0382839995151092,,
3.92773200000002,-1.7776035771747696,-2.5508577199108102,170.13533671970245,-0.1447251027693847,-0.1611531690897354,0.4377202938956411,0.3473818259197498,-0.1477518539582321,-0.2632206840051471,,
3.937229000000002,-3.78858990978104,-1.6872584506398494,168.05617678361347,0.9791349732036064,-0.4564058434888232,-0.0950165855578667,0.3626124086373743,-0.2456443650139885,-0.4479519698052887,,
3.946577000000019,-5.640590688958143,-0.3313989913281718,165.64092661203304,1.750642007422558,-0.630772651305888,-0.383824326620059,0.2999291554825575,-0.348195197971058,-0.5308755552811053,,
3.956085999999999,-7.286956438635912,1.2743062963017633,163.49751701697733,1.7455277009046668,-0.3709666803191672,-0.5192995737458652,0.233138185787297,-0.3971088426154991,-0.4782495554736789,,
3.965596000000005,-8.261694335612843,3.689493308624328,162.20026496754684,1.2002874738918146,-0.231002998671597,-0.4761467474298005,0.0448502207870232,-0.5194924698674362,-0.3008944186345428,,
3.9846220000000017,-8.908836435562055,10.955215867318634,163.50494628295672,0.7970009456795977,-0.0716592232996148,-1.3874823818613544,-0.2064854535411129,-0.7192139337704245,0.1908004355987977,,
3.994216000000023,-7.909360648537857,14.115597205556146,165.56576267644755,0.775676499216887,-0.260827899040193,-1.5764454939194872,-0.356352967916494,-0.5582271995547451,0.3409883337521093,,
4.003727000000026,-6.427572373944273,16.610614005568152,167.71635549006908,1.4239444264598249,-0.4281291218372023,-1.9432177834912217,-0.3937993672832077,-0.4199329470564348,0.3518670373258318,,
4.013148000000001,-4.812639488273481,18.13782879942693,169.27358826102818,2.426845792993873,-0.6308319960027022,-1.877120123979061,-0.3635465169732051,-0.2378433358197892,0.2298424009822109,,
4.022649000000001,-3.3354920327788613,18.41345178759242,169.4755812302121,3.186969919597586,-0.8556368596994944,-1.2741808068924867,-0.2862087521680115,-0.0016975153499082,0.0083216128771061,,
4.032172000000003,-2.0913693130763376,17.653061426737086,168.17412923345023,3.705069440312765,-0.9624076637569596,-0.9749594646224256,-0.2021086682756521,0.1960679603548283,-0.2472377722658708,,
4.0416870000000245,-0.867383201601678,16.26455417134575,165.72043788144748,3.8030467687327714,-0.9393849109319232,-0.7611543383571395,-0.1642875062240441,0.3244562501153925,-0.4700845946524987,,
4.0511780000000215,0.5399316574919696,14.704235839099628,162.7289399780797,3.48149125669762,-0.6949920169525942,-0.8171896986926952,-0.1750518109283989,0.3751517503522728,-0.5898813157815314,,
4.060684000000009,2.2348476721483603,13.213690646785809,159.78033636680635,2.744153147232436,-0.321031522789694,-0.9453310190874672,-0.2141470463939252,0.3895076288187343,-0.5624369084212573,,
4.070220000000006,4.050230570451809,11.758449475863,157.6877694762601,1.7469753541566844,0.190551281126547,-1.2040901308741694,-0.223202300459591,0.401303327736717,-0.3903747445483039,,
4.079739000000018,5.859793573368563,10.089938941097618,156.84837961818752,0.6601138164949492,0.5885429020767367,-1.3013953166402412,-0.196721612205533,0.4466152461856265,-0.1169503672347075,,
4.089249000000024,7.369336366308971,7.624422757630387,157.35614589134428,-0.3734377563129007,0.9291338715642844,-1.259138451019751,-0.0800158590653833,0.5713827919897903,0.1776621780558077,,
4.098744000000011,8.507296049721448,4.075402692687108,158.76026407093983,-1.4295994223562158,1.2441264947306518,-0.606169154141517,0.0598346442378578,0.7435004321582985,0.3993274771268039,,
4.108439000000004,9.026134851172644,0.1827851060385844,160.58351171729575,-2.1489010461499816,1.4694378103687686,0.9919930246610144,0.178614928074285,0.7657932018114311,0.5168892155601915,,
4.117941000000002,8.592214879101109,-3.153250079234918,162.42161442082718,-2.664124886086942,1.6480853813670602,3.144039554142846,0.2981405828430935,0.6040663309441545,0.5106060691722196,,
4.127459000000016,7.202843771797569,-5.439517756061723,163.80587898248965,-3.430602017725408,1.5713288624229655,3.4963647844355776,0.399951763522991,0.3557478397329162,0.3534927297830433,,
4.136958000000021,5.249404173038739,-6.48686831052681,164.11442244641,-3.947515538484381,1.2756664590298272,3.5986359545106,0.431991790499373,0.0932037845976811,0.0652988500300025,,
4.14647100000002,2.651156987611509,-6.259727946639231,162.99128739247814,-3.7461813908148622,0.932788050780255,3.527646873531137,0.4830051456031124,-0.1900007259303877,-0.2825708393856101,,
4.155984000000018,-0.1126100310679039,-5.603075084481234,160.53484379372046,-2.9929325690792736,0.6723826370341934,2.2070680693416924,0.4820151054248527,-0.2966003287978861,-0.5743383399824082,,
4.165489000000008,-2.375568663484072,-5.187684557108776,157.41788179479752,-2.0749971560959986,0.2152700681361242,1.2496886526242583,0.3916005075156697,-0.2389992274565781,-0.6957520117613805,,
4.175003000000004,-4.662969778994127,-4.7712584425727,154.5232822678059,-0.9762699891129704,-0.0290957127505514,0.5622933920947524,0.3831401086890889,-0.2615257314920622,-0.6462421532782668,,
4.1845050000000015,-6.795070743155513,-3.861364252139642,152.64075889755176,0.1766282328773137,0.0364784114798079,-0.1996525196865949,0.300681361452682,-0.3521643017381217,-0.4395189942014376,,
4.194034000000016,-7.926390404847419,-2.1635236446786386,152.1928054070776,0.921640063527252,-0.3782911020085235,-0.3965164047267563,0.0435267322070862,-0.406005976911912,-0.125815576917104,,
4.203353000000021,-8.549613408713885,0.2319661905869742,153.16867085803122,1.0426698857017045,-0.6001651564782404,-0.4188793467406643,-0.1088908511211299,-0.4834929771560743,0.1753334266688136,,
4.212865000000022,-8.734781298733974,3.562593853872042,155.1357196986337,1.112645284581545,-0.4116351866720166,-1.0523361950713468,-0.2570733266385896,-0.6164829855791195,0.3826414574761881,,
4.222373000000005,-7.927222472950128,7.576999733259697,157.68542341717117,1.2395956635744096,-0.5606735778097776,-1.3547430412155617,-0.468108486269653,-0.6729955493288667,0.4575197842722813,,
4.231893000000014,-6.692728066468527,11.27781752616938,160.0612357879718,1.5833187092751115,-0.614898454211219,-1.7649200590700471,-0.4940129315449091,-0.6037632176890121,0.4134070683452125,,
4.241390000000024,-5.246247582381283,14.093449849841614,162.12451988866303,2.087337829131413,-0.6736118048022579,-2.1288597883290907,-0.4483045775098052,-0.4434916563724977,0.2610046262354525,,
4.250905000000017,-3.915992500386202,15.961436834822464,162.80016431619626,2.72159612623528,-1.0378268901415808,-1.8480719740024028,-0.3576805302240116,-0.2795036280100324,0.0403524412981309,,
4.2604200000000105,-3.270537256334665,16.483027854705323,162.02023663895966,3.609855791320358,-1.0546313040469972,-1.782683808255738,-0.1499188044577945,-0.0618950695040307,-0.1681965340350372,,
4.269929000000019,-2.401352904763045,15.394949132154933,160.05574297048517,3.903432317438865,-1.111515392350079,-1.369294489693302,-0.0866442152257343,0.260704930030231,-0.3674109357205651,,
4.279458000000005,-1.025721636018632,13.415423585612634,157.39332378202946,3.826437401148501,-1.114542663130344,-0.9959697367378664,-0.1025194271034521,0.4666749001064598,-0.4888559592546583,,
4.288963000000024,0.6896583405312312,11.474030713015644,154.7755743372972,3.70546263221468,-0.8738134152066175,-1.238451414426712,-0.1462831533982674,0.4921581086758591,-0.4686876137784403,,
4.298455000000018,2.901868335069523,9.640643355655271,152.92734397743968,2.9574581133359734,-0.5500096837981211,-1.1714755573509907,-0.2260329382177041,0.5227637113286633,-0.3143495592774078,,
4.307974999999999,5.180189642952306,7.887281302582978,152.03449989087068,1.724050091690846,-0.0775340045989626,-1.1267798164000629,-0.2344552071128603,0.5210897965569073,-0.1064855637284563,,
4.317488000000026,7.076812154638391,6.142557649040005,152.12741341642203,0.4894761121469316,0.4801169892482765,-1.179092127895136,-0.1665917153019609,0.4861442628110295,0.1096591291553486,,
4.3270020000000216,8.59338702228182,3.7357886490213,152.87415898404493,-0.7675572806308278,1.068622727342153,-0.916197355685152,-0.0423887258239116,0.5674079942833699,0.2642514691243166,,
4.336505000000017,9.684489398763064,0.5246653603289917,153.90225963522747,-2.0590986084614475,1.708659224873998,0.1085684057836914,0.096647033751565,0.6721032313922435,0.3294013997065828,,
4.346198000000015,9.953629665952072,-2.605109369337582,154.97795886896012,-2.7748770369635496,2.2038983542957,2.173240694369372,0.2246454261128107,0.5875089720918297,0.3285173212911063,,
4.365220000000022,7.193353828813079,-7.720212488213536,155.5687010481326,-3.74092494731578,2.074326407622616,3.307225614618339,0.5343634065551074,0.2738882277788591,-0.0079214588037541,,
4.374718000000001,4.718043443465259,-9.028316880478044,154.4796375976794,-3.343374491635163,1.600543419721911,3.566207760709779,0.5551121848465961,0.0297666642781869,-0.2662840843932457,,
4.384231,2.130550975180112,-9.244993848947264,152.49350934396003,-2.4652711725518905,1.10729023625837,2.6788330439867454,0.477171502646841,-0.1894053607464458,-0.4864196034095849,,
4.3937310000000025,0.0919663870413434,-8.97377036630026,150.03196231013482,-1.575519638138944,0.333271403104711,1.8356449017921528,0.3275886971105557,-0.2410526349526285,-0.5827835436663081,,
4.403251000000012,-2.120537585706937,-8.466893374906016,147.61103991785038,-0.7465088899857081,-0.1596068011512396,0.9458554058228024,0.3224204791955898,-0.3132539141553563,-0.5727956850814171,,
4.412774000000013,-4.587497507768537,-7.228105272726821,145.86009595192775,0.1348004824926163,-0.147658749955307,0.0676165478998,0.2735222614984113,-0.4755790779606313,-0.4361891637889684,,
4.422305000000023,-6.392638953175293,-5.127999715637977,145.25621559123843,0.7095053681673552,-0.4569567023831566,-0.33438061796768,0.0587944681475088,-0.5499775811758121,-0.1694451663940102,,
4.441113000000001,-8.356384238688811,0.6479230304430141,148.2392439556313,0.4532461248269049,-0.3703022027621994,-0.7646662254540554,-0.2264089258355263,-0.6191353592493005,0.340037484738668,,
4.450626,-8.010492998654804,4.298345021325345,150.90881503554226,0.3710280493085801,-0.4491452371123977,-1.044003736109974,-0.4275558481946515,-0.5968871957637689,0.4431621165287803,,
4.460132000000016,-7.0340689103674405,7.540542721165618,153.4855352436754,0.5311636211159622,-0.460358517526037,-1.372075225760536,-0.4731123308810055,-0.4852231463649908,0.4135080316957998,,
4.469722000000019,-5.745313857398787,9.984296332426652,155.08831953092175,1.0083487582313804,-0.4959530274174636,-1.801543428707954,-0.4419388601085324,-0.3303788681610224,0.2714084155641769,,
4.4791560000000175,-4.218583614367557,11.747381959167855,155.3766008175975,1.7194380762732984,-0.9218377741518,-1.828236049151412,-0.4209350931252802,-0.1937843729629976,0.0527759013367126,,
4.488664,-3.1365219733474805,12.822771708710803,154.47038247230606,2.6312057633671104,-1.330949919549304,-1.5720785734208509,-0.2833081856841524,-0.1044781088229329,-0.1612272271007816,,
4.498168000000021,-2.475822726650787,13.073313814162528,152.66567171107496,3.531206639670064,-1.4383142852555817,-1.5012289994681238,-0.1377467795956583,0.0128972383234803,-0.3198621110579985,,
4.507698000000005,-1.3877748869143725,12.686796967435786,150.40277956395346,3.802473640686532,-1.520346173786942,-0.9367076161481724,-0.1491884357862428,0.1698296383680363,-0.4154928510423604,,
4.517220000000009,-0.0855700885680739,12.39169539486912,148.36412203153452,4.18550959426356,-1.4321183451744617,-1.1072496960428158,-0.1881174199938122,0.1813526769346124,-0.35855997257083,,
4.526731000000012,1.8503522039582525,11.928672493425513,147.00244179503866,3.5679236231945706,-1.2222184519096144,-1.204443688551794,-0.2692024510135026,0.282337803790205,-0.2338425441633473,,
4.536231000000015,4.051438646338923,11.307262031870872,146.2531780011974,2.2995472446732577,-0.7140224937575739,-0.9532000467628592,-0.2900868218741401,0.3430487245170014,-0.1053778647124203,,
4.545738,5.993198159167682,10.608508170703288,146.36009982787868,1.6294742541104876,-0.2554868454818913,-1.869403686925582,-0.2383052439064399,0.3293612345395902,0.0642191685181166,,
4.555341000000027,8.217167378559633,8.772408817963019,146.93826888858734,0.4450883864562395,0.2759829829309488,-1.7600931853255195,-0.1616787319056167,0.5492462276178692,0.1623343600048022,,
4.56477000000001,10.134639116892757,5.688699486522916,147.6069151724383,-0.4109403788940479,0.6736503941557219,-1.3301813612872682,0.0173260901038346,0.725239352964191,0.2117866287215853,,
4.583949000000018,11.885200615635584,-2.2371343617373203,148.23781782746096,-0.4910300542594251,0.8194814697844982,-0.283093406205202,0.3436643095225397,0.7707363260001161,0.1318813906359903,,
4.593461000000019,11.701373476986063,-6.592378492828035,147.76994887334732,-0.3349584257968374,0.8236025829847159,0.632529179271295,0.495860031558762,0.7182709284156458,-0.0112548019109734,,
4.602972000000023,10.919446070258712,-10.147473498108829,146.8371609241023,-0.3446300521757405,0.9839097324608224,1.9925353830965584,0.516445187083688,0.5137807170211057,-0.1401330351694273,,
4.612477000000013,9.574509709381063,-12.150159091357969,145.68501951800485,-0.8567158625935589,1.199062077194046,3.152121645373336,0.4429969326079892,0.1853505780437864,-0.213271677094492,,
4.621986000000021,7.410288343174826,-12.768072131062294,144.7758799118713,-2.0255175834092785,1.7334304822445998,3.351119878044828,0.4179839977987987,-0.1401480918452576,-0.2500604135368233,,
4.631513000000012,4.825149752480209,-12.218855910948562,144.20742571875817,-3.1932187988457503,2.400528169376033,3.5959176589456874,0.3476476570014359,-0.3829164377300769,-0.2332706425464475,,
4.641002000000015,2.4424738793016605,-11.083537559937,143.92530862306802,-4.015233460866255,2.377178547068534,3.685797761489033,0.2456198390157249,-0.4578870659130943,-0.186268099787529,,
4.650529000000006,-0.4569016284698175,-10.1615125020064,143.71198208569416,-3.753786729237457,2.023598025749964,2.4346832613961027,0.3524452211368421,-0.4852096380021273,-0.1899561767505268,,
4.660041000000007,-3.3863511698006987,-10.05364488495466,143.51822623378936,-2.527722452656349,1.574148485091354,0.9294534816685542,0.4525984072535636,-0.3592690591385881,-0.1754170677359659,,
4.669451000000009,-5.272810748897662,-10.39995734521418,143.3122814590252,-1.264626741700242,0.3115958695613726,0.8634380189484027,0.3398063338731807,-0.1658749713355977,-0.1082907623291199,,
4.679060000000021,-6.933661637500904,-10.342432821982834,143.12501346300527,0.0683150794595523,-0.7725915834549881,0.2482818318239952,0.2548877888824775,-0.2053484713259136,-0.0739214940771586,,
4.688380000000024,-8.330544140794258,-9.363539441560643,143.06914714023355,1.2553049283331068,-1.0966833159223393,-0.6966930151520533,0.1023742388881784,-0.3222899024669141,-0.037546790173019,,
4.6979060000000175,-8.53219640310435,-7.5626299926849985,143.21178067604887,1.4852019361905784,-1.4708116994726232,-0.3886377768488702,-0.1846237866589102,-0.3123036530831408,0.0429584466286939,,
4.70757500000002,-8.347619672732428,-4.716692880648323,143.49012176728075,0.9933215107924466,-1.0218014341261714,-0.0354194373338269,-0.3699288536579033,-0.4349842998146767,0.0757630221640066,,
4.717104000000006,-7.816891360149028,-0.7103914305999545,144.07438714473565,0.5420689176472271,-0.2506783229807798,-0.4173262833858268,-0.5590539014118757,-0.5849753293679938,0.0998825475271027,,
4.726593000000008,-6.629925067891996,3.346772455587118,144.79905828401763,-0.1525635740462592,0.238606137202379,-0.4241325232984577,-0.6657717491388059,-0.5225884900085738,0.1395567376504627,,
4.735960000000006,-5.22441783011662,6.696223617727234,145.3022658038527,-0.7156535266488095,0.663882292913222,-0.7735779241813089,-0.6155362017007863,-0.3865998663364819,0.1679806827057844,,
4.745543000000026,-3.995643291776596,9.478093008586956,146.04500345358016,-0.3989332309295357,0.6447986054017686,-1.476401551371846,-0.5161246884801668,-0.3212413181847843,0.1748401685858347,,
4.755061000000012,-2.859759603701434,11.584052118878354,146.6778762100027,0.5605662409048368,0.080510021017342,-1.9308544564756585,-0.4203604360373847,-0.2260443390216897,0.1470613006464938,,
4.764465999999999,-1.949104265861273,12.894636370139752,146.93196407022975,1.7350509687855895,-0.7828982566703832,-1.808467648691381,-0.2931308741079232,-0.1211869130041116,0.0779125457772608,,
4.773980000000023,-1.464155429142967,13.805460184324224,146.72118140559323,3.0270629842174066,-1.6522975436078102,-1.7754386513985725,-0.179077223761128,-0.1005784883370619,-0.0167720647415672,,
4.783485000000013,-1.374447459466634,14.58429357195762,145.856394446592,3.932706928717152,-2.2292721500909543,-0.8299004969030829,-0.1013648970573388,-0.1197789827666848,-0.1147891885410125,,
4.793027000000024,-1.5627251326650136,15.984198444474211,145.17306592887593,5.465424272463944,-2.542203245167411,-1.095222435829209,-0.1294701439516438,-0.2512520457359267,-0.059265096131323,,
4.802514000000002,-0.6528798731105332,17.077063700569685,145.0958628151209,4.82995794677765,-2.809587048863103,-0.1920356184267994,-0.2686147593680423,-0.0789203990886154,-0.0006516072826081,,
4.812022000000013,-0.3459856701340995,17.986858929963063,144.60619727201265,3.386539093141089,-1.9883396871388344,-0.6139927069330341,-0.1531341442198578,-0.1147500672154748,-0.0467232719233187,,
4.821528000000001,0.0639900019102761,18.971054686167967,143.75507565809758,3.112118450334758,-1.4927664644164995,-1.9288381679349509,-0.1787664854492521,-0.1137468495564585,-0.1348314852390693,,
4.83104800000001,1.274571242278773,18.394956030688103,142.661156862279,1.485373899682769,-0.8548486836970882,-1.410697648587923,-0.1139654504856839,0.2303137421781578,-0.2131007677302881,,
4.840638000000013,1.8183198146801407,16.024359770326026,141.4638771276141,0.6090187509436199,0.1834935927093825,-2.214736438420738,0.2119335613490186,0.4372663442237766,-0.1595942429810717,,
4.850159000000019,2.7414734114411035,12.796193170174922,140.62706174191263,0.0034024106249669,0.5923737381724574,-1.9405073486845787,0.2701962072540462,0.6138614967607392,-0.0989854920873293,,
4.859584000000012,3.614828845026792,8.789405366147072,140.12384593370408,-0.0680653319126774,0.4055319001913322,-1.066123219225671,0.3829882805681721,0.7255639892653026,-0.0171196707924449,,
4.869081000000023,3.9160527124302686,3.703907866285413,139.73075734785496,0.2686754697761672,0.2917151500352538,-0.8121595315316722,0.6137364711244147,0.8147117438538379,0.0306158507651698,,
4.878775000000019,4.177788561615995,-1.6136787544023967,139.34833253041623,0.3888685161903447,-0.0962359307426506,0.1392947826907042,0.655209625273756,0.8408775878348816,0.036008794189719,,
4.888290000000012,3.861045183424368,-6.002181187010885,138.90485626746712,0.584668319287611,-0.4151758318290189,0.1275168972384925,0.6255343684054888,0.6203320550356551,0.0053785515171601,,
4.897789000000017,3.244541530266841,-9.28463361333659,138.28939028768096,0.3143006748293241,-0.2331702853001727,0.5629688745016009,0.5279681066749605,0.410086167960883,-0.0542095844218386,,
4.9073060000000055,2.472012807900065,-11.262716496615337,137.54292265546957,-0.5451440702856258,0.4274476764122716,1.955328732156867,0.379002535349848,0.1907577077966848,-0.1061032287908113,,
4.916823000000022,1.2807910464559469,-11.57370086011196,136.91432460200133,-1.7310188606178858,1.6877277667822876,2.7850673086086903,0.2137118026604534,-0.1134227283643279,-0.1338830910188946,,
4.926330000000007,0.1522873980852385,-10.654108292993442,136.50041556322023,-3.013149373084726,2.9486598801241763,2.83477295853486,0.0348949893661461,-0.286083894092824,-0.1078759050119003,,
4.935838000000018,-0.5882346862350049,-10.014853486835332,136.1489211256722,-4.313057096226938,3.794724720825399,3.214558164453058,0.0169075740349757,-0.1933237956451411,-0.0727322616315108,,
4.945348000000024,-1.4433469397301089,-10.159572988814553,135.5770980198606,-4.317051595702523,4.049372912767742,2.828867464400597,0.1409471313080561,-0.0968997315086663,-0.0945649579607715,,
4.954860000000025,-1.702765023886427,-11.095754157450914,134.85209885942004,-3.427119829461929,3.0188516910335266,2.544858392867688,0.16855434871047,0.0966061766148943,-0.0905857978982058,,
4.964365000000015,-2.156014023368215,-12.43713848062732,134.10320328577424,-1.904061419874221,1.434162283261569,2.082567304311134,0.2543119183460136,0.1239143336626619,-0.0902797127325425,,
4.973874000000023,-2.9337102703536173,-13.280253289879845,133.4949603390213,-0.3315756643785136,0.1894367897107959,0.8635940599069666,0.2269403772229405,0.0065128302005186,-0.0803055145742367,,
4.983382000000006,-3.458606048908825,-12.725185701610824,133.1121586239636,0.8908236945354266,-1.1987422250044488,-0.0161294654487553,-0.0110649733911445,-0.1507181650069729,-0.0361789632810389,,
4.9927160000000015,-4.059446053953973,-10.85296940666149,132.9784706675186,1.557526331557599,-1.7471321140489915,-0.5053902548865492,-0.1941403696608012,-0.3416177734739571,-0.0129154877155775,,
5.002235000000013,-4.474509458708129,-7.788190566180777,133.17003427559771,1.2442719016222223,-1.264056970950686,-0.1228514399237789,-0.3922357885630656,-0.4790000299135706,0.0248806970244468,,
5.021421000000004,-4.764521682158663,2.186575557997112,134.85164553736982,-0.1028442596343313,0.2719796494678949,-0.3624140779445188,-0.7331679606859192,-0.7546480935646153,0.1175028251150466,,
5.030765000000002,-4.539948014414671,6.378610613617075,136.11743753652615,-0.8149134746901119,1.0440891974344118,-0.99980732697575,-0.6188369913513065,-0.5688431771917115,0.1844524217895997,,
5.040282000000019,-3.995502103435604,9.659240822384712,137.2952967423569,-1.0547212384683249,1.0796318967732432,-1.3899553600078522,-0.5290219437407855,-0.4040719428188429,0.220549562830215,,
5.049866000000009,-3.647165299337557,12.104773618673928,138.2373397084866,-0.1916225517408999,0.4400285968168683,-2.1191601541628926,-0.3805287762969336,-0.3156941117868503,0.2248759252713194,,
5.059370999999999,-3.300059056267303,13.247000499201135,138.89492881813388,0.9216830614885324,-0.6346104173165362,-2.014772073486278,-0.202492373846585,-0.1260977288264844,0.1727173316150862,,
5.068799000000013,-3.1678685850339936,13.654368245432869,138.9389005094729,2.0042423887693115,-1.668767330486196,-1.5178196017021628,-0.0731383925561224,-0.0443435047085909,0.0721146929273352,,
5.078322000000014,-3.3093758794515,14.209072705148303,138.3362002740028,3.390633962952267,-2.7143550755444315,-1.4556815053938392,-0.053045257796882,-0.1013813948571518,-0.0483239653116806,,
5.087828999999999,-3.393015280121122,15.213693092826396,137.48378654010077,4.080239614773671,-3.045300029737736,-0.6771007816640799,-0.1232176045485213,-0.1598193695522099,-0.1083725709604483,,
5.097324000000015,-2.7242679416684124,17.032655622241144,137.3476888061398,5.329788489073422,-3.7223307818747458,-1.1088574531900326,-0.3416769803915757,-0.1801327590059014,0.0011595989817822,,
5.106854000000027,-1.4510683871095829,18.47963883701648,136.7583808727034,3.3189148688338075,-3.1349269349509523,0.3625943762338192,-0.375292235250769,-0.0451439866654413,-0.1038118292383039,,
5.11636900000002,-1.3997743196397123,20.281992657696385,135.58417853247863,3.20529415536725,-2.171865549835999,-1.753646249945678,-0.2576716251698197,-0.2528580028245029,-0.1691616782122948,,
5.125864000000007,-0.0138382231848416,21.01763728533277,134.4492219185216,2.1805178724731373,-1.5755598615102335,-1.8311618979595583,-0.2875486674641276,0.0802850344856739,-0.2535716841801314,,
5.135464000000013,1.535333858147365,19.50923474647142,133.27133901289744,0.8544620073152323,-0.5590998377474947,-1.8097237428652235,0.0184344564870862,0.4189895921372559,-0.2166511239589692,,
5.144968000000006,2.6677553526004325,16.502804628351356,132.5519574314441,0.4618284542993544,0.4251758344155385,-2.6574056420414287,0.2968639632590522,0.56632729130262,-0.0996219789569854,,
5.154476000000017,4.479385506681625,12.705556813659108,132.37949077897252,-0.0162939080578203,0.4108809763659873,-1.470020833537825,0.3271631911297686,0.770840435766159,-0.0256799198969216,,
5.163904000000002,5.475968215305075,7.6911817972961085,132.25217887843533,0.1652678649507392,0.3079335545981361,-0.9519142159008216,0.6139179124847799,0.8183437022127874,0.0449026865430792,,
5.173598000000027,6.03237210703286,1.8483986021574548,131.88951091848293,0.2950185787405592,0.2464179860184581,-0.4195897582429991,0.7982648540165245,0.8623840211835955,0.0314777491339123,,
5.1831140000000175,6.377992734342755,-3.42311168290438,131.26240422218933,0.3186876531867877,-0.2127473108608579,0.3733856035562816,0.7471105613297608,0.7487861848635501,-0.0189060460291919,,
5.192619000000008,5.991304726318441,-7.60910556230367,130.2001030407536,0.2828326611564909,-0.1508200265052357,0.379312180735015,0.6874991949114988,0.4855707097221396,-0.1225783958612215,,
5.202126000000021,5.437815788508615,-10.777904345529974,128.8087657479782,-0.3196306344777366,0.4601665219039489,1.6158422985872145,0.5602280995599129,0.3173101802985688,-0.2189415933983422,,
5.211632000000009,4.225190713953069,-12.45293016013755,127.45683413500082,-1.321575787484165,1.5651127364492858,2.6994530653075444,0.4107083971006411,0.0192008362261876,-0.2743537714230328,,
5.221149000000025,2.237169992852641,-12.49458412185918,126.47993316264149,-2.197376790682654,3.045701268839225,2.770955619273153,0.2401952036261582,-0.3056778914839089,-0.266288439629175,,
5.230659000000003,0.670351442368202,-11.917601094495572,126.00048819335628,-3.072220517382575,3.9499001368267854,3.145487539602175,0.088098502844972,-0.3156047238545084,-0.1623144885377231,,
5.240170000000006,-0.5904021468352761,-11.556249945994184,125.831875452896,-3.6245178927470927,4.330574656465304,3.0787310989981016,0.0861733041065766,-0.2426854141387214,-0.0646333804093238,,
5.249673999999999,-1.5360871132278493,-11.535912060603678,125.88790195180304,-3.0024480542235072,3.693282430236336,2.141933809438835,0.1051321417547453,-0.1529084442317337,0.01016796691446,,
5.259195000000005,-1.8991702437592104,-12.3210946330851,126.09103198773188,-1.9325090822377464,1.871646398030587,1.6175105667443843,0.1690832624921794,0.0344457102538907,0.0782049757801101,,
5.268712000000022,-2.4712792020578265,-13.441804893577304,126.26599719239624,-0.6735527128528673,0.2500073403287519,1.1279375566051333,0.2471719691279682,0.0415824528392909,0.0782951779918548,,
5.27821400000002,-2.976000700378986,-13.63276512976843,126.34798558524491,0.5517800727009493,-1.1533052083129824,-0.0970367119753652,0.0888332797691688,-0.0567777029392105,0.0551803144030994,,
5.287540000000007,-3.0196128907761555,-12.34538208453104,126.15680783898593,1.3529858849081824,-2.2715629153016184,-0.6933137568281994,-0.2032863966926879,-0.1587190288758298,0.0244356096241724,,
5.2970450000000255,-2.866578623422925,-10.025172222887765,125.7307494635203,1.3888841858881704,-2.1051542568436554,-0.3846030833104622,-0.3943445820250048,-0.2474249105925725,-0.0249237335987935,,
5.306562000000014,-2.5633283276222003,-6.152515203973206,125.27432357035094,1.0084929039683677,-1.2370448634334017,-0.0909970824536121,-0.6667472830945028,-0.4003999468488607,-0.0497121748635215,,
5.316279000000009,-2.106855587215241,-1.08642119889395,125.10879194476196,0.4783826020735298,-0.2862981123169263,-0.1495173051764352,-0.8816520220149988,-0.5098455224832689,-0.0228197809108102,,
5.3257600000000025,-1.5309300032161726,3.4548361932429072,125.32042895472335,-0.1375139530667229,0.5396913353951994,-0.4425817761758625,-0.8095532356093833,-0.4297655096822949,0.0496224564572012,,
5.3350930000000005,-1.0478627122853033,6.805864008219827,125.84107402500096,-0.4786461481583114,1.2192419360266318,-1.1036222217797236,-0.6023350982477245,-0.3109150088320755,0.1384236073309364,,
5.344702000000012,-0.4394711117142719,9.435251304158372,126.72640415368312,-0.1132299798157112,0.7498318454076449,-1.843230640056906,-0.4962466139662978,-0.2132157304092524,0.2120347548817438,,
5.354199000000023,0.2561009173227744,11.029622474582023,127.72086075589417,0.6662948571406497,-0.4314204622998033,-2.120567823122079,-0.3373157669548465,-0.0831636361285046,0.2296411917738456,,
5.363619,0.7381582287781511,11.485127053101085,128.376060082254,1.5864284964490842,-1.641891361702495,-1.7858409288774937,-0.130114340353122,0.0186989124590484,0.1766349867277805,,
5.373134000000022,1.0361306279851992,11.60008963064076,128.4290085137397,2.571220753272125,-2.9967274613900003,-1.4521989653283724,-0.0542648200026544,0.031656434629099,0.0605043093647187,,
5.382643000000002,1.0972694883020218,11.729874300649238,127.76927408392424,3.1955749827082545,-3.734087920533368,-0.6671025472863619,-0.0278624385166702,-0.0065361896386061,-0.0829395795797414,,
5.392167000000001,1.1457180988407254,12.464956012912625,127.31398143450356,4.403709907838888,-4.397732001886887,-1.4636978179568414,-0.1226223337082313,-0.0819550013442571,-0.0542800362227243,,
5.401665000000008,2.262370860113062,12.921550742971446,126.8533254351105,3.08286862953079,-3.8022397564950783,-0.2824184621677195,-0.2041624498185622,0.1193807620184073,-0.0854144947312589,,
5.411179000000004,2.62380466713494,13.653249652750672,125.77870957693422,2.337966380663587,-2.4294019992250644,-1.2130850560852515,-0.1598438962661429,-0.0295799625662981,-0.1695616212650262,,
5.420694000000026,3.452972234601842,14.23913417274681,124.52257660530545,1.808986557463837,-1.6655359234550355,-2.039402410167997,-0.1885418350593711,0.0646338839858908,-0.2400708355030057,,
5.430302000000012,4.60433317620917,13.048120578533355,123.21954172923614,0.6290155595951386,-0.3987457517577772,-1.7281404526951814,0.0740654985199454,0.3187091470531416,-0.2485269266287153,,
5.439778000000018,5.181928741896512,10.06471224205378,122.20385518969096,0.1288051950068866,0.8764997689078767,-2.339281737340145,0.4427641772766403,0.4166978102701265,-0.1502544015942523,,
5.449225000000013,6.169314084090968,6.237695765900076,121.82025638088795,-0.1990681124316843,1.0568191890068457,-1.5522623169878975,0.5479614666140293,0.5702570251715092,-0.0249006876065744,,
5.45872300000002,6.755711766541782,1.3418903248625649,121.85506222184684,-0.12705289753657,0.6857369676755372,-0.800028413290093,0.7730261202600048,0.6140670459216164,0.0762624490455517,,
5.468423000000001,6.734926175393532,-4.703846201602641,121.97437412704562,0.1497387973065396,0.3184857552467716,-0.3384234992981083,1.0316088628513571,0.6333675298704606,0.0915307895763525,,
5.477931000000012,6.543772871133828,-10.671844110723711,121.94883321049176,0.2268735602648626,-0.2642281527676556,0.4025241053930139,1.0356833702145525,0.5972495475387628,0.058541450376923,,
5.487436000000002,5.914442177776964,-15.548223375062497,121.61463086454572,0.2393234559393869,-0.4845738888617773,0.4142347517562217,0.8956283146163447,0.4077057948120938,-0.0396129221289026,,
5.506467000000015,4.4027488089922135,-21.33988833188625,119.73541091233308,-0.7719165720205615,1.2371024674237243,2.467723349796571,0.4406705052776339,0.0715083665949848,-0.2493429487358373,,
5.515978000000018,3.402484116726266,-21.4304791688184,118.61838334572214,-1.3866573347123434,2.68929231082304,3.04418445296227,0.1065851613964815,-0.1541112756703411,-0.2709728952933405,,
5.525487000000027,2.796378078213311,-20.448205558262,117.5955858951438,-1.9144008692084968,3.620983948334398,3.4526607703572294,-0.1204051759480321,-0.1924399173614568,-0.2096803156019603,,
5.534988000000027,2.339533586681321,-19.88892439242487,116.8934676982854,-2.1577730171692155,4.3085002423106245,3.267962154376123,-0.0604046133397774,-0.1275326620944609,-0.1445362915368802,,
5.544504000000018,2.100164463173539,-19.91516915486692,116.55140569433804,-1.721257258065036,3.604041906667088,2.670089811590286,0.0248972439170677,-0.0379300689511478,-0.0477280920819284,,
5.554012,1.9501310239679468,-20.724275601794808,116.56229478734016,-0.9687658390604622,1.927833756205931,1.754383545720672,0.1575952233406346,0.0469369809522731,0.0346364233097107,,
5.563522000000006,1.5624986490094304,-21.954623287455,116.7241147610919,-0.0699570520193465,0.1902026423967002,0.9922054527555602,0.2527134675601979,0.0452775218760194,0.0565168435340284,,
5.58236500000001,1.0159165589025725,-21.54666272137215,116.95221038465516,1.2209492978056262,-2.3963323556476563,-0.928251296288678,-0.1531489265853255,-0.1045642149713236,0.0297843333989358,,
5.59187,1.1842416779627818,-19.57399579712851,116.62452034249628,1.326286759112834,-2.3759756071638827,-0.5971992636009047,-0.3670446555654127,-0.1492820808376636,-0.0184848800851889,,
5.601393000000002,1.582355813182229,-16.210542736685333,116.21937288452804,1.0509218685971902,-1.5333702298418903,-0.0440328958131713,-0.6370214130314836,-0.2312960172737695,-0.0410146404641664,,
5.611084000000005,2.004411087332848,-11.728997426301715,115.97172938536232,0.6129011595407259,-0.4855750819555309,0.1279761843239297,-0.842023963939766,-0.3207974922659965,-0.0225849899561471,,
5.6206160000000125,2.3035854075606848,-7.655834425787718,116.01837074231616,0.1814860195942134,0.557434641241199,-0.194856025720578,-0.759044255809376,-0.3040847119435982,0.0279398107884267,,
5.629921000000024,2.532329503614434,-4.664686441725751,116.4887492373049,-0.1637007022337535,1.2573361443547302,-0.5741024023777727,-0.5573394180512339,-0.2239155330190374,0.1058293347213393,,
5.639522,2.7091512215859845,-2.3730479664192248,117.28126647718123,0.0236992703762233,0.8231056014339402,-1.4779643301735053,-0.425424229058782,-0.1755218112701115,0.185128795673798,,
5.649027000000018,3.010618121363844,-1.0035811507153851,117.93238582373912,0.5496236435073322,-0.4709358637605181,-2.04551335809115,-0.2712104674392038,-0.0726303874657178,0.2141811365915453,,
5.658447000000024,3.3237565819919688,-0.5341234513371399,118.32977443333894,1.2469292464743582,-1.9392110916360468,-1.827077347912652,-0.1124136731593796,0.0113768047841752,0.1637754800146901,,
5.667960000000022,3.713300903349024,-0.2149215016452201,118.31512664959465,1.959256039615156,-3.341188017318013,-1.6786638809999208,-0.093172382116708,0.0385618663923294,0.0530280252436164,,
5.686988000000014,5.281396566000358,1.7802035071357245,116.8466622649635,2.6788778578067065,-4.250867714789203,-1.7865339230938857,-0.3240091578509684,0.0403526461161779,-0.1293389398154862,,
5.696499000000017,6.891300368759898,3.1926217954335043,115.8957611293762,1.963908951861759,-3.400128234199424,-0.6891235218633215,-0.3960085623083286,0.1638982762669177,-0.1481993066030254,,
5.705998000000022,8.080028001636874,4.670017836976439,114.77402277512309,1.480462609211081,-1.8908090250922955,-1.3379635883486196,-0.3687432271780097,0.0889827165278494,-0.1827424247092553,,
5.715589000000023,9.57030232137906,5.3924004263186704,113.86283349619742,0.8348399984285616,-0.669306108628739,-1.7724700910732447,-0.2537776813615819,0.2118284581636645,-0.1619689070048429,,
5.725117000000012,10.973076778601706,4.103859855420466,113.10348915086952,0.1122345327965298,0.7848580282184271,-1.5454524660413078,0.1261525145323009,0.3591605868248038,-0.106839520311008,,
5.734530000000007,11.899513219171794,1.0060019374316662,112.80299148348436,-0.1549706020695443,1.759756805697558,-1.4791075700813598,0.5000032751693653,0.4111774421899009,-0.0054294814443026,,
5.744032000000004,12.69571769660487,-3.340916934064832,112.98816535715213,-0.1880721368769596,1.6136335407517897,-0.4148441253980106,0.7410480744362675,0.4835104303465781,0.1013194897232946,,
5.753720000000016,12.67692292448946,-8.884846527194671,113.29254222407526,0.0431189219329573,1.1994888153238086,0.410627668606648,1.023276502678615,0.4302533514014315,0.1173412711443877,,
5.763238999999999,12.028693034273903,-14.755076389500626,113.55293977365366,0.3333010347369591,0.6735174345963209,1.56167086500645,1.1297865607670454,0.3481630760960931,0.0749454130528966,,
5.772753000000023,10.855334062568533,-19.33208977838976,113.8215428987851,0.4170672318589938,0.2271072671804256,2.6292389222675943,0.9296901173026892,0.161121651953948,0.0167032294225004,,
5.782273000000004,9.25050134525824,-21.88304761370291,113.92617226705758,0.0810472921460665,0.4649189148729126,2.301936738989716,0.5887365137506988,-0.0686895166902703,-0.0788898874056499,,
5.791772000000009,7.717690827159882,-22.62417338536109,113.64221418500917,-0.4382175780450034,1.1121612866188686,2.2437096425961065,0.2503932782248506,-0.2000224880271961,-0.1790020605572448,,
5.801279000000022,6.3567146053750845,-21.39343903382709,112.93603008847111,-0.7571034650149018,1.713569675693938,2.978748563973076,-0.1261924054154931,-0.3295966970927144,-0.2612884116032766,,
5.810791000000023,5.322590712106096,-18.607278654144505,111.8939687038027,-0.8852310642494392,1.9009692532724345,2.515884527269371,-0.4409960624287228,-0.3931995632117407,-0.3096094966257457,,
5.820300000000003,4.737054947404682,-16.30911583502771,110.47178922984573,-1.025473695946112,2.0056896311324395,1.2592536847029423,-0.3884560877962021,-0.2708615570300897,-0.3367194194928908,,
5.8298260000000255,4.393986703063086,-15.11606463928372,108.96160160070023,-0.8440945128901766,1.836600362092012,0.8249923139293643,-0.2026318596709828,-0.1427597060268707,-0.3110304125816688,,
5.839328000000023,4.282241921586019,-14.198769633981565,107.88013262169312,-0.4476028029596197,1.079860406896632,0.2690138002523148,-0.1675001838000572,-0.0784006205667799,-0.1978651843076492,,
5.848840000000024,4.361933744460782,-13.27026577144196,107.48605691421145,0.0687318075386964,-0.1300963284174249,-0.3151272172328491,-0.1819044301213098,-0.0414017364781409,-0.0370386469152616,,
5.85817400000002,4.698167880138375,-12.402180774003304,107.73673577664994,0.5050713884251107,-1.176248723240619,-0.5259768545687519,-0.1855060668510288,0.0103886818426944,0.116120105069951,,
5.867684000000025,5.281216464609227,-11.19443146366952,108.4414753927579,0.7504440689423766,-1.7446890270118038,-0.6072547608871084,-0.2652771947917676,0.0341741006295286,0.2192114433614256,,
5.877186000000023,6.084783242377933,-9.124983669089962,109.29845645261416,0.8735811747431593,-1.761247100493741,-0.8636121616275061,-0.443275108874914,0.0169885896208891,0.258347569214197,,
5.886686000000026,7.298639410737692,-6.222745993545787,110.03567416580388,0.7346049501543066,-1.6043842692338215,-0.7357723897428424,-0.6281781976479605,0.0331141269726745,0.2470867168255822,,
5.896201000000019,8.303402365487697,-2.92983095783383,110.54645857574988,0.6453608332216282,-1.1472005746873508,-0.8908619995896399,-0.6880448060480029,-0.0390120366771657,0.1686588678927228,,
5.905726000000016,9.0446780986258,0.3593910172703005,110.65150984949229,0.6462624293120045,-0.7896810334642568,-1.4466242178277406,-0.6689199754705334,-0.0911002440716768,0.0822247393504521,,
5.915230000000008,9.704231293960786,3.265717629953578,110.43291933578588,0.6225972586797178,-0.9400827861310338,-1.6462843605589828,-0.5914461250569808,-0.0790179226717547,0.0126305643168919,,
5.9248210000000086,9.908941768739076,5.263738807386637,109.9819502570798,0.8431058074138081,-1.365176945313992,-2.02081839249523,-0.3897762699112699,-0.0989434733131017,-0.0413536943609602,,
5.934265000000011,10.039200654757888,6.0539221514170505,109.5131279489612,1.1549476053581544,-1.8469654919859924,-1.9884729442792863,-0.1577110056135498,-0.0288593954847866,-0.0718060385804833,,
5.943769000000003,10.42763293500592,5.780166711005346,109.03988389664072,1.3666901907500617,-2.301613536558248,-1.623704171472531,0.026319787235612,0.0910846714033233,-0.0729540710876714,,
5.953273000000024,11.002215416890785,4.612163594010146,108.6250260479682,1.5373445240871777,-2.5170892266138614,-1.4878411005912926,0.1846996628842466,0.1835911955177677,-0.0509034952995435,,
5.962795,11.85745760499762,2.845991212365493,108.40696402175456,1.505602958388845,-2.381571168870492,-1.3674618043731206,0.2816290180655165,0.273750658685357,-0.0066432190103764,,
5.972306000000003,12.802932472734597,0.8780134746933653,108.42424921409446,1.2884454127152491,-1.9644631481772064,-1.29009553477278,0.3147783125618412,0.3032797453200744,0.0502492444220361,,
5.981797,13.582396765112286,-1.1611064649094125,108.59500778068748,0.9642355574677484,-1.2932972801978264,-1.2464115228444512,0.3383151301555573,0.276756869085266,0.0929575423038102,,
5.991308000000004,14.034888842901664,-3.5407481780059817,108.84484964761845,0.5809565259873695,-0.3852112656949515,-1.099379975417373,0.4226982517186285,0.2377821274273126,0.1013825948860824,,
6.000819000000007,14.143878850921256,-6.5407550578735965,109.03882241713433,0.2053645084906816,0.6453295004487052,-0.6703336179975009,0.5614307416230405,0.2146729982709474,0.0765583323489595,,
6.010528000000022,13.97319651687786,-9.944605170446811,109.13871538848298,-0.0646867677669649,1.4481396673387334,0.1721888972337736,0.6553567553799629,0.1901257057420926,0.0428724426956969,,
6.020033000000012,13.437319309042827,-13.370363720126564,109.1213312520871,-0.1349816710419653,1.845536628822139,1.4975484265829218,0.6825954598654624,0.1248946452484004,-0.0051403521773884,,
6.029532000000017,12.418629215743907,-16.46654218735291,108.89098319354456,-0.1507956580635536,2.092368419421083,2.988490777239055,0.6503299757887667,0.0151850435798508,-0.0868837036896766,,
6.039064000000025,10.9745627437609,-18.85385680875699,108.36867707627516,-0.4088541468925811,2.3660864057642907,2.7594244241124946,0.5409607277274617,-0.1084067391662525,-0.1922640878525764,,
6.048560000000009,9.820287589062175,-20.39612731706673,107.39304440403896,-0.5220239024012979,2.263865727995772,2.466796571159388,0.3607303329721314,-0.1123760993126754,-0.272935620660193,,
6.058064999999999,9.134200649213904,-20.87920018276476,106.02436245135549,-0.4429306714279573,1.6119935059551322,2.8009567634486947,0.1296077774207224,-0.0953290447002606,-0.3224404454275081,,
6.067578000000026,8.500278307475671,-20.38185679924783,104.48640736347058,-0.2889798797247204,1.0514445202670493,1.819357743817204,-0.0648149167012137,-0.1408149337589822,-0.3526400244388972,,
6.077088000000003,8.127180632222519,-19.447430926819315,103.06950110713908,-0.1537595531990723,0.4706255913509096,1.002854198835186,-0.1649878655044071,-0.1127835147901094,-0.3091286259738732,,
6.086601999999999,7.747097947538426,-18.05577876579757,102.1363664977698,0.0266170028949397,-0.1619244627794477,0.5027706336995572,-0.2562093325770163,-0.1311314453917393,-0.2112891377146747,,
6.096117000000021,7.273180163422586,-16.149031295783697,101.81857689002916,0.2273375182846492,-0.5849084557562116,-0.1929082084525803,-0.3547839483092292,-0.1676634257980507,-0.072677139627701,,
6.105619000000019,7.0267803389180505,-13.990578014981187,102.127046035963,0.3226275338377112,-0.8845287088940144,-0.309090976989365,-0.4131111562917076,-0.1356069000901232,0.0851556683308695,,
6.115147000000007,6.930431343702829,-11.61837757869125,102.98396769368132,0.3605481392130261,-0.8356223178278978,-0.4646044003486458,-0.4597380055864349,-0.1208538189053939,0.2053378554981358,,
6.124479000000008,7.101729087703272,-9.037398660173594,104.1164690529459,0.3766204485061835,-0.7484424242623358,-0.8142468107303107,-0.5104848512478846,-0.0872917480065082,0.2770332179795697,,
6.133985000000024,7.750402496570888,-6.612950528152213,105.19606557661842,0.3383705332461688,-0.7737142053533386,-1.214443468512876,-0.5022062935649527,0.00277240014121,0.2841027589550955,,
6.143498000000022,8.70914486196408,-4.607182208733324,105.91533884867522,0.264812515964507,-0.9800665103420132,-1.3163855799230226,-0.4379415881746499,0.0774442604329486,0.2195280098675634,,
6.153083000000009,9.53716672062273,-2.955019644004856,106.16708469686864,0.4673104654149687,-1.3691202258909805,-1.8631592856133363,-0.3635005909845005,0.0683137315221684,0.1072999311927254,,
6.162522000000024,10.556393239795682,-1.7082198689217052,105.75253550486607,0.7144922919759615,-2.0038931322181166,-1.9631420196167533,-0.2957038152128418,0.128283056972356,-0.0070138536787355,,
6.172022000000027,11.66403144784922,-1.0415032743090835,104.85996434633512,0.910038674211232,-2.5429851403330708,-1.7492495988214436,-0.1868226980280797,0.1790933633413626,-0.114449670774169,,
6.181530000000009,12.665914913381886,-0.92622978195939,103.735887533331,1.1759693922345065,-2.7331750220823365,-1.8001284025431197,-0.0716198969165633,0.1887690150171027,-0.187725057608488,,
