timestamp,roll,pitch,yaw,acc_x,acc_y,acc_z,gyro_x,gyro_y,gyro_z,markers,motor_input
17.506083488464355,-3.558507402368498,-1.4345018411713455,88.85502149229313,0.8831912048655483,-0.1573957143756482,1.6162017200222791,-0.49606455154870727,0.13980555342736478,0.1414087982609043,nm,0.0
17.51170587539673,-3.3003394765913456,-0.06370338186485444,89.00377597325567,0.9895265036074224,0.5529219688937204,1.1419115865237617,-0.26163535459418635,0.06444421609409778,0.06165216507457638,nm,0.0
17.537244081497192,-2.8849305692907206,-1.0062889123153027,88.89461957649293,0.3513172742059203,0.47708587419605253,0.7730650996382179,0.24294487676459492,0.007127177827674692,-0.012506543130290789,nm,0.0
17.54017448425293,-2.7215540347535927,-3.284966100898901,88.94833343659275,0.20502409230266586,0.005757908181093456,0.6437694597122665,0.4685101763040958,0.031406858233325056,0.01455227173579258,nm,0.0
17.566301345825195,-1.585310341728196,-8.266211167538964,89.69301083205701,-0.04657596770761611,-1.175569886150975,-0.056815954159528316,0.4911947623020806,0.11554046777818815,0.09661211914249072,nm,0.0
17.592424154281616,2.521402289914741,-11.655711052693247,89.9814262363062,-0.5844757965627344,-0.8971545537787512,-0.21045041720674804,0.28611012654251106,0.4939157859130915,0.12104861889281411,nm,0.0
17.594193696975708,5.22363254002676,-12.407305873652922,89.52739223778372,-0.39172192950565543,-0.20629740220203027,-0.6064226647517027,0.16444129193459903,0.5367501456587679,0.052441181901567366,nm,0.0
17.597111701965332,8.597947988018474,-12.959076620024783,88.76520023391213,-0.36782706592352654,0.495313457061275,-0.3343565236073499,0.1316844892181475,0.6657816476376934,0.01809717129371499,nm,0.0
17.62830686569214,15.041009323253288,-14.686474501113025,87.01332982050918,-0.012696472080099636,1.3762816196040695,-0.277472765718933,0.24430327795007814,0.5926975514292099,-0.0025565326708526944,nm,0.0
17.62993597984314,17.74555218652134,-16.168093389487826,86.5155722594533,-0.012841862936500796,1.2001658223318283,-0.24768871799445616,0.33542824135042887,0.5132899630950333,0.03857758759256357,nm,0.0
17.63562822341919,19.68366980538362,-18.033612109116866,86.24143111897268,-0.02769493148369042,0.7590697265914486,-0.3858314092022785,0.40578667288601417,0.3556798773394689,0.05341555700059626,nm,0.0
17.661262035369873,21.446948250209353,-21.467746751620478,86.24924877325248,-0.32283823426151853,-0.270520269623425,-0.7146498802324222,0.31745059554345567,0.09280339129569802,0.013870146220616943,nm,0.0
17.662983179092407,21.278903643047904,-22.261243886605264,86.23474600794324,-0.474956441773279,-0.4638899768793165,-0.8925204259442063,0.1659603952569157,-0.03171392095884316,-0.05974686383834357,nm,0.0
17.68783402442932,19.195865948021297,-21.65066287081955,86.22734141572754,-0.5794587787955633,-0.04386049190353032,-0.5940457254303645,-0.1339484443239546,-0.22984213795268404,-0.18400855883156478,nm,0.0
17.692115545272827,17.205419890980068,-20.613779555089387,86.38678842614065,-0.6115549058633808,0.4236296335804263,-0.48095034574805956,-0.21988842943414305,-0.3492369449148307,-0.1986998270617549,nm,0.0
17.71077275276184,14.653580146143327,-19.51468891994915,86.83450611734104,-0.6379734232351899,0.8238603112715135,-0.3445660050714044,-0.23620996264453623,-0.4579404807701938,-0.16947665715738425,nm,0.0
17.71273422241211,11.728302608386297,-18.495417912518757,87.68703368858642,-0.6808039722183644,1.0062734943734721,-0.2940492073498708,-0.21788616057302684,-0.5353363585439372,-0.10665581324361179,nm,0.0
17.720553874969482,8.701388652442692,-17.592091002526764,88.8237953032902,-0.7603499230558876,0.9138070192245497,-0.3374618954028248,-0.18578934765000268,-0.5622806484645293,-0.03949708652299154,nm,0.0
17.730502367019653,5.755914744656573,-16.773031776755072,90.0344850176403,-0.808004698858029,0.589207527309385,-0.3988761081421641,-0.15709092964125457,-0.5534290538192244,-0.005312735293806854,nm,0.0
17.740966796875,3.0573804584432174,-15.921308747010526,91.00634167187002,-0.7369702718386343,0.12722848340154685,-0.49131496706059774,-0.1536656866697784,-0.5115418871576861,-0.014974144114049294,nm,0.0
17.763561487197876,-0.8937706016004929,-13.589206526239158,91.70620286186248,-0.2568472297607529,-0.7411574636160613,-0.3326213666423552,-0.24069604022776142,-0.3284105927429138,-0.09548180051610868,nm,0.0
17.775805711746216,-1.9578176172297783,-11.892606307128224,91.47236523739053,0.10014225041662264,-1.0409430982879835,0.06853824845140442,-0.32238739034133596,-0.20886449592772144,-0.11075505347674222,nm,0.0
17.792027711868286,-1.2893134597433984,-7.1481719465436795,90.919072945111,0.6051640826890949,-1.384292958264212,0.9097662229393988,-0.5061123266820756,0.18999611714028417,-0.0024153830703897493,nm,0.0
17.799343585968018,-0.32705181243158055,-4.328368146201916,90.7501873394632,0.9878188000507225,-1.216219451451661,1.6177181316244256,-0.555768419934805,0.19231388345867267,0.01821847995020931,nm,0.0
17.825356245040894,1.9950328383909064,0.9679604967860105,90.23155150788891,1.1798551047680625,0.4691510904648205,1.2231048346109716,-0.14969661394717035,0.03179769528254311,-0.05386905109081329,nm,0.0
17.850205659866333,2.4143096610142742,-1.2254969995105718,89.35253988658681,0.44060771036003726,0.1990563296800242,1.3961174424432958,0.3653941027783443,0.04885015031489754,-0.04693008493490684,nm,0.0
17.854089736938477,2.0755824320970717,-3.772215220548035,89.46506228040397,0.42110735130792903,-0.2933596876736378,0.7488277757976306,0.5204285998090623,-0.06537650259690114,0.014630520285871099,nm,0.0
17.874969959259033,2.3009609868739416,-8.809749487651922,90.87627278651352,-0.08451754694491456,-1.3412740002571275,-0.015014429375038295,0.4933954257686762,0.0472520686561347,0.16835539103774066,nm,0.0
17.897927045822144,4.631125932409557,-11.736155229579403,92.16951449579466,-0.5565471349513295,-0.8454051112592695,-0.41064004114012564,0.21161974680383974,0.30602894771110956,0.1608215640934866,nm,0.0
17.900819540023804,6.576357964021243,-12.407731352792357,92.09965701860945,-0.5262492696113467,-0.15526934629320677,-0.6379404801906552,0.13098435844771453,0.3944685426562937,0.0889747080479939,nm,0.0
17.926817178726196,11.609919909486758,-13.883426949129662,90.91376158801839,-0.3806112148731259,1.1771229018405116,-0.25356721690131384,0.1532131053997042,0.5063952199411628,0.00635057635917367,nm,0.0
17.945026397705078,16.349885875620938,-16.698081539519734,90.10843599486864,-0.22483873224626574,1.2412251509294985,-0.22487375510144936,0.3488840787291642,0.4487093486387518,0.05280081001154112,nm,0.0
17.948947191238403,18.154584236862906,-18.729852752428098,89.90364439117504,-0.16555054625567614,0.7910533114620125,-0.2692665478596348,0.41604840583241887,0.35387650298645434,0.06787218617991032,nm,0.0
17.9753634929657,20.430480130768455,-22.41613614941046,89.46307150262241,-0.3473443317241799,-0.2795764180807878,-0.7310038091202491,0.34968675742000366,0.1824876018601077,-0.011142132278751462,nm,0.0
17.978719234466553,20.914790281968337,-23.50509381877794,88.92623337889181,-0.4323205788956082,-0.44875839854145094,-0.8197686987768401,0.22816852249317074,0.09659125514419901,-0.10193567904133653,nm,0.0
17.987192630767822,20.90746312107345,-23.786282660004606,88.2615541301479,-0.495156489516629,-0.32748875043545295,-0.81681295241116,0.0653702989343709,0.007399898160151419,-0.17719658894305176,nm,0.0
18.017386436462402,19.292277063644214,-22.982953631250748,87.2845568014997,-0.5607749288414757,0.4392492420365323,-0.45403233846262325,-0.09917066346252333,-0.18832032442508917,-0.2261297666661195,nm,0.0
18.019040822982788,17.690517659018266,-22.51843052906042,87.26126596722361,-0.5895557231245258,0.7679624476509196,-0.2874371568175979,-0.0966196211788099,-0.2816924668979174,-0.1816321719613962,nm,0.0
18.027636766433716,15.766832694823266,-22.222007320975184,87.68477761920174,-0.6777374994813576,0.8220011120220627,-0.16343239897069706,-0.06438087485056106,-0.34391239214457775,-0.11036477478103449,nm,0.0
18.03563928604126,13.698106915407037,-22.12447322216747,88.51708984823915,-0.7691748360102438,0.6799075788017269,-0.2821677277605944,-0.021161935226481042,-0.37335255296675657,-0.05345606827727579,nm,0.0
18.058868408203125,10.244376348556639,-21.80724910119589,90.24628728819017,-0.812858712129508,-0.15646557544876533,-0.36817005065402786,-0.03972055836497642,-0.28225990786889016,-0.01550921307286459,nm,0.0
18.06461477279663,9.0959383162539,-21.25109630521113,90.71190877584844,-0.673244854229176,-0.44926899245232116,-0.48241005323960406,-0.09893342504863537,-0.20552408760158647,-0.031609691858206085,nm,0.0
18.09007215499878,8.084892923236236,-18.711393508051465,91.13792522851456,-0.212631470929611,-0.7930685600169981,-0.088506357162835,-0.2958081138376737,-0.06446943791853368,-0.008113727305328,nm,0.0
18.0933678150177,7.891244797302857,-16.6912808273628,91.54399218830106,0.06224149482721463,-0.7353564616450621,-0.11119383709207464,-0.39318233469935465,-0.03747945396427715,0.04601367076885815,nm,0.0
18.115208625793457,7.892053589926084,-11.541147488414731,93.2644681101725,0.490765236145105,-0.6832569635145922,0.2516647937169463,-0.5387188921539898,-0.012003712282542519,0.20012920962935538,nm,0.0
18.12068510055542,8.287481238784101,-8.615396141031066,94.42322116204133,0.5716488992755304,-0.6998409048876499,0.17599826661289308,-0.5799023216154235,0.047982027058898494,0.254440667948601,nm,0.0
18.142646312713623,8.86649087368902,-2.934794297448527,96.22377132776457,0.9087094550343235,-0.7399684242010207,0.5108789229261255,-0.5424492550189418,-0.04623361730973665,0.14494718820105765,nm,0.0
18.149190187454224,9.03469410085897,-0.35586230696849463,96.51679268442712,1.0006445505684551,-0.5923207735588563,0.6595181144479845,-0.5074342501459553,-0.015250079006407775,0.05291275492904441,nm,0.0
18.1598060131073,9.004241417436726,1.9639547460113802,96.36746012844036,0.979134370796256,-0.3899321273489782,0.9573465862529984,-0.45132908331053734,-0.04989139145559422,-0.03680861769489487,nm,0.0
18.169329166412354,8.459287723789604,3.674495995555323,95.90308336098943,1.0626505636837904,0.03198804110625323,0.675684612057338,-0.3191860938791045,-0.1369612152983151,-0.09470960754257157,nm,0.0
18.192415952682495,7.213003156820828,4.808207248952242,95.25957346618009,0.45265914923432987,0.842842090831137,0.502461696778099,-0.0147413474682006,-0.1456086030128377,-0.04190357770107838,nm,0.0
18.220160961151123,6.204799416712723,2.5402747851141365,95.60247626367835,-0.03959790497201438,0.4040711927470666,0.5211644119818439,0.33398916873799933,-0.01755908612276326,0.04350451167246563,nm,0.0
18.22308897972107,5.6381915486413865,0.5600856876880534,95.77829680936857,-0.0665030391285578,-0.07346831292429822,0.19516062137111112,0.41578175809468954,-0.06514657213417989,0.032076403225405975,nm,0.0
18.229780673980713,5.496962612752969,-1.340227922767956,95.74130173531705,-0.07792507987533576,-0.5521925074156072,-0.15323395517314317,0.3914169985250754,0.018642906304546705,-0.013516621612501853,nm,0.0
18.240761756896973,5.985021567748881,-3.068372959373303,95.31711205282896,-0.4616451852196428,-0.813760376665069,0.2712482289779412,0.34506896234609263,0.139059502353132,-0.07491547827458732,nm,0.0
18.257755994796753,6.528570528658613,-4.98638968199357,93.86883997037803,-0.39419834865427184,-0.2583976487126013,-0.27581366928365725,0.1321272022667167,0.09632389924761262,-0.14706619473844823,nm,0.0
18.263254642486572,7.090660614774711,-5.233379910864708,93.27847337252726,-0.5399650519240864,0.13620795547681083,-0.2618167227076301,0.05259783584578941,0.1234977149700869,-0.10090939387727099,nm,0.0
18.272210597991943,7.277706960150399,-5.483029620558375,93.04616177621197,-0.4837782462681679,0.5664501997672645,-0.27104295764240327,0.058057219526385366,0.0484961365772203,-0.03175154180179387,nm,0.0
18.28212809562683,7.339424080230625,-5.797914758636463,93.33734956006997,-0.5375890134508687,0.8288117780898863,-0.2857717326907167,0.07239523241441301,0.024383127683049472,0.06555042946780569,nm,0.0
18.292774438858032,7.220895114276529,-6.148778376526093,94.08013374312858,-0.677489638411482,0.7383324334790425,-0.2673322322104053,0.08164577034290597,-0.01024204979274035,0.14751016071517759,nm,0.0
18.31635355949402,6.203700692718124,-7.269733385413964,95.93349681997947,-0.7934551460967701,0.27922956799496196,-0.29156174450904054,0.13650333787621524,-0.0925052824168077,0.1601541345709298,nm,0.0
18.3207528591156,5.521422547777154,-7.544818812266364,96.59291096567776,-0.8295682449505379,0.03577403969095898,-0.33546353060435374,0.07932784232173248,-0.1193229737158812,0.10933662969563601,nm,0.0
18.35011577606201,4.0474374686278125,-7.109231181929789,97.02812534609697,-0.7991394984285025,0.04459663834980216,-0.34880092190840073,-0.04593428763043404,-0.1414579912053783,0.013788135018692683,nm,0.0
18.351999521255493,3.319246649313888,-6.350266926793359,97.08821988689186,-0.7850271122717404,0.2293747278708228,-0.31339630710243505,-0.12324016849434617,-0.15294055699430117,0.015330191055501258,nm,0.0
18.37611746788025,1.9375466099574745,-4.253534393584648,97.98833570410055,-0.7155515469942317,0.5138157713462863,-0.3686029034223141,-0.18285723860769806,-0.14790411958358435,0.0954197519647219,nm,0.0
18.400419235229492,1.0743988270086935,-2.280335640968573,99.2554329706329,-0.49011519268912623,0.3202552337889865,-0.4127086903044776,-0.16712728266725144,-0.08558726716821033,0.11028300689155274,nm,0.0
18.40389347076416,1.0007084296607671,-1.5921541064872102,99.51414397053847,-0.2950441280042049,0.038325161512703425,-0.27682636910560204,-0.1236981429136371,-0.027711543404889256,0.04627708810953818,nm,0.0
18.426445960998535,3.205490689657818,-0.7211341440023565,96.94209971681202,0.437611203828186,-0.6962036034061179,0.6847629755795063,-0.05996011463822467,0.2822195874718905,-0.2642626844819378,nm,0.0
18.440865993499756,4.451088569962235,-0.6674285116240045,95.1178573023054,0.7764140941377781,-0.7726831962906304,1.17269578634216,-0.026242088719231844,0.2553747943169294,-0.3268474051247916,nm,0.0
18.4618022441864,7.174151421197259,-0.871537481874703,92.14120206469578,1.3681260454211142,-0.8461100464218045,1.3950911908504207,0.03182044168798878,0.3366995316661602,-0.2557868329010078,nm,0.0
18.46356749534607,8.097438703911237,-1.3602671752900364,91.2620641477784,1.484751138107296,-0.8284141992130188,1.264766980399183,0.10276509688156876,0.19541193711465565,-0.16814347543419542,nm,0.0
18.493248224258423,8.774188269432365,-3.019859524035879,91.21879930469635,1.1143770365147836,-0.7936520521739523,1.0027511260060549,0.19143311168255966,0.06971090765939067,0.06355885987004181,nm,0.0
18.49484419822693,8.39726749028003,-4.048563543283384,91.97257294188277,0.8018412060613661,-0.6982657729008898,0.664836486896427,0.2182037093437774,-0.06134851966752451,0.14016966220545973,nm,0.0
