timestamp,roll,pitch,yaw,acc_x,acc_y,acc_z,gyro_x,gyro_y,gyro_z,markers,motor_input
88.51990532875061,-21.976124314252445,13.406755322800429,-106.07811267851422,0.20081912316541184,-0.767045656375799,-0.18072663112178336,0.6957246148298704,0.32608141416235,0.034790829231229316,nm,0.0
88.52590250968933,-24.72313577030328,15.902784583686937,-106.76773760307613,0.3686803576021869,-0.46240542087007863,-0.3608641976435632,0.6163149376248278,0.3651037445419193,0.028734084820433655,nm,0.0
88.53129506111145,-27.579150061203457,17.973827085354678,-107.61101328429037,0.4677302054402905,-0.1250754366184937,-0.5058617638491741,0.5440753999661204,0.3965046920294601,0.013216812128460664,nm,0.0
88.55439329147339,-33.56198181651566,21.26952256458489,-109.67715549973579,0.37957340408119916,0.26517279710671476,-0.6595846950963261,0.4691780421798406,0.437163656629935,0.027112553622809062,nm,0.0
88.56039762496948,-36.03229373586788,22.824918405395078,-110.55639486844746,0.3193716227201964,0.42087228179338326,-0.800839165891661,0.4361428553790769,0.32010897175252867,0.019936930459736192,nm,0.0
88.58458805084229,-39.37095380269359,25.56325187987331,-111.48508795251054,0.31744781630556346,0.5415915941916474,-1.0567023950388663,0.32141018903057966,0.16175554599821904,0.05859581127262008,nm,0.0
88.5891318321228,-40.1123763693066,26.535235093139278,-111.68763063549184,0.3380432508321945,0.5841461592483805,-1.0942057056579253,0.21595974057232445,0.04922405509894999,0.024437301862297024,nm,0.0
88.6117262840271,-39.89677098208922,26.83776275837535,-111.89952757881673,0.18917501421607202,0.6308214190155926,-1.088976221235595,-0.0701266237685626,-0.04679879566846151,-0.047812995773158326,nm,0.0
88.61544561386108,-38.93962355658471,26.05833010412353,-111.86296532488062,0.20371071517139527,0.47535833204637395,-0.9454383241119498,-0.22281135341500077,-0.10429264345429157,-0.10005367084674278,nm,0.0
88.64073777198792,-35.78521374717779,23.19654145438307,-111.27940352545356,-0.11236484030701359,0.34922238380774967,-0.7766245903855952,-0.43523177553501113,-0.194888698608706,-0.1171770313970101,nm,0.0
88.6559796333313,-30.611461998194187,19.5322630807347,-109.55123509376729,0.3060788565120472,-0.08081818225141565,-0.25824665386040824,-0.5307400913428523,-0.3261658773696684,-0.032037651246274654,nm,0.0
88.67220044136047,-28.353136912073722,17.538341918591012,-108.33971330319724,-0.19236757888128836,0.09542990148418118,-0.4037195110410143,-0.5303468064238123,-0.2799509902684331,0.05530561449288312,nm,0.0
88.6738600730896,-25.678385736743603,15.384046127822511,-106.9800192516689,0.13100193548553696,-0.1420684940826975,-0.11002771915741105,-0.5803335618336986,-0.3626177970771454,0.09004227439058202,nm,0.0
88.69678783416748,-21.649113831347254,10.396940283055239,-104.42861572287099,-0.016020013872182926,-0.17420596757850987,-0.14266941082821397,-0.611964948833621,-0.20994511842022237,0.14009349118430559,nm,0.0
88.70103025436401,-19.96481032117124,7.547753068507664,-103.58097755602186,0.2678627764209888,-0.320823890893697,0.14131429056349717,-0.6479533177661885,-0.18909803785352344,0.12354485715194859,nm,0.0
88.71287322044373,-18.836857695096253,4.564042150260253,-102.98682527488417,0.26296099892486596,-0.3213191922492918,0.19486944694131272,-0.6468023675850771,-0.08527760408047931,0.10758005619656612,nm,0.0
88.7343361377716,-17.24292649913935,-1.2430922623107927,-102.21170451549594,0.6907879869643465,-0.34542225934688636,0.9163944141251332,-0.5935067600279117,-0.017750425465449672,0.0906230833943047,nm,0.0
88.74033856391907,-16.94688422591522,-3.6255337700246772,-101.98085903598096,0.8420736049081321,-0.19032555866431136,1.1933616890377077,-0.49241277479648143,0.038057059062265704,0.08466053660855923,nm,0.0
88.77507257461548,-16.461595814638773,-6.510338556835774,-101.63376282426273,0.904551032539082,0.7346560045147511,1.140631011078123,-0.04460470600378418,-0.059213626203421584,0.028692521111179578,nm,0.0
88.79162192344666,-16.46345947409806,-3.2888243677229405,-101.82152498232591,0.5150918588537294,0.5373868486774722,0.9814502198007846,0.40699781318807987,-0.10937616487326274,-0.059040213748450136,nm,0.0
88.79626131057739,-16.76901988841523,-0.33627847037810776,-102.14853003378276,0.7651846747764676,-0.010941984767710914,1.3741850466339276,0.5774549273990093,-0.06739349051092736,-0.07702586874708445,nm,0.0
88.82158708572388,-19.23346274113829,6.668765172843634,-103.22522839428446,0.1888364410642603,-0.7637720411496067,0.6969922898584436,0.7331956749475806,0.05054787179220448,-0.060042416454516453,nm,0.0
88.82734799385071,-20.90071523984807,10.033211096219095,-103.85948853089545,0.2579026424680344,-0.9296526171897517,0.4231671554601197,0.7187613642556715,0.15836249752975462,-0.04733753425362407,nm,0.0
88.84853291511536,-25.18338577978883,15.499131483875928,-105.72192001390148,0.3107789469495556,-0.5141012412036609,-0.16297395731026915,0.5744544494619644,0.25423818048942376,-0.07872984277716377,nm,0.0
88.85404562950134,-27.756866958493376,17.5191269048359,-106.98501798700134,0.32538835953676415,-0.2790458586886238,-0.3520438064208569,0.5136421979535307,0.35619302083188953,-0.07977871666871028,nm,0.0
88.87666940689087,-32.84994185547582,20.964561370090504,-109.74206614373664,0.40509818941778347,0.28670648818662947,-0.5714488913236915,0.4474113723362111,0.31427900145451504,-0.06759355559217976,nm,0.0
88.88511848449707,-35.183902497589166,22.572568634214228,-110.74159859525832,0.3380647064617108,0.43835958650737444,-0.6927710508648551,0.438370624560883,0.29245199879850187,-0.006438766189210451,nm,0.0
88.8923134803772,-37.285641276360955,24.301299995167746,-111.41793626318763,0.0899211310403286,0.6260705200901802,-0.8676962674317854,0.447830359025423,0.23258694741316163,0.04310246491062616,nm,0.0
88.90100598335266,-38.67353325121347,26.07706800305789,-111.73863972077108,0.10552279948519958,0.6771923019253211,-0.9404061579699936,0.4090164853564474,0.1000622903298166,0.05367554289936065,nm,0.0
88.92432641983032,-39.70478035625262,28.41303368499689,-111.52106614441355,0.05997779419900635,0.6026399422061727,-1.1560932616993909,0.16669228399356661,-0.02079677344414432,0.06944934527341526,nm,0.0
88.92985534667969,-39.40056308961346,28.540780435218636,-111.20732492506434,0.06707505307448453,0.5279879222073367,-1.18117322782331,-0.009760567814290372,-0.062396013883118814,0.033137410690488055,nm,0.0
88.95477604866028,-37.48354461622602,26.26035497328772,-110.21616854757727,0.06548485535698807,0.3266654743510798,-0.9862273667425847,-0.3766328028121642,-0.0879299716971845,-0.0016685053107738123,nm,0.0
88.9591715335846,-35.863607706134815,24.16290663534985,-109.39326376962578,0.12734277901566607,0.23739290301458488,-0.7851746879353664,-0.5084179152956148,-0.137888602770738,-0.007874572115219665,nm,0.0
88.98717284202576,-31.721336721180425,19.24455471942239,-107.14599784657015,0.13696068141717915,0.24799585200877533,-0.4946162143246918,-0.6217540133360325,-0.24325317940402963,0.05338533965837521,nm,0.0
88.9888060092926,-29.231106841149042,16.697890851639624,-105.79592366255737,0.1761412339062777,0.19585464698690747,-0.4489917297546028,-0.6369831862745876,-0.31482276460124003,0.08830903080982437,nm,0.0
88.99811697006226,-26.623908492438982,14.146626573293746,-104.42415633741417,0.413156234940901,0.02069074570183572,-0.2879216518566348,-0.6378441542962254,-0.3572981422854561,0.11441106607170491,nm,0.0
89.02071261405945,-22.281930766175325,8.580352815600573,-101.62184015200171,0.2419484637163736,-0.2911867562314934,-0.2930850332076585,-0.6662481878758121,-0.286192619804717,0.13361095295929076,nm,0.0
89.02869296073914,-20.311007417275196,5.448846385219383,-100.59307192587491,0.3522155158701803,-0.47870737431247745,-0.09407074347095698,-0.7037581608135309,-0.2697612261086221,0.11493576648433629,nm,0.0
89.05562329292297,-17.182845424499643,-1.4536509766092587,-99.5721800339785,0.3090657689381636,-0.5451886946175698,0.09641858723042937,-0.7611445779663318,-0.18132901999977807,0.08229486343791571,nm,0.0
89.0584945678711,-15.859204543413528,-4.9453864967625,-99.32697845966275,0.35785533782554035,-0.4650797422601256,0.21964643581847135,-0.7465387879982397,-0.1513464667687637,0.0749255742705107,nm,0.0
89.08634543418884,-13.678548612111031,-11.13729078499974,-99.0163291414471,0.3825393177872862,-0.20011533407068527,0.2672736911344057,-0.6238553389971516,-0.11727263951833053,0.0883058634542265,nm,0.0
89.08801794052124,-12.79909233677762,-13.59853138166983,-98.84684509212788,0.3739688125366732,-0.0713995707851917,0.22765833355978396,-0.526888265754856,-0.09866796333603062,0.09610003577292885,nm,0.0
89.10328364372253,-11.286474369415068,-16.971728529889347,-98.19149805796846,0.3571193518107459,0.01905552002155228,0.125341134212453,-0.31697053538754205,-0.10300733226354675,0.0852848212778032,nm,0.0
89.11064434051514,-10.66369282944854,-17.956501865487844,-98.14063305052187,0.29766872920164905,-0.0011287169096003843,0.1266152173542967,-0.22520197187744054,-0.0957914342587453,0.056712712825969756,nm,0.0
89.13554072380066,-9.687779255165452,-19.042097529274777,-98.64190554003154,0.2296573060987568,-0.09353531719138991,0.2394268045855451,-0.11012179083601867,-0.0696787983637721,0.008510280028363366,nm,0.0
89.14167666435242,-9.533609059530946,-19.29947478105955,-98.9375933212121,0.17738908720591173,-0.10158675393007198,0.16961435146651307,-0.06854620015308069,-0.026877213945861244,-0.003436098547646928,nm,0.0
89.14806866645813,-9.627524961483077,-19.414954906957554,-99.10493193420899,0.20669555912872956,-0.07311462879907733,0.08801363196423921,0.0,0.0,0.0,nm,0.0
89.16124773025513,-10.011492129737197,-19.40931320631999,-99.11679283504995,0.24678017866519006,-0.054593212946201695,-0.04201038069505551,-0.0004341167897196972,0.06542671200420223,0.011558450636122873,nm,0.0
89.18543362617493,-10.926803115275153,-19.131191538197175,-98.95000676951823,0.45033431228765347,-0.1004165929556718,-0.08398690081214687,0.05008219819854446,0.14884936189205164,0.0243593754130652,nm,0.0
89.19218468666077,-12.124635379596398,-18.958314563130433,-98.74763734038618,0.20481031270997166,-0.26595149754041586,-0.35279613046385794,0.05629254514157114,0.2126750714074599,0.005292650491641203,nm,0.0
89.21000099182129,-13.599770437684453,-19.00627064424956,-98.35182129307609,0.5545841919504307,-0.4170944012835099,-0.11297989173548376,-0.017710426016758686,0.12251203456068796,0.030656739742723985,nm,0.0
89.21450066566467,-13.743364166378344,-19.9557369150103,-98.36232706849874,0.35528667574804046,-0.5068468414314733,-0.2928400855979618,-0.06645891850889492,0.1405919536975636,0.010599360116074229,nm,0.0
89.23777484893799,-14.023922081664002,-21.41539991867766,-98.04677569858902,0.5577765426589534,-0.3233808434362903,-0.0095996382287558,-0.1766684037692507,0.025578378227021702,0.05296969934570156,nm,0.0
89.26003646850586,-12.780696733595072,-23.56993761341477,-97.76948998901275,0.5359132917304356,0.07532303353094973,0.1229660843429251,-0.23613236679400357,-0.07583289608911552,0.10877947829106933,nm,0.0
89.26191759109497,-12.189955013316665,-24.56471318351808,-97.49295686422822,0.4349353904038126,0.2545814309834147,0.0929004413920799,-0.22486920180424935,-0.08665150316353373,0.11388482258535683,nm,0.0
89.28767251968384,-10.700685792422911,-26.101488271642612,-97.06914506972527,0.34411876930495805,0.4493803315400544,0.19846984389931704,-0.1656645984405724,-0.12711796155541677,0.1212151351965382,nm,0.0
89.29404377937317,-10.061725328403915,-26.59016225338468,-96.93741403448848,0.2062474611901671,0.39386953218092413,0.18674012380518704,-0.12409812907108028,-0.10823362991728577,0.10068496538821149,nm,0.0
89.3196668624878,-8.744086632733238,-27.13105246421755,-96.68224210650224,0.2712922899372613,0.25803485339865767,0.3706529231133348,-0.07041620663019905,-0.1204185358883996,0.10498692732188429,nm,0.0
89.33710026741028,-8.5043753628767,-27.438756484809204,-96.45189293464642,0.03716821449223366,0.05996185249752466,0.19442587717933882,-0.04197327777742407,-0.000988026743454512,0.05292287900047309,nm,0.0
89.33915543556213,-8.507887847227138,-27.629035916993864,-96.27826391363078,0.19255020369943004,0.1296708971213272,0.2864741189292143,-0.05056828330383991,-0.0018462094711723537,0.06522233171563095,nm,0.0
89.36320638656616,-9.227715588541272,-28.069517263462664,-95.97539208158281,0.2020265053118963,0.15312375428326175,0.10481170153801675,-0.047463118327187755,0.07335452142502046,0.017117906099536284,nm,0.0
89.41199684143066,-9.64861712929586,-28.257347305659646,-95.90923383814196,0.3201335248718119,0.207394630624035,0.11141455788584667,-0.04239346593542811,0.07114156613660483,0.005623506780671819,nm,0.0
89.41389679908752,-10.667516180832479,-28.55582726226666,-95.92187742428511,0.3865696374195659,0.17981909212119288,0.08276305227468954,-0.029780336810348286,0.08424494368842204,-0.024755573175805835,nm,0.0
89.41567850112915,-11.879262935043542,-28.730571715064993,-95.9623182265763,0.28489614864815216,0.070367491462777,0.016045314867216196,-0.01816807172443118,0.10464466124533085,-0.030600671709856624,nm,0.0
89.43061327934265,-12.711955457971701,-28.97814620104141,-95.78963948534413,0.38455339713893644,0.07843068698676309,0.06449912833734903,-0.03393692323785383,0.06255263945342215,0.01351653088884715,nm,0.0
89.44764494895935,-13.060176389275302,-29.15749767235653,-95.60509955459209,0.34611483213302585,0.07782942537612465,0.012131425139675009,-0.04253513721374949,0.057834830199073685,0.012864287134740169,nm,0.0
89.46277642250061,-13.451348806065951,-29.77422319581637,-95.46523318635873,0.28428448617788094,0.12582569623514842,0.06951977844657592,0.0,0.0,0.0,nm,0.0
89.48521852493286,-13.50645444124844,-30.00643201234384,-95.57013104492842,0.2499648885087299,0.1344922247124394,0.129964492154342,0.0,0.0,0.0,nm,0.0
89.49134993553162,-13.606284722305084,-30.10269753591343,-95.59762976310648,0.25022050240316096,0.14481101069170071,0.16188824048094033,0.0,0.0,0.0,nm,0.0
