timestamp,roll,pitch,yaw,acc_x,acc_y,acc_z,gyro_x,gyro_y,gyro_z,markers,motor_input
44.51823616027832,7.280054117432067,-17.622646910873236,54.96657636752188,0.6872785664044228,-0.7689600989797305,0.7401224591391414,0.1637837487443914,0.14219136072034075,0.027965595122048346,nm,0.0
44.519957542419434,8.337041967778541,-18.15535576484434,54.4132727338808,0.6423802858187778,-0.7088727339312128,0.455012284642008,0.2173225896249255,0.10394173194523075,-0.04269109631805661,nm,0.0
44.52891516685486,9.685068531959002,-18.88054588000359,53.649446961814675,0.4469212053892711,-0.686919742096853,0.38367030012996234,0.28160568297255656,0.12325462272391528,-0.07839813777189993,nm,0.0
44.552401542663574,12.55543523729146,-20.318677796545842,51.70438786847233,0.19739475608889473,-0.5376894691874009,0.13101307277385715,0.2832790269771616,0.12559769733223677,-0.11183986868877577,nm,0.0
44.55795097351074,14.042412102186756,-20.878269664635084,50.58501466131049,0.12434206955364878,-0.3650001343684094,0.08952395190920164,0.27601183867971896,0.14757227932716777,-0.08805694081866014,nm,0.0
44.580684185028076,16.783968217845384,-21.747563166817372,48.84950264811786,0.11400440768325924,0.027096780798628095,-0.026937062494961427,0.23930757790452686,0.13318152276821774,-0.05608099021396061,nm,0.0
44.58575439453125,17.885839456978765,-22.200214432938402,48.12115560807512,0.09445324845352066,0.10534809387612128,0.05774193001079892,0.2170331150449627,0.09438650319793737,-0.06812705133994952,nm,0.0
44.60861682891846,19.868969396982532,-23.183402794518585,46.6494758080024,-0.08157274855113492,0.214115022464039,-0.12965926011358309,0.22969393216340905,0.0833855604239997,-0.08605231065494061,nm,0.0
44.61730670928955,20.723469384209952,-23.657696640685614,45.751146112054556,-0.2503930228673905,0.19213274442142889,-0.13284988562562158,0.19068924498273618,0.04888518296790917,-0.12965909550839957,nm,0.0
44.668860912323,21.88628780317033,-24.112623002857028,43.94294533066282,-0.45578849191873133,0.1291268783558435,-0.18277323415116895,0.10834676984432635,0.057648906665943855,-0.1443160006825415,nm,0.0
44.673110485076904,21.13733715697141,-23.08524590596725,42.87217087904024,-0.3785166353267949,0.47799673617920757,-0.11216302794009318,-0.13259447759485643,-0.02903117882541791,-0.030803573550398335,nm,0.0
44.68732237815857,20.140309229081968,-22.753669189678224,43.32693077686332,-0.31613460050158954,0.5650455278423833,-0.13338934643102424,-0.1660683148026229,-0.07676446489209306,-0.004561762659807535,nm,0.0
44.69057035446167,18.996606653060464,-22.48613382287964,43.97504429065696,-0.31958754458921335,0.6040547362292373,-0.07588780129253142,-0.17628571189923836,-0.10684598165797408,0.01822112547018264,nm,0.0
44.71971869468689,16.238116660552556,-22.09085238622665,45.464149096758355,-0.3188764684695339,0.5644628647335762,-0.10841193421698753,-0.1990299518673178,-0.16408129805562527,0.0043352731247027375,nm,0.0
44.721455335617065,14.753102154965564,-21.923786756308914,46.09773235249055,-0.3135389407064367,0.5015260537221271,-0.06903266759070045,-0.20231844229937793,-0.17412960647928222,-0.010897945153708333,nm,0.0
44.73036336898804,13.776209739367482,-21.877118854561285,46.35097062685837,-0.2601777327831197,0.4365640728034955,-0.096039318468951,-0.2163811441824576,-0.1825349703795679,-0.02672811571698901,nm,0.0
44.75610303878784,11.392524164002385,-21.688247028234528,46.989150475510606,-0.14596168696004347,0.28388363934398725,-0.048906815014253494,-0.22679173032536049,-0.19008379440418757,-0.026908685496707753,nm,0.0
44.75807189941406,9.746385329355759,-21.434338137428377,47.53119513111716,-0.07973274063650931,0.21478934042723805,-0.08004390193560204,-0.23141354232457362,-0.19066808025081836,-0.016303474679359206,nm,0.0
44.78346920013428,6.741693768154831,-20.87764610383652,48.53214589652195,0.014212925837631146,-0.015526026937315937,-0.10624661269808748,-0.20754979811459345,-0.16295583386016488,0.001939205647862127,nm,0.0
44.7863073348999,5.5400616226239725,-20.54934564368865,48.923978310042195,0.14788370669594397,-0.18764499414112293,-0.21046504295979357,-0.18383568772805806,-0.12590605108532987,0.005693748443737022,nm,0.0
44.863155126571655,5.963783419200794,-19.106664169623677,49.661223863825704,0.5351656216946232,-1.032685387455768,0.3720604350888179,0.08000099594304856,0.16825541262184093,0.10466623555410866,nm,0.0
44.864964723587036,7.128937517767564,-18.984970797809158,49.74361840041179,0.4558273422729663,-1.1929192877738577,0.7561749565559637,0.1382527233165537,0.1838816886584537,0.11627445264207806,nm,0.0
44.86686372756958,9.495584126402758,-19.194350788656276,49.92365823674344,0.6193952860001088,-1.222101993304967,0.5205862280436683,0.20779414758694306,0.1800049783829931,0.1083415551149875,nm,0.0
44.86855888366699,10.727392924011623,-19.465643393006584,49.85568483137904,0.5621675836150207,-1.1443227463026595,0.4750071544956184,0.20539022496930293,0.14347038033689552,0.07548011390299736,nm,0.0
44.870543241500854,11.875930159881472,-19.835874085342923,49.599545779535575,0.5948844783843668,-0.9333959115011842,0.19493442798246452,0.2104447776361037,0.11781740851558992,0.04182413573920086,nm,0.0
44.88467597961426,13.204587570349432,-20.24257894622254,49.25211190659574,0.38198366065564204,-0.7545335133360146,0.32097060852694775,0.2382207907615397,0.13752406542094073,0.029759413805764804,nm,0.0
44.91094255447388,15.552268849119695,-21.23571986312227,48.227633460663476,0.26148015508328837,-0.3315223559523153,0.025930151586509895,0.24229120703528512,0.09688140377345776,-0.0355765092255779,nm,0.0
44.91291284561157,16.825814292273773,-21.777847018408703,47.62456920953318,0.13106668372433447,-0.16483314970889595,0.08368104172271323,0.25310548099212615,0.10446349459436656,-0.044496855512612704,nm,0.0
44.920469522476196,17.976555511364623,-22.262674852740272,46.94414113461674,0.02853216734918319,-0.033220986689793494,0.011713063070509283,0.2297780769044176,0.09214434901175075,-0.06096327248885876,nm,0.0
44.92855215072632,18.831485118271527,-22.716959163075717,46.214724349428245,0.03098818866936949,0.08650598650438063,-0.08404032717624423,0.18833330274745,0.053362146400492305,-0.08969273446892229,nm,0.0
44.968048095703125,21.954118490238198,-23.869303352162508,44.194205507342154,-0.26528830307752366,0.44257958751221976,-0.17847397314816638,0.1821032277399933,0.06668068684522956,-0.06822510925578062,nm,0.0
44.97125601768494,22.807141214455594,-24.235646692203808,43.492507541262,-0.27575539794325343,0.5189723247092561,-0.34906474626668066,0.17677403478551323,0.05609388556560827,-0.06652378306274094,nm,0.0
44.977089166641235,23.84240731434832,-24.553618355559774,42.907532028915675,-0.5090182233067851,0.4646477890980113,-0.09138158823456646,0.1946393228731393,0.08384329849844473,-0.03013467059735173,nm,0.0
45.00257706642151,24.48782805985116,-24.773827623909003,42.45659879171472,-0.5490757444327052,0.4951590753122274,-0.2054721110293889,0.12963425687988125,0.04826088527804134,-0.03587057478851145,nm,0.0
45.01182532310486,25.149103870132464,-24.964454596377095,42.14565010291099,-0.6006100868397434,0.4905152807358116,-0.08224922423613344,0.0517426042384913,0.022730890412700985,0.020254911532058044,nm,0.0
45.02548003196716,24.820608519836,-24.91200798823262,42.301465682366924,-0.51270342584091,0.5363183820856153,-0.15622132904440045,-0.037878732223030134,-0.031129416266165718,0.023511729919451357,nm,0.0
45.028780460357666,24.147878426968504,-24.816898345789255,42.85178192702157,-0.43225843378137,0.555076122109696,-0.13107962576314305,-0.08945248252293025,-0.06756069608521527,0.041200103162169106,nm,0.0
45.03317713737488,23.164061455834595,-24.695664103826743,43.63639902266415,-0.3923789164716481,0.5598633261592291,0.013059313725436048,-0.13341188943262794,-0.10383308356068571,0.05135834151123138,nm,0.0
45.058640241622925,20.213417952978553,-24.389139514282263,45.43189272510932,-0.2545423687499411,0.5630175187909937,-0.03541144580203481,-0.20884152362899652,-0.17851037944735315,0.029748799881899903,nm,0.0
45.06427884101868,18.468022054434147,-24.252404575073324,46.34400260784232,-0.23517742322486712,0.4942858508292448,-0.005484391468833201,-0.22740830435717777,-0.20884539563716975,0.005620277755389851,nm,0.0
45.08525466918945,14.637582716697706,-23.90947409262239,47.60528901919324,-0.20439549191131728,0.31019199808874176,-0.08919811077346765,-0.25299116932286364,-0.23333192168949451,-0.032272002633584845,nm,0.0
45.093480348587036,12.635362789234927,-23.68849867738849,48.39053644150658,-0.16514921867090446,0.22431533839158316,-0.13231531950779288,-0.2640688959462557,-0.24269932615830175,-0.04061201531293324,nm,0.0
45.1117148399353,8.713218785272502,-22.986223026547734,49.89867486839542,-0.09350683730484836,-0.008343629001380023,-0.20074006759665497,-0.27669762620018834,-0.21559997314894264,-0.008848215147472622,nm,0.0
45.13478207588196,5.44053435941065,-21.894704790005612,51.45967998433231,0.1625334716494342,-0.23181198129685804,-0.4194461237616944,-0.24966130986737967,-0.13902493098835098,0.04239367755899917,nm,0.0
45.14154934883118,4.746032831867212,-21.24903712135794,52.09904901579529,0.05762178779332464,-0.4047001943995025,-0.07870373104064089,-0.1674478334108289,-0.02095048485074277,0.09860079303394226,nm,0.0
45.163288593292236,4.172007499258759,-19.86360602084817,53.07051825282121,0.6308741116561964,-0.8775751450753073,-0.09460537401273342,-0.10840085291336866,0.0705822380100248,0.10174335128347302,nm,0.0
45.166189432144165,5.163344637604697,-19.230945040852518,53.429568168124234,0.45570008653929334,-1.0469954382485518,0.633517870800421,0.024756168670275084,0.22642673175306738,0.1628981171030225,nm,0.0
45.19069814682007,7.104115370338801,-18.58339010442939,53.60606241516426,0.8599007851890833,-1.0159281545968417,0.38787603205899285,0.09799988203453246,0.1763488721499393,0.07207841845400445,nm,0.0
45.19450879096985,8.533710541936545,-18.705539065909477,53.33479313925171,0.6843702219946675,-0.9161652637062626,0.615421616748462,0.19508031572949597,0.20437891439201256,0.04625504532054339,nm,0.0
45.22028684616089,11.231920936260476,-19.806104641644655,52.157567579603956,0.5683601835600508,-0.7140628304356015,0.3859945044243337,0.28711986906261283,0.13193137479194839,-0.042714482265072795,nm,0.0
45.22357153892517,12.745316755717617,-20.554338962398393,51.438014810392104,0.3395500690250385,-0.5849313303301433,0.41480340000356997,0.3073630588955565,0.13211606101555215,-0.043854007831109744,nm,0.0
45.23424458503723,14.083362283821103,-21.277729445047747,50.74926428729768,0.2531828522745236,-0.43561575249583784,0.09420482640492636,0.2835888378950168,0.10508768069995336,-0.046672920822792355,nm,0.0
45.24145436286926,15.510307275489142,-22.06015330540987,50.10749157818215,0.11307360791007141,-0.2651802151979511,0.07142378093901476,0.30357194765450696,0.10626973223980965,-0.027503459130140687,nm,0.0
45.25639510154724,16.856914376535276,-22.802348860877334,49.496445193238905,-0.0036464369157244545,-0.08405286928535219,0.1576540359245418,0.2879966733105437,0.09593017389149139,-0.024044121844680477,nm,0.0
45.27444100379944,18.889976937126864,-24.07685858772213,48.111329418667886,0.10038460601450808,0.3018039190026957,-0.4698780278467467,0.23859172631909994,0.060149720745290736,-0.06875205223469519,nm,0.0
45.29090237617493,20.472471193909094,-24.794003954787044,47.25416764448991,-0.20556404216235766,0.3691030558256722,-0.015256676821388251,0.31394320084366656,0.1182337587328259,-0.04530090279434151,nm,0.0
45.3060462474823,22.611736893230127,-26.06591407553453,45.38680420373288,-0.25227765641602423,0.5426996689227375,-0.42757117649564486,0.22470567810487546,0.040882499929220856,-0.10438225397859291,nm,0.0
45.30903911590576,23.6249823229302,-26.675697051612882,44.6566851385323,-0.5007965706583123,0.41398318688485813,-0.10440723433504552,0.2283744755626625,0.04385533829072541,-0.060914369513153654,nm,0.0
45.332565784454346,23.803866274808975,-27.538568446266048,44.28329674189873,-0.49502199514125506,0.49378108240143403,-0.34887630511273254,0.0452543799108495,-0.06922918147953562,-0.021589690280394456,nm,0.0
45.33745241165161,23.3386220549142,-27.795042441418424,44.69297172458055,-0.5801276663871701,0.4810597483659251,-0.1327738771817844,-0.009207323868874366,-0.09285385382361677,0.018876174428077985,nm,0.0
45.374751806259155,21.009594302734545,-27.806048314007807,46.18073959299451,-0.4267928195358505,0.5656788314457253,-0.1586720266129206,-0.15665842151807205,-0.15080904407694054,0.011294058848048925,nm,0.0
45.3766348361969,19.466256384698745,-27.657972498629757,46.936980042003114,-0.3947027865271548,0.4758509879129466,0.031372559983831906,-0.1956759193069398,-0.17687778259558679,-0.017692947751760044,nm,0.0
45.39197087287903,17.635782007894914,-27.481742766087333,47.42970345585185,-0.21631301126036548,0.4994420518617154,-0.1103544758763627,-0.23300767019184812,-0.21280438764482135,-0.058270056901039334,nm,0.0
45.39417219161987,15.776401495066168,-27.275026362421187,47.77623695393064,-0.19311770425030764,0.3750239375590211,-0.02618805467791213,-0.23993957969645352,-0.21462954387727057,-0.06395265571656447,nm,0.0
45.3958215713501,13.778003491713909,-27.070373377045687,48.297393334508435,-0.15956464566886938,0.26387229634005854,-0.05728900158441646,-0.25458093708405755,-0.2362160628400933,-0.07241694714733843,nm,0.0
45.40323257446289,11.68252493138906,-26.856417612109503,49.02410437835303,-0.08723650927159678,0.15114341600697756,-0.11238060963685198,-0.2648878742677331,-0.2518697643292895,-0.06622451004884237,nm,0.0
45.41856360435486,9.624638551642546,-26.548869187728958,49.83071149540754,-0.10998989562610337,0.015469884565743339,-0.13386213919420425,-0.2719050312870856,-0.23898572786305763,-0.0397077364657553,nm,0.0
45.43743538856506,5.707727654536118,-25.5406408648026,51.374432976086354,0.012802585506660082,-0.22375398461840923,-0.24126931445817376,-0.28718210709708825,-0.19059006022847677,0.00043896910543214966,nm,0.0
45.442060232162476,4.321646891605888,-24.822762834882685,52.1084231266999,0.14554602519506482,-0.31261946521724837,-0.32345503997778646,-0.2542014109818987,-0.10747436046738264,0.043587913717390285,nm,0.0
45.45717763900757,3.5636617634660297,-23.96699459908045,52.776578909518804,-0.11100912251954147,-0.4678491545895248,0.20524462947119107,-0.20583405190512644,-0.00432963690807696,0.09040536922259401,nm,0.0
45.47389602661133,2.515635221069033,-22.183683899309287,53.64049353467663,0.4834424254176332,-0.7599990833428221,0.10300974048257788,-0.1437200088006536,0.07648333364037344,0.0956608664267342,nm,0.0
45.48032736778259,3.1569317096369596,-21.50949327872963,53.76127320524589,0.3039257908706687,-0.8507627420965245,0.6298865062251074,-0.023589689989423283,0.17677670201598303,0.12671809182427565,nm,0.0
45.489572525024414,3.7582659608056783,-21.09930773415639,53.60587160175825,0.5256465577247761,-0.8768407016685006,0.4878463827821972,0.014749386090735726,0.13974953863259212,0.061802402252022264,nm,0.0
