timestamp,roll,pitch,yaw,acc_x,acc_y,acc_z,gyro_x,gyro_y,gyro_z,markers,motor_input
31.51601266860962,-0.9163887449191211,-15.780026932971522,62.19326344758796,0.011829776656147852,0.011067471448092942,-0.3400534059113807,-0.16957487737763302,-0.027615327098339398,0.05722061591928048,nm,0.0
31.52199625968933,-0.9765651871617786,-14.965708744572837,62.38321197355228,0.19548238863135187,-0.15148696840062423,-0.42687286860789425,-0.13566216610179754,0.06785784003154686,0.057274953202005964,nm,0.0
31.542715787887573,0.019773797302495056,-13.505128783168729,62.35283221041191,0.46482392439100806,-0.5648192563825776,0.12863169973975094,-0.06738650055410375,0.1398266775300113,0.009265571248429038,nm,0.0
31.55020236968994,1.2379697573395245,-12.959919820837015,62.04493432750023,0.7054070956689378,-0.7710178793662872,0.37987342644560734,0.028282507650159945,0.2631007853094421,0.011947901098236808,nm,0.0
31.57156801223755,4.896782994080108,-12.458989403595282,60.77152503548363,0.990740105070878,-0.9004662109430218,0.9177766710705527,0.15575385272145204,0.31353182081136277,-0.0448973277103414,nm,0.0
31.57679057121277,6.815881683603698,-12.585402876904768,59.9896958010893,1.121044262061275,-0.7826051953734122,0.9102388331923565,0.2211142231935359,0.3156109022743984,-0.06551662934613617,nm,0.0
31.604907035827637,10.20233745588927,-13.68474419346412,58.22818052976546,1.0845210376998426,-0.5389047483308048,0.7918783162556777,0.2889831872677899,0.18242588096438425,-0.11075942288192038,nm,0.0
31.607248783111572,11.700600826333037,-14.636044280696007,57.40168994396825,0.8602409899336504,-0.43381334143078754,0.6960703071399914,0.32939403893520003,0.14708665266272478,-0.11265055178093135,nm,0.0
31.628706216812134,14.288583609237795,-16.991734213191137,55.622842245496074,0.2961869275355304,-0.35193816273088346,0.16048481151884816,0.35126130085127394,0.057913514513391405,-0.1489775380344249,nm,0.0
31.634111166000366,15.576460766814252,-18.239781115640586,54.55459513283322,0.027260768583314717,-0.31198599507277913,0.022536698565576885,0.35883318049664936,0.06114455895407765,-0.16879359139238048,nm,0.0
31.65604019165039,17.915327025452417,-20.198876034677042,51.983971199644834,-0.22018612315472094,-0.17420659262210317,-0.31851118423091057,0.27244336000867075,0.0522327236278351,-0.23917060559286274,nm,0.0
31.66435742378235,19.11836639054705,-20.921485819929078,50.54974068270361,-0.20058510494996018,0.05946156945510375,-0.6262228863105294,0.2672000683554251,0.08765495173132497,-0.23835822773554252,nm,0.0
31.685856819152832,21.63236060027122,-21.981092444940288,47.762757320228914,-0.3866624338369938,0.3203931263158318,-0.4118976687820667,0.2039452194777849,0.07549183699860201,-0.21150218384343838,nm,0.0
31.708630800247192,23.284024857651342,-22.797094889731337,45.93751059205204,-0.5389551392745726,0.490418898093958,-0.22133138138040012,0.1726408732192894,0.05586411918706528,-0.11640145245950148,nm,0.0
31.712815523147583,23.516311729526173,-23.0938484487562,45.39924828138822,-0.5301535873560989,0.5986893259469912,-0.37096463218521813,0.08571927298688413,-0.009334021110580898,-0.1096024104846185,nm,0.0
31.732388496398926,23.08342085463271,-23.354940903473477,45.1740690780149,-0.6177277502233851,0.637226554187949,-0.23134182897384667,-0.024982788699639345,-0.05739439672786149,-0.06255744641936833,nm,0.0
31.7547709941864,20.718267155042415,-23.164460155938247,45.80394736063674,-0.5379874144892467,0.5797046615040637,-0.22779267715916504,-0.18513279745332517,-0.16149234650988425,-0.04146713804783056,nm,0.0
31.756999254226685,18.906081755029597,-22.9429340288198,46.555368635730176,-0.5206608142751715,0.5162176936587678,-0.13519983400654823,-0.2494987904641933,-0.20925267210261303,-0.009914807939906758,nm,0.0
31.770156145095825,16.6548507533686,-22.60204096900538,47.68178449366174,-0.4431267079005346,0.47377968527208997,-0.19360568126144434,-0.3189647656003541,-0.25737909514443563,0.027290447476688174,nm,0.0
31.778912782669067,14.153848462248208,-22.13147470702525,49.081097912274686,-0.41714347502001986,0.39958462404594924,-0.18986108145019448,-0.36413622121172495,-0.2828089391096801,0.076414334339982,nm,0.0
31.800830125808716,8.748569572873285,-20.84160967354908,52.53207066446476,-0.297233199906396,0.20218070767642557,-0.3157118305032559,-0.411070572367585,-0.30905093402122125,0.1425676811436615,nm,0.0
31.80627465248108,6.1987054716527545,-20.006378247007557,54.30859869694215,-0.22038645527744533,0.03767322982496322,-0.36440225205875804,-0.40526584414571615,-0.28364604822131445,0.1632909870176063,nm,0.0
31.831100463867188,2.3956051327113146,-18.050671379636817,57.3047516671914,0.05680670038275249,-0.4047769829767906,-0.14900880501496078,-0.3254989165375419,-0.14218643624323096,0.1911944092518002,nm,0.0
31.837759494781494,1.8560135407679168,-16.975324736219484,58.52080037443381,0.202719938413842,-0.5761348424352002,0.16243913861322523,-0.22308478567885165,0.028895350439044246,0.2324397965085443,nm,0.0
31.858935356140137,3.2065775045065874,-15.299958640681501,60.26535102486646,0.6708300997342216,-0.7013429413390947,0.6201093033200492,-0.01878858592428922,0.21953567897703619,0.2440514905602445,nm,0.0
31.86348533630371,5.288679284059724,-15.080255285036403,60.88714087405442,0.7774106885210083,-0.6226071804276284,0.898823230084904,0.1737510926350771,0.37412594653263354,0.2726916825913161,nm,0.0
31.87060022354126,8.048689128298873,-15.326884378898447,61.24795610494944,0.8303483441432769,-0.5692311064955314,1.1847331999872182,0.31553408374766684,0.44503822677723176,0.2550219718914463,nm,0.0
31.893739938735962,14.514791522572944,-17.176594748878628,60.84654194111442,1.0170176874372467,-0.5654576762903584,0.9668900297625078,0.5347565154185756,0.47021113628581557,0.13678221528905887,nm,0.0
31.900439739227295,17.974261912925176,-18.558796302857164,60.08881766926993,0.940622865634751,-0.5676968357586514,0.69452428036904,0.5786507760784269,0.4408798488009385,0.06139305115089723,nm,0.0
31.923640727996826,23.966885918582665,-21.21966964882484,57.90701977191565,0.6319841647500855,-0.6267269775783689,0.03316129458890033,0.5095682442320308,0.32336086212900983,-0.058539883632924714,nm,0.0
31.928675413131714,26.311272869276333,-22.335244280457097,56.725148833207754,0.4120348066904301,-0.5296056113167307,-0.21900399134490622,0.4355575142231154,0.2510576548667192,-0.08846114764625988,nm,0.0
31.959255695343018,29.178326928648815,-23.897958156933903,55.0516342822618,0.04426105034882197,-0.23541006199527165,-0.5212479204579996,0.24404859884523428,0.10066737759990028,-0.1044447455962082,nm,0.0
31.974770545959473,29.46215881763169,-24.737745904698706,54.35260446765042,-0.2006943595876706,0.06451477998692026,-0.3241642377391088,0.035987983813560526,-0.07568568719680174,-0.15814227095696431,nm,0.0
31.978639125823975,28.49179534563267,-24.93023917420291,54.17701323157883,-0.13587986788501458,0.42415424796228707,-0.8134603447868787,-0.05860038787807105,-0.16153391023085342,-0.2061084294912437,nm,0.0
32.03483510017395,23.88702141589347,-25.22418540017953,53.51883572593909,-0.5037598461423821,0.6085912285653122,-0.4029560466907788,-0.2200817738491316,-0.31888260084181097,-0.2865430270238832,nm,0.0
32.03665256500244,21.748499543420472,-25.156389435963014,53.710116422837594,-0.7207334133307364,0.5698415415504134,-0.0696921324048974,-0.22652961378054806,-0.30142314066519027,-0.22957880796493776,nm,0.0
32.03861999511719,16.45019472063787,-24.69085987586658,54.87711272580943,-0.723859970318375,0.8697536411525039,-0.2262569776726674,-0.3226747133047572,-0.3710113330926564,-0.1644325906341809,nm,0.0
32.05708694458008,11.818348947573448,-23.89637872181818,56.385235050541475,-0.913345690519064,0.9230475298486273,-0.09398246533836385,-0.2822149446528806,-0.2887850635919221,-0.06627284585377997,nm,0.0
32.06382203102112,9.875552235500145,-23.483960549005605,56.85373482625246,-0.8635778443573279,0.8945508808075716,-0.20866304595706053,-0.25118213573699893,-0.24958796849186204,-0.058156519946505954,nm,0.0
32.072683811187744,8.374641375741238,-23.095677313597943,57.2640104349114,-0.8965203717562114,0.747684749020628,-0.11017067203877139,-0.20138611517070004,-0.1871984352501713,-0.04617161158158993,nm,0.0
32.083409547805786,7.0493227789637745,-22.739579694548237,57.52443761656434,-0.7511884633903533,0.5971982210395471,-0.23970566614051889,-0.17784095530230218,-0.16530873140007832,-0.049499627976553266,nm,0.0
32.120731353759766,3.2857919861019074,-20.86727732242664,59.91018314370203,-0.1483115377246221,-0.010959497698963542,-0.32394834530002387,-0.17504664040733411,-0.06450202210108384,0.16267421850777902,nm,0.0
32.13079905509949,2.625419106222494,-20.118267757324254,60.88696969302067,-0.0006516366056129969,-0.11016533559533676,-0.29736493624724974,-0.1776818590094896,-0.030660147378866215,0.21848440146575387,nm,0.0
32.14270091056824,2.3740779254660476,-19.301178015784473,61.88659647383822,0.26264873094742297,-0.2053110865418878,-0.4473800947221917,-0.15222862591759415,0.03987678300763478,0.260386291414383,nm,0.0
32.15027713775635,2.982504333773006,-18.47477899085919,63.21852965173148,0.1422965988701793,-0.48084554703387605,0.2360421438979997,-0.07987058095619304,0.18145593165187623,0.303133961886942,nm,0.0
32.17293977737427,5.479210517963312,-16.785668084582504,64.68011811689888,0.8578031638758289,-0.9834786482996779,0.19100343399146097,0.0005381119522075263,0.3660067645490594,0.2836804550003364,nm,0.0
32.1761679649353,7.886646696427648,-15.98909149066559,65.15174805374276,0.8823318861102759,-1.3710180464443407,1.1583915801955305,0.0661291209768891,0.49002151152863016,0.2820441916318126,nm,0.0
32.19863510131836,12.780664508538742,-14.968419170058128,65.85264134444067,1.4217321921359052,-0.9823478218858791,0.9632594209273608,0.15354190179581395,0.49139669222147436,0.17289903585596106,nm,0.0
32.20508313179016,14.991657787347272,-15.023187765512418,65.71497937728671,1.308265213476512,-0.7093968328247435,0.8634734900152822,0.1979836401956881,0.38990416600989114,0.08138734235350055,nm,0.0
32.225934982299805,18.02470491872506,-16.609369933250612,64.42594761649019,0.9493112269148545,-0.6060657253510793,0.636812772014185,0.3203383303110891,0.1786076622011042,-0.0719648171706116,nm,0.0
32.23272442817688,18.966081873620094,-17.731530634983482,63.56868714921819,0.5752591705149593,-0.6430177292336908,0.5126327774796302,0.29333382742626996,0.06792857587211469,-0.121761720320362,nm,0.0
32.25627160072327,19.907661840081882,-19.591385740316614,61.81869666733228,0.011530478653223314,-0.418083810582954,-0.012709285855671498,0.20606615946608017,0.008658854636415568,-0.14746150435098215,nm,0.0
32.26167416572571,20.06434137638528,-20.156247773439656,61.17024192917369,-0.1572734022950604,-0.2563963905547255,0.018140580867123758,0.12614531721425123,-0.02342187892281189,-0.1747733109560975,nm,0.0
32.2715425491333,19.812752160947873,-20.44665026121607,60.499474173487755,-0.045506078702868574,0.11697849301114821,-0.6514990949448682,0.040622114442261145,-0.06529984098917853,-0.21394878857018418,nm,0.0
32.29610300064087,20.360325547737762,-20.93997268282233,58.710560279546,-0.42683001353780814,0.37544317810498923,-0.09311530722363515,0.07730644559521638,0.011131074265642202,-0.19986495214764996,nm,0.0
32.30521035194397,20.024722424820297,-21.179045743207077,57.83246069211138,-0.3276444515766376,0.5848728923879701,-0.5701467639179648,0.020725706946375953,-0.07478981971294964,-0.23200898982361792,nm,0.0
32.32097601890564,19.845486628715694,-21.651341913533596,56.53689525733964,-0.6483025550353998,0.5196771527344715,-0.19160901756255513,0.03634156543166128,-0.04412782862362638,-0.13973839741366778,nm,0.0
32.32799482345581,19.34661796269658,-21.807780687999223,56.272009036162615,-0.6003853547926269,0.6094155745691294,-0.43355043946837485,-0.012051919090836829,-0.09132785385192453,-0.12267567898319359,nm,0.0
32.360342264175415,18.36688626947595,-21.703682199532697,56.180859392864285,-0.7401933525252093,0.5832382141694147,-0.18235566288026173,-0.06424229537990785,-0.07162381963410916,-0.05212644775091077,nm,0.0
32.36208462715149,17.573358661269733,-21.524617229656926,56.19782155842621,-0.6322259392415523,0.6714675506307435,-0.25080060673966387,-0.09877626813132315,-0.09969950344437546,-0.05550366351502283,nm,0.0
32.380011796951294,15.770359607306876,-20.965381009692422,56.77124428932407,-0.594417773199151,0.6704078692190671,-0.05054268772006367,-0.14141474019898245,-0.12217582398506857,-0.040426715552271536,nm,0.0
32.386030435562134,14.556903633708457,-20.683977043616107,57.150048248977214,-0.5025071386409714,0.7003486825338331,-0.14885324882749498,-0.15752153311330416,-0.15695488275235214,-0.03436643423695904,nm,0.0
32.40648365020752,11.731353677699857,-20.04899707557376,58.29968981537663,-0.4631034683351107,0.544035993466128,-0.09629344377179773,-0.1955813292476513,-0.20434768134421608,0.0017559095211868187,nm,0.0
32.42490839958191,8.563130569383318,-19.281241641202215,59.64761887645148,-0.4075560322829949,0.3024306655948681,-0.15731408702131225,-0.20940238273676098,-0.21070204363458953,0.04068309471647978,nm,0.0
32.43599843978882,6.958349956804599,-18.766565435126562,60.49538449484818,-0.3171411512907903,0.2010833458134522,-0.24014504140291779,-0.22701431925023638,-0.20935293600407992,0.04779924228259195,nm,0.0
32.44440674781799,5.469207290783232,-18.187979091264186,61.24957244153696,-0.2323269288046577,0.07022856489904296,-0.2884431835871948,-0.2251131050326958,-0.1879677018113345,0.05729017971011448,nm,0.0
32.451903104782104,4.145442531361746,-17.563985783843435,61.9970775062248,-0.13984256013291774,-0.06585163691849122,-0.24026476558786128,-0.2160122166309715,-0.15992057346885508,0.06496247162298319,nm,0.0
32.47519564628601,2.4906603899653605,-16.09560537422087,63.16491436501334,0.2027292960930725,-0.4214764057248655,-0.36504807674503925,-0.1680544307513972,-0.016732996776893126,0.11474317508259443,nm,0.0
32.4802930355072,2.6201464428495362,-15.300363286535802,63.730891166505835,0.03857447576731644,-0.6897782856565078,0.37088032480179356,-0.11735961231553284,0.09654512483503233,0.1561491382391296,nm,0.0
