timestamp,roll,pitch,yaw,acc_x,acc_y,acc_z,gyro_x,gyro_y,gyro_z,markers,motor_input
59.01127028465271,-14.754984895079355,20.891573281577877,-60.67910962339306,1.1463680247474475,-0.524465816812354,0.9556854673394887,-0.49632652800699895,-0.47883411537719156,0.026983686322991952,nm,0.0
59.016521692276,-13.813528683746357,18.077288013381214,-60.48189311385758,0.9502187195404034,-0.2298400510615957,1.447967446702984,-0.4112020708257024,-0.44302645622659537,-0.019234676098558397,nm,0.0
59.03869080543518,-12.005041792942796,14.973836763663812,-61.03153489074966,0.13344656816081088,0.5952976543835946,1.5551908592269466,-0.11087548081568971,-0.24457164661198805,-0.12163268715667205,nm,0.0
59.04194736480713,-11.117151499742825,15.418993464802716,-61.77974601353486,-0.14264725735714473,0.6128922092058149,1.5382052897727325,0.15265662669644778,-0.11950647736958504,-0.1797836445692768,nm,0.0
59.06397533416748,-10.984802531930955,20.674531187134907,-64.03049280914182,-0.044525314900584055,-0.21402810407204673,1.3994363331556734,0.5196788302852043,0.37499042690417667,-0.16015026622936118,nm,0.0
59.071290493011475,-11.720501656141721,24.474167320251556,-65.22582693688354,0.2560798021354542,-0.7652465339623573,1.1095972947020023,0.6215988886674304,0.4372041405106333,-0.13295074539017046,nm,0.0
59.08471989631653,-13.112316035410016,28.405702039866142,-66.48036283452205,0.705241472182026,-1.1126687780791586,0.7363254957783503,0.6087118429634016,0.538287979170695,-0.07053082277891945,nm,0.0
59.10201668739319,-18.14570692378643,35.20615584656497,-69.51205268930593,0.5219789787035268,-0.8609103536810104,-0.31939510916118197,0.4170783458398542,0.6195243475318448,0.011827252116509408,nm,0.0
59.12375473976135,-24.74487110960427,39.5750075939606,-73.59383540063371,-0.028588491689781732,-0.058240459237492,-0.6994638133081732,0.1930109492299815,0.6152679736455198,0.03383053482177329,nm,0.0
59.12731695175171,-27.794098942276957,41.113051873108915,-75.77573668764946,-0.01787189940262136,0.19897646536703184,-0.5726690684042477,0.16456298804758657,0.5208263632876747,-0.0039059958999255657,nm,0.0
59.138001441955566,-30.533868316036227,42.50750963782236,-77.67574144434077,-0.30786303518456987,0.3913089028041633,-0.6290743172256381,0.1677451579484198,0.45293279053469165,0.009014489992105659,nm,0.0
59.14509201049805,-32.51483588703166,43.937462281127,-79.06118181666088,-0.38710723686985055,0.3911478600437341,-0.6077281608878983,0.21162551388270953,0.331845401682118,0.005963325425620822,nm,0.0
59.168482065200806,-34.29864353917647,46.96054308329571,-80.10386298199107,-0.6227562499740895,0.4820334848014169,-0.7382490032649879,0.26670162936362474,0.1216965361411831,0.037308192759639175,nm,0.0
59.18852114677429,-33.83558153538376,48.70394579668575,-79.22714839799232,-0.610412446300621,0.5229714625187538,-0.704618977398249,0.11788698823630452,-0.03323702988554896,0.0466176770199289,nm,0.0
59.204349756240845,-33.50711228791364,48.694249586321,-78.66517080030381,-0.6712591534997604,0.5431851070399977,-0.6644704271953626,-0.004297790439658586,-0.051685006041901106,0.0475120557552093,nm,0.0
59.20633554458618,-33.19654022784947,48.03245496258481,-78.1442108937258,-0.5906004329656007,0.4979543993582451,-0.5474251779487065,-0.1321496572687598,-0.07599752404928306,0.03978650683941702,nm,0.0
59.213181018829346,-32.89428545700515,46.84860940753115,-77.57783140735152,-0.582632250391753,0.42360215224725856,-0.5053109094739993,-0.23367868433494413,-0.09900897427682062,0.04607741293474042,nm,0.0
59.25302171707153,-30.06386654526965,42.299601107924396,-74.2788087202061,-0.3958459402089039,0.3090660018858581,-0.3261049189207152,-0.2535233442555863,-0.2824605290588308,0.08929573922250324,nm,0.0
59.25468325614929,-28.263122521698495,40.845189973452456,-72.38347783994355,-0.25625296155384764,0.3046319805251836,-0.30789908936693133,-0.2109920025188035,-0.3519319851171015,0.09899800224192612,nm,0.0
59.27001762390137,-24.03149389540046,37.70190475559397,-68.38001212040062,-0.029760850108735765,0.19539756714592454,-0.3188748644109534,-0.200367247531905,-0.44528379910259064,0.06598863853031835,nm,0.0
59.28193211555481,-21.919752263247933,35.75710061371621,-66.85765698239115,0.11598601531033532,0.06350328021215983,-0.2930138548929261,-0.23961363001349956,-0.47208574742308107,0.019484921124341796,nm,0.0
59.289191484451294,-20.015886203003415,33.50107769137344,-65.67345438444812,0.23863858882499822,-0.09655580149427588,-0.23327972599631164,-0.29537144765326806,-0.4797803551879493,-0.023965069133219292,nm,0.0
59.297406911849976,-18.33576727875228,30.972325110825185,-64.86245109284859,0.35784209463804706,-0.26259825511808804,-0.10658728453403832,-0.3489105040454131,-0.4812299762432136,-0.05441285415907214,nm,0.0
59.32136559486389,-15.714998761671737,25.683869156442587,-63.86371610095926,0.5505960892432518,-0.49397763085122737,0.3559711771288768,-0.38711452588223977,-0.42733267281890364,-0.03211906066964329,nm,0.0
59.32735753059387,-14.75067405698833,23.342615040470086,-63.37494735686066,0.5173511851560066,-0.40631884874046187,0.5438731839681938,-0.35011016506284914,-0.3766369535840592,0.009094932446913109,nm,0.0
59.34288239479065,-13.92894584150424,21.392401403905748,-62.79368610368146,0.43429942460819476,-0.22456813294290756,0.7283473214172869,-0.28739795437341936,-0.32347969371990565,0.04904983276267228,nm,0.0
59.35012888908386,-13.24665847184051,19.904320255464068,-62.16735198057454,0.4147483057241352,-0.013522937697932684,1.1043251267900192,-0.21308490467726074,-0.26221819939998847,0.0725419662143683,nm,0.0
59.36793279647827,-12.39194285683676,18.629337239371885,-61.5664910956838,0.12575155913176192,0.2851696639619637,0.9710506340069684,-0.03457433616686979,-0.10366431492122595,0.041824836495653335,nm,0.0
59.3734655380249,-12.234621789954943,18.87365993079769,-61.590969276055624,0.0738144979538166,0.2290500747028225,0.9044041191301199,0.0494801753331518,-0.01426587800778387,0.014542596606397635,nm,0.0
59.384164571762085,-12.31570245628418,19.64936171664526,-61.78283572888698,0.0413464379206819,0.032027365728665026,0.7867595296089188,0.12181696777273039,0.07578732821599006,0.0012207302347778575,nm,0.0
59.40551280975342,-13.201647833570867,22.417031305934135,-62.157332021242226,0.06121150729957549,-0.27821037425253836,0.4000775267777528,0.2133177623246371,0.22375530627404686,0.032308120221797555,nm,0.0
59.41235661506653,-13.967845834522873,24.029690541968847,-62.154832437158845,0.1359957721310147,-0.3584177770593233,0.2618378181669952,0.2117270312482237,0.26449368235355414,0.06468853312001144,nm,0.0
59.43601059913635,-16.260811291261557,27.22133682046352,-62.54762566812822,0.2331905033945255,-0.2030259590109365,0.013059027259713361,0.1635386018860047,0.33571736251273443,0.09460044806578997,nm,0.0
59.443920373916626,-17.739509197638153,28.61431701570366,-63.00893159233266,0.3111924774984623,-0.0861925261828245,-0.06292016047244257,0.12055249295670764,0.34923250969211056,0.07568233038212438,nm,0.0
59.46395421028137,-20.964827400960843,30.98417704733502,-64.87677291216374,0.2546432030295067,0.1293636470398137,-0.2671909659230823,0.07365325500425833,0.33317992440377553,-0.011875670635610255,nm,0.0
59.472177028656006,-22.300152302169817,31.902404454870236,-66.00943127588154,0.23764998673746984,0.18117028986019848,-0.2917108504817156,0.06408481550383359,0.2731451368823671,-0.051201651104282216,nm,0.0
59.49237370491028,-23.822817060969832,33.58053235294251,-67.8935428369291,-0.008653890060512199,0.30840260498981775,-0.3607631308137333,0.11319045560097188,0.13682452229611283,-0.08799706190745682,nm,0.0
59.49765586853027,-23.895922455801877,34.40512118470227,-68.42775484397454,-0.11524997065064091,0.35897136006397484,-0.31828931892812523,0.13951365471641483,0.062354836784551705,-0.08923238077723432,nm,0.0
59.512040853500366,-23.60547659537183,35.170325084288805,-68.64680243801023,-0.22861615977435212,0.37764328872887554,-0.28599366175476976,0.15071514192772664,0.001561346568846749,-0.09164546333675949,nm,0.0
59.535773277282715,-22.516433865616758,36.31851180484875,-69.03326092995039,-0.38893006950592734,0.3524626946584256,-0.25213096600690604,0.11249392602600791,-0.06064920875475781,-0.12913457291502256,nm,0.0
59.539249897003174,-22.002125146881284,36.50935024276055,-69.44505131458835,-0.4713795393664056,0.2551263283896987,-0.3148403401208292,0.05550959802137772,-0.07365366977117407,-0.14832837435058965,nm,0.0
59.54672312736511,-21.554262127686968,36.4054850426543,-69.9424945394002,-0.5077135148365683,0.12601706329514134,-0.3966591829919819,-0.004172262457694202,-0.08443879282497439,-0.15769992811636133,nm,0.0
59.568610191345215,-20.695271789037488,35.2720761698498,-70.53918732050982,-0.6114177827524302,-0.049658205062351156,-0.515839691208512,-0.12180487572789325,-0.13083326518135813,-0.09199949451585011,nm,0.0
59.57331442832947,-20.103250452195066,34.28944247287792,-70.20903236472883,-0.5276997212116382,-0.14030019075929231,-0.4396658363823502,-0.162257087866323,-0.16742273666562774,-0.022887323936427013,nm,0.0
59.58480787277222,-19.43490737013818,33.1391341937583,-69.45694143766008,-0.4679599031213345,-0.13384932935970975,-0.4169274191405605,-0.18731458630295889,-0.19367665926540442,0.05574232085109416,nm,0.0
59.592164039611816,-18.69180756779846,31.798625830725417,-68.43405753554444,-0.30675457168996895,-0.10057569107689866,-0.37634559774759857,-0.2148128985525726,-0.22342795461521386,0.12005294335726821,nm,0.0
59.602943420410156,-17.988035775761123,30.231367258872776,-67.24973068795109,-0.12190527847656235,-0.07804470269126809,-0.37886727036654383,-0.2542707463663522,-0.24029625729674553,0.15966934710086791,nm,0.0
59.624199628829956,-16.85120558944787,26.387093357622483,-65.21268227587069,0.2852208528462287,-0.10500237399509368,-0.36160077108534805,-0.34440042129955845,-0.26485848747861174,0.12948256036519393,nm,0.0
59.63316607475281,-16.414652889984787,24.08392990858943,-64.57505969795214,0.5674740658890972,-0.22318768379814333,-0.18884987235520367,-0.39256218133488885,-0.2780766181535026,0.0858822722338782,nm,0.0
59.657352685928345,-15.834886436834473,19.207681248240572,-63.85959812379414,1.0498845086968516,-0.3848277606298407,0.662092896354701,-0.42792347305367706,-0.2654179232511876,0.021279339346224887,nm,0.0
59.66230297088623,-15.753307007999357,16.966959657446022,-63.69374499499739,0.8389560421584918,-0.35760663884438115,0.8712208088374648,-0.40366648753324774,-0.22365764499710009,0.016475597150514866,nm,0.0
59.67293953895569,-15.263012622733132,15.225287884685457,-63.599116392144545,0.7437927989537279,-0.07658462160059953,1.1211889253237757,-0.2786562645685633,-0.2507568208616507,-0.012024195737566856,nm,0.0
59.692230463027954,-14.198978066828465,14.032316638992885,-63.74303033938858,0.271958529421996,0.3578575172421762,1.2432936340123,-9.628841081537079e-05,-0.10146273198676034,-0.055340636157874566,nm,0.0
59.69755458831787,-13.548611579551727,14.861875005007313,-64.06025490134151,0.11486379155668439,0.3246078677638347,1.11723283218979,0.1965595263921903,-0.05144308557592161,-0.10006492688342769,nm,0.0
59.70651817321777,-12.819169122820925,16.56904218966588,-64.52982395736088,0.5647438444291447,0.18364766426407494,1.5425845274343915,0.3607702498579976,0.010541936806037214,-0.13797992126309036,nm,0.0
59.73001575469971,-13.585823132789663,21.408978057863408,-66.11859536217577,0.1732648860973877,-0.6133344454277966,0.564409982635966,0.42664654769334115,0.27137266435363444,-0.10949022990507569,nm,0.0
59.75365328788757,-15.808739268755803,26.288891649549885,-67.9628043087833,0.09182311216264052,-0.6690643368157637,-0.14098073434370834,0.312143818767713,0.42762835759255075,-0.01242742680119291,nm,0.0
59.7592453956604,-17.39842301469971,28.253507196789673,-68.91476631684809,0.2301519833129762,-0.4818768201305952,-0.13618469462694316,0.2533157055086945,0.3972641353791025,-0.002292549861620548,nm,0.0
59.79503870010376,-25.87539240237324,34.3216837053729,-73.1372438688328,-0.12119859660087015,0.4256693010737345,-0.3928928001386458,0.1530202295717155,0.3978434124070878,0.03568311133476033,nm,0.0
59.802552700042725,-27.578470760338927,35.82675631829126,-74.0748412191365,-0.2773230045726649,0.5023390061408388,-0.47487475442121885,0.2004833461404887,0.34302196807041063,0.021939101154551926,nm,0.0
59.81330680847168,-28.73262895267474,37.344123749898884,-74.732210604901,-0.19178959822841235,0.5212793352707528,-0.4715816732172366,0.23255719204945025,0.2508802682311042,0.0024660064656370603,nm,0.0
59.83350872993469,-29.931458296334924,39.969042441041815,-75.50403783962024,-0.36858977268901677,0.4479966578591481,-0.6275473097669829,0.21299457276559455,0.10779636813149596,-0.020668914838373166,nm,0.0
59.84180760383606,-29.98051696431556,40.863711418487185,-75.71759519435882,-0.4005752563073448,0.44986470091251807,-0.6181605584421934,0.1613222306172489,0.04246094080633692,-0.040251437390836274,nm,0.0
59.849074363708496,-29.836043950118473,41.29916677484391,-75.83225203806212,-0.5228145977674336,0.39520414795216774,-0.6510408706333188,0.07949153847855954,-0.008946278408643258,-0.04589980576477255,nm,0.0
59.87193560600281,-28.91806885881685,41.01555080071766,-75.61666573739456,-0.5767464036430543,0.35390222614917993,-0.4747943593316731,-0.05070691905768195,-0.10167401006884544,-0.05777214089021843,nm,0.0
59.8785617351532,-28.19312157692522,40.428043009027725,-75.20853404148477,-0.6121028009952524,0.3339358108221837,-0.38409869518579093,-0.09638033920942517,-0.14537863346021399,-0.040984289700501914,nm,0.0
59.91337585449219,-26.197492354794512,38.86991605027063,-73.73269987214577,-0.5489961534724115,0.32010300756430987,-0.20624012234632036,-0.12143421987026226,-0.21084579910450246,0.015503271967822835,nm,0.0
59.915037631988525,-25.04266810622625,37.99346211653701,-72.64052024804823,-0.47989246425782467,0.3159194815373346,-0.1733978507546479,-0.12539852788324313,-0.23371090943000047,0.04267052401285518,nm,0.0
59.917102098464966,-23.870847949878957,37.02511100819078,-71.49116061847087,-0.37204914836498076,0.2825202241092884,-0.17958449089999406,-0.13682952101597654,-0.24645431732347933,0.059554363271356936,nm,0.0
59.925957918167114,-22.76217725920315,35.943736450184716,-70.41962131497151,-0.256665179790192,0.25160657684142584,-0.22941841189571868,-0.1559955197213395,-0.2491510388810235,0.060321695413998434,nm,0.0
59.934717655181885,-21.720724490390108,34.694312755756776,-69.51933565770943,-0.122822635487146,0.16437244296188805,-0.23993140540864302,-0.1862560878837339,-0.25541725737406257,0.04550986451251081,nm,0.0
59.95814561843872,-19.898783044491555,31.63275145860078,-68.19915783394141,0.19095011804457665,-0.05726646807708817,-0.22503770281569385,-0.2556694836591596,-0.26628743807313077,0.004886323217190287,nm,0.0
59.96419644355774,-19.065646139989582,29.885304717938332,-67.71251586845545,0.370793378572286,-0.153583367929649,-0.11979281353794545,-0.279526977393516,-0.27456394656571315,-0.010054761624497947,nm,0.0
59.97294545173645,-18.301367934353756,28.069314211420952,-67.34306045465904,0.5508671750758285,-0.24221588108833517,0.05500243015440958,-0.2938311606393124,-0.27309781899770097,-0.014867717953784996,nm,0.0
