timestamp,roll,pitch,yaw,acc_x,acc_y,acc_z,gyro_x,gyro_y,gyro_z,markers,motor_input
95.00137186050415,-20.32993571715067,17.943843221128134,158.1116011129397,0.02481744144308953,-0.009970710946029459,0.008661159836406404,0.0,0.0,0.0,nm,0.0
95.01006937026978,-20.340797922281755,17.964628234184786,158.1789150734613,0.02409047069512399,-0.009645785925121254,0.008413892205654173,0.0,0.0,0.0,nm,0.0
95.01164150238037,-20.357644949750135,17.979577000652487,158.21578689748043,0.024952910570917388,-0.009972477793354815,0.008720615398149547,0.0,0.0,0.0,nm,0.0
95.03490996360779,-20.459011518588845,17.92660785200342,158.117169377271,0.0,0.0,0.0,0.0,0.0,0.0,nm,0.0
95.03662443161011,-20.548889517450558,17.862966746207498,157.99035168267235,-0.00450851760848749,0.01722214377383609,0.0329968910113864,0.0,0.0,0.0,nm,0.0
95.0441460609436,-20.65484132010168,17.78307918968358,157.85129112054668,-0.004963431227670295,0.02149521394670117,0.03959953632544026,0.0,0.0,0.0,nm,0.0
95.07047510147095,-20.860299958587017,17.62913679083386,157.66861395416944,-0.03625543061569609,0.02751113828706943,0.029384488643837074,0.0,0.0,0.0,nm,0.0
95.07444286346436,-20.93733138329823,17.57509802453264,157.65204367399792,-0.04301923599561861,0.005051272953000661,0.018825705136483257,0.0,0.0,0.0,nm,0.0
95.08364272117615,-20.988682690776894,17.531661480685145,157.67200887387023,-0.03767002808294708,0.0036236534687834367,0.01851517012344435,0.0,0.0,0.0,nm,0.0
95.10773158073425,-21.039121977497896,17.43986828382295,157.70775547575184,0.0,0.0,0.0,0.0,0.0,0.0,nm,0.0
95.1397213935852,-21.07946366102497,17.301014188358216,157.63242332438315,0.0,0.0,0.0,0.0,0.0,0.0,nm,0.0
95.14336967468262,-21.121159105262088,17.19158193008388,157.5252577895502,0.0,0.0,0.0,0.0,0.0,0.0,nm,0.0
95.15934491157532,-21.114862745755694,17.217329684390684,157.51613850093617,0.0,0.0,0.0,0.0,0.0,0.0,nm,0.0
95.17313623428345,-21.094576844427362,17.2682838777412,157.5421479464711,-0.009862117188506641,-0.005685506529094329,0.022332684681044285,0.0,0.0,0.0,nm,0.0
95.19342613220215,-21.04765077277552,17.35347684406383,157.5689623989659,-0.01118768749493943,-0.006404746682337176,0.02527238319950849,0.0,0.0,0.0,nm,0.0
95.19627404212952,-21.031744780821178,17.348346308867118,157.55223204202935,-0.011426712557251506,-0.00653317561829541,0.025820998491473804,0.0,0.0,0.0,nm,0.0
95.22204494476318,-20.996661553123033,17.23775089342933,157.49862860773055,-0.04560153190253449,0.008222553122965702,0.012838088824904873,0.0,0.0,0.0,nm,0.0
95.22514533996582,-20.960652582303556,17.156076458025225,157.49418706838156,-0.043086513530086176,0.0076263939641412455,0.012619671272192802,0.0,0.0,0.0,nm,0.0
95.25005149841309,-20.836875119610013,17.019244947275062,157.5548782170348,0.0,0.0,0.0,0.0,0.0,0.0,nm,0.0
95.2563591003418,-20.758166744577007,16.9819714383848,157.59904914420392,0.0,0.0,0.0,0.0,0.0,0.0,nm,0.0
95.27807474136353,-20.61499120834543,16.98474520640372,157.63251653288637,0.031209540662152483,0.00673444045916755,0.043087053361690573,0.0,0.0,0.0,nm,0.0
95.2838351726532,-20.56814542374123,17.0309728859624,157.6082246943011,0.05294103023660643,0.0022244361265268664,0.06332069550723982,0.0,0.0,0.0,nm,0.0
95.30680513381958,-20.562609857751436,17.08443107642425,157.50056890436375,0.11118153406072269,-0.04693602812371554,0.13959952618594867,0.0,0.0,0.0,nm,0.0
95.31067633628845,-20.64615022678157,17.028700678679147,157.41447886560616,0.15415126138000934,-0.1153782733902073,0.1885247289369013,0.0,0.0,0.0,nm,0.0
95.32518410682678,-20.82051769660055,16.887169875820813,157.29252871272556,0.20545002452068079,-0.15992077324094045,0.26374666609106445,0.04015576595511353,0.027384972006517745,-0.01702652237699206,nm,0.0
95.32903528213501,-21.125196508326503,16.620246413756266,157.11639972378785,0.23512362386279978,-0.23751232706769915,0.3405679291908352,0.07300072377363864,0.040749742640223234,-0.020376349351298565,nm,0.0
95.34851932525635,-22.155587922723164,15.585370694610313,156.59809497154168,0.23266945489856125,-0.3359746894053053,0.42504063521682217,0.14912440460360532,0.08226357698185217,-0.026891175262506287,nm,0.0
95.36041688919067,-22.838347911449016,14.775813139764907,156.31476427472975,0.20390280544147849,-0.33036215410560504,0.40351477098278693,0.18418852470590533,0.11011732629302166,-0.023045694355840304,nm,0.0
95.38249254226685,-24.32862828666656,12.607791651645057,155.8955701938457,0.10226238475121932,-0.28975519982654224,0.2791237732895412,0.23071099747825435,0.16673240122247676,-0.0016955821219300708,nm,0.0
95.38861656188965,-25.1270958580185,11.287841484319134,155.79801111118545,0.07764452621908816,-0.2534168239748064,0.20759370862223664,0.249286315101321,0.19147252512441815,0.012358653093246566,nm,0.0
95.39639568328857,-25.91999836187318,9.823955317238674,155.77992629692363,0.06439521032788142,-0.216902558922709,0.12607801651346756,0.26092797753652663,0.21766323714429256,0.02461017369411688,nm,0.0
95.40585494041443,-26.711279252127866,8.264324915443936,155.81153997878187,0.061384063198202714,-0.1807894531055561,0.07179102169855031,0.26907097421387705,0.23503105208045394,0.03074895815820987,nm,0.0
95.41587138175964,-27.50130789703277,6.662966149425123,155.85943461179417,0.07325860621089234,-0.14622524901541184,0.014402746204343796,0.2726407816776918,0.2426888809422977,0.03002723165672473,nm,0.0
95.42921423912048,-28.297926224115884,5.045846353026306,155.90800337955974,0.06267677490876511,-0.09663177132628319,-0.02531593176756417,0.27537559550274243,0.24504672720968723,0.026265250845982715,nm,0.0
95.45030570030212,-29.88183955468616,1.9249024413474394,156.74256096940795,-0.04336861447011714,0.055671468850456256,-0.14114964342417174,0.26435367351803885,0.23302577239845465,0.013206317789498037,nm,0.0
95.4541347026825,-30.65204606745237,0.44677071590410194,157.1095491384615,-0.10373994446344775,0.1675575314242863,-0.19364172260449658,0.2552009121981265,0.22684781828259334,0.011761477410463503,nm,0.0
95.49098014831543,-31.369411960446964,-0.9901391061366924,157.55709161158794,-0.18614540210398292,0.22484389336275026,-0.2198797056285731,0.24060585448195695,0.2251385387053752,0.014483285490450973,nm,0.0
95.49453163146973,-33.10505702768913,-4.860447020751156,159.10216197628554,-0.28486235896631257,0.3293883741687433,-0.28463007768611387,0.1755427628024618,0.20395071311968638,0.01950180096676232,nm,0.0
95.51025485992432,-33.78364017552069,-6.8128426161681,160.0709001777926,-0.31221396637088256,0.4134897822893961,-0.30281707453769136,0.10933264965179698,0.1626024389025338,0.007828427878906965,nm,0.0
95.52191042900085,-33.93933692352088,-7.522340830031071,160.4673467472778,-0.3441785282373295,0.4421839698263858,-0.30237382427441595,0.07410556026690633,0.1374125278096454,0.0038950088661526576,nm,0.0
95.53389120101929,-33.9858979146704,-8.016963953375202,160.84216422073837,-0.3770173368371003,0.47750054853623,-0.3025063548694591,0.03858684597324387,0.10437739686099476,0.00030814019143016473,nm,0.0
95.53952121734619,-33.93453475453195,-8.261116687211379,161.1983169478458,-0.4068417427362222,0.48383849912359156,-0.30300382669763865,0.003393285303094692,0.0633926290841171,-0.0026880950394594086,nm,0.0
95.54949617385864,-33.811002930431286,-8.255750770511733,161.5889333704509,-0.4291856407244269,0.5149758815452714,-0.305632940842429,0.0,0.0,0.0,nm,0.0
95.55835437774658,-33.555317116155756,-8.000920835456343,162.0161185544533,-0.4594439197726099,0.5113765887119252,-0.3029714917438739,-0.06687652017970647,-0.019101073628811614,0.001002184028934234,nm,0.0
95.5673201084137,-33.18598600106389,-7.510039912224957,162.46591674100094,-0.48142823960263514,0.49419871427368445,-0.30791488443794374,-0.1025270529616484,-0.05787281420754678,0.0053525883599096725,nm,0.0
95.58302664756775,-32.722694069086636,-6.809923081292779,162.90873538009285,-0.49121252242568875,0.48421720517437644,-0.3206480836864546,-0.13238466584762604,-0.09314352274789492,0.012305525755017156,nm,0.0
95.60073900222778,-31.816145562110076,-5.562592296037357,163.99023193508842,-0.41675230008791375,0.37545780833849185,-0.3492115410534505,-0.19605215221210223,-0.15829255852181248,0.03347320004010605,nm,0.0
95.60617637634277,-31.032345205682244,-4.30832363606147,164.64606915519036,-0.31827093030282333,0.29397906938780877,-0.30307756344567693,-0.2213284487237184,-0.18666869413343565,0.04879964816711678,nm,0.0
95.61551713943481,-30.19043447827153,-2.8901851652452812,165.34164597781225,-0.1889617421427107,0.16616171168739893,-0.2809283049004581,-0.23910198580174694,-0.21785026690728596,0.06138763353136287,nm,0.0
95.62512230873108,-29.286744454666504,-1.2912435003207818,166.08369381505094,-0.0037926513520094617,0.005396636110399604,-0.22090439174162144,-0.2574158785943962,-0.2528500240947834,0.06745067927081627,nm,0.0
95.64870810508728,-27.595232389421,2.2644430151100714,167.61706718125023,0.3680884252468646,-0.4284420544083518,0.16972306204997897,-0.2399104026872066,-0.3057711152882356,0.06294683509658941,nm,0.0
95.65481400489807,-26.88511026232006,4.038116692754013,168.34175664081255,0.5764437919571327,-0.6878396084707122,0.4682242849093471,-0.21653444895399324,-0.3048761404402316,0.059617394368819014,nm,0.0
95.67732620239258,-25.928298888984052,6.850064320860464,169.716491792669,0.9708575576120104,-1.001917140898076,0.8761126939965723,-0.1278117155621659,-0.21490696256141797,0.061741163163809024,nm,0.0
95.68610858917236,-25.663191280096516,7.638982512497815,170.00689761372934,1.0611641178249898,-1.1497931189717407,1.1392067688963472,-0.08477367104963617,-0.13273691203922386,0.05083836252927584,nm,0.0
95.6951835155487,-25.524905195275473,7.886443410115158,170.33699660483083,1.1076947229786642,-0.9975552271103579,0.9066727515045157,-0.04060862087260024,-0.030739844336338543,0.018711235632408903,nm,0.0
95.71466779708862,-25.781103710297145,5.998706261454309,169.75949205414997,0.9496227384473526,-0.736446703201158,0.8010157946064853,0.09516646017919243,0.2800922605415682,-0.08078327313831783,nm,0.0
95.7213785648346,-26.135632057825724,3.9399409336520472,169.0056013434593,0.7683247792318831,-0.5631062891353416,0.7475288826360305,0.14054681346372153,0.4057367661010005,-0.14481099964697589,nm,0.0
95.73013877868652,-26.691763363159296,1.507503952184586,168.02455499346226,0.6434816260098221,-0.42132028333667626,0.6963387951009842,0.20130364995272113,0.4688222388513442,-0.19069754990698953,nm,0.0
95.75229096412659,-28.600152242514064,-3.830741621200761,166.51190126630252,0.2597327076569309,0.024313696655083063,0.37901102095819295,0.32220192336890224,0.4852487622670725,-0.12603539752040163,nm,0.0
95.75756645202637,-30.00780435374706,-6.2198440248279105,166.3804535478104,0.1066417426953375,0.10971287033303957,0.22054517948340557,0.3809750195648188,0.412927878920055,-0.04891693763073421,nm,0.0
95.78462886810303,-33.699015415796424,-10.076877720852574,167.75135752694024,-0.09899186626737962,0.13661213240098258,-0.24191085640705653,0.44884985122386856,0.28137474148921715,0.08858225035976174,nm,0.0
95.78800702095032,-35.743645744869035,-11.667137524159436,168.75143593273972,-0.19015437685181133,0.1425728864684114,-0.46823510726373957,0.4538512886558176,0.2438660137516181,0.08851605417128688,nm,0.0
95.80025219917297,-37.666772594137555,-13.173303176685415,169.5469806577416,-0.2714753447505981,0.18548252542064514,-0.6688895080911474,0.4215087220471302,0.23911175720534303,0.04403068241983722,nm,0.0
95.81952357292175,-40.59866164974304,-16.50238000684125,170.20395266189757,-0.5724424977359834,0.3334176570026589,-0.72399460625791,0.2990359584449805,0.3111020830039077,-0.06907384039415117,nm,0.0
95.82915377616882,-41.438216327075374,-18.245637703668816,170.15208636116063,-0.7377262079044745,0.49387562623281533,-0.7343061339505413,0.21332600937328372,0.3296208654588865,-0.09515327392312778,nm,0.0
95.83894920349121,-41.94866711982341,-19.852803980262024,170.02547828795196,-0.8233784132566684,0.5522282359776687,-0.5594609797678818,0.14655502713174667,0.31322323794490403,-0.08906290312728281,nm,0.0
95.84558176994324,-42.155245511065445,-21.0948897708974,169.93819797924363,-0.8958663838290157,0.698883562216644,-0.475205909882536,0.07774076352815468,0.25085530107309323,-0.05622348846389772,nm,0.0
95.85448050498962,-42.06902459340117,-21.78146654881382,170.04756178310893,-0.8815720697554953,0.7260173755094165,-0.42218441754049374,0.004465532719107223,0.15075097532219703,-0.010749949710137341,nm,0.0
95.8620343208313,-41.80901537965105,-21.888353022948888,170.3651680841449,-0.8425914732880362,0.7317317112917248,-0.382810924962748,-0.04745914742169706,0.04175394063165933,0.03089694827804407,nm,0.0
95.88620805740356,-40.730617769852756,-20.56757753226415,171.05968056994857,-0.7009742190893551,0.5423276368177469,-0.3142155789771507,-0.14766581275625268,-0.1445340092175031,0.04731227166739112,nm,0.0
95.9115035533905,-38.994056732242036,-17.974641341804922,171.17969755091073,-0.5385399430171242,0.3846674399333958,-0.2786327758121303,-0.22448693505145417,-0.23739830386374866,-0.016347669482448764,nm,0.0
95.91462326049805,-37.9050823268174,-16.35663192950554,171.04670030181722,-0.46430554676084496,0.3109810130734924,-0.26793815947298,-0.2590648153512249,-0.27605845353850406,-0.04807924919092303,nm,0.0
95.92002201080322,-36.7653158337034,-14.486864089909284,170.8726112241898,-0.35743215450618937,0.23838952397982005,-0.2728727074135884,-0.279256926654185,-0.32330038831835006,-0.060714085028921796,nm,0.0
95.92877745628357,-35.64886741794905,-12.356485967464828,170.84494482216462,-0.1833961396206552,0.10822389339246921,-0.24505221033726546,-0.28556852471226424,-0.37470249113983545,-0.04294163765317503,nm,0.0
95.93921089172363,-34.57732420015138,-9.95876380285915,171.06349340726217,0.04814870572824217,-0.0889505545196608,-0.15953506931161218,-0.28648753786689607,-0.42908596536301796,-0.005734170429537053,nm,0.0
95.96209120750427,-32.58845763839452,-4.597646783253474,172.14142870878783,0.7474197936104565,-0.6378374018670575,0.14726950167358174,-0.2705715998393717,-0.5007578669367554,0.05477004491464234,nm,0.0
95.96864461898804,-31.69998566922947,-2.0319314585979806,172.8405054768264,1.1329006632177105,-0.9692417571986057,0.5118027076146245,-0.24711315897757075,-0.4739487883547036,0.06361150569037292,nm,0.0
95.97663593292236,-30.851698812870097,0.144577585554863,173.46736644570785,1.4784045989757322,-1.1009876300440808,0.7376656419432239,-0.22510898239394897,-0.40014430813323076,0.04986925375559922,nm,0.0
95.99120736122131,-29.952074537788853,1.7197141885278666,173.84282603474193,1.6581814523341665,-1.0307797398707508,0.7359217045680841,-0.21915576730094743,-0.28107078755210047,0.011238371729494602,nm,0.0
