timestamp,roll,pitch,yaw,acc_x,acc_y,acc_z,gyro_x,gyro_y,gyro_z,markers,motor_input
56.50151467323303,-22.51556783320565,24.109694031203638,-71.70299688001535,1.4891788058593314,-0.8263370886121856,1.034889344924955,-0.3051704932173486,-0.30573877437128516,-0.16688084466255396,nm,0.0
56.52667593955994,-20.58882348209369,22.37882154177343,-72.74210639028949,1.0851142683194286,-0.6484024371151706,1.474078028999112,-0.0398705528910366,-0.2071753686255288,-0.234086267909024,nm,0.0
56.535544633865356,-19.429686799071128,22.91649015869666,-73.29920828069235,0.7022041854913794,-0.4615875069537606,1.3896474397656144,0.15580287292245115,-0.18290780230398576,-0.24029461796047077,nm,0.0
56.54304075241089,-18.280855624004403,24.470346004120962,-73.78906317795139,1.0283767938200987,-0.5473461394916532,1.9342696629225344,0.3480953936699342,-0.12290280535118846,-0.22221627426916576,nm,0.0
56.567598819732666,-18.022461502858896,29.913192382649168,-74.90492375421609,0.1585075399846047,-0.7670618184649319,0.9602235094451657,0.5693197637434193,0.12615072904852567,-0.130595391503076,nm,0.0
56.569289684295654,-18.34837897621038,32.95896849692249,-75.57209572791801,0.40040324760625734,-0.9708639587916236,0.7527876866058296,0.5650139010021223,0.20078229993943308,-0.10457015361465014,nm,0.0
56.594427824020386,-21.71304938782029,38.24433818437572,-77.86635163100345,-0.11359084103335734,-0.6831370376897397,-0.16450015711179494,0.39605791873874874,0.39262449044945097,-0.04068281507137063,nm,0.0
56.59815740585327,-24.308677246465393,40.09151610723825,-79.47062331408904,-0.13972480033735168,-0.45236984710100403,-0.33010397072791425,0.2723026349478762,0.4598586869908416,0.0024142030433249406,nm,0.0
56.6207389831543,-30.43956795041163,42.57359256778818,-83.06202886602071,-0.4240865252051367,0.24077775272834015,-0.39706734463884613,0.14584083277154042,0.46106601016856225,0.07120728796394235,nm,0.0
56.629294633865356,-33.33870398042959,43.49147772894891,-84.42894809321217,-0.544336602230585,0.5299391698194422,-0.38760074965464036,0.1252978229971434,0.4337620345815812,0.13772322883430335,nm,0.0
56.63598847389221,-35.84215842444579,44.45789923049904,-85.37649831405446,-0.6716079800724932,0.7434150624127497,-0.4019258754347969,0.14944861163991358,0.36833585538450025,0.17246980423912858,nm,0.0
56.643963098526,-37.79356671973997,45.598078178736344,-85.92345922465316,-0.62126156860591,0.9102195645381438,-0.4059093738663651,0.19527821388345104,0.2844825387420769,0.16907757428487127,nm,0.0
56.66787266731262,-40.192946433370814,47.76604614426037,-86.08503811837502,-0.823651066259693,1.0835978844742307,-0.6567100282201368,0.17925144401629428,0.1254734009902395,0.12239760418308973,nm,0.0
56.672603368759155,-40.55643394557473,48.41022338504377,-85.89887474761021,-0.7853595692601588,1.04117267862987,-0.7436835042676841,0.11391425187077908,0.04924131429973675,0.06499928036109238,nm,0.0
56.69639778137207,-39.93520204900583,48.08792489681968,-85.14959231208266,-0.7828813988056001,0.8029095959225208,-0.8333565404664237,-0.0950226742816295,-0.09331707055059582,-0.02669199578243828,nm,0.0
56.70156002044678,-38.85530631630792,47.14858262828772,-84.40610805581527,-0.7407990908402555,0.6572186546516794,-0.809863159268031,-0.18500807557423066,-0.17107072114323743,-0.05251305702145725,nm,0.0
56.710076093673706,-37.29207188684018,45.878577030948804,-83.37954846833675,-0.6914783368087641,0.5333247986451033,-0.7145887707938616,-0.240748331897515,-0.25014719049788525,-0.06025173009977129,nm,0.0
56.737101793289185,-32.88823119467595,42.81695281560832,-80.30496941266411,-0.4526212957642507,0.33775662983466725,-0.4415861292530732,-0.2716853687901027,-0.39546076504818284,-0.03503300869945116,nm,0.0
56.74019932746887,-30.379772075588964,41.12639048687754,-78.47807780437074,-0.31111989049745936,0.26972141534975314,-0.3738460584686092,-0.2739305980626758,-0.4386752286680234,-0.017452079213466212,nm,0.0
56.74909424781799,-27.853795741718876,39.26808253115539,-76.64916828441045,-0.13724641811231772,0.1787230384626526,-0.3229024106354111,-0.289818742754784,-0.4669094985147097,-0.010533968715808072,nm,0.0
56.764957904815674,-25.495745465329396,37.18919069732946,-74.94580043236613,0.11496773136299217,-0.030518858350535367,-0.2905591752614089,-0.321735000455409,-0.4716024171426887,-0.013565371601640373,nm,0.0
56.78372597694397,-21.860416016468477,32.39994551246946,-72.42825047199211,0.8428923849230273,-0.724680275071698,0.040969931561884464,-0.40808638178614737,-0.41276619219542054,-0.02710021294635501,nm,0.0
56.786094427108765,-20.69060264913381,29.802541008736235,-71.71278969628634,1.2140554577857177,-1.1302175317879724,0.4128990181694973,-0.4423620068381654,-0.3613315110861256,-0.02024529783023947,nm,0.0
56.81102681159973,-19.285585133109592,25.311326008782537,-70.84427691252816,1.5173395130945604,-1.2293827042050198,1.319960989423908,-0.36121870168483805,-0.24009093050208724,-0.00011901762913509656,nm,0.0
56.81555676460266,-18.841536828771943,23.90765258926842,-70.54065658813111,1.3288122422827573,-0.8904583758627742,1.5902217782103627,-0.2480030643453055,-0.1794185389981869,0.009168501172122919,nm,0.0
56.83919954299927,-18.671101631911732,24.05212904668334,-70.25512578298724,0.803454000191025,-0.22216482025640966,1.7265057468366292,0.10455208803369245,0.04984904322659209,0.02043494343491761,nm,0.0
56.84449863433838,-19.174900096760354,25.729603968615567,-70.40300656941044,0.6341636467566261,-0.14017758314758016,1.5908679311320524,0.27605713094429307,0.18904322176065844,0.02328325690984153,nm,0.0
56.85340642929077,-20.157357192379585,28.179191605395584,-70.78112203347702,0.6083297544495317,-0.25463814401586665,1.280109308672727,0.3949448205054237,0.31819510489284386,0.027155711024073416,nm,0.0
56.87750029563904,-23.60314072382077,34.12070627940504,-72.47948116910437,0.4505619945363527,-0.5600226444592379,0.26794216633918283,0.46462914158980345,0.4874656261869256,0.027954952948710362,nm,0.0
56.8864905834198,-25.868687305630978,36.9062886681756,-73.70212863617331,0.3184729088768493,-0.6334428673164617,-0.19381869905056637,0.4164860865180529,0.5057519174882762,0.034402681647892584,nm,0.0
56.89082455635071,-28.338781495601566,39.29700372491264,-75.07380707934627,0.11442627352890354,-0.5283956747849783,-0.5779364772304407,0.346416926474703,0.49402419778414863,0.04850251914350432,nm,0.0
56.91842770576477,-33.256140873901934,42.81312202215322,-77.64010843867011,-0.31682800364031594,-0.04521932480213754,-0.771791915574848,0.2151156547700947,0.4127684747945792,0.1018418858197313,nm,0.0
56.920079469680786,-35.517433890113956,44.15898902159275,-78.55846533923358,-0.5117961239351607,0.2668147458683955,-0.6321333270487156,0.1855494957893786,0.3676392515914974,0.1311768897963242,nm,0.0
56.9351224899292,-37.57262839634332,45.41002487095038,-79.2376219588507,-0.668497510252093,0.5958639196585637,-0.46129285388421504,0.17909207780041,0.32543713687816905,0.15070948052496902,nm,0.0
56.95276761054993,-41.36114924467849,47.90350704410167,-80.3941144474767,-0.8648863893798804,1.0294449178350462,-0.24649133528603778,0.1932748353324232,0.283157758484016,0.14211432349513248,nm,0.0
56.95828056335449,-43.184316774671764,49.08888696818384,-81.1877975125927,-0.8954639522871519,1.0831283346316507,-0.2933287593477092,0.1852445926875087,0.267128131130673,0.11158565177746317,nm,0.0
56.98586821556091,-46.24147932724471,50.669487491580995,-82.86751897384917,-0.8885419021056031,0.8975008170712523,-0.6527303039789235,0.08879105259911321,0.1793826518384469,0.0483505158946775,nm,0.0
56.987897634506226,-47.12100141518651,50.85423632503811,-83.35568229116174,-0.8625178314844247,0.7523125861180341,-0.8483214435932561,0.013030714887291404,0.10529260602064416,0.03600438596393181,nm,0.0
56.995800733566284,-47.280563890244125,50.58615299396878,-83.32405554293084,-0.830526081426767,0.6338851279662021,-0.9557286448211393,-0.06599763317375196,0.004094468992305592,0.028463968580663745,nm,0.0
57.01904630661011,-45.05108682864676,48.784135628165544,-81.25494821097618,-0.5993402641991339,0.5301291076417677,-0.7769324286280017,-0.19889596937795764,-0.23597357645209072,0.007774229982022863,nm,0.0
57.041234731674194,-40.38271421023267,45.78432750655678,-77.73549822158868,-0.3817536237900337,0.5653104055894813,-0.27584150778815086,-0.25699244261944165,-0.4154802125409022,-0.05607632351946737,nm,0.0
57.04387831687927,-37.70690272644424,44.02580721044415,-76.09290113295106,-0.31207091856206187,0.5257753183942958,-0.08937368950743771,-0.26613812826368083,-0.4598594390627972,-0.09435263476009394,nm,0.0
57.05336093902588,-35.0449247409436,42.18307126677045,-74.69146110043184,-0.264266035320315,0.41413638027885663,-0.030264103126265936,-0.2678946838964229,-0.4801485106402433,-0.1284989368499683,nm,0.0
57.06633687019348,-32.48648159807405,40.28036079580914,-73.50792778476836,-0.21369504192111086,0.20058094612436478,-0.09019319050180769,-0.26980901209555075,-0.4854044316688654,-0.14496681650734547,nm,0.0
57.08681321144104,-27.760546317971432,36.21964962635597,-71.42649758139788,0.05735255594778592,-0.33144771065592415,-0.3640827949766521,-0.29365669678602496,-0.4892294036936965,-0.10693207158475464,nm,0.0
57.091901540756226,-25.569919741297518,33.906791093575386,-70.28486026364935,0.29478655092109485,-0.5589060046379565,-0.4717737545464863,-0.3285548366567721,-0.5016765931825484,-0.06030557513467349,nm,0.0
57.11868238449097,-21.751866223600206,28.42678645632587,-67.93132669445697,1.081703328666618,-0.9595339162770755,-0.02992504886368253,-0.4311827628511104,-0.5091729171315398,0.023045428196175395,nm,0.0
57.15052127838135,-19.62864059625406,22.51316895335932,-66.5342700119489,1.640794008023872,-1.105729009815673,1.0491436274582353,-0.48554005947605516,-0.37891119279609364,0.02693461779353951,nm,0.0
57.15210819244385,-18.902178283440485,19.858876702278824,-66.29953370987421,1.3270988694100214,-0.6742553686906883,1.15471602168046,-0.4413973479903536,-0.34809000039528004,-0.015859472153875186,nm,0.0
57.153730154037476,-18.185786714712115,17.73182101242375,-66.2556784153966,1.3017058390556935,-0.3418252808239782,1.7145779137723338,-0.34363988879426627,-0.3070600110295435,-0.061164432707962374,nm,0.0
57.16813015937805,-17.894127462559844,16.85354113215245,-66.52667733567203,0.8808319095286853,-0.14315219544553626,1.7992002279290855,-0.1473767931426382,-0.1326901123267827,-0.08979529373320476,nm,0.0
57.17168188095093,-17.72300315337097,17.536419200458194,-66.95476497362327,0.26398377795193945,0.20659729471559626,1.5239436622212836,0.12981303404073413,0.012964046926834744,-0.09935119919948222,nm,0.0
57.19482135772705,-18.087880172154367,22.31421543329185,-67.51077704438978,0.273095328680786,-0.11961894939579856,1.5865762615179453,0.5026142438838466,0.3008076157961919,-0.011549098982310435,nm,0.0
57.21054124832153,-20.60265529852667,30.170042305371346,-69.00819795454882,0.3725780749377252,-0.4945783991681407,0.5297247975524937,0.6280366339248106,0.5306307783545446,-0.0039279370642535056,nm,0.0
57.235498666763306,-29.507431749780846,38.884757302523475,-75.0195723945517,-0.07134680498249557,-0.28097563837283435,-0.9717000836189288,0.2558405799388667,0.6405887962803938,-0.03312864554589124,nm,0.0
57.2452507019043,-32.95653205512259,40.07417078193011,-77.32870786704206,-0.3420360295214798,-0.03877767675066281,-1.0776656943890166,0.09425096386701891,0.5648811797700544,0.007321148938084885,nm,0.0
57.268269538879395,-38.32218440305792,41.171874193886076,-80.50935536940761,-0.52679338278845,0.7225039995855768,-0.6937221635657878,0.014563974750764947,0.37014272688286504,0.05685604265635628,nm,0.0
57.27165746688843,-40.17763104319638,41.7070119749683,-81.46294315852944,-0.8118871331851228,0.9680011086661247,-0.6702922364103291,0.05181625685512641,0.28227858681605067,0.07046613163954016,nm,0.0
57.29589056968689,-41.54441856245515,43.30635327177532,-82.38838604037848,-0.7997774764662564,1.0877696346841381,-0.7331138827464558,0.14814762280587512,0.067184324668763,-0.024773960158798236,nm,0.0
57.30303764343262,-41.16842223337779,43.92716029051392,-82.49354224253203,-0.8528349478489351,0.9742269914234508,-0.8438953010812855,0.11971803542875346,-0.046970801550765384,-0.08943923904677807,nm,0.0
57.30983281135559,-40.055850885945524,44.07584395197961,-82.36191326633045,-0.7159054086286598,0.7552042515268024,-0.8713226833360804,0.04001434648114493,-0.16410925910807958,-0.15614611866436107,nm,0.0
57.33742380142212,-36.303462563083485,42.51062615809989,-81.44669762607909,-0.7172868373017549,0.40176309087517637,-0.73743239756787,-0.18158311448076506,-0.3520364636951367,-0.21280539886339242,nm,0.0
57.339072704315186,-33.80461791664919,40.95932196638082,-80.58403883626927,-0.6533454087356747,0.2281199620910375,-0.5167085040764093,-0.258636314023036,-0.42665508994647006,-0.2054948587937159,nm,0.0
57.35135245323181,-31.096236089501243,39.14379840576453,-79.38061792885009,-0.6459124697160906,0.13026447904216332,-0.3035386455642384,-0.2954055415500325,-0.48161872213159757,-0.1695432661824575,nm,0.0
57.357726097106934,-28.268074937669972,37.208565689083215,-77.88876991509747,-0.5617594293595906,0.06211703874925476,-0.11441648045977404,-0.3015846744915301,-0.5224393800017795,-0.11229458987450215,nm,0.0
57.377782106399536,-23.168897137166823,33.25085999322725,-74.30553201034928,-0.393117282268697,-0.03028341418687886,-0.023109648939329135,-0.2913074090034917,-0.4967914516960573,0.048457533507520474,nm,0.0
57.39014792442322,-21.149046631625872,31.24853168859233,-72.47166236047876,-0.12085286833382661,-0.1400440555692519,0.012287342685174613,-0.29557467364896595,-0.45240421219594096,0.10375642104772217,nm,0.0
57.39563345909119,-19.6775352960861,29.20240339979034,-70.87828163419638,0.1984581880694377,-0.3073987237064417,0.07942922170090339,-0.31810872761798087,-0.3806533443637092,0.13534178475422634,nm,0.0
57.405120611190796,-18.796492828270345,27.13691244915774,-69.69863595443412,0.5896926555709484,-0.5128318951541501,0.30058958350558385,-0.346256401095717,-0.29606032206144706,0.1379408804146129,nm,0.0
57.42834448814392,-18.422082157068687,23.249576035803184,-68.46407160172545,1.1885064069938447,-0.7623577332718136,0.9100084994264835,-0.3549144707979903,-0.14743205593960623,0.08683668740200111,nm,0.0
57.455456256866455,-19.20266639880138,21.02474752811566,-68.39950306684824,1.342054793392103,-0.5172113910421072,1.3364881784946219,-0.189075792522713,0.02532080775625208,0.03579961942405769,nm,0.0
57.45703887939453,-19.941931270334408,21.11793038812159,-68.63883745870858,1.0467702947947262,-0.33655543612173405,1.2550779070952176,-0.04219695039884636,0.12474692167026624,0.02623664001467141,nm,0.0
57.464625120162964,-20.50245111477797,22.10620546142903,-68.84802928298721,0.9703847688511208,-0.21543528401203538,1.2902778347527817,0.1374933017862971,0.15832152890035414,0.005389008387505352,nm,0.0
57.47998380661011,-21.134091284794206,23.96375570119244,-69.10752164313212,0.9261703612668062,-0.20865207739602584,1.1816747134612706,0.29619321132906745,0.2315657448488501,-0.006022220927880501,nm,0.0
57.496861696243286,-22.765528376902047,29.359938298908435,-70.40505341210843,0.8691282288517604,-0.3861019307892124,0.7424126429661628,0.4744232413174898,0.3259316680577492,-0.05430352239893188,nm,0.0
