timestamp,roll,pitch,yaw,acc_x,acc_y,acc_z,gyro_x,gyro_y,gyro_z,markers,motor_input
29.001766204833984,2.626645612436733,-13.927598947510788,70.44151538025507,0.4173146674700142,-1.276691260174112,1.2744770080444499,0.028626905713169944,0.6289329116040473,0.4327055261535216,nm,0.0
29.003334760665894,6.089179861022814,-13.413024472039243,70.9894128997767,1.0807451560538117,-1.4382986338862627,1.2316453838339538,0.14029902408172354,0.6742089357149598,0.33967042472632086,nm,0.0
29.011374950408936,10.35401558836838,-13.518830915872343,70.79509488989967,1.5845564369056386,-1.532262213993285,2.073802505396009,0.30650597194258117,0.7820046200513382,0.21538019439286657,nm,0.0
29.019056797027588,14.850264691522206,-13.967081836236394,69.75870658634202,1.8634443164183954,-1.4575996727865088,2.1044789977554696,0.39380309687247467,0.7971256376609268,0.059084673095429176,nm,0.0
29.047101974487305,25.967059986252742,-17.004526990641597,64.59479043748365,1.4948433948060345,-1.045598825443142,0.3291710283796206,0.5081695568333103,0.4575403882572211,-0.19101373105936437,nm,0.0
29.071146488189697,30.137336967948073,-19.40500888963645,62.71467153048772,0.6721634553801922,-0.6229414635067081,-0.3876159395645505,0.35589424555029253,0.1961966601968437,-0.07515038881180082,nm,0.0
29.07874846458435,31.37077285004608,-20.517317541111126,62.40842798594859,0.3281544403111544,-0.2791035743579075,-0.5698039812121961,0.3154342270480045,0.11040287884174765,-0.056580087364054135,nm,0.0
29.100376844406128,32.841031525706335,-22.131265721657456,61.81839730566098,-0.04771205519583972,0.10730222608319807,-0.46868415886911885,0.17544749483856542,0.0419968921681579,-0.12359130477014943,nm,0.0
29.10579252243042,33.08777162528813,-22.611027808297774,61.13110729089292,-0.1450324413958303,0.3089046941722461,-0.6716857577814277,0.11740206901152662,0.0009376730759824242,-0.22331508309576314,nm,0.0
29.129997730255127,33.84072947828812,-23.445944694908253,58.97882019214215,-0.3292040366640287,0.3641532351741093,-0.3963315205370565,0.11705443164061662,0.03751525465374222,-0.2741688261447228,nm,0.0
29.135639667510986,33.67431866572924,-23.810104746305115,58.07598536488033,-0.47000045707253413,0.43879109164763214,-0.6601318851641749,0.05794100658512808,-0.05813831586814421,-0.2787173713360789,nm,0.0
29.14219570159912,33.284126744666885,-24.321217542110023,57.565780267674654,-0.5495552661995398,0.4519662676886192,-0.7162255129485996,0.06063566722739899,-0.10900463602088845,-0.2216509268842954,nm,0.0
29.16597580909729,31.715889520399333,-25.247581982901274,58.22623952296832,-0.8762664192472243,0.3718504751202014,-0.5804430916894993,-0.019866911733038648,-0.19601024153770347,-0.06301517252904994,nm,0.0
29.191231727600098,29.426121339911298,-25.6666413667277,60.02438149506971,-0.9600592424808291,0.4448618368857719,-0.3627208058708839,-0.0685095565512483,-0.1821975018662445,0.015160674010140957,nm,0.0
29.19291377067566,28.23068816787751,-25.549063099371107,60.90598860391206,-0.8957988066820883,0.5595322433587194,-0.3547249125151434,-0.11448492373702122,-0.17068273154214297,0.008946802783804294,nm,0.0
29.216681480407715,26.058567663752374,-25.06200559256517,62.429916564257624,-0.662047128567932,0.7257811142443793,-0.2345134685600859,-0.1210847534868757,-0.14042071003728215,-0.005236208544160844,nm,0.0
29.239924907684326,23.615224983557628,-24.67631113718029,64.37396813471405,-0.434169376290686,0.6076229415651621,-0.28821652708812734,-0.11720719998570685,-0.18830712033408745,0.032780143039833606,nm,0.0
29.24159574508667,22.23686402430015,-24.580024740865127,65.56362832904796,-0.3689659920594098,0.43962883397058167,-0.2573734045232144,-0.1110481970443128,-0.21342757446144497,0.07361380546144838,nm,0.0
29.249964237213135,20.732056266530634,-24.43183768836799,67.04709506269838,-0.3306344147911588,0.2779178839801314,-0.2795018585260014,-0.12457921418472857,-0.23338209102658386,0.10873860055652754,nm,0.0
29.271111488342285,17.609696018240992,-23.801915356918126,69.99125019451704,-0.27508009672624,-0.02313851386810692,-0.3819087504819184,-0.1570781682226458,-0.2346883848076147,0.11273941960550539,nm,0.0
29.277709245681763,16.144277839255476,-23.32312816442853,71.20689490937063,-0.19999248902263814,-0.12029689688901678,-0.39730961400876247,-0.16721142316489052,-0.2157501130213262,0.08481571628645233,nm,0.0
29.30242419242859,13.604709254971402,-21.918358146149483,72.78200672284422,0.03615681038874835,-0.2881636934387396,-0.3066627479103371,-0.20192456249528967,-0.16028465038350806,0.03222153748509534,nm,0.0
29.33372187614441,12.134262943917992,-20.255321991279214,73.76004139779795,0.3119031403483828,-0.3686183690428934,-0.06668615496143505,-0.17189508580827975,-0.0275389089217621,0.07145808112651357,nm,0.0
29.33735680580139,11.606979352772749,-18.81252339030614,74.70526931029525,0.7617327964179718,-0.5049252944343678,0.04707316148611381,-0.1287301750700563,-0.009891813601816452,0.06860322041539609,nm,0.0
29.357914924621582,13.356815301524348,-18.055062963852098,75.056315172009,1.0345147344724785,-0.7874622545336154,1.1665913027017327,0.0038303711778736177,0.22443952072592158,0.06941750335508003,nm,0.0
29.36059594154358,14.69472880579418,-17.740807066401413,74.60488973840613,1.2685843720165324,-0.5285456237828758,0.7259745890291119,0.017980660740604015,0.2690125161313451,0.00033318846488207136,nm,0.0
29.386348962783813,18.643509893387282,-18.039436412382067,72.08407203547861,1.2632442876030514,-0.592193821118586,0.9370262434882561,0.19647863235602137,0.3418250012167603,-0.18482548258966383,nm,0.0
29.389143466949463,20.346952695399622,-18.688612917705882,70.17463129433706,1.2565134224142844,-0.5672755074426198,0.6373812230127633,0.2394598547690284,0.2704048238577488,-0.2740338278620797,nm,0.0
29.409040212631226,23.169449305705072,-20.25156050340297,66.5038567145608,0.611188930055364,-0.7645203576977231,0.14746095951660118,0.2605512992780834,0.15100613449611358,-0.2908594483100008,nm,0.0
29.424227952957153,24.003181270189565,-21.148612158338057,65.09807493125447,0.396715111946845,-0.6814431239082016,0.01168414308482693,0.23961470324315534,0.07489324289661267,-0.25953074087415523,nm,0.0
29.447245836257935,24.680371974188787,-22.21401631242223,63.50099464281531,-0.19317665215023985,-0.48372402607954307,-0.11103678453499387,0.10620483473036688,-0.012265736284790786,-0.14589316995995807,nm,0.0
29.44886803627014,24.163794503707635,-22.60993200149348,63.10050357510789,-0.13155394898795003,0.003479280918156158,-0.6145650806338452,0.0401404325336035,-0.11549487781880631,-0.1608553645876771,nm,0.0
29.457770109176636,24.04815010357502,-22.832950894934367,62.85968521109501,-0.35674312667802466,0.16720576196986717,-0.3098885081444389,0.04225220541142223,-0.033822191078319824,-0.08278759013065172,nm,0.0
29.483181953430176,22.860712559110816,-23.187843501275093,62.60413714964467,-0.5679820651427653,0.6739310064586025,-0.46999185566015017,-0.022514359687694097,-0.15846723159673468,-0.11430412770498558,nm,0.0
29.485416650772095,22.354815236476256,-23.436045519608857,62.71611879102267,-0.7328262540895671,0.7159214209380963,-0.16965442067978564,0.013908893653422601,-0.10017974897630562,-0.047824605600303195,nm,0.0
29.509158849716187,20.765651830651695,-23.73525701277271,63.38323066914685,-0.9234795636633563,0.9349320602774607,-0.4821795939492294,-0.041358994281649596,-0.16280127529088134,0.008062463735680385,nm,0.0
29.513057470321655,20.103149807791727,-23.818460148117218,63.99969210830448,-1.0161661393933323,0.8832986400630585,-0.29401994188641534,-0.026429948256828695,-0.11086396955681391,0.07975847830184003,nm,0.0
29.537595510482788,18.656607697178973,-23.470604295050055,65.8220201088639,-1.0111360346088332,0.8344599204616471,-0.27468972770495925,-0.09299100847336896,-0.10680547653222221,0.12813413705606097,nm,0.0
29.542859315872192,17.88656111635684,-23.087223695781514,66.83163188171231,-0.9136539657027011,0.8354927109240757,-0.09887066716051687,-0.11472009177552395,-0.09327812172522267,0.136497657362578,nm,0.0
29.570400714874268,15.96098135212175,-22.05810099459469,68.6561293765357,-0.5869024217780062,0.7550999656525712,-0.2367033185483892,-0.1459326522981457,-0.1308469291394627,0.07849911309777656,nm,0.0
29.573338747024536,15.035558773458561,-21.668725657444377,69.34411734481924,-0.4520085907139987,0.6381062776832611,-0.10458169076814186,-0.12187925842658284,-0.12693787826604297,0.05282879955933965,nm,0.0
29.593639850616455,12.895735634599141,-20.809806334864778,70.21470518241324,-0.20916237829774825,0.31606836801525634,-0.2714808904576659,-0.13793926069433152,-0.15998806002880767,-0.0030653846542193623,nm,0.0
29.600281953811646,11.815810057352024,-20.41881170101305,70.61249809091126,-0.11924704292648806,0.15147741896034647,-0.2774950556524191,-0.12884088584779202,-0.15894850344272668,-0.017752692559259688,nm,0.0
29.62424111366272,9.95078084289015,-19.397272126396263,71.02885013936684,0.16480852610130542,-0.15275259854764764,-0.36950236805378384,-0.14107115274664786,-0.1060819073617783,-0.03292777974709109,nm,0.0
29.6271915435791,9.805049852701828,-18.880006109379725,71.07969322283068,0.3243175647473087,-0.314374972351772,-0.27285614836536615,-0.0941618682492644,0.012890454906055941,-0.015960014345074176,nm,0.0
29.652665376663208,11.122847294179527,-18.084165451037833,70.3218962255112,1.0281691499917125,-0.9595353136399382,0.3873657592871743,0.0013289217817139885,0.1773060063557273,-0.04523205202196236,nm,0.0
29.657898426055908,13.292917971843913,-17.92605795875483,69.59643466028491,1.3097405568755622,-1.3003278205839426,0.9967345839722904,0.12480565974531463,0.4042764089703027,0.007495559716430732,nm,0.0
29.68623685836792,18.524242715747267,-17.782213292773214,67.97876093897108,1.7659760299209455,-1.2923036923481777,0.6491644050628547,0.1792752330168364,0.45228187799995573,0.0313552848027025,nm,0.0
29.692161798477173,21.090077318343972,-17.883457455666502,67.54329951389387,1.868942003249622,-1.2732862000183025,0.7361955876710157,0.21597724511121058,0.4505504224434507,0.07871178115176951,nm,0.0
29.714667797088623,25.03920092599254,-18.7204185623874,67.47186606103074,1.579389288821724,-0.7781361526256461,0.33532726215667863,0.23002936024426626,0.266436356904519,0.1058610281501919,nm,0.0
29.71620202064514,26.43006107023484,-19.370465597229,67.70353023509713,1.1651550910877857,-0.5918380430837834,0.30016042525902675,0.23152240737537086,0.20053706447256156,0.08925989426852743,nm,0.0
29.738627672195435,27.65454615891934,-20.884004463583516,67.22609419280865,0.43256837547164173,-0.181803254227423,0.0004833795010429646,0.17873905736021764,0.014066318741563081,-0.10246233695905883,nm,0.0
29.740474224090576,27.85548578476939,-21.594546479656604,66.31169054495462,0.05224298233110411,-0.08181765341482476,-0.004604697861467597,0.1567995707395037,-0.015009556904963332,-0.1982776964705952,nm,0.0
29.764675855636597,27.206416248765226,-22.871963303737413,63.80553223198985,-0.3173433358564754,0.3737785889776515,-0.7342344090294584,0.09579185247852537,-0.1011278856999819,-0.3516576694406532,nm,0.0
29.78735613822937,26.719576968383656,-23.77535382802142,61.33790727116767,-0.8530515262241275,0.4389899317274817,-0.37132889550603954,0.028985497804063738,-0.1257977357195455,-0.31933740349113915,nm,0.0
29.78934383392334,25.885026950710348,-24.072383733916613,60.56364473791953,-0.8972487564227246,0.6113846963770033,-0.5032087301029131,-0.009682953251300745,-0.15714137554882437,-0.2696454490039068,nm,0.0
29.811965703964233,23.616042039682725,-24.474995613855867,60.18091665713282,-1.190368363754074,0.7865493386642582,-0.31367257538639576,-0.08446532856737854,-0.23804206266601988,-0.15475937992721223,nm,0.0
29.817395448684692,21.85928341307133,-24.679179995918577,60.303553470368215,-1.1979719570822778,0.83924935129604,-0.2949742824299848,-0.11050016798658135,-0.29325107253503846,-0.1337950328137317,nm,0.0
29.82614231109619,19.97992210707696,-24.874760122016095,60.574110771957876,-1.2905127118021096,0.7541813876310632,-0.04930536009302278,-0.12145357059559689,-0.3119742596106746,-0.12142912926428616,nm,0.0
29.849640369415283,15.503475076871768,-24.941168561556648,61.04875959630175,-1.175660401175795,0.7918619849045584,-0.03093811034873137,-0.19300342229684758,-0.3567499224405421,-0.15975004533938927,nm,0.0
29.874047994613647,10.685185422724732,-24.63326285284334,61.41619232393802,-0.9172458081046767,0.7493738597172671,0.06794072999363382,-0.23914260142856023,-0.3718570550328114,-0.13154515484898066,nm,0.0
29.875993967056274,8.276902239863867,-24.34747095753609,62.0331344232508,-0.7981307565032412,0.7106235779291663,-0.1087378526853056,-0.24496263069544816,-0.3556216352893715,-0.053199267733696466,nm,0.0
29.894392728805542,3.4720216662853067,-23.65387917283132,64.26992405349975,-0.6215941688992875,0.6425930509233093,-0.3938092537555371,-0.2564115549514909,-0.3636379056819075,0.09879268331246138,nm,0.0
29.91021490097046,1.0272310322551803,-23.08262343428671,65.60738543293407,-0.5639773640211655,0.4363967591879334,-0.38605322702169315,-0.280954256072732,-0.35443429599727555,0.1301630454993454,nm,0.0
29.91330575942993,-1.2233224013806225,-22.384843580723647,66.92041405297009,-0.4202723507082176,0.3072798310395763,-0.5835710170014179,-0.2817820994246425,-0.32025205092604014,0.12466033693773607,nm,0.0
29.937501192092896,-4.099163412105686,-20.54822065305389,68.48928641302166,0.19683244512275927,-0.16088375127409288,-1.0755594844301393,-0.24030250246336968,-0.10399270935887467,0.10637845083265358,nm,0.0
29.941370487213135,-3.831514214800268,-19.49680955768499,68.90777638758546,0.21418043475016815,-0.5826829702686218,-0.47040834201540155,-0.16355486836645616,0.12762831122959717,0.17521561503432367,nm,0.0
29.965637683868408,-0.8089719881314716,-16.80512913912679,69.65889240971045,1.026497993383642,-1.4691228479939693,0.5337903240929192,-0.11938191322638281,0.45536600733245136,0.2844697053948247,nm,0.0
29.97305941581726,2.539715577938252,-15.564651704237011,69.99688791734948,1.0499340051944237,-1.5303282451359377,1.1044984211652387,0.005503442480893554,0.6944605381710264,0.3555175967396526,nm,0.0
29.979037523269653,6.057178110511182,-14.718727589083494,70.01009079493612,1.3319199653638818,-1.4586334310719709,1.4667203134979456,0.089738907734437,0.7009912725625398,0.2905462708772756,nm,0.0
