timestamp,roll,pitch,yaw,acc_x,acc_y,acc_z,gyro_x,gyro_y,gyro_z,markers,motor_input
95.51025485992432,-33.78364017552069,-6.8128426161681,160.0709001777926,-0.31221396637088256,0.4134897822893961,-0.30281707453769136,0.10933264965179698,0.1626024389025338,0.007828427878906965,nm,0.0
95.52191042900085,-33.93933692352088,-7.522340830031071,160.4673467472778,-0.3441785282373295,0.4421839698263858,-0.30237382427441595,0.07410556026690633,0.1374125278096454,0.0038950088661526576,nm,0.0
95.53389120101929,-33.9858979146704,-8.016963953375202,160.84216422073837,-0.3770173368371003,0.47750054853623,-0.3025063548694591,0.03858684597324387,0.10437739686099476,0.00030814019143016473,nm,0.0
95.53952121734619,-33.93453475453195,-8.261116687211379,161.1983169478458,-0.4068417427362222,0.48383849912359156,-0.30300382669763865,0.003393285303094692,0.0633926290841171,-0.0026880950394594086,nm,0.0
95.54949617385864,-33.811002930431286,-8.255750770511733,161.5889333704509,-0.4291856407244269,0.5149758815452714,-0.305632940842429,0.0,0.0,0.0,nm,0.0
95.55835437774658,-33.555317116155756,-8.000920835456343,162.0161185544533,-0.4594439197726099,0.5113765887119252,-0.3029714917438739,-0.06687652017970647,-0.019101073628811614,0.001002184028934234,nm,0.0
95.5673201084137,-33.18598600106389,-7.510039912224957,162.46591674100094,-0.48142823960263514,0.49419871427368445,-0.30791488443794374,-0.1025270529616484,-0.05787281420754678,0.0053525883599096725,nm,0.0
95.58302664756775,-32.722694069086636,-6.809923081292779,162.90873538009285,-0.49121252242568875,0.48421720517437644,-0.3206480836864546,-0.13238466584762604,-0.09314352274789492,0.012305525755017156,nm,0.0
95.60073900222778,-31.816145562110076,-5.562592296037357,163.99023193508842,-0.41675230008791375,0.37545780833849185,-0.3492115410534505,-0.19605215221210223,-0.15829255852181248,0.03347320004010605,nm,0.0
95.60617637634277,-31.032345205682244,-4.30832363606147,164.64606915519036,-0.31827093030282333,0.29397906938780877,-0.30307756344567693,-0.2213284487237184,-0.18666869413343565,0.04879964816711678,nm,0.0
95.61551713943481,-30.19043447827153,-2.8901851652452812,165.34164597781225,-0.1889617421427107,0.16616171168739893,-0.2809283049004581,-0.23910198580174694,-0.21785026690728596,0.06138763353136287,nm,0.0
95.62512230873108,-29.286744454666504,-1.2912435003207818,166.08369381505094,-0.0037926513520094617,0.005396636110399604,-0.22090439174162144,-0.2574158785943962,-0.2528500240947834,0.06745067927081627,nm,0.0
95.64870810508728,-27.595232389421,2.2644430151100714,167.61706718125023,0.3680884252468646,-0.4284420544083518,0.16972306204997897,-0.2399104026872066,-0.3057711152882356,0.06294683509658941,nm,0.0
95.65481400489807,-26.88511026232006,4.038116692754013,168.34175664081255,0.5764437919571327,-0.6878396084707122,0.4682242849093471,-0.21653444895399324,-0.3048761404402316,0.059617394368819014,nm,0.0
95.67732620239258,-25.928298888984052,6.850064320860464,169.716491792669,0.9708575576120104,-1.001917140898076,0.8761126939965723,-0.1278117155621659,-0.21490696256141797,0.061741163163809024,nm,0.0
95.68610858917236,-25.663191280096516,7.638982512497815,170.00689761372934,1.0611641178249898,-1.1497931189717407,1.1392067688963472,-0.08477367104963617,-0.13273691203922386,0.05083836252927584,nm,0.0
95.6951835155487,-25.524905195275473,7.886443410115158,170.33699660483083,1.1076947229786642,-0.9975552271103579,0.9066727515045157,-0.04060862087260024,-0.030739844336338543,0.018711235632408903,nm,0.0
95.71466779708862,-25.781103710297145,5.998706261454309,169.75949205414997,0.9496227384473526,-0.736446703201158,0.8010157946064853,0.09516646017919243,0.2800922605415682,-0.08078327313831783,nm,0.0
95.7213785648346,-26.135632057825724,3.9399409336520472,169.0056013434593,0.7683247792318831,-0.5631062891353416,0.7475288826360305,0.14054681346372153,0.4057367661010005,-0.14481099964697589,nm,0.0
95.73013877868652,-26.691763363159296,1.507503952184586,168.02455499346226,0.6434816260098221,-0.42132028333667626,0.6963387951009842,0.20130364995272113,0.4688222388513442,-0.19069754990698953,nm,0.0
95.75229096412659,-28.600152242514064,-3.830741621200761,166.51190126630252,0.2597327076569309,0.024313696655083063,0.37901102095819295,0.32220192336890224,0.4852487622670725,-0.12603539752040163,nm,0.0
95.75756645202637,-30.00780435374706,-6.2198440248279105,166.3804535478104,0.1066417426953375,0.10971287033303957,0.22054517948340557,0.3809750195648188,0.412927878920055,-0.04891693763073421,nm,0.0
95.78462886810303,-33.699015415796424,-10.076877720852574,167.75135752694024,-0.09899186626737962,0.13661213240098258,-0.24191085640705653,0.44884985122386856,0.28137474148921715,0.08858225035976174,nm,0.0
95.78800702095032,-35.743645744869035,-11.667137524159436,168.75143593273972,-0.19015437685181133,0.1425728864684114,-0.46823510726373957,0.4538512886558176,0.2438660137516181,0.08851605417128688,nm,0.0
95.80025219917297,-37.666772594137555,-13.173303176685415,169.5469806577416,-0.2714753447505981,0.18548252542064514,-0.6688895080911474,0.4215087220471302,0.23911175720534303,0.04403068241983722,nm,0.0
95.81952357292175,-40.59866164974304,-16.50238000684125,170.20395266189757,-0.5724424977359834,0.3334176570026589,-0.72399460625791,0.2990359584449805,0.3111020830039077,-0.06907384039415117,nm,0.0
95.82915377616882,-41.438216327075374,-18.245637703668816,170.15208636116063,-0.7377262079044745,0.49387562623281533,-0.7343061339505413,0.21332600937328372,0.3296208654588865,-0.09515327392312778,nm,0.0
95.83894920349121,-41.94866711982341,-19.852803980262024,170.02547828795196,-0.8233784132566684,0.5522282359776687,-0.5594609797678818,0.14655502713174667,0.31322323794490403,-0.08906290312728281,nm,0.0
95.84558176994324,-42.155245511065445,-21.0948897708974,169.93819797924363,-0.8958663838290157,0.698883562216644,-0.475205909882536,0.07774076352815468,0.25085530107309323,-0.05622348846389772,nm,0.0
95.85448050498962,-42.06902459340117,-21.78146654881382,170.04756178310893,-0.8815720697554953,0.7260173755094165,-0.42218441754049374,0.004465532719107223,0.15075097532219703,-0.010749949710137341,nm,0.0
95.8620343208313,-41.80901537965105,-21.888353022948888,170.3651680841449,-0.8425914732880362,0.7317317112917248,-0.382810924962748,-0.04745914742169706,0.04175394063165933,0.03089694827804407,nm,0.0
95.88620805740356,-40.730617769852756,-20.56757753226415,171.05968056994857,-0.7009742190893551,0.5423276368177469,-0.3142155789771507,-0.14766581275625268,-0.1445340092175031,0.04731227166739112,nm,0.0
95.9115035533905,-38.994056732242036,-17.974641341804922,171.17969755091073,-0.5385399430171242,0.3846674399333958,-0.2786327758121303,-0.22448693505145417,-0.23739830386374866,-0.016347669482448764,nm,0.0
95.91462326049805,-37.9050823268174,-16.35663192950554,171.04670030181722,-0.46430554676084496,0.3109810130734924,-0.26793815947298,-0.2590648153512249,-0.27605845353850406,-0.04807924919092303,nm,0.0
95.92002201080322,-36.7653158337034,-14.486864089909284,170.8726112241898,-0.35743215450618937,0.23838952397982005,-0.2728727074135884,-0.279256926654185,-0.32330038831835006,-0.060714085028921796,nm,0.0
95.92877745628357,-35.64886741794905,-12.356485967464828,170.84494482216462,-0.1833961396206552,0.10822389339246921,-0.24505221033726546,-0.28556852471226424,-0.37470249113983545,-0.04294163765317503,nm,0.0
95.93921089172363,-34.57732420015138,-9.95876380285915,171.06349340726217,0.04814870572824217,-0.0889505545196608,-0.15953506931161218,-0.28648753786689607,-0.42908596536301796,-0.005734170429537053,nm,0.0
95.96209120750427,-32.58845763839452,-4.597646783253474,172.14142870878783,0.7474197936104565,-0.6378374018670575,0.14726950167358174,-0.2705715998393717,-0.5007578669367554,0.05477004491464234,nm,0.0
95.96864461898804,-31.69998566922947,-2.0319314585979806,172.8405054768264,1.1329006632177105,-0.9692417571986057,0.5118027076146245,-0.24711315897757075,-0.4739487883547036,0.06361150569037292,nm,0.0
95.97663593292236,-30.851698812870097,0.144577585554863,173.46736644570785,1.4784045989757322,-1.1009876300440808,0.7376656419432239,-0.22510898239394897,-0.40014430813323076,0.04986925375559922,nm,0.0
95.99120736122131,-29.952074537788853,1.7197141885278666,173.84282603474193,1.6581814523341665,-1.0307797398707508,0.7359217045680841,-0.21915576730094743,-0.28107078755210047,0.011238371729494602,nm,0.0
96.01127076148987,-28.56776571032396,2.653251301874115,173.19157254089578,1.168954336183237,-0.7705090814648273,0.9877154943577336,-0.11684224187117734,0.00994553238414745,-0.1476163105281053,nm,0.0
96.0148241519928,-28.289342463746266,1.7614245432292077,172.1902996238283,0.7120614198408447,-0.5020530119778068,0.9263745810162338,-0.038225288961526036,0.19747329083604687,-0.20188572949398367,nm,0.0
96.02580738067627,-28.35451653448837,-0.06627894962139681,171.14091693701022,0.25361335195769613,-0.24370964849785973,0.8602311368275365,0.06054486048636219,0.3735782622402417,-0.2089221464153632,nm,0.0
96.03379034996033,-28.81167261231258,-2.5098977602566515,170.20151531632888,0.036742783298227166,0.01931472802906972,0.7510090547008113,0.16473634303513526,0.48133564301367415,-0.17640486157596433,nm,0.0
96.05894160270691,-30.891775231655867,-8.357676355647039,169.79731538090502,0.13006176503851594,0.09671839542043095,0.488160796700349,0.35519349503426206,0.5620485914435508,-0.0003086206913221465,nm,0.0
96.06558418273926,-32.73691005147283,-11.241897829661522,170.40113532082395,0.22014210611005136,0.12413096953056225,0.2243431186996692,0.45340453243536627,0.5193641726136936,0.06940601919668385,nm,0.0
96.08810544013977,-37.27236374549592,-15.686671021446829,172.245112430478,0.16511208385567355,0.04267296766930223,-0.38301367085121124,0.5079462519598241,0.3429226638413153,0.0702555809725782,nm,0.0
96.10033679008484,-39.64649194862321,-17.386582231335982,173.0111413094075,-0.10769100950888325,0.14340328160240723,-0.6312804154735719,0.49116943535446533,0.29147117216769663,0.03209478171261333,nm,0.0
96.11653113365173,-43.59408073439487,-20.195203760683597,173.95275606627266,-0.7327119068512418,0.3488112404884071,-0.8156131175033321,0.3629499134472357,0.24046205335163318,-0.05709660841371168,nm,0.0
96.12003254890442,-44.938142018529454,-21.44795292136536,174.14415192078692,-0.987542674994044,0.45501103425254563,-0.7762056129054182,0.27204131707708945,0.23559862537993093,-0.06134641805808594,nm,0.0
96.12869334220886,-45.75336888205389,-22.531114715311798,174.26726374628126,-1.1587952345454027,0.4932735458317635,-0.6729714237847553,0.1684939571542328,0.21254999330803134,-0.03994753109756985,nm,0.0
96.15381240844727,-45.80994471456745,-23.54521185270337,174.63486053509922,-1.191327510678349,0.570274492969775,-0.5448968226818073,-0.04019039949601401,0.07121598514784969,0.03730342065987022,nm,0.0
96.16637206077576,-44.168025842007914,-22.596038915792636,175.2079440279918,-0.9385895999892192,0.4897010495985394,-0.39922627097230745,-0.2004665802879966,-0.11772924720142167,0.10778957525124457,nm,0.0
96.18291902542114,-42.8361837893038,-21.412680733742647,175.50347292591098,-0.7632274014357041,0.44189966760009325,-0.3620426977871598,-0.26961870093386314,-0.20464121419491643,0.11199883586407301,nm,0.0
96.18842053413391,-41.244821932912,-19.89513678824238,175.73047363313944,-0.5891760104263973,0.38208669272918194,-0.3052274258885409,-0.3245283314220841,-0.26886420026632996,0.09794763735776557,nm,0.0
96.21029448509216,-37.6972936866183,-16.141128091205687,175.73356023400268,-0.2878623913053442,0.28916601750197074,-0.17579762607441685,-0.3771543543333938,-0.361094840796565,0.024912962323007888,nm,0.0
96.2187659740448,-35.9815138693276,-13.940513016759617,175.5711153828198,-0.09727910597471451,0.238799546929304,-0.14544103007488005,-0.36855938957955947,-0.40274349803317483,-0.011204990883636542,nm,0.0
96.23862147331238,-33.203479899081785,-8.97015985550613,175.30354137375747,0.4070967233185073,-0.0593007688004503,-0.02494836875293198,-0.2938631879329201,-0.48347973822472035,-0.034080638227827025,nm,0.0
96.24397730827332,-32.22784420272958,-6.220630465804693,175.28386553218957,0.692906539561987,-0.30610283617375006,0.1011130373694422,-0.243200063641919,-0.5204811906626734,-0.023607661361131706,nm,0.0
96.26927351951599,-31.10527972766608,-0.7118436995796306,175.91232523059537,1.1255122049550437,-0.8865541737746017,0.623050110513798,-0.13579713085425743,-0.518149888391005,0.03879263702333991,nm,0.0
96.27161026000977,-30.654178135809815,1.5556012803908794,176.55430386300094,1.2716257713361716,-1.0430405206007736,0.7429401949937351,-0.1257291851942011,-0.4346100304108748,0.08172325109706848,nm,0.0
96.29616165161133,-29.757557824004127,3.841991117171847,177.61919056955412,1.263155475471062,-0.9783393712387733,0.7006126733131174,-0.09513393937642575,-0.12514611489377536,0.03956696742996091,nm,0.0
96.30009531974792,-29.418891526335592,3.409974919102748,177.39403613235459,1.154651663281802,-0.8196261714824555,0.7376890275332717,-0.07074832985259313,0.10204320482945753,-0.04862280744471118,nm,0.0
96.32466268539429,-28.942879948935154,-0.8866371184917218,175.2605040305832,0.6337334726884453,-0.37169824830560805,0.8436740239571924,-0.007119247023744597,0.5361204031512807,-0.2298001417117241,nm,0.0
96.33079767227173,-28.91714080062048,-3.9439864622603467,173.9300202623199,0.46182854736319484,-0.042523700744128486,0.8163963238849038,0.046569256360626886,0.6230279248392836,-0.26452076266531,nm,0.0
96.35338997840881,-29.979402120281893,-10.143177350016801,172.1015623686491,0.19523984341461156,0.3248198458159181,0.5421108813542945,0.2405080811269373,0.5905006980305895,-0.10925391076282447,nm,0.0
96.3587019443512,-31.53716478879235,-12.692352802184615,172.28078495572032,0.08970432892524122,0.4020036479289111,0.3053278185874575,0.3676598223979814,0.4768250309388201,0.0034949755223881236,nm,0.0
96.36663937568665,-33.68685710103731,-14.701582186384707,173.1282727504575,0.008385568475337533,0.28199447116068366,0.01253190082017272,0.4610286430604108,0.35855017393474164,0.08692601297311245,nm,0.0
96.37996196746826,-36.313852759170935,-16.350557322850577,174.33440874724224,-0.1395308346344598,0.19012857086922558,-0.29359087142307727,0.5347176469092398,0.28552228312327144,0.1052152878912154,nm,0.0
96.40032982826233,-41.54919953942803,-19.334778802402738,175.9029854636464,-0.4622659550969323,0.12060582602753513,-0.7248086241292614,0.4914083542300388,0.27982072555559123,-0.045118859469338454,nm,0.0
96.40416884422302,-43.675643969010196,-21.121440507141475,175.93196062506752,-0.7011022320942657,0.20887647658704334,-0.8079640865894171,0.419436346035102,0.34040363415904745,-0.1348747507698659,nm,0.0
96.42769408226013,-46.303113023420956,-24.910609187429813,175.0851846945049,-1.0914710194419681,0.49205864516764536,-0.6791049325268159,0.20954834361202399,0.3607785199207777,-0.17402427083810065,nm,0.0
96.4320855140686,-46.83998570272305,-26.214774838155588,174.7078355851955,-1.170055029398686,0.6121257612379618,-0.585472395626408,0.11639052021832047,0.26327800870617124,-0.11434384045189898,nm,0.0
96.45577716827393,-46.67318742818355,-26.19578528493901,175.09543492348354,-1.0452360943224102,0.5010552478851747,-0.47956466664672454,-0.06123622933748195,-0.08006444715775762,0.08396232535130979,nm,0.0
96.46138024330139,-46.07040123715323,-24.922892938897444,175.7179925734197,-0.9157212034679868,0.41447288507809205,-0.49403655227335247,-0.13251884665839112,-0.2336920911366789,0.1546871018053351,nm,0.0
96.47114300727844,-45.03728984373736,-23.166727418967085,176.34132262053194,-0.7596060326440212,0.25565850213769886,-0.4622230145957418,-0.21665548552526961,-0.3261451487440431,0.18410444026577427,nm,0.0
96.49373269081116,-41.82605163149291,-19.420812866267646,176.95995784287086,-0.5098253730722788,0.14713598770456182,-0.3278914702766559,-0.357364054328625,-0.3384676562822982,0.10135743584501192,nm,0.0
