timestamp,roll,pitch,yaw,acc_x,acc_y,acc_z,gyro_x,gyro_y,gyro_z,markers,motor_input
71.52668905258179,-24.839827058159262,36.366173988243624,-83.19855096489361,-0.0998779632077218,0.5172210067619926,-0.4025754615190881,-0.04641161678411916,-0.10812015415094654,-0.05063396531787181,nm,0.0
71.5365138053894,-24.309998708620416,35.90405221839063,-82.87481875318305,-0.19627536319447245,0.4929993161676183,-0.32388664868548384,-0.09291168291524997,-0.10391052812112948,-0.030262578894587368,nm,0.0
71.56073999404907,-22.535439414965186,34.5832357732041,-81.65609646848894,-0.19361198238729693,0.34228809514628095,-0.16249658308896345,-0.12651834269942258,-0.20563297881669781,-0.018119666755226676,nm,0.0
71.56626868247986,-21.60843236688489,33.76307424204471,-80.77869547682386,-0.30456789743022633,0.3407812022638711,-0.2631244186297086,-0.14990079982387786,-0.18483312845734678,0.03369053865738341,nm,0.0
71.57949423789978,-20.5961141879014,32.79135175158385,-79.82179308161477,-0.24397373170293143,0.2739410369473893,-0.2569456271258987,-0.1741495020914783,-0.20796752578633226,0.04585181357208146,nm,0.0
71.59864687919617,-18.86500390369887,30.218304471737927,-78.092881429392,-0.07149489181452923,0.17019121533658824,-0.311242342410208,-0.2610013580584232,-0.1906724059886856,0.051299154642834334,nm,0.0
71.60601830482483,-18.121145316281698,28.579571814024305,-77.43789952109539,0.10588450487083942,0.08554812997844624,-0.2470753117047877,-0.30371333677483897,-0.2051717717034237,0.02494295626665767,nm,0.0
71.63332295417786,-16.064164074081766,22.63979086886752,-76.15286089583707,0.4671394604951517,-0.35363349075696743,-0.11036674805818378,-0.3873575722316392,-0.24999354837105092,0.0004332733817365142,nm,0.0
71.64093494415283,-15.172356150760436,20.436439695185868,-75.62207575667135,0.5746807999809004,-0.5042752773682364,0.04181433605113088,-0.3974808204084404,-0.27811152897291197,0.018158066349760447,nm,0.0
71.65057349205017,-14.17549475893159,18.204901711223282,-75.01540311708025,0.6374083855304447,-0.5826798773794433,0.2573153586095404,-0.3944892807418448,-0.30502850149046856,0.03738107971418831,nm,0.0
71.67593908309937,-12.041874250565735,14.03953461969713,-73.98228993717147,0.5452699557478615,-0.3210959296652771,0.8146793572592288,-0.3389651889720173,-0.31370262408738026,0.034872903196466846,nm,0.0
71.6798791885376,-11.096789776892855,12.399015624973275,-73.73234429930666,0.32586683816362205,-0.018058661143769156,0.9382911037865213,-0.27406691235395064,-0.2780654193998281,0.002482362340340875,nm,0.0
71.70316290855408,-10.08592376948143,10.959891766904716,-74.28246997755116,-0.07265920047251671,0.3816327324596231,1.0914041417752505,-0.06354070505826762,-0.08591292499882475,-0.07388286247204702,nm,0.0
71.70769572257996,-10.305299767486218,11.381335900181961,-74.82948834608328,-0.1550050679359769,0.3177850078139458,1.1040141539979949,0.06003829648707639,0.054338437353441536,-0.08458772349538,nm,0.0
71.73503804206848,-12.33293703258965,14.317509999204898,-76.07352100295344,-0.039530940661686914,-0.11908936222605729,0.7514697404008364,0.2696068874138639,0.3148072273758391,-0.02654375767493259,nm,0.0
71.7366783618927,-14.055825132492046,16.367566458208508,-76.65372235682344,0.14811331881740558,-0.3505701430163316,0.5746904824182691,0.31108630639049656,0.41016928097409366,0.026503402023431544,nm,0.0
71.76002955436707,-18.3764404426143,20.403427556669804,-77.70555256352515,0.45617844358680887,-0.3325100889841132,0.0924742813818362,0.27643473584159955,0.4918314453852428,0.08960960960401315,nm,0.0
71.77430438995361,-23.119752718664916,23.547464322891756,-79.25920788546442,0.49821476437798407,0.09964154137778011,-0.26717820327496533,0.18975389050229385,0.472978795376458,0.057326982341610724,nm,0.0
71.78907012939453,-25.512970703776276,24.782042732346003,-80.25940959807485,0.5192103523085814,0.2248590909317032,-0.2897508698764751,0.15549106537239898,0.46496187662462324,0.04337020353144148,nm,0.0
71.79381108283997,-27.825819823380535,25.926292058771434,-81.1279254424332,0.027924806701207238,0.3620875435543821,-0.5635606087676298,0.147663011734798,0.4410469660335279,0.04239769292887498,nm,0.0
71.81895899772644,-30.312213931952268,28.387047080370767,-82.1119484577907,0.27072784566864816,0.40017886563533067,-0.49265657160308657,0.21401084189420616,0.21687325888457065,0.021137147671817125,nm,0.0
71.8229353427887,-31.068621439710814,29.698103172217746,-82.27390201313685,-0.05629512346188781,0.4010999783616353,-0.6577719462219946,0.23087664095913168,0.15806145147890574,0.038774109923896995,nm,0.0
71.865314245224,-30.382647633342728,32.73017915504912,-81.82167401548182,-0.2612675169652926,0.3910643645368779,-0.6600781243127449,0.14664198670195294,-0.09435500733385276,-0.05435485577195641,nm,0.0
71.86692023277283,-29.35290957817842,33.07532584613318,-81.70723223102867,0.31466752282220545,0.31111346756390157,-0.24424223760305303,0.08209738958921478,-0.16991448440790552,-0.11132975339394484,nm,0.0
71.86902332305908,-29.056205969680278,33.06758064651011,-81.6987901992552,-0.3976672303894365,0.3829441018161513,-0.4423001738600523,-0.005542307669030443,-0.05801181628144634,-0.05712842685237886,nm,0.0
71.88363146781921,-28.287093103338016,32.809334129233605,-81.58488432035381,-0.4716771119672202,0.3584969867662949,-0.31623617239693513,-0.04346522766510022,-0.14390891485086002,-0.09148458899465388,nm,0.0
71.88821244239807,-27.302098495726405,32.41090937565665,-81.25682795810098,-0.1660059082505202,0.31641884667038966,-0.051567970115427846,-0.06509271020534696,-0.18471009942530597,-0.07603141483873373,nm,0.0
71.90014553070068,-26.690356197049375,31.946036684759438,-80.7490149567616,-0.6423393869417898,0.3634977413259329,-0.2340483927685851,-0.08679665347474588,-0.12553554152793006,0.011901267310942515,nm,0.0
71.91197347640991,-25.698671411025728,31.459755121242885,-79.90313710561993,-0.41595476892063105,0.3170723230057191,-0.1002294406026742,-0.07847701006948869,-0.19156123703097286,0.03685816195626693,nm,0.0
71.92094469070435,-24.830410195883374,30.918237405862644,-78.81019954518132,-0.2968089797143181,0.28743171647754673,-0.11773649108972785,-0.08980968524971036,-0.17503443501551968,0.09527374492318208,nm,0.0
71.94210529327393,-23.342289213671805,29.423545061347987,-76.55397991441139,0.06643500259561005,0.14558898271818946,-0.2236656308137675,-0.14505517515831431,-0.17849799820601564,0.1140271749567732,nm,0.0
71.94657778739929,-22.853075538181013,28.288377779562897,-75.59418240479334,0.188067902231478,0.06969208084375772,-0.3265299060055117,-0.21019209292435717,-0.14758434989747402,0.10546479728497084,nm,0.0
71.96945023536682,-21.974324222207848,25.068160648616118,-74.48051435690648,0.7762930354054861,-0.16264949765549125,-0.19336351107829192,-0.3305044213409204,-0.1809315674912965,0.01856250196607566,nm,0.0
71.98126244544983,-21.961673741939997,23.027476453647765,-74.31198823027032,0.762940848276335,-0.3130043496825135,-0.19062950935399547,-0.4030230122398277,-0.1221265106007376,0.01614638053136403,nm,0.0
72.00166940689087,-20.747226813612613,18.69089326143122,-74.28105856823304,1.4240189780429942,-0.396302466514782,0.5575121308284242,-0.3790933190842899,-0.29756424505113305,-0.08883653395282384,nm,0.0
72.00478863716125,-20.012192072292752,16.67210043486766,-74.52507893666441,1.009633385655148,-0.22548878298669364,0.42261249604720924,-0.36158062940205404,-0.2539074442965568,-0.11201843481883811,nm,0.0
72.02598476409912,-16.687361945510315,13.63689921342328,-75.44949703791467,0.720662405809842,0.2308144582106087,1.0151851911726084,-0.16817960722594485,-0.4346345273214274,-0.2190223783020006,nm,0.0
72.0347192287445,-14.951111086664934,12.989265168908464,-76.00959710036464,0.060855027929653,0.17759108675980084,0.7200561535045729,-0.0522125024432686,-0.36943429530874156,-0.2154882400444544,nm,0.0
72.05655646324158,-10.880151314776159,14.197107071706554,-76.92129629095481,0.389525688441299,-0.07699872580279236,1.4773303394989519,0.2577462551293238,-0.2844679501584077,-0.17728663846821918,nm,0.0
72.05996012687683,-10.392795148433613,15.738420768236196,-77.4548029976712,-0.5388295275839465,-0.24775267599243192,0.44284494472283886,0.3114404348730075,-0.032554453077757624,-0.1192186287921135,nm,0.0
72.08410787582397,-9.79544254586755,19.634579114511368,-78.79297820629297,-0.18383122056581147,-0.29388432086005933,0.5239803653787954,0.3635287113862444,0.11968249437773293,-0.12587562426199225,nm,0.0
72.08845496177673,-11.106577971108258,21.309915681730672,-79.86027450493643,-0.5034314720335233,-0.29940586374189193,0.09290486927995331,0.27359079354076166,0.29555824514130086,-0.09994982182531677,nm,0.0
72.11479616165161,-15.141518330401055,24.38947962627165,-82.51280264981284,-0.21660898826021338,0.0017688412528906884,0.02101034683110247,0.22727254918900922,0.478628273758465,-0.03211258602890168,nm,0.0
72.11659455299377,-17.807308121347177,25.81603881651665,-83.76478856191741,-0.16908931525199905,0.13231961331540784,-0.08628071323613833,0.21561142753007453,0.5060171272657251,0.03379683244794774,nm,0.0
72.13063454627991,-20.417612541420173,27.335389920731842,-84.69209893633226,0.1018265982365835,0.1733222602736922,-0.0835159236852352,0.24497002708588064,0.48776366563981327,0.09453520008881816,nm,0.0
72.14130187034607,-23.02004919255003,29.036251661253512,-85.37053536449777,-0.024083960877790384,0.3582526744088607,-0.4121706190497855,0.28871213773107407,0.47905240918750974,0.15823608342812895,nm,0.0
72.16457009315491,-27.569661373030204,33.5183800817349,-85.72002367934883,0.014168606702593145,0.4420435234420877,-0.8408418150571408,0.22614240811402586,0.18902316930393678,0.1462288920052803,nm,0.0
72.18785810470581,-27.769263631636036,34.52560845081678,-85.05707386232919,-0.008471727112206107,0.38797412889961036,-0.7618622102658483,0.03642715573712606,-0.04540140657566765,0.05385840921000494,nm,0.0
72.19209909439087,-27.14215875376487,34.27434054340065,-84.46457208171901,-0.152961940056616,0.3796768695681018,-0.7322640608555916,-0.052351774034223,-0.1154428781216693,0.0440889658243329,nm,0.0
72.21643733978271,-24.543318269679446,33.06826909742561,-82.2054192448468,-0.07906370461602454,0.4610540191984629,-0.35915411429716987,-0.11330362021466026,-0.27716823567395066,0.021394321160918543,nm,0.0
72.23323512077332,-21.662101098223857,31.46500739807559,-79.8644278478082,-0.3526960721645901,0.5518151770302632,-0.27361943405997174,-0.13217672256742238,-0.28098542766659174,0.05715104334235226,nm,0.0
72.25945401191711,-18.9453531615191,29.572407563040542,-77.78681209675081,-0.2429805046257459,0.2900366529981903,-0.21185310871929774,-0.1635204743870015,-0.24586723668582808,0.04801841913703357,nm,0.0
72.26112651824951,-17.857541657068456,28.38499781679128,-77.00023015746922,-0.1999114782678062,0.13877778391214993,-0.2742031973977644,-0.20102977904002048,-0.24645696945708598,0.03618704879785667,nm,0.0
72.26945614814758,-16.875737515847902,26.909651239493538,-76.26200358540038,0.020589335146956593,-0.15373909753794401,-0.1393104652024052,-0.25760559755425577,-0.24651467080426218,0.04188161579634134,nm,0.0
72.294429063797,-15.351776220280236,23.359512050899188,-74.76579940710589,0.20644850742388565,-0.2329255089446231,-0.2538421653884009,-0.3379236442615617,-0.24250997821316672,0.07206326592182404,nm,0.0
72.29707431793213,-14.661606724003398,21.265666181556124,-73.95236355539757,0.419691669588935,-0.26204533027297566,-0.05090376836803605,-0.3791333734446193,-0.24580031738351743,0.08603440847288395,nm,0.0
72.30707430839539,-14.13527303306883,19.137155426983384,-73.27719026352867,0.5667269169881953,-0.2605329723645172,0.1725021456315172,-0.3908038153459543,-0.2248509139362299,0.0843670668276353,nm,0.0
72.3296890258789,-13.681963124522358,15.275405849404674,-72.60088506580382,0.63587558101926,-0.30017726054755317,0.39763977082165314,-0.3543759244418448,-0.12788001966986406,0.02947852928982219,nm,0.0
72.33547353744507,-13.278711126566073,13.770419193932568,-72.67083396654944,0.7344244132589484,-0.2633045372949559,0.8279049856148147,-0.2739523492617532,-0.17452479518041034,-0.03824277254906315,nm,0.0
72.34623599052429,-12.835436197780785,12.42925891896032,-72.92390159761291,0.8930437772639191,0.11451672100058011,1.034136080364621,-0.24063242584521097,-0.17201100653773813,-0.07471039109108357,nm,0.0
72.37205862998962,-12.532838572978456,10.682216029296429,-73.66880537504919,0.6612771415189975,-0.022285572362281948,1.0991350954411085,-0.07510686322479283,-0.09105168877088554,-0.08790278204909736,nm,0.0
72.37443494796753,-12.366104794765004,11.149549946416982,-74.16087318214427,0.4114021613813884,0.15630548118351367,0.6729051709357868,0.08915237186721456,-0.01552498100598105,-0.08462459212193711,nm,0.0
72.39723372459412,-11.911520976542294,12.97069630136453,-74.72698415387302,0.2718871143008291,-0.32955530957505336,0.5486976107500664,0.23270357392756044,-0.011984101619039482,-0.046946192398858305,nm,0.0
72.40203666687012,-11.481341927740734,14.740287134757693,-75.00744568283673,0.4366763058422324,-0.24596964974399957,0.6056476826374402,0.3538691951310664,0.0021301347324806114,-0.06621049512201352,nm,0.0
72.42738723754883,-12.210111102506364,17.93698899395842,-76.06837468476353,0.06450702811712526,-0.3911475195055428,0.2198840567146153,0.2577469346389879,0.16752242351515007,-0.07135395153057185,nm,0.0
72.43267250061035,-12.813274553476049,19.631970327665258,-76.96720377579169,0.20335872497059132,-0.24424351161298838,0.3525497434487558,0.29321961140742675,0.18108801234342742,-0.11014441153433388,nm,0.0
72.45534706115723,-15.489133233990101,22.72899387886742,-79.06612822239306,-0.06804006880540438,0.018473548258665474,0.09661472122627045,0.22238515808171286,0.3119955718094265,-0.07195869418524545,nm,0.0
72.45990324020386,-17.026605764853517,24.410085026445554,-80.01207619899957,0.06370370701832494,0.08726056564305172,0.1284904243084051,0.2690596411447277,0.33014475913494246,-0.047174091660086036,nm,0.0
72.4871039390564,-20.39257406758346,28.239493758714588,-81.4438394615122,0.015163867783593094,0.250430894285232,-0.18016229786431487,0.3222797774214885,0.32971793770450497,0.042263094547254035,nm,0.0
72.4909086227417,-21.858954834136288,30.178369746585386,-81.97291796162658,0.09684484293834865,0.2025770910075347,-0.32169558170680496,0.336184973501554,0.30131656291187214,0.06219814207795249,nm,0.0
