timestamp,roll,pitch,yaw,acc_x,acc_y,acc_z,gyro_x,gyro_y,gyro_z,markers,motor_input
96.01127076148987,-28.56776571032396,2.653251301874115,173.19157254089578,1.168954336183237,-0.7705090814648273,0.9877154943577336,-0.11684224187117734,0.00994553238414745,-0.1476163105281053,nm,0.0
96.0148241519928,-28.289342463746266,1.7614245432292077,172.1902996238283,0.7120614198408447,-0.5020530119778068,0.9263745810162338,-0.038225288961526036,0.19747329083604687,-0.20188572949398367,nm,0.0
96.02580738067627,-28.35451653448837,-0.06627894962139681,171.14091693701022,0.25361335195769613,-0.24370964849785973,0.8602311368275365,0.06054486048636219,0.3735782622402417,-0.2089221464153632,nm,0.0
96.03379034996033,-28.81167261231258,-2.5098977602566515,170.20151531632888,0.036742783298227166,0.01931472802906972,0.7510090547008113,0.16473634303513526,0.48133564301367415,-0.17640486157596433,nm,0.0
96.05894160270691,-30.891775231655867,-8.357676355647039,169.79731538090502,0.13006176503851594,0.09671839542043095,0.488160796700349,0.35519349503426206,0.5620485914435508,-0.0003086206913221465,nm,0.0
96.06558418273926,-32.73691005147283,-11.241897829661522,170.40113532082395,0.22014210611005136,0.12413096953056225,0.2243431186996692,0.45340453243536627,0.5193641726136936,0.06940601919668385,nm,0.0
96.08810544013977,-37.27236374549592,-15.686671021446829,172.245112430478,0.16511208385567355,0.04267296766930223,-0.38301367085121124,0.5079462519598241,0.3429226638413153,0.0702555809725782,nm,0.0
96.10033679008484,-39.64649194862321,-17.386582231335982,173.0111413094075,-0.10769100950888325,0.14340328160240723,-0.6312804154735719,0.49116943535446533,0.29147117216769663,0.03209478171261333,nm,0.0
96.11653113365173,-43.59408073439487,-20.195203760683597,173.95275606627266,-0.7327119068512418,0.3488112404884071,-0.8156131175033321,0.3629499134472357,0.24046205335163318,-0.05709660841371168,nm,0.0
96.12003254890442,-44.938142018529454,-21.44795292136536,174.14415192078692,-0.987542674994044,0.45501103425254563,-0.7762056129054182,0.27204131707708945,0.23559862537993093,-0.06134641805808594,nm,0.0
96.12869334220886,-45.75336888205389,-22.531114715311798,174.26726374628126,-1.1587952345454027,0.4932735458317635,-0.6729714237847553,0.1684939571542328,0.21254999330803134,-0.03994753109756985,nm,0.0
96.15381240844727,-45.80994471456745,-23.54521185270337,174.63486053509922,-1.191327510678349,0.570274492969775,-0.5448968226818073,-0.04019039949601401,0.07121598514784969,0.03730342065987022,nm,0.0
96.16637206077576,-44.168025842007914,-22.596038915792636,175.2079440279918,-0.9385895999892192,0.4897010495985394,-0.39922627097230745,-0.2004665802879966,-0.11772924720142167,0.10778957525124457,nm,0.0
96.18291902542114,-42.8361837893038,-21.412680733742647,175.50347292591098,-0.7632274014357041,0.44189966760009325,-0.3620426977871598,-0.26961870093386314,-0.20464121419491643,0.11199883586407301,nm,0.0
96.18842053413391,-41.244821932912,-19.89513678824238,175.73047363313944,-0.5891760104263973,0.38208669272918194,-0.3052274258885409,-0.3245283314220841,-0.26886420026632996,0.09794763735776557,nm,0.0
96.21029448509216,-37.6972936866183,-16.141128091205687,175.73356023400268,-0.2878623913053442,0.28916601750197074,-0.17579762607441685,-0.3771543543333938,-0.361094840796565,0.024912962323007888,nm,0.0
96.2187659740448,-35.9815138693276,-13.940513016759617,175.5711153828198,-0.09727910597471451,0.238799546929304,-0.14544103007488005,-0.36855938957955947,-0.40274349803317483,-0.011204990883636542,nm,0.0
96.23862147331238,-33.203479899081785,-8.97015985550613,175.30354137375747,0.4070967233185073,-0.0593007688004503,-0.02494836875293198,-0.2938631879329201,-0.48347973822472035,-0.034080638227827025,nm,0.0
96.24397730827332,-32.22784420272958,-6.220630465804693,175.28386553218957,0.692906539561987,-0.30610283617375006,0.1011130373694422,-0.243200063641919,-0.5204811906626734,-0.023607661361131706,nm,0.0
96.26927351951599,-31.10527972766608,-0.7118436995796306,175.91232523059537,1.1255122049550437,-0.8865541737746017,0.623050110513798,-0.13579713085425743,-0.518149888391005,0.03879263702333991,nm,0.0
96.27161026000977,-30.654178135809815,1.5556012803908794,176.55430386300094,1.2716257713361716,-1.0430405206007736,0.7429401949937351,-0.1257291851942011,-0.4346100304108748,0.08172325109706848,nm,0.0
96.29616165161133,-29.757557824004127,3.841991117171847,177.61919056955412,1.263155475471062,-0.9783393712387733,0.7006126733131174,-0.09513393937642575,-0.12514611489377536,0.03956696742996091,nm,0.0
96.30009531974792,-29.418891526335592,3.409974919102748,177.39403613235459,1.154651663281802,-0.8196261714824555,0.7376890275332717,-0.07074832985259313,0.10204320482945753,-0.04862280744471118,nm,0.0
96.32466268539429,-28.942879948935154,-0.8866371184917218,175.2605040305832,0.6337334726884453,-0.37169824830560805,0.8436740239571924,-0.007119247023744597,0.5361204031512807,-0.2298001417117241,nm,0.0
96.33079767227173,-28.91714080062048,-3.9439864622603467,173.9300202623199,0.46182854736319484,-0.042523700744128486,0.8163963238849038,0.046569256360626886,0.6230279248392836,-0.26452076266531,nm,0.0
96.35338997840881,-29.979402120281893,-10.143177350016801,172.1015623686491,0.19523984341461156,0.3248198458159181,0.5421108813542945,0.2405080811269373,0.5905006980305895,-0.10925391076282447,nm,0.0
96.3587019443512,-31.53716478879235,-12.692352802184615,172.28078495572032,0.08970432892524122,0.4020036479289111,0.3053278185874575,0.3676598223979814,0.4768250309388201,0.0034949755223881236,nm,0.0
96.36663937568665,-33.68685710103731,-14.701582186384707,173.1282727504575,0.008385568475337533,0.28199447116068366,0.01253190082017272,0.4610286430604108,0.35855017393474164,0.08692601297311245,nm,0.0
96.37996196746826,-36.313852759170935,-16.350557322850577,174.33440874724224,-0.1395308346344598,0.19012857086922558,-0.29359087142307727,0.5347176469092398,0.28552228312327144,0.1052152878912154,nm,0.0
96.40032982826233,-41.54919953942803,-19.334778802402738,175.9029854636464,-0.4622659550969323,0.12060582602753513,-0.7248086241292614,0.4914083542300388,0.27982072555559123,-0.045118859469338454,nm,0.0
96.40416884422302,-43.675643969010196,-21.121440507141475,175.93196062506752,-0.7011022320942657,0.20887647658704334,-0.8079640865894171,0.419436346035102,0.34040363415904745,-0.1348747507698659,nm,0.0
96.42769408226013,-46.303113023420956,-24.910609187429813,175.0851846945049,-1.0914710194419681,0.49205864516764536,-0.6791049325268159,0.20954834361202399,0.3607785199207777,-0.17402427083810065,nm,0.0
96.4320855140686,-46.83998570272305,-26.214774838155588,174.7078355851955,-1.170055029398686,0.6121257612379618,-0.585472395626408,0.11639052021832047,0.26327800870617124,-0.11434384045189898,nm,0.0
96.45577716827393,-46.67318742818355,-26.19578528493901,175.09543492348354,-1.0452360943224102,0.5010552478851747,-0.47956466664672454,-0.06123622933748195,-0.08006444715775762,0.08396232535130979,nm,0.0
96.46138024330139,-46.07040123715323,-24.922892938897444,175.7179925734197,-0.9157212034679868,0.41447288507809205,-0.49403655227335247,-0.13251884665839112,-0.2336920911366789,0.1546871018053351,nm,0.0
96.47114300727844,-45.03728984373736,-23.166727418967085,176.34132262053194,-0.7596060326440212,0.25565850213769886,-0.4622230145957418,-0.21665548552526961,-0.3261451487440431,0.18410444026577427,nm,0.0
96.49373269081116,-41.82605163149291,-19.420812866267646,176.95995784287086,-0.5098253730722788,0.14713598770456182,-0.3278914702766559,-0.357364054328625,-0.3384676562822982,0.10135743584501192,nm,0.0
96.50233554840088,-39.84199317324116,-17.674894162920406,176.7907825774796,-0.3913882257269442,0.11908080157513555,-0.18598973289736181,-0.3995980909808455,-0.31735206017153245,0.03547134957521818,nm,0.0
96.50886487960815,-37.85515502231234,-15.872398364324091,176.43464323151906,-0.23649500966295758,0.12730583548147087,-0.0809212692017611,-0.4062061032357502,-0.32644582046052945,-0.013833638694897227,nm,0.0
96.53198432922363,-34.57137287508911,-11.426676933961808,176.21173410947833,0.30894822802915195,0.04525453009795746,-0.01560632743661496,-0.3243623959195696,-0.448841032597674,0.009453191332007565,nm,0.0
96.54085755348206,-33.44716743263824,-8.627779570418461,176.6267257815916,0.647038122693739,-0.18891462096148054,0.13077502102679914,-0.2610806966763472,-0.5335498565655153,0.06385491044252732,nm,0.0
96.56426954269409,-31.922682819077917,-2.295954063841386,178.22627148731445,1.2465683534352232,-0.7442290780477437,0.4048373326045368,-0.16606072966437924,-0.6234032545533196,0.1393499742014146,nm,0.0
96.56594324111938,-31.233474200261316,0.568550637237718,179.13212825263972,1.444201655057102,-0.9116056873018734,0.561925681375147,-0.15738573828793964,-0.558098166928778,0.14310875519216879,nm,0.0
96.5913200378418,-29.669043148150784,4.009051989523217,-179.9600082996957,1.1867824578360597,-0.920601723197577,0.663455372770518,-0.162913769619559,-0.24370104149088076,0.023002475750673823,nm,0.0
96.5947642326355,-29.092892783514547,4.160021734766475,179.62757247917813,0.9247242333372212,-0.7768210654890403,0.7205865207824025,-0.1225649030954902,-0.01744158033798939,-0.07961782024489279,nm,0.0
96.61883568763733,-28.49677100649212,0.709035742411706,177.63089121678547,0.33143743707313644,-0.32992478806111425,0.8341275272765705,-0.03864621212030375,0.4665325870588069,-0.19878985141998579,nm,0.0
96.62342357635498,-28.455213689178898,-2.1637831331534376,176.4315457974189,0.3265601401390638,-0.07986822699218091,0.8363589873687396,0.015910284635057996,0.5876704663933503,-0.19846085851559003,nm,0.0
96.64684700965881,-29.25496071112576,-8.460939556387105,175.21425733854193,0.4665615428663273,0.16963047228562653,0.7118953205429347,0.16155491685784085,0.6224673599239801,-0.04467517786545957,nm,0.0
96.65535378456116,-30.524121975831644,-11.179836183303829,175.4126043132885,0.595160502202779,0.22160349441979815,0.3954709655351786,0.28886560069104056,0.5345389899427805,0.033255445994369644,nm,0.0
96.6749861240387,-34.685761459420455,-15.20947438851028,176.96090096212356,0.24327718968992068,0.025156355265002296,-0.1226140220147811,0.4546914687187379,0.3341835844604036,0.08191582076767086,nm,0.0
96.68306398391724,-37.22739065693421,-16.638166383322933,177.65048176666096,-0.04567686925791998,0.10725602347525119,-0.4789897802434015,0.4968261402160373,0.27446426165677834,0.029781399435370736,nm,0.0
96.70288395881653,-41.74849333622763,-19.755594654582474,178.4686616272221,-0.7514707626125263,0.09248097803606561,-0.6543550087400635,0.40223589482866573,0.32840131375397147,-0.060158323753199926,nm,0.0
96.70850419998169,-43.49575442237894,-21.52466328034656,178.50757747441102,-1.0200649479323045,0.3051558252767766,-0.7361097212029141,0.3318345030446722,0.3570386954973207,-0.09250543086026851,nm,0.0
96.73451685905457,-45.570239286935994,-25.043665208082846,178.77287806124042,-1.146167707871996,0.3017731259248871,-0.49563960910577726,0.15456767911730462,0.3459140339919033,0.0054950797423422145,nm,0.0
96.73754978179932,-45.96596342558311,-26.22391156525008,179.21185199813357,-1.1111125145898388,0.4552310645601172,-0.538307063235819,0.07125651731968977,0.24658045661213276,0.07142829896540659,nm,0.0
96.74825716018677,-45.90712014409313,-26.704315087965302,179.8240623163958,-0.9022606350419785,0.42796944936488784,-0.5647489092297314,-0.014241547217392162,0.10781293316088743,0.13527762883207214,nm,0.0
96.77054643630981,-44.67144734474552,-25.80158969777009,-178.6151778148562,-0.5640454926830043,0.33664229333946305,-0.4964664181712798,-0.15134301386634802,-0.13950490202761104,0.21115275078861676,nm,0.0
96.77596616744995,-43.407904053459006,-24.59627287365852,-178.0773151076258,-0.4835614911672386,0.29777200412638904,-0.4371845244857963,-0.22694397237805244,-0.2366294980555495,0.19105473210772628,nm,0.0
96.80393767356873,-39.902292366528116,-21.522783323460285,-177.8515851080442,-0.5160880695987566,0.2515403142836199,-0.14833813840375387,-0.34173385378450527,-0.32149632158150265,0.1003784435412843,nm,0.0
96.80571341514587,-37.913350111236895,-19.863215717531634,-178.0486524312274,-0.529198367724658,0.29389490886755615,-0.01632849165646995,-0.3660987197207028,-0.3343040568830161,0.05990576079981331,nm,0.0
96.81324601173401,-35.99698341013976,-18.134058133848935,-178.2734672189497,-0.4662568065086274,0.27835226665293855,0.07979767968272596,-0.3574041943149361,-0.34645795605153845,0.03825028453108095,nm,0.0
96.83668661117554,-32.99800611074675,-14.192748249781749,-178.40883491309475,-0.06160206987184616,0.22571360600453663,0.05997551374401463,-0.25394213785602676,-0.41103956540392494,0.033045552510340574,nm,0.0
96.84195971488953,-31.99958643303681,-11.885030044735386,-178.3069101794466,0.24166288164383704,0.09007013195370271,0.0015314121126908007,-0.1879539870558426,-0.45569553485635,0.03184112944721409,nm,0.0
96.85092115402222,-31.354567728406455,-9.391345375248582,-178.2359738936584,0.5163471952787079,-0.08312495046020715,-0.003523086699218737,-0.11870324872542469,-0.49097342001256966,0.015906939027423794,nm,0.0
96.87621450424194,-30.727792126006225,-4.230035364589741,-178.16363647444004,0.9272584405544583,-0.5679426162210147,0.2885282070936833,-0.03587149114477228,-0.5011940455295579,-0.048030234068349185,nm,0.0
96.87965869903564,-30.615614891895536,-1.9691468394072085,-178.24333405100975,1.0356539155364288,-0.7612057140822117,0.4797782804247189,-0.014899758509677341,-0.44113032526490265,-0.06651126080922624,nm,0.0
96.89027833938599,-30.46551206099198,-0.2479764567939302,-178.36934479594655,1.157490323418591,-0.6963539558138546,0.38879164665143146,-0.02703029548010285,-0.3333087702778161,-0.061205649153441725,nm,0.0
96.90008997917175,-30.11808045706819,0.7573712138316208,-178.46934566051152,1.1595477954851936,-0.7749349927106968,0.48944121602290647,-0.07159136929361423,-0.19106947726408946,-0.03615889310087107,nm,0.0
96.9273931980133,-29.421694964987303,0.9865965780840649,-179.02940321761653,1.099638468170808,-0.5915341421895124,0.5963656538677747,-0.07512150337669408,0.050552589343164034,-0.05221291022818869,nm,0.0
96.95949149131775,-28.870433658340232,-1.7256844986338455,-179.96509135617111,0.6181504703204888,-0.388847865410824,0.7442118588566928,-0.04668680773475128,0.3476610130857079,-0.08702911972663586,nm,0.0
96.96126294136047,-28.94779022467997,-3.77928259130221,179.29506819636364,0.46256300633125946,-0.16305953967955483,0.6719664021258093,0.011257826695066813,0.42353317780200217,-0.11666496572599666,nm,0.0
96.99272799491882,-30.032303644249136,-8.699107099223161,178.20245549412823,0.2135118052816474,0.10195850241583766,0.5157164519693175,0.1552267650770665,0.5152215797511371,-0.0667585899245906,nm,0.0
96.99459457397461,-32.865275769977785,-13.230552428554834,178.55987690949095,0.19500912146468963,0.14557200755739674,0.15038957391009117,0.32494887624695745,0.4314567845615357,0.024605366676588514,nm,0.0
96.99661564826965,-34.850539200549356,-15.07672772181985,179.21823329630635,0.09549001139310931,0.10400601957804607,-0.08623013060294053,0.3864057858422569,0.37413779247677287,0.05284724684878833,nm,0.0
