timestamp,roll,pitch,yaw,acc_x,acc_y,acc_z,gyro_x,gyro_y,gyro_z,markers,motor_input
83.51304244995117,-11.621323653408727,11.656523360131354,-98.2366239566041,0.1634526520948482,-0.30546502162036415,0.9628743027403663,0.34049670539623716,-0.17113370906415865,-0.06828975248320253,nm,0.0
83.52278590202332,-11.600640587543069,13.772178222211277,-98.36744502531707,-0.2504307451509784,-0.17179427108976278,0.3606202625930641,0.4056391635753417,-0.07008719402659253,-0.02116868274357454,nm,0.0
83.54442143440247,-12.169623835661843,17.990211226291716,-99.36239931251839,-0.08207477334324714,-0.031025789733367743,0.13538689819021477,0.41112544860228356,0.06379445638406875,-0.07669774299208984,nm,0.0
83.5535581111908,-13.351642630978574,19.870377329626745,-100.51516115744717,-0.20003751140145665,-0.009993443339207743,-0.01692845381493883,0.3966034795917634,0.1510153066032161,-0.12112518306751727,nm,0.0
83.57310509681702,-16.59654668668319,23.143700197625186,-102.92299149392701,-0.21437212624435514,0.13944739156541577,-0.3243834243646064,0.35586364663172243,0.2593262559819599,-0.08431605546950914,nm,0.0
83.58041048049927,-18.287102012472236,24.509323952034066,-103.59508399433713,-0.19300685207397983,0.1701603522039132,-0.41521641487138616,0.32370643826387474,0.23553622707210575,-0.0019783421099409666,nm,0.0
83.60020327568054,-20.89164494361627,27.296450287827636,-103.69911022747938,-0.052677544603522565,0.4295467643530781,-0.6236605206006778,0.30611846792875463,0.1315432236813013,0.1740302288003359,nm,0.0
83.6043632030487,-21.606368140621246,28.524663313032107,-103.17960745624065,0.07307761533719152,0.4798753897179404,-0.6411395377118656,0.2551904148392742,0.062202402688003366,0.1991747929355398,nm,0.0
83.61437058448792,-22.046330432435443,29.48718003521136,-102.56217119400768,0.12955937042056817,0.5646082130668896,-0.6994852131068264,0.19160895612670178,0.02869528229189601,0.17261285472138727,nm,0.0
83.63649845123291,-22.360055026292276,30.025072807174826,-101.99922652880532,0.06408259669847631,0.566844024034292,-0.7327470313417125,0.0,0.0,0.0,nm,0.0
83.64247751235962,-22.281096920972246,29.553325880173414,-102.04975419076328,-0.06369541642770958,0.4979636004870668,-0.7185270391721027,-0.10868796160505667,0.0027170496772486044,-0.02193424593127956,nm,0.0
83.6514961719513,-21.925993790131304,28.737651885000687,-102.10220394088074,-0.17154493136497487,0.43007427188345965,-0.6427928307369888,-0.18617321230097217,-0.02998800060111538,-0.03329253048678716,nm,0.0
83.67931151390076,-20.252793833412856,26.599678881974185,-100.97085247065867,-0.2659852570464595,0.31813703590958037,-0.39905677271315604,-0.26515870771870925,-0.13262729515918956,0.08673834590777678,nm,0.0
83.68343305587769,-19.072263034611034,25.475532815736358,-99.64734785052535,-0.1908644647618817,0.29714373363518254,-0.2708789644255738,-0.2728300329264209,-0.172574012523041,0.17272436474899364,nm,0.0
83.69012260437012,-17.919474492090266,24.265907072768698,-97.84455754271382,-0.07499893851783837,0.2396824858236353,-0.12372318870451145,-0.2842028936633648,-0.17482560240313932,0.24297375888711129,nm,0.0
83.71633911132812,-16.37384864613238,21.46942075869635,-94.64562558018946,0.1776230490500239,0.10682022344326093,-0.06608292257153142,-0.315590021952512,-0.08841986251291069,0.24393294902835985,nm,0.0
83.71832156181335,-16.08693213080848,19.769413869341882,-93.66706461269129,0.2889217396389246,-0.08266620730146322,-0.01980919441926582,-0.35612479370040767,-0.034246731712279946,0.19194240960021294,nm,0.0
83.74150323867798,-16.175172345763688,15.64130653293973,-92.57801594535584,0.4851279048429249,-0.49813783586513577,0.1717151911947457,-0.4413382973800699,0.03976008045590856,0.1286750233440844,nm,0.0
83.75552034378052,-16.431318855614098,13.458571746856261,-92.05663302990301,0.7023008761076279,-0.6016661364542868,0.614512736345617,-0.44714509018479326,0.06158291603535668,0.14991841945119028,nm,0.0
83.7708535194397,-17.21385226541021,9.599647209623411,-90.42019413617646,0.7290026261551584,-0.3478505758871531,0.4762329720864979,-0.371963913732871,0.04618109135678029,0.23282925819955883,nm,0.0
83.77584624290466,-17.483821062492026,8.148387290748776,-89.37300955436909,0.9917552166057695,-0.21526103143022648,0.49464174949346484,-0.3029149570485221,0.04585190543277246,0.23378760997592463,nm,0.0
83.78621554374695,-17.86196433191783,7.156689433191207,-88.67843347804809,0.8311264066230185,-0.08980357056221343,0.21619839781624495,-0.21191430353957258,0.06442738278189981,0.1742300045771398,nm,0.0
83.80874419212341,-17.421160788762826,6.30551687610783,-88.52531940764032,1.0585140227165992,-0.33562749479230775,0.9498380062749437,-0.05849892653807904,-0.07479728459046994,-0.03566785912743895,nm,0.0
83.81714677810669,-16.90520244603549,6.721403614333513,-89.11743141938791,0.7396674927249254,-0.1281537316114219,0.5299143161246355,0.07317191385299844,-0.10828472224154602,-0.13264040624603107,nm,0.0
83.82451677322388,-16.41925972985135,7.514784694265356,-89.89103078886717,0.7384579192694972,0.03131137783646887,0.8273124741627959,0.1474130469996172,-0.10233683689702089,-0.1695141544876973,nm,0.0
83.83647394180298,-16.36247834125258,8.61432833821203,-90.70964500754668,0.47100533678297635,0.21632979630029803,0.7605971860123133,0.2077230676930059,-0.019456773786257583,-0.15629647325090065,nm,0.0
83.85919141769409,-16.614425276859144,12.321126560076104,-92.0519055161302,0.3188972370697397,0.06499669037285012,0.38483362461617876,0.4239287742335804,0.018547336404519454,-0.11314624782795014,nm,0.0
83.86519122123718,-16.96865843878807,14.771470000283548,-92.6832470825621,0.3471149243607387,0.01634146249948913,0.3185491235505709,0.48048574904851943,0.042281145442504886,-0.10596167705674103,nm,0.0
83.87177729606628,-17.449912947340998,17.088133349946435,-93.38765630640148,0.30848179561296024,-0.14429649789039514,0.048552545965461526,0.4554487272004708,0.06204115530058916,-0.1180749855837182,nm,0.0
83.88162899017334,-18.112493473157727,19.3529897405758,-94.424031338304,0.3092934999384757,-0.14439148030059057,-0.01611050623719762,0.4482399354902995,0.08923534427160063,-0.1696225903462031,nm,0.0
83.90776681900024,-19.941603978290964,22.871005153159384,-97.59849514060589,0.21153190132427882,0.019810314696422155,-0.2503718726889189,0.30658299097300384,0.1412628994797122,-0.2573408285398829,nm,0.0
83.90941977500916,-21.117137217360508,24.139758716723225,-99.48508646264892,0.0256993334891561,0.1117482306245565,-0.37547351836745485,0.27017938999018526,0.17106571016542044,-0.265713859610004,nm,0.0
83.91833090782166,-22.172917639457822,25.427318879680147,-101.30869161357487,-0.06357470177921397,0.3105032677196613,-0.3857000928154698,0.27491257173413625,0.13804403710663,-0.2615866809984815,nm,0.0
83.92984080314636,-23.008056376532867,26.580826395059827,-102.78648306936721,-0.04340383937501666,0.4392986563710926,-0.3266488932307498,0.24379074364375597,0.094971485461736,-0.21165600057945524,nm,0.0
83.95265460014343,-24.27352736522574,28.924085030904468,-104.64565726061704,-0.1630652015719738,0.5896751227986107,-0.40410792236159515,0.2507897795890554,0.025852580954127496,-0.10685208687195162,nm,0.0
83.95887494087219,-24.658608149066875,30.045216806307472,-105.24599349101723,-0.140794012040307,0.6331708764529902,-0.42889328509245966,0.22054600092887047,0.0038479438482570947,-0.07661790369511474,nm,0.0
83.98227167129517,-25.303113031623965,31.262703137009698,-105.75272093357219,-0.24625089882292875,0.46958866064131516,-0.5755953777978542,0.08718442396376927,0.019269165619304814,-0.047711403907370636,nm,0.0
83.98461246490479,-25.59464341198614,31.335180937169824,-105.86429588684251,-0.2840026342287855,0.47535727058512156,-0.6234973066433245,0.013780575011622038,0.04119837772981223,-0.02900394001602983,nm,0.0
83.99450945854187,-25.801265928281413,30.928636100573986,-105.92831015699426,-0.3516197681577306,0.38955823246782756,-0.6576865416387582,-0.08229885985401772,0.053476124402463715,0.01408372699249294,nm,0.0
84.01898884773254,-25.645092765079752,29.322583266350634,-104.86031249413271,-0.2538238267319925,0.3739597107885998,-0.5276123124287984,-0.19253976107838439,0.01661830363113382,0.128144523782308,nm,0.0
84.03196835517883,-24.70172637401696,27.073533131599948,-102.26602536868445,-0.04018315939123606,0.31254046781372496,-0.3987893542694225,-0.2671688952374654,-0.048583272601038056,0.24754105871143695,nm,0.0
84.04737973213196,-24.03256050196459,25.817575584084196,-100.54074821997817,0.06948365423399377,0.2854196490568371,-0.3861249601833598,-0.2836604223700287,-0.07226620164879971,0.27338373012152045,nm,0.0
84.051429271698,-23.301004725707042,24.393134438749467,-98.7947995980389,0.18640854332163892,0.18684787538421146,-0.3765695397400381,-0.31673691297444356,-0.08764557384836205,0.2781168467509863,nm,0.0
84.07643747329712,-21.882483546204703,20.79142662563386,-95.64064772444338,0.4251102132469926,-0.21672206166494606,-0.3427950585182691,-0.41108865642138775,-0.08922709198691649,0.24794393145876484,nm,0.0
84.07965660095215,-21.30235122366228,18.586072406181902,-94.27137555469277,0.6901068901971229,-0.4876347455397226,-0.10722585563901857,-0.46228523055059095,-0.07671100766108344,0.23207078725175875,nm,0.0
84.09593439102173,-21.210511362760634,16.123069750187835,-93.11310964241494,0.6749311531198519,-0.6424782747368083,0.008127515849000457,-0.5060612600831235,0.008300389381045858,0.23863650567436814,nm,0.0
84.11207985877991,-20.69827820316678,10.961775910820434,-91.33405328298733,1.4392315443304862,-0.7063937855776613,0.8548959395636562,-0.528125158193628,-0.06692273439121157,0.15737275154670766,nm,0.0
84.11813974380493,-20.75206240330295,8.584168107644746,-90.93323920201152,1.1928189605780601,-0.3218270133743483,0.49611198378274973,-0.488288706433181,0.013183840333059227,0.08853780113884667,nm,0.0
84.1272349357605,-20.318300469096346,6.498499256432246,-91.04710372934545,1.1440811446509978,0.0527745508095952,0.5844867234094894,-0.43160728029100487,-0.08572269363414836,-0.024730184194156464,nm,0.0
84.13683414459229,-19.220048163901865,4.963099715657981,-91.65944325585983,1.2225706822081566,0.378322449705642,0.9075866551873923,-0.3250880468478383,-0.21843190292331685,-0.14621061626870874,nm,0.0
84.14846396446228,-17.8816077476841,4.321409648740844,-92.66599517974049,0.8356617609518677,0.5817213955386259,0.9699822228684363,-0.1508808335069492,-0.26893746331038126,-0.24721169221476572,nm,0.0
84.15616130828857,-16.22706086672216,4.760903767404558,-93.9297620077798,0.6288251074805703,0.4898190223417252,1.1317493854868848,0.05638150893520381,-0.34111895612473486,-0.30079367353226005,nm,0.0
84.1665210723877,-14.685657773738285,6.2692078934547375,-95.19945017132217,0.2501482997280081,0.2812325065352326,0.8917002509288043,0.2639974352247524,-0.3361151572834727,-0.3027048452263159,nm,0.0
84.17517161369324,-13.216142393884972,8.487036919393319,-96.27928843771943,0.37404219800239946,0.007889609444556422,1.0390089264529534,0.39994004922763693,-0.3402228873672543,-0.26741052447005437,nm,0.0
84.18439531326294,-12.724588079156222,10.866230759798027,-97.26829635847142,0.1786663600596839,-0.2971874257623531,0.7725224611746123,0.44863916656866654,-0.15799214532314879,-0.20789166748029295,nm,0.0
84.1933045387268,-12.960667103577714,13.220757961159054,-98.29363180550008,-0.2343306554841543,-0.4002917571795051,0.20249661118504772,0.46036056301025546,-0.02337886361859002,-0.17486547429583835,nm,0.0
84.21835923194885,-14.453648186293282,17.196913156312686,-100.91539892745483,-0.04774267111946878,-0.15617530767012366,-0.12054061329867057,0.3686750181394578,0.15243787600454467,-0.21350818045299302,nm,0.0
84.22517681121826,-16.020518888865634,18.48312515408599,-102.7704748677989,-0.07801292972103205,0.04053944127743561,-0.30484155669605206,0.3002564465754736,0.23542623323952133,-0.2491718957913363,nm,0.0
84.23207545280457,-17.631485662061635,19.589077496876673,-104.82899778488397,0.1139226188867988,0.2026057683002744,-0.2525589296338443,0.2744924383725292,0.23982400702386372,-0.2841949174586562,nm,0.0
84.25934863090515,-20.93012794255152,21.441057908151514,-108.41849419509677,-0.027831714447235825,0.4493936140095401,-0.49678474710918663,0.2432044167619343,0.20338015987090308,-0.1956969994725839,nm,0.0
84.2634482383728,-21.92057111089754,22.569924092206136,-109.43999159842383,0.05017738901455518,0.40460782915785176,-0.5189480462481428,0.2596255592518761,0.09824582394819754,-0.1180232884221848,nm,0.0
84.28335523605347,-22.453800525035174,25.10819670477338,-109.6869974934109,-0.021509698776891444,0.43247999868873416,-0.7650793264816922,0.2136290674654007,-0.09677801911711653,0.020464044617888387,nm,0.0
84.28955411911011,-21.96113271567397,26.051433505905,-109.26467905955757,-0.04613196554573611,0.38859039944572465,-0.8215561340343432,0.13455931674379693,-0.14887555642867953,0.03831890751765008,nm,0.0
84.2983717918396,-21.214758707608475,26.52335040028035,-108.79387263158264,-0.15395665141961243,0.4010683295234206,-0.8402508200703356,0.03185740340500192,-0.15951535968308442,0.02423439633155609,nm,0.0
84.30954027175903,-20.24864911834486,26.374417398174575,-108.36868226125088,-0.19000747836356952,0.32219346062030635,-0.7309112869042999,-0.09719198711382165,-0.15673009052586576,-0.005042549519175309,nm,0.0
84.31877970695496,-19.305357244430354,25.643393800652255,-107.98584884621896,-0.285209932723819,0.28359517986114285,-0.6230390213116189,-0.20572422571793045,-0.11773849025314785,-0.01029000775184768,nm,0.0
84.33491826057434,-18.378734051972472,24.49892829408656,-107.57093260810416,-0.3657754204835356,0.29854706953777255,-0.5021033496435716,-0.28324486060419285,-0.09215139170178084,0.011902615764996523,nm,0.0
84.35263442993164,-16.652806823873426,21.519889063456986,-105.64264553081662,-0.3155093068391434,0.2717105965205055,-0.2738906435962074,-0.3551833633935766,-0.05847710036410976,0.1688576232893889,nm,0.0
84.35836863517761,-15.931705148061795,19.933271839157452,-104.05730743494514,-0.17948506586646074,0.2119308697433807,-0.25300236659929765,-0.3551850443711151,-0.05230564675367329,0.2621283160157032,nm,0.0
84.36454224586487,-15.367437487699338,18.314361081515322,-102.30137365231259,0.033200654275101965,0.07595352423569093,-0.24557117997270547,-0.353384139249482,-0.03337385843052991,0.3331855098911098,nm,0.0
84.39488863945007,-14.922995543770012,14.611451487775028,-98.7757454092235,0.5048158879875249,-0.36563830655969587,-0.15121926652968726,-0.40443219827104926,0.03863439974703347,0.34267810174198704,nm,0.0
84.39716601371765,-15.375938873732375,12.328409499306979,-97.36476867707914,0.73915680798894,-0.6428317367023844,0.09490817784822969,-0.4533084708187244,0.14630977611679757,0.3001985488972762,nm,0.0
84.40327978134155,-16.14551176415933,9.688204002407367,-96.46128850798367,0.5675767481783189,-0.8022603688615502,0.0386659860811922,-0.5194187650820232,0.20872974642956688,0.23033773424736695,nm,0.0
84.4141731262207,-16.3971021018923,6.80524139179119,-96.05360921317632,1.411330446572927,-1.0549307344212189,0.9836766026419855,-0.581145873181658,0.10794315905852891,0.13803159732429915,nm,0.0
84.4377052783966,-17.44599132560313,1.2363815057439995,-96.36704351951802,1.1117070555311126,-0.26555466644625947,0.4498727641299793,-0.5442533395886586,0.12012308131966491,-0.024269278635857164,nm,0.0
84.44073176383972,-16.702003422247117,-0.9613060741941108,-96.82454416511315,1.364307319873324,0.17389374794754683,0.9612615684907926,-0.46742503658081797,-0.10306060997816407,-0.07780011595363548,nm,0.0
84.45094156265259,-15.58443366138811,-1.9753769624592366,-97.44927236131227,1.029157670600163,0.6040556474341537,1.0441839163792401,-0.2423578921531128,-0.20261971199513437,-0.1267021095981096,nm,0.0
84.47474980354309,-12.250754498721285,0.08800205725113402,-98.51801054173882,0.5141256019128829,0.5675314423423065,1.3210506926695502,0.26140555753980443,-0.3977404494263035,-0.1051911884065889,nm,0.0
84.47976517677307,-10.73764298986998,2.6671862102771025,-98.8133013483243,0.16002690310046716,0.19522667323372472,1.0386282083729954,0.4518366743435454,-0.3826047927976585,-0.06955389607993895,nm,0.0
84.49063038825989,-9.583305339636357,5.735548096719414,-98.9487251253083,0.3402797301224451,-0.2643518522157223,1.3145180613008962,0.5584526510492175,-0.32774486906397937,-0.04783369683657842,nm,0.0
