timestamp,roll,pitch,yaw,acc_x,acc_y,acc_z,gyro_x,gyro_y,gyro_z,markers,motor_input
82.5052101612091,-16.917168592999584,16.064563864127745,-97.10811934284939,0.06428454488212759,-0.07501392700554843,0.23087052427957358,0.22920983941944367,0.14918357397484241,-0.10751652641568779,nm,0.0
82.51007032394409,-18.267937587766603,17.11339825836292,-98.25291497175988,0.14166052304413806,-0.011263906703637324,0.2096869300412179,0.2299317685283447,0.22358258585451823,-0.12134132286976411,nm,0.0
82.53738188743591,-21.61772385783198,19.231503971585738,-100.3255683372985,0.1310620780851265,0.11093614544918191,0.0004975958381586682,0.25333044730866644,0.25999356966066944,-0.0669432648992018,nm,0.0
82.53898310661316,-23.30692450613101,20.480037960667786,-100.9515997443637,0.08802953841996324,0.1553514485425779,-0.17705565447811392,0.2911468862863611,0.261866859632838,0.004699285865528939,nm,0.0
82.54859447479248,-24.77702046173532,21.897451466452075,-101.27094594681787,0.057597410578472306,0.20942435393032968,-0.3326597955694282,0.31813351131119494,0.20982962991647855,0.06889494890785738,nm,0.0
82.55781483650208,-25.886103498608342,23.36163934658251,-101.2821497109271,0.159793787835168,0.21578378095864026,-0.4104936452253517,0.3142730562120015,0.13886233599290435,0.11088136433878773,nm,0.0
82.58070850372314,-27.34311282996212,25.773151293594534,-100.93048457208282,0.07133577327399326,0.35244056004434465,-0.6213597632813075,0.21520633928106736,0.05399963053853897,0.10473655240309032,nm,0.0
82.58716940879822,-27.70628791567881,26.42679105886589,-100.78312442078635,0.04772917304439367,0.36085831459194556,-0.6019575341117612,0.12739257894556952,0.03485631338629563,0.07054516966028546,nm,0.0
82.59799361228943,-27.945232754211617,26.657554878908467,-100.77942908453949,-0.07148468296690515,0.38621415270122866,-0.586061688286468,0.03996152504178572,0.028781870209878175,0.04104097856335277,nm,0.0
82.6236937046051,-27.976827386136062,26.5554937178207,-100.73940606278252,-0.09489056446097113,0.37099533599591894,-0.4747519206379203,0.0,0.0,0.0,nm,0.0
82.64224410057068,-27.88155212923552,26.232839200467442,-100.4897400424073,-0.15462312920452537,0.3891007497340512,-0.3934709193935162,-0.08010327907098559,-0.009545373032058923,0.03899660419952268,nm,0.0
82.6453766822815,-27.194599675655613,25.340146588176097,-99.14366568094955,-0.13160875353521162,0.41203675472599954,-0.23807182425916737,-0.11695043792456256,-0.06463718202919617,0.1266871887785211,nm,0.0
82.64708495140076,-26.71799761164053,24.856434805679736,-98.07245599193655,-0.07024070623652874,0.4370391778520104,-0.2271722046703468,-0.12196315992542751,-0.07610827972404766,0.17142117431424148,nm,0.0
82.6602029800415,-26.20011212898408,24.293905654979156,-96.80642100394226,0.038923814520875746,0.4165122441683661,-0.2167355859683821,-0.13698918298770996,-0.08444982846888122,0.1900017527494419,nm,0.0
82.66882252693176,-25.712973071394234,23.581519053498532,-95.69831679161307,0.1461688325915414,0.3627517211747634,-0.24583475337297944,-0.1645518535277294,-0.07875714947096696,0.17966537238898972,nm,0.0
82.677561044693,-25.285725218569144,22.65001751835651,-94.7920779863672,0.24202937205858593,0.26529013165801624,-0.27867249576983094,-0.20588788183284715,-0.06718438154465002,0.14526743796136068,nm,0.0
82.69758605957031,-24.491095284361865,20.011889996292137,-93.68297525011438,0.46843666689635033,-0.052784949232862415,-0.23650367259895616,-0.3059801647304364,-0.06040561940606357,0.05908003313218361,nm,0.0
82.70520520210266,-24.066876547317207,18.403402389737177,-93.37931700090893,0.6408771271572173,-0.2256158517337654,-0.09590106151316445,-0.3392168537132541,-0.06652291674695883,0.03053255638462672,nm,0.0
82.71537065505981,-23.84471322339272,16.721577720309345,-93.15773654066706,0.7138912866002972,-0.353794634459617,0.06774899629657193,-0.35142096752774077,-0.0295384494416312,0.02878504160002135,nm,0.0
82.72276830673218,-23.618914573770272,15.074682445768492,-93.0253058370369,0.5265461736025918,-0.3969954478225958,0.058043520126248596,-0.3444226610819481,-0.03192961004301505,0.02450071740140419,nm,0.0
82.74350380897522,-22.188369533130345,12.169352987491816,-92.74884375569329,0.9385473438266874,-0.4603398971911208,0.5101710655566308,-0.292875838400537,-0.12410787577077578,-0.0091030991419218,nm,0.0
82.74870753288269,-21.416444701770562,11.082225011798048,-92.78934785488009,0.7872990012335126,-0.35529902337576746,0.5069199099632521,-0.2374718835528309,-0.1472611837531969,-0.0412201013155998,nm,0.0
82.75938010215759,-20.389240975695824,10.40428314047742,-93.03417204180684,0.8527234315190514,-0.23514197853475785,0.7922418270996223,-0.1585801651195847,-0.20140890665368008,-0.08945101063367764,nm,0.0
82.7850444316864,-18.435136077907096,10.423546570744998,-94.03544529264931,0.20696351874886232,0.043223764110020504,0.6310694210189629,0.02351090679197165,-0.21752380573491378,-0.15056343143019196,nm,0.0
82.79426836967468,-17.12082462294705,11.207656291407076,-94.5854459586237,0.6578900231902125,-0.06060412254634529,1.1483455495886892,0.12429528418668381,-0.27555076314541194,-0.16237575992338601,nm,0.0
82.81029725074768,-17.236606958492942,14.063660857562075,-95.6070454934904,-0.20473442249801935,-0.0826208527818127,0.40808667775782,0.3090238994437972,0.0076005204946090615,-0.08492986894020971,nm,0.0
82.81525659561157,-17.513346428819567,15.852671265190729,-96.08207447008628,0.23341150029054392,-0.28943095194389906,0.6927068295915825,0.34886318038224573,0.011032317791801414,-0.06247464506042409,nm,0.0
82.8248507976532,-18.83888658260297,17.677687109545023,-96.64843070752089,-0.10938850254958524,-0.17452085891149705,0.15001159297189207,0.37855097393863396,0.20635427522958294,-0.012814371297798704,nm,0.0
82.84795069694519,-22.073731582619093,20.970862321032005,-98.13461708546242,0.2686248377779436,-0.10161541846909326,0.061741364834091435,0.34309137035542103,0.28624776733196333,-0.018707694275496473,nm,0.0
82.85398292541504,-24.288339428590483,22.358927345286226,-99.1256323162148,0.06331813569189138,0.14959683927885908,-0.2572810037079112,0.3236996098567343,0.3605320657521054,-0.010614688057842039,nm,0.0
82.87615251541138,-28.188993308209334,24.783959390918117,-101.07783786292602,0.20763738283972769,0.32705293964465704,-0.4283476702167822,0.2853536402933435,0.30100582327526876,0.0014020888392486215,nm,0.0
82.88173198699951,-29.81298433455453,25.991435322192284,-101.63969418059966,0.04064214661222193,0.48647469510009,-0.6100620668412263,0.28135744012367586,0.2358260482712654,0.02484277092704411,nm,0.0
82.89441657066345,-30.83544897367167,27.22832909475196,-102.00509126417234,0.18341797315560046,0.48902759745681323,-0.5917053254998068,0.26647323207177087,0.12363730279228946,0.035808277338255624,nm,0.0
82.91387224197388,-31.80239899361038,29.44849778948955,-101.9287551897664,0.03824768491107342,0.644547020178425,-0.703735284356905,0.1972062086934245,-0.005957752997930337,0.04923443705370329,nm,0.0
82.91972160339355,-31.70747470104603,30.199509620815874,-101.75581245184597,0.06400811907029341,0.6455838884185892,-0.6542346262808311,0.1302888576227706,-0.05159065628193372,0.022898155137635916,nm,0.0
82.92913842201233,-31.46643248998518,30.572880752845403,-101.5768167277965,-0.055029832589371025,0.6725519615244919,-0.6278177155308612,0.051339955051192585,-0.06044554185052891,-0.004691144530012667,nm,0.0
82.95302891731262,-30.46616626419243,30.259837762927823,-101.44758060796273,-0.10316125497400715,0.5901943339922212,-0.425469161881932,-0.09204752292223511,-0.08288737694307693,-0.06025050251179809,nm,0.0
82.95808219909668,-29.81658030695357,29.743095420351096,-101.24457852364132,-0.1789187752907295,0.574308293820301,-0.3495540745674088,-0.13697475771942558,-0.09477594073786914,-0.05804535712206802,nm,0.0
82.98090696334839,-28.097232568488476,28.47012252104301,-100.45020795979426,-0.19225984585285794,0.5046360622164651,-0.21148711330986622,-0.17076556240703103,-0.13555128292535465,-0.0003063490903777535,nm,0.0
82.9906075000763,-27.121690478800943,27.79791059085633,-99.73856377139204,-0.17723759719470983,0.47268582968201306,-0.18510566737792394,-0.17603502447727967,-0.15073794655534975,0.038887094382680155,nm,0.0
82.99510025978088,-26.12726699795531,27.063151766970066,-98.84818653015046,-0.11975191799107762,0.4402809363956861,-0.21309908037938044,-0.18694843230329536,-0.15558077757227903,0.06931782173232436,nm,0.0
83.005286693573,-25.189467625577713,26.20449444849884,-97.97025572629607,-0.12312410760117448,0.3985580646607571,-0.2340448003955646,-0.20783464281818162,-0.14592719940986215,0.0833647227570675,nm,0.0
83.028000831604,-23.538361843776983,23.86374149988679,-96.50502795116238,-0.010871055443896034,0.24710075479342644,-0.2966027269744918,-0.28688674856148827,-0.11648978531167072,0.06406640020541243,nm,0.0
83.03670525550842,-22.828696848748574,22.33859985404965,-95.94689767710571,0.03239999546527518,0.1196677392543692,-0.2978230369682036,-0.3308118514709101,-0.1022561834974977,0.052944293614437594,nm,0.0
83.06006932258606,-21.47993741455849,18.81191479545163,-94.79363406491274,0.16939977439589682,-0.1951727884871717,-0.2308773596514408,-0.38833929435545467,-0.09934654922067572,0.07558379462245503,nm,0.0
83.0619101524353,-20.822618624092556,16.900424723566147,-93.85115083823247,0.2985910179998744,-0.36857293892303017,-0.10924824969922951,-0.4038026884901715,-0.102677805317077,0.11296931298749936,nm,0.0
83.08479356765747,-19.739007404469138,12.990774547276446,-91.83571577660145,0.6822313113997298,-0.624903052225594,0.32192503735044975,-0.4077809672486677,-0.08380619535570631,0.1778937498011451,nm,0.0
83.09326434135437,-19.491610017021266,11.070271366693909,-90.9666856798033,0.9914876000480004,-0.675603946650927,0.6832255512437474,-0.39815712018663835,-0.045627082438938406,0.1779944209713819,nm,0.0
83.1250216960907,-20.29959690937473,7.793475648752255,-90.3458815237878,0.9443230169472051,-0.36978223789419273,0.774661984184307,-0.31256207768339583,0.08043731245044329,0.06668972871922667,nm,0.0
83.14497065544128,-21.064990661008036,5.960778901081165,-92.6304336710478,0.9676279163793943,0.055236363527871375,0.7904389575813606,-0.01822976511794319,0.026233394558173757,-0.2108971845906885,nm,0.0
83.15359854698181,-20.97505695635868,6.574548435316544,-93.80812294618744,0.996673526396665,0.004006424275286696,0.9076754291816344,0.10886524949382165,-0.031226065493114304,-0.23923439503453475,nm,0.0
83.15748906135559,-21.00281472230446,7.7935299032980465,-94.70915581003372,0.715037935641994,-0.10691422189232325,0.7188127157803232,0.2309114398039927,-0.018428040038007208,-0.22047254806848438,nm,0.0
83.16612839698792,-20.942986754789683,9.552882794149172,-95.45373967257424,0.6156901522946231,-0.22324570228093973,0.6137475152299976,0.3369106698139954,-0.048498320317525476,-0.18517663027335426,nm,0.0
83.19093251228333,-21.061596723753876,13.741446316824211,-96.93638133045565,0.34277938813281894,-0.2629912192927916,0.17347433456167347,0.4102648568157178,-0.031733682036952704,-0.13548849472212388,nm,0.0
83.1959183216095,-21.041289735981227,15.773313834575507,-97.80202068498501,0.26620546989421223,-0.19997315867545054,-0.039778691600455704,0.3897549550931494,-0.061512267863801165,-0.16515868306404302,nm,0.0
83.20528841018677,-20.972813038729406,17.6318372390626,-98.84954868682065,0.4022282954395624,-0.17571070628055707,-0.02746163540339091,0.3530398976676781,-0.0717725517539734,-0.2165010413560518,nm,0.0
83.22953414916992,-21.6916230622522,20.6667697390521,-101.53362484396331,-0.09791986986688532,0.04837800414315612,-0.3610877678272991,0.28054392840443854,0.014991691560955686,-0.25408722344953405,nm,0.0
83.23384237289429,-21.89619637823796,21.99686716054869,-102.78806497863609,-0.11462298090635023,0.10455444493747539,-0.3311108302523225,0.2548385611675935,-0.022613203319008048,-0.23942087617093483,nm,0.0
83.25783967971802,-22.276160939073122,24.551704171415455,-104.2153538882602,-0.4249054686131453,0.2961137509949415,-0.39995004507866927,0.24167532322513086,-0.042941011353872204,-0.09298168900690003,nm,0.0
83.26189756393433,-22.257597196383202,25.84511614469113,-104.31456958077273,-0.37744686631037366,0.3739964791249804,-0.3521999522403128,0.23655592179074794,-0.07032219130285063,-0.025000819057650208,nm,0.0
83.28596878051758,-22.453807020134576,27.88413154088312,-103.87336794835899,-0.3678550811271631,0.5018177552479733,-0.3642903482192036,0.16644557920088768,-0.02285658739616162,0.062227984259583875,nm,0.0
83.29168891906738,-22.788326396572504,28.51121455168229,-103.68910456961854,-0.3260117174303023,0.5307773598750442,-0.35927734828736574,0.12245224314937501,0.024149399030202474,0.06478839534544817,nm,0.0
83.31429147720337,-23.935601101676465,28.7328950453101,-103.66044929711144,-0.2804670208990391,0.5287969016264695,-0.37862706378629285,-0.0006646909021809231,0.10279706246400173,0.06779137098963946,nm,0.0
83.31946206092834,-24.538869544607252,28.44777268260903,-103.59888188072419,-0.24646004610550276,0.5284425257931096,-0.39058677498193317,-0.04397775544297099,0.11309301960607224,0.09028655969092376,nm,0.0
83.32950901985168,-25.008826356737003,28.041934357598713,-103.25314528885308,-0.1921977592134523,0.5534985986475783,-0.3920403953086997,-0.07332167447071908,0.09592838088491412,0.1286047387879615,nm,0.0
83.33803725242615,-25.248771955858395,27.55884751049718,-102.58882460266415,-0.10636668013186147,0.5524846130872564,-0.39988031274784097,-0.09828962007550618,0.05931671761917338,0.17546956672431785,nm,0.0
83.36271595954895,-25.036962201408297,26.44823118286402,-100.46088510387987,0.10294227528900517,0.5211331629479226,-0.43477338760081086,-0.13650849296589326,-0.019191546420717513,0.22715883408047416,nm,0.0
83.37146043777466,-24.664048356321423,25.674592060772895,-99.19923349707803,0.2079411244210757,0.44764694023224516,-0.4583434349329563,-0.17743045456916842,-0.04430912908046379,0.21672214703628054,nm,0.0
83.37537813186646,-24.191710164928143,24.62237668368289,-98.12079758018994,0.29097378322274775,0.3187607168105978,-0.49109260503966046,-0.23446204990614816,-0.05773133829158972,0.1841782157026394,nm,0.0
83.39889621734619,-23.073433340025698,21.5462179629442,-96.49491581299748,0.5735286156686478,-0.10197027004243475,-0.3490619661762936,-0.3648231711105701,-0.06949320954273763,0.10126318538029785,nm,0.0
83.40528345108032,-22.81339436333787,19.561995729675616,-95.91048262661738,0.5540952139902018,-0.3113439263859369,-0.2629134921572278,-0.41332086546726277,-0.011124643116962206,0.09600713892867037,nm,0.0
83.42711400985718,-21.76791425975737,15.205340914325378,-94.90103424229821,1.047541549968861,-0.6746976512640558,0.2582656560488127,-0.46682060357242944,-0.10326216683021519,0.05590887142365347,nm,0.0
83.43361806869507,-21.355231986590272,12.9963211166343,-94.53296565493731,1.1194024227671473,-0.6543426974521364,0.40447834751646183,-0.46034511629548114,-0.04959378616700525,0.051334390284524606,nm,0.0
83.44408512115479,-20.822092382001305,10.928050614240737,-94.37308899134375,1.142161824871964,-0.55757253800456,0.5748990629275941,-0.43390441529015694,-0.07815241178504753,0.007805497458206615,nm,0.0
83.46534514427185,-18.752990629682454,8.070106740859169,-95.15477526106933,1.0600616292905976,-0.06670626033065936,0.7590195286988416,-0.2626718323991082,-0.20729622477050308,-0.15691776866420917,nm,0.0
83.47146558761597,-17.261197625163444,7.507334073172786,-95.98603763581744,0.8028173774261662,0.10169751407974818,0.8484709280509447,-0.1536584358203306,-0.28957294212448953,-0.22706844361984743,nm,0.0
83.48082184791565,-15.513774867701857,7.608003041909635,-96.90906608891375,0.5373387232775847,0.12469168188981093,0.9102498330926528,-0.031653386094203144,-0.35253309350220424,-0.2535777750925962,nm,0.0
83.490163564682,-13.830832380626118,8.383340667320095,-97.63854194081097,0.1990095122257212,0.01294772058589898,0.8085471588463775,0.09911138994600727,-0.35589198179078313,-0.22259231401295473,nm,0.0
