timestamp,roll,pitch,yaw,acc_x,acc_y,acc_z,gyro_x,gyro_y,gyro_z,markers,motor_input
47.50487470626831,14.474031684723803,-21.143884631610778,52.49559173187648,0.22230596132361766,-0.4671551741214879,-0.04073972140440682,0.38005213720499786,0.17458202913660112,0.12915205661082485,nm,0.0
47.5283625125885,17.22169798999838,-22.606901324868666,52.31736966704999,0.026716536060838736,-0.14933743025819624,-0.18358207249634925,0.2582162760794661,0.08632405019889078,0.0443344096023047,nm,0.0
47.533742904663086,18.13471761462629,-23.26191892799619,51.927376606866396,0.008839451519862934,0.05486346460412134,-0.27918508258886193,0.22034229736730757,0.05475212334688738,-0.02535704042080337,nm,0.0
47.5474534034729,18.733448582760314,-23.788431290645793,51.41373997641191,-0.061028171433576486,0.0690607851336786,-0.2855081160840406,0.1643337194848163,0.023227171468013636,-0.0791504779371841,nm,0.0
47.553828954696655,18.69391360214712,-24.290704404942815,50.90885472525261,-0.035859069756584816,0.09338293450704062,-0.4385545790525625,0.08740066353457941,-0.06646828437866253,-0.13281952574013192,nm,0.0
47.581559896469116,16.450421938108907,-25.34813405391006,51.71599593112225,-0.2734897322145846,0.04585391725727058,-0.4545115933647677,-0.10124749730199492,-0.20775951793436187,0.0005268933874659034,nm,0.0
47.59100317955017,14.820737839477824,-25.38050878760083,52.840971251197274,-0.26702962830691035,0.09046291841370316,-0.4750791550957706,-0.16118345702992268,-0.23529144601812793,0.04999508809871461,nm,0.0
47.615671157836914,11.354853432158878,-24.80484699086511,55.39178202950241,-0.3458988982122374,0.24294176036503454,-0.34637809001239905,-0.2377742060541822,-0.22200714713420547,0.06988572900054053,nm,0.0
47.62093949317932,9.77633962109182,-24.367479275557436,56.416604913800434,-0.28913770589919524,0.30979850444766643,-0.29777557856229725,-0.2195713641264843,-0.18683665287680903,0.050571191702057774,nm,0.0
47.63009548187256,8.476022604278397,-23.91983346924992,57.18258181490824,-0.2744550077964556,0.3288351925634911,-0.1564308321335412,-0.19105760249439419,-0.14759084333724157,0.027425674174628056,nm,0.0
47.638158082962036,7.322122015211417,-23.480391706751956,57.695088078726556,-0.16359531432472918,0.31714921764162135,-0.22663362840751472,-0.17405664415940258,-0.12870966591976354,0.0067858175784558305,nm,0.0
47.64800810813904,6.409050786267452,-23.10061810239949,58.182524334696716,-0.12580752183516292,0.22943318589601067,-0.1872116726809451,-0.1395987906058787,-0.09971575573798518,0.022445438780170204,nm,0.0
47.660985469818115,5.598802964845937,-22.737824129958724,58.78241716225339,-0.07995715719047695,0.1288693636428727,-0.16409275352192146,-0.1260445999023245,-0.087139991376273,0.05415291957665009,nm,0.0
47.683491706848145,4.13604898523609,-21.738643263920157,60.303517798031834,-0.08544633035649316,-0.13107110949149278,-0.20059058899131593,-0.1464264848498081,-0.05386958115183175,0.13453524093519487,nm,0.0
47.68824124336243,3.474483089905616,-21.08858369286724,61.12500946916997,-0.05617597884294042,-0.17265505227258884,-0.210841494519724,-0.1599356799960993,-0.041123251099138024,0.14368790851908744,nm,0.0
47.69550943374634,2.91350268486548,-20.31347082120519,61.88001234233264,-0.0271663392125248,-0.1591232460099277,-0.20755299185612358,-0.17259506065656524,-0.015499783140324847,0.12888222064767269,nm,0.0
47.70635771751404,2.4739566765323007,-19.466071772634173,62.40040258167692,0.02829123272983935,-0.10342310707011068,-0.24337183258713474,-0.1747463677322047,0.008981179556457082,0.09378920123140173,nm,0.0
47.714483976364136,2.183242659041567,-18.657899467593438,62.65123600923084,0.02750446487530782,-0.03739147360987229,-0.08493668951224671,-0.15500410568659667,0.028719469374478616,0.056216725661502716,nm,0.0
47.741865158081055,1.4776343900170736,-17.25166718832603,62.61251125838991,0.21415864657538194,0.05744350194584034,-0.09361211308098866,-0.13562673954309407,0.0030450026388309393,0.002618761373634171,nm,0.0
47.743457078933716,1.1391386873998124,-16.71628623385572,62.68956395072552,0.21105542833101212,0.03063985233615329,-0.00414752964977717,-0.11107218641196566,-0.005730059121682961,0.012014005550770162,nm,0.0
47.76602864265442,-0.26035952346169816,-15.946606074544167,63.24482286564824,0.16876653398051897,-0.08534888085454162,0.0008263226257309689,-0.10346191816238508,-0.053375585495986734,0.035935363403480955,nm,0.0
47.77462887763977,-1.0241408206545506,-15.444709796052068,63.556652830990934,0.08135980857730386,-0.18098615148873107,0.03069536265534911,-0.10332603482764227,-0.06667037873818378,0.03640163042047202,nm,0.0
47.79688024520874,-2.5503575426953757,-14.323069097343339,63.83193210919954,0.008395737070335387,-0.18751676412045004,0.04202891016086416,-0.11535395255942735,-0.07520594436505366,-0.009783048836701494,nm,0.0
47.80252695083618,-3.2586203602975026,-13.754037240708023,63.751465107708974,0.014035415866132571,-0.1317178535133752,0.05138784897429134,-0.12126225982418433,-0.06786678527658406,-0.03992330003424469,nm,0.0
47.82552170753479,-4.515458594949509,-12.882516377897934,63.39802035541243,0.08793373982796718,0.026238832362191274,0.13584329450799476,-0.1116154585484675,-0.06190154364864677,-0.059953356972274684,nm,0.0
47.83068490028381,-5.119531385927127,-12.495725496773613,63.28825430268929,0.0821230311511482,0.04723340328150089,0.1439374531168089,-0.10805047792282094,-0.06871785359136429,-0.043268967035081755,nm,0.0
47.838255167007446,-5.772284985804206,-12.188281940985192,63.29537431297691,0.02845296783739607,0.02057187120105792,0.17082441153513986,-0.0982689696024398,-0.08443683680587402,-0.017422778384766642,nm,0.0
47.84933257102966,-6.471164315393922,-11.942065350159208,63.39138339117886,-0.06448194470255258,-0.016326418145504177,0.20557112621886284,-0.09135412544147359,-0.09824198330575709,0.004171040961005885,nm,0.0
47.86101174354553,-7.213568929114993,-11.68792439210601,63.515857292809734,-0.17986306305365363,-0.07528506695547203,0.18190202840694017,-0.09643985031414319,-0.10549731981098623,0.009965727665211352,nm,0.0
47.87269425392151,-7.967851312649437,-11.421772591116506,63.57104617139746,-0.2721179032103855,-0.10245250993160257,0.11511857346286224,-0.09951602335498506,-0.10683506981631308,-0.000860766835032337,nm,0.0
47.89041614532471,-9.275076814234337,-10.887251675254388,63.31304995566255,-0.2739240968623247,0.03898037496816971,0.05398832251934902,-0.0896962470814541,-0.07791999097828728,-0.03593258800186364,nm,0.0
47.89623975753784,-9.729553989620376,-10.59835996634793,63.151716595317595,-0.2341739311744545,0.11808458207228403,0.0021599096074884448,-0.07768256510408973,-0.052139608958890624,-0.03329079147454384,nm,0.0
47.91945552825928,-10.368685938984793,-10.100375070084297,63.087503562921555,-0.07736819487443501,0.2346549872900541,0.047622695426590485,-0.05491362568413859,-0.022818612280598612,0.03952188614504306,nm,0.0
47.924187898635864,-10.248033428498227,-9.954506260225443,63.36630870290333,-0.08340822098337465,0.17312431923462213,0.056046488768640615,-0.03699405013314467,0.018466257456613202,0.10140321380664352,nm,0.0
47.93353843688965,-10.1151124198989,-9.702642143147564,63.888375348317055,-0.12741546742053944,0.07246864741872575,0.10407080520865086,-0.019194647370626657,0.04766324134714097,0.1492992626604988,nm,0.0
47.94273114204407,-9.78498862679074,-9.334497720915861,64.42851758061484,-0.10437361817610397,-0.0530052753563713,0.05527541341037746,-0.012236336731034348,0.07091022150766538,0.16459001902103493,nm,0.0
47.952505111694336,-9.330698627023038,-9.008318329219561,64.84326648712624,-0.1339523636306632,-0.14882614637710936,0.08258876053934412,-0.0061032040104429305,0.11113588518808593,0.149339990968393,nm,0.0
47.964191198349,-8.863039236209154,-8.639985901510341,65.04593660324002,-0.11613593464031487,-0.17877616143467326,0.1616793623623142,-0.013210246918664308,0.11714833994715304,0.103944123138437,nm,0.0
47.984480142593384,-7.988845348185209,-7.815900880613976,64.99993688030303,0.09704541157096203,-0.07756189033189886,0.21332094385055206,-0.022603485368903733,0.12173116156821993,0.024148553391003885,nm,0.0
47.992488622665405,-7.719655718956395,-7.453817994436955,64.85401879623436,0.18859450953791268,-0.009966632102546046,0.23563987784360765,-0.02880826212822347,0.0811754849864373,0.011528384977677183,nm,0.0
48.015629529953,-7.707730152718021,-6.962529981062812,64.91927500066136,0.19480790873863277,-0.012763663446311517,0.29234406231531535,-0.03033283434622101,0.009519689724391817,0.047874651525768766,nm,0.0
48.01999258995056,-8.01474288533508,-6.78485980750724,65.15079475911303,0.14077070043889087,-0.09799903114936247,0.25021850971308074,-0.043966103622298615,-0.038225982320652475,0.06115924289901742,nm,0.0
48.03073000907898,-8.448862540203049,-6.6137623015303015,65.4233762020386,0.060142853795040634,-0.14002338774499473,0.2489095886612926,-0.05316528283705384,-0.061989127578960905,0.05803492169148199,nm,0.0
48.04058814048767,-8.965499103748332,-6.405992223207345,65.5683901426757,-0.04858126582389387,-0.1585959637887842,0.2615831332878408,-0.0664332113800974,-0.07413996758324978,0.03156367920200845,nm,0.0
48.063246726989746,-10.192309861357911,-6.010877816481374,65.27726637176002,-0.10477361948960705,-0.049425353388749885,0.19892927467060353,-0.06949748218618076,-0.09537911898328166,-0.04877953737501557,nm,0.0
48.06658625602722,-10.849797691036764,-5.8877343018097665,64.90728234771117,-0.09159641510330596,0.06287515565246161,0.16835248417033652,-0.06340683833305423,-0.1065078437619743,-0.07154051309310384,nm,0.0
48.07596230506897,-11.496170064111205,-5.824576608903928,64.51358723955539,-0.05260305201288996,0.1422423852460022,0.10535624864684828,-0.052345251439616367,-0.10924456901976225,-0.06625283167247699,nm,0.0
48.09612846374512,-12.41246660950419,-5.896675340003351,64.32318348626696,-0.08638519200696872,0.1779141982052802,0.03759598685141813,-0.008544286114414757,-0.07345647533651188,0.01155896841829125,nm,0.0
48.11262083053589,-12.605623930116678,-5.970907330040639,64.49122088128178,-0.125525963538903,0.0635215975761408,-0.03128177517041734,0.011013159260174403,-0.03947329062797346,0.049360549077241744,nm,0.0
48.11713099479675,-12.396578115495043,-5.913775968887799,64.633463878008,-0.1815765838112995,-0.05414733663678151,-0.011223430891067707,0.03402259656630516,0.0038778833717637443,0.0672698414211513,nm,0.0
48.12581467628479,-12.060545131652253,-5.722711486662776,64.67845521357367,-0.18912938122257986,-0.17778678413753637,0.018370864279950633,0.04656495998667606,0.03825080253613005,0.05616996338958744,nm,0.0
48.14873242378235,-11.238120876433575,-5.33193491417521,64.15471913942969,-0.09040527237153118,-0.2652260492768017,0.0997190054973111,0.03532554486958214,0.08419401491710687,-0.011980042685840912,nm,0.0
48.157692670822144,-10.877720283087026,-5.161641844528284,63.679362162109896,0.021558418183214204,-0.20764922009049722,0.15712961227076064,0.01537879469506046,0.08101426467247988,-0.03523778672980625,nm,0.0
48.1751823425293,-10.517069856610005,-4.572112730602083,63.10464423681274,0.20548337786670698,-0.027766455591277675,0.041922070687207824,-0.03413722393094882,0.04991041967080117,-0.009181527406072634,nm,0.0
48.18411111831665,-10.689208834933396,-4.373230864074235,63.15773276872147,0.19753705801054525,0.027426667608525964,0.012693317901540572,-0.04285516246887518,0.03153460894014446,0.02663635444772343,nm,0.0
48.19099164009094,-10.823397026899253,-4.158873609352014,63.341368714920314,0.13247225932922538,0.03998514582779378,-0.04128369735447708,-0.045468760483378216,0.027290746398215937,0.05353071749219451,nm,0.0
48.19938945770264,-10.797961783468917,-3.8099881686908947,63.532947587850884,-0.044433398224524995,-0.03601136511496732,0.7814436359109089,-0.04598414932595813,0.03724036423913569,0.05778090655181928,nm,0.0
48.22537636756897,-9.650686811814936,-3.295302848501774,63.50198772840188,0.03010809358502715,-0.18977897077536196,0.010006195868432403,0.05568351082379281,0.1585667938768244,0.014973349664872166,nm,0.0
48.232046365737915,-8.771056726610638,-3.580755464145755,63.18566644254477,0.019957831219275086,-0.23827627160442444,-0.07414373626180651,0.14423781531931115,0.13270266792779303,-0.026901811517345355,nm,0.0
48.25849962234497,-7.421520485558942,-4.2763980480046415,62.09772514015508,0.011807488851096632,-0.21179488050759776,0.3820254857481178,0.10481094807560146,0.08572303681550011,-0.09496220760209553,nm,0.0
48.260072231292725,-7.2108806400931735,-4.237976869394351,61.55231016588231,0.13998346644442103,-0.17338263451628783,-0.12005098106109655,0.027204138519407593,0.041766936200685195,-0.08993644017235441,nm,0.0
48.28140163421631,-7.284854242388065,-4.000448336240423,61.25178442811533,0.18869496233318117,0.16468282448673474,-0.20734588384331284,0.0,0.0,0.0,nm,0.0
48.28707456588745,-7.567875536154818,-3.881901143029748,61.42003445699491,0.08662418502734599,0.16806606654045925,-0.28980541224242856,-0.03386354452436927,-0.03719224823338831,0.03914440543674361,nm,0.0
48.30838704109192,-8.716892006153644,-4.146058320228589,61.94897878946399,-0.2918681144443386,0.05405770049016339,0.35332623259832846,-0.02146621301053888,-0.13125544660437785,0.03636848135501301,nm,0.0
48.33021402359009,-9.973183784462789,-4.340831804807456,61.949411900865655,-0.4105650211094831,-0.2339078698546587,0.09789211932068394,-0.010017179059255744,-0.09670423085835068,-0.02289559552778978,nm,0.0
48.33430814743042,-10.235003768843349,-4.4773536214653,61.82723538770163,-0.36573996179309576,-0.18816504104388948,-0.03345205504544687,0.013703824448720288,-0.05796277038705958,-0.030843378614255918,nm,0.0
48.35582232475281,-10.18760680076944,-4.264966376240702,61.67707696597733,-0.18570984160696516,-0.09693337186584665,0.049283011784282925,0.0,0.0,0.0,nm,0.0
48.36489200592041,-9.956523374018083,-4.006123603989738,61.64512055699223,-0.027112769594616518,0.019573616261201084,-0.062091449632907525,-0.009465880676849303,0.06620660990840126,0.008427983194950077,nm,0.0
48.373178005218506,-9.730849409252254,-3.8513147390279943,61.638395568805805,0.09970047381071104,0.08960992482364828,-0.08503910149324781,-0.013272582102091184,0.07940931141409685,0.015704614580594908,nm,0.0
48.38064193725586,-9.490532545959011,-3.81529554603427,61.65199488283878,0.1302473348685217,0.11075087111244476,-0.011781635681692295,0.0059662483021379305,0.07564855879591355,0.014382186592240151,nm,0.0
48.391406297683716,-9.272432001397219,-3.8031197474595433,61.601908871937255,0.17688558099184726,0.07589631998386245,0.09601517411331481,0.03275911224355148,0.04046525419180363,0.003479863198104484,nm,0.0
48.40087938308716,-9.108545058347104,-3.934209694333919,61.52151191344558,0.1821545909128544,-0.02532105520094379,0.1232345128428239,0.05284907263402536,0.017248424704693434,-0.010150972558812324,nm,0.0
48.409616231918335,-9.004057241403023,-4.165680072754434,61.42121893039499,0.0995486808878283,-0.16888773906368543,0.1573214897433786,0.06486201011978032,-0.002842288663399418,-0.021251863011714823,nm,0.0
48.43045496940613,-9.176533445754892,-4.782948401177341,61.199302576457306,0.010785153461505348,-0.3309454878568471,0.12711270013334114,0.05209113767698779,-0.05094843634865963,-0.025197954301735083,nm,0.0
48.443994760513306,-9.443621474340988,-4.895302129451591,61.14252091807801,-0.024421627770717436,-0.3253468874299857,0.04264519320529432,0.008224352112990076,-0.05663395773291369,-0.018340610812584066,nm,0.0
48.45115637779236,-9.897208788099206,-4.613084708970599,61.16894726525048,-0.02661634341285274,-0.2351659939651339,-0.0018894634130296724,-0.028204181158940366,-0.05744985424370003,-0.0044982582415391,nm,0.0
48.459009408950806,-10.287131007045488,-4.355050496934351,61.26024146909252,-0.03851662061444933,-0.07023629741875326,-0.006100463627379488,-0.05174111850853328,-0.04898316880967774,0.009875668242047634,nm,0.0
48.46769571304321,-10.603559539452045,-4.1424200336837504,61.374119991625555,-0.022066546733935603,0.05430968615338276,-0.0058324582422249185,-0.06562850660991122,-0.03868198305050736,0.01578914007681024,nm,0.0
48.48844861984253,-10.823588079553355,-4.182775533800138,61.49576113934619,-0.03906625605492631,0.17596283340883373,-0.012733300855089984,0.0,0.0,0.0,nm,0.0
48.496806383132935,-10.7247142604089,-4.421746285921595,61.438291586841224,-0.04320614010636636,0.14049035190446885,-0.012024173842494235,0.0,0.0,0.0,nm,0.0
