timestamp,roll,pitch,yaw,acc_x,acc_y,acc_z,gyro_x,gyro_y,gyro_z,markers,motor_input
63.00365328788757,-18.893899247172435,30.05111212043051,-73.13382127433778,-0.01315795799912945,-0.3981279866212115,-0.05677292685293766,0.31909556033972214,0.16924016900531452,-0.08001264277206525,nm,0.0
63.02146673202515,-23.070573604638202,34.66881621030522,-76.32554088024197,-0.3092889980138299,0.5011738185136043,-0.13229355051291586,0.10830752682231595,0.2607202303893684,-0.030865259872313866,nm,0.0
63.02523946762085,-24.55050499366053,35.54109134517872,-77.27374323053625,-0.3750892656206962,0.552621594178703,-0.21271604068485853,0.10393822833907697,0.2672144861810379,-0.02362087212403282,nm,0.0
63.049423933029175,-26.976100346616292,37.28327008571553,-78.98070133612585,-0.354344906482395,0.4803305474687009,-0.5212832661650181,0.1261513172329947,0.19408437266407275,-0.01158957071247578,nm,0.0
63.05654835700989,-27.669120334202177,38.07099715114598,-79.49872107955576,-0.3583544381093678,0.4016594525901754,-0.6764066565145351,0.12353213950521094,0.12877964829968672,-0.008677396079867835,nm,0.0
63.07745957374573,-27.779709976838625,38.825991620274614,-79.69650159641809,-0.39112265835175575,0.28041426153410653,-0.8383017982634513,0.0,0.0,0.0,nm,0.0
63.09988236427307,-26.48840571050887,37.961926977235926,-79.10661031291116,-0.3854952948072137,0.20135558207814228,-0.6555299623576273,-0.11387418787371098,-0.1523670388136354,-0.042221123301711995,nm,0.0
63.10171890258789,-25.52523597772609,36.971252388829924,-78.60210931230237,-0.3873514561598781,0.1446393707400362,-0.4689930742126313,-0.17582939874609924,-0.19713934907043215,-0.04087503171075578,nm,0.0
63.12764549255371,-23.360452526967283,34.404535659270145,-77.05567810272353,-0.34143139292987923,0.09996077536506115,-0.19907215134713568,-0.23440525256462497,-0.24249141559566698,0.012818286398577806,nm,0.0
63.13292217254639,-22.27821264381712,32.99657094436699,-76.01191566479505,-0.25984078173659503,0.060425282241607786,-0.1360234587122861,-0.24253459992325904,-0.2500611557352128,0.060531531438765246,nm,0.0
63.140984773635864,-21.259982098115447,31.541995678996116,-74.78775406335325,-0.10569868364022018,-0.009523664256640934,-0.09419604012620136,-0.24855419382428007,-0.2495378925197947,0.10878088692693531,nm,0.0
63.16393828392029,-19.620069837979816,28.369584079345216,-72.23026584304229,0.3299575953341077,-0.22297812632049943,0.010423464762850176,-0.2872010275349719,-0.23087396606007674,0.15958359388115775,nm,0.0
63.17174530029297,-19.06311610100364,26.5564876645075,-71.2008358451619,0.5326459895424223,-0.3474027762188651,0.0422324373454048,-0.3234113925989728,-0.21767306154809082,0.15041582768175504,nm,0.0
63.19846224784851,-18.416464722157126,22.572116410952223,-69.896490832321,0.9698878844228577,-0.5428427410333743,0.6041867534022412,-0.3756481833794979,-0.1934041732843254,0.07840662326148373,nm,0.0
63.200082540512085,-18.166810670768665,20.610398788383346,-69.6491901503072,1.077016755344945,-0.44230501249924814,0.8704473945630172,-0.3618359032609539,-0.1898140313133984,0.027342067807728576,nm,0.0
63.2077476978302,-17.94393192661496,18.948973735272443,-69.63826117294246,0.9161166677900138,-0.20748061387676284,0.8352620295917103,-0.3065748601089908,-0.1655701250242538,-0.01654414743920562,nm,0.0
63.21551275253296,-17.65091479485538,17.7544921521946,-69.7608673492067,0.4649344939076374,-0.05786498142546609,0.47514220358247566,-0.21427731807389733,-0.14571339626074453,-0.04657138585768811,nm,0.0
63.23890686035156,-16.23905874893494,17.251268805160173,-70.02152702957012,0.42092140864066135,0.013785353238259813,0.8323292913567026,0.04727488272317677,-0.12536454528181246,-0.06679162714625797,nm,0.0
63.24583077430725,-15.46086991357024,17.790155558156616,-70.10858310700537,0.177901620064732,-0.03304110349353043,0.744415028742146,0.14269324851182963,-0.11330366717212202,-0.05039636723776021,nm,0.0
63.26759433746338,-14.547073222979849,19.924626939183515,-70.1469582441369,-0.07657702645295893,-0.03529632984610772,0.43740846523618093,0.2227862047450058,0.0636775219108779,0.01261248463437624,nm,0.0
63.27616095542908,-14.554340551407698,21.265744172814568,-70.229617484106,-0.03151679801693662,-0.049120555439634554,0.42330434054792987,0.24288702652880642,0.0819965991590547,0.011728398324407089,nm,0.0
63.28270483016968,-15.083577743396914,22.658292819906432,-70.46707090037783,0.10357439500792479,-0.08136607256922862,0.39585866584189977,0.22032682512502058,0.17612714455477663,0.023350103708938728,nm,0.0
63.29277539253235,-16.3156057958399,24.086215226197268,-70.95703017008915,-0.13918197295943274,-0.06744892820058308,0.04103909836134816,0.18601406135017473,0.2980515508999009,0.03862793299732265,nm,0.0
63.314799070358276,-19.378554084791144,26.654442372146494,-72.47117222391276,0.04196208992555737,0.026819295748652338,-0.14040189752614823,0.12627395484887505,0.35936559172591465,0.033381257994894616,nm,0.0
63.320948123931885,-21.117700866830496,27.762344811839487,-73.32275141975643,-0.05433206831805734,0.11803105237641881,-0.31892151490688386,0.11160239226075223,0.35143964950817036,0.03109989266392882,nm,0.0
63.334065675735474,-22.599946701738705,28.779381859509254,-74.13635701370508,0.04495723440988852,0.24891557819899202,-0.31891782930575885,0.11267014791604639,0.29823676799057675,0.0191893168624953,nm,0.0
63.35599064826965,-24.835943896848363,30.528470214040354,-75.36109572621923,-0.16351502040372776,0.4945523890439904,-0.45111651398618297,0.11294234208321767,0.18369311889825052,0.0009095497291402009,nm,0.0
63.36106896400452,-25.35590139066786,31.325919071574624,-75.76363208655629,-0.18504255340063372,0.6041530345656047,-0.4132026493011679,0.12197406428457487,0.1169370947290294,-0.026498328476403394,nm,0.0
63.36971855163574,-25.595011665657143,32.02592731899362,-76.14016265977735,-0.34588099272873213,0.6658425114025166,-0.45306881104351865,0.11562030054755865,0.0642690042289885,-0.04919679616079941,nm,0.0
63.38784909248352,-25.454017826359475,32.60305670069655,-76.45689873366459,-0.37217190806659767,0.6435462065254236,-0.4317874878725179,0.10738048508497702,-0.00495641295205557,-0.08222442044204019,nm,0.0
63.40407037734985,-24.55998758408263,33.39811234603091,-76.8145037774437,-0.5434334063570139,0.5242795247597335,-0.5181432331768925,0.07365993576526075,-0.08245268334394347,-0.09963815567410543,nm,0.0
63.405622482299805,-23.83998329550335,33.490675748185346,-76.73165935755209,-0.49697376118282527,0.3917990813937374,-0.5261917904854939,0.034971604187559555,-0.12169554659333971,-0.0797564822643764,nm,0.0
63.43011116981506,-22.269777700952787,33.034614042501566,-76.09249871623486,-0.48769316200453283,0.13873533194455526,-0.5428712672123196,-0.04189996026909391,-0.16287431910850952,-0.01381980116850193,nm,0.0
63.434123039245605,-21.283435865747247,32.297449480730855,-75.39972862068863,-0.3412510238927355,0.0805671652005232,-0.459464645491243,-0.11252782760126774,-0.206426296826321,0.016062076885947386,nm,0.0
63.45776677131653,-19.493208818887716,29.840921818150193,-73.70172941079457,-0.18370972907439045,-0.0420524651521704,-0.20954431301960078,-0.22113981339024763,-0.23220028479950006,0.0564837132673247,nm,0.0
63.46379566192627,-18.669399366318935,28.406492461930558,-72.94856129742485,-0.05232726110489826,-0.023140415575274704,-0.07614436178947519,-0.24380189859534626,-0.22986497562320918,0.05906016917907362,nm,0.0
63.48821830749512,-18.005246053863157,26.851686662663806,-72.2495489222566,0.0024149420362711655,-0.1039853190461572,0.015911366698134803,-0.27173706130882996,-0.21508908994415274,0.06990676381296833,nm,0.0
63.493223667144775,-17.364623521647296,25.350060147745047,-71.57217633774127,0.2644636908077054,-0.2534173132219974,0.20527611109483024,-0.25975811190922155,-0.2126262368906566,0.06638235923898787,nm,0.0
63.513293743133545,-16.800740575307657,22.966411216668075,-70.49572734117811,0.5988405747607337,-0.476568623537798,0.4204066042674441,-0.20748983730863704,-0.11366293230462214,0.08456833636492389,nm,0.0
63.54617357254028,-17.402303569640342,20.06008692815172,-69.3709825864039,0.9252395831625844,-0.2403167615686514,0.8634791213672948,-0.11146990059916567,0.015396572328676035,0.05691206243988331,nm,0.0
63.5600163936615,-17.732369715956523,19.985404784274998,-69.41637694993857,0.8171502960646269,-0.026466387199566375,0.8580733315383913,-0.04507783115599567,0.042458633089906,0.024884945299692315,nm,0.0
63.568095684051514,-18.066598121361103,20.30501002884269,-69.60115609034004,0.6299648626347067,0.08544478941346369,0.7550249667865216,0.028703679021807156,0.0708317327802021,-0.0038058927761920737,nm,0.0
63.58614468574524,-18.539439894381566,22.358989596315034,-70.30155697020784,0.43130904434402484,0.03598337359103028,0.5762527264146309,0.2149191885047411,0.11705811526739024,-0.055737569664852694,nm,0.0
63.600494623184204,-18.880208549536974,23.94778686709167,-70.80255079987987,0.324962746626354,-0.04903918560187311,0.4075527560471513,0.26962086765792254,0.15486550110217043,-0.06272016334831766,nm,0.0
63.602155923843384,-19.35752355960225,25.681102476031505,-71.3866377951972,0.2675267307143291,-0.1501918623404691,0.23976826460308184,0.2906422032622352,0.18448154220782417,-0.06736337978249438,nm,0.0
63.60727834701538,-20.040753109567067,27.465389286290623,-72.13022323268314,0.16066047643219983,-0.17663681234108444,0.06094346303484249,0.291300466454355,0.21816575208090602,-0.07699669392942797,nm,0.0
63.62588047981262,-21.998647065254506,30.63670756177343,-74.20830029797682,-0.0518767156583155,-0.028952355876808313,-0.17441246669288382,0.22145180976627898,0.2538390202372877,-0.10568568602018441,nm,0.0
63.64172697067261,-23.274128931141718,31.908856323678783,-75.4623488179727,-0.14500717906553226,0.008243520840613592,-0.1938335361610853,0.17843614148452477,0.26811108268700884,-0.11297472504009301,nm,0.0
63.643359899520874,-24.683297746267737,33.09203992104528,-76.83458535695782,-0.2965480710670759,0.1221750962086234,-0.2861875068793597,0.16257946009439048,0.2787148457976656,-0.11437637282939797,nm,0.0
63.66811275482178,-27.491254730128947,35.22562999124845,-79.21860749743698,-0.4303506766835936,0.2936874131726194,-0.24982607513706995,0.146849775242448,0.2552827625172071,-0.06263588631680266,nm,0.0
63.67202019691467,-28.782059229974543,36.28212779886788,-80.09460483530624,-0.5034056586151631,0.37898061270988664,-0.286565976187217,0.15942010629802786,0.23569989007645223,-0.027897952822571792,nm,0.0
63.70103669166565,-31.001543145848004,38.334368644389244,-81.35419266883997,-0.5498941512031938,0.5103700576915303,-0.3371749255782517,0.15631404891478612,0.18592364563364172,0.02323118463800081,nm,0.0
63.702815532684326,-31.937777823021467,39.13968391882634,-81.83884410440658,-0.5435774167479877,0.525703141066738,-0.37984871785080265,0.12707356929528685,0.1596281163110577,0.03063634656890234,nm,0.0
63.71049213409424,-32.78882511786647,39.721402543123304,-82.24703323114713,-0.5615993972968543,0.5490678051096849,-0.4586284453247655,0.08597277808185803,0.13794492172257575,0.028741775424165422,nm,0.0
63.71957969665527,-33.49735847575947,40.00222801773649,-82.54939948039508,-0.5501143231006107,0.48908016981699154,-0.48403665972084314,0.030115629107382986,0.10685048868225643,0.027212922894781017,nm,0.0
63.7304892539978,-33.97389234030661,39.95949991420419,-82.67531152093791,-0.5810848979333807,0.4268475099558203,-0.5936871176778727,-0.0291008598827523,0.06283913102460707,0.033001032102074036,nm,0.0
63.739498138427734,-34.07881130228452,39.63451152431004,-82.44591605513651,-0.5548069097718704,0.35029599600101025,-0.6192156160151059,-0.07780247355858576,-0.0011047557603331135,0.042024967322910396,nm,0.0
63.749250173568726,-33.76108468312791,39.07757722774017,-81.84401610344172,-0.45517427123628124,0.26838766018984966,-0.6082703319916242,-0.1148163511784252,-0.07278941684279201,0.06106420662414229,nm,0.0
63.77129507064819,-31.883243229357532,37.217550633412124,-79.48734001486613,-0.25321078067854136,0.18424292081723576,-0.5648276371814513,-0.188944969279023,-0.2232573159192711,0.11520157886719805,nm,0.0
63.777021646499634,-30.496690539356436,35.91868663206293,-77.89259379263754,-0.1173459717050101,0.18939819880073566,-0.5007121465362027,-0.22164493917354527,-0.27914562794739994,0.12569833107570255,nm,0.0
63.79751801490784,-27.39302468069877,32.52012731617959,-74.72383168336086,0.2112779451588203,0.17523734745441694,-0.30786596849992376,-0.29977670280669627,-0.3590521426263829,0.09101022395810268,nm,0.0
63.81378531455994,-25.8624426759277,30.45557802786785,-73.5175752029521,0.37387663221116035,0.11557183352935922,-0.21726131380668853,-0.3357808665916369,-0.37465221898418,0.05573416257998286,nm,0.0
63.83656120300293,-22.97745698418288,26.02963309093461,-72.0407987159975,0.8161555875141538,-0.062040577111886076,0.21317291729505886,-0.36048076187782324,-0.3862753850648356,-0.03502892616294165,nm,0.0
63.838207721710205,-21.701758218584608,23.857205458853954,-71.61664787916725,1.0297662901454998,-0.23630091817120025,0.5568039463568526,-0.3500778924795753,-0.3665371195989841,-0.06990060212429627,nm,0.0
63.870516777038574,-19.482180330213996,20.34955213907781,-71.65790087463822,1.0248309961544715,-0.4417087685125898,0.9872153116530274,-0.2443292009442289,-0.29501946735331985,-0.1315743160747457,nm,0.0
63.87290549278259,-17.342782669425485,19.047481916327307,-72.44428730106894,0.5919296597267192,-0.25994846418759976,1.116375610007492,-0.010001235769483127,-0.20965286832445396,-0.18258230001280193,nm,0.0
63.88194227218628,-16.48810425529786,19.47816060139497,-73.0591636515445,0.5359045306126047,-0.26774952890707715,1.4117311209145635,0.1203798681575878,-0.13848149235010931,-0.1835533863924822,nm,0.0
63.90654754638672,-16.295777499170285,22.661562777814538,-74.55826345236505,0.0564816819063381,-0.39086716215718603,1.1193738307423031,0.3564546005147767,0.11938526186026377,-0.14374098402067406,nm,0.0
63.90979599952698,-16.90251533055712,24.942555936751397,-75.45305487240633,0.09861102700211066,-0.5126776475311919,0.9440583477052356,0.40222287847767585,0.21625193263276896,-0.11689481953833862,nm,0.0
63.925097703933716,-18.311888140259985,27.378955092434836,-76.52829847694328,0.07777311884127072,-0.6325345347958443,0.6545458294902642,0.4018186493233067,0.35468523040981703,-0.06982661883814985,nm,0.0
63.94347429275513,-23.11920001637404,32.09420291672628,-79.37673053325744,0.08694791837094795,-0.4109349611563268,0.06026823720003006,0.3414832548699447,0.5326795048439841,0.011586986763606056,nm,0.0
63.95906186103821,-26.291526051951934,34.08334162913307,-81.02470477733662,0.04612234779152425,-0.22569168529147118,-0.20065014972703463,0.29169793403566774,0.5833588642198211,0.05631778369605609,nm,0.0
63.96247673034668,-29.656368556781423,35.878568993391085,-82.72597434283439,0.042048733761956954,-0.016479024172178326,-0.35105899732867224,0.2674581197273896,0.5885321660454605,0.08423254957732133,nm,0.0
63.967795848846436,-33.025952255482906,37.50794278635765,-84.3650183120526,0.00441322009718742,0.1647330028698191,-0.52144753553509,0.25283959081997187,0.5655170280706435,0.11333794892775306,nm,0.0
63.9801709651947,-36.16002250990721,39.014625542756725,-85.82807852474043,-0.132808714984478,0.35397866943031503,-0.6822673303467226,0.24773068805943887,0.508003871819015,0.1315020793333929,nm,0.0
63.985355615615845,-38.77766806039865,40.38388110725043,-86.98006251717254,-0.16148477180084556,0.47253033178745285,-0.7687462567183203,0.2372506806008012,0.41104846854476673,0.1290649474104624,nm,0.0
