timestamp,roll,pitch,yaw,acc_x,acc_y,acc_z,gyro_x,gyro_y,gyro_z,markers,motor_input
19.533219575881958,-0.13397375904035752,-19.80098970927695,81.62746749165215,-0.7806035429966136,0.5729799899475531,-0.502067882507259,0.010814644242892588,-0.10324861887360803,0.07600362593033705,nm,0.0
19.535282850265503,-0.5443077291420616,-19.904610856872818,82.36232175843973,-0.9285214174454933,0.5094681855522266,-0.47995610420151874,0.022220916527691887,-0.07235955950358748,0.11712357197698366,nm,0.0
19.53728938102722,-0.9219982240872058,-20.00181322020534,82.95648793871808,-0.9809570385881828,0.4269085929844155,-0.5188757316127198,0.022575159173079784,-0.06583742037517809,0.10295618377378436,nm,0.0
19.551209211349487,-1.2109715742776952,-19.98140115496009,83.1904116860246,-0.9615869677596419,0.3322635300642727,-0.5937914087695878,0.0016738754846274755,-0.04628216317097468,0.06619082396184914,nm,0.0
19.575772285461426,-1.548810567519051,-19.5239297110119,83.20494472447301,-0.8408933847991361,0.267149626302703,-0.5454843258675386,-0.053379169738692674,-0.01780445303823044,0.017040911668310968,nm,0.0
19.57736611366272,-1.7663560986227371,-18.95583401406375,83.38704776109577,-0.7455296140925295,0.28701454176611,-0.4790131608087096,-0.10539432767251544,-0.02034723418069845,0.0338934872236933,nm,0.0
19.584880590438843,-2.132769450285045,-18.126171027997223,83.81763126688772,-0.6359184649650658,0.33726317582410803,-0.4779321680083021,-0.1605042175753048,-0.04333097437685742,0.07391232710350171,nm,0.0
19.60897445678711,-3.3020341907364132,-15.912668370097828,85.54122782403486,-0.4825551980088444,0.3729502226021273,-0.4684231906542425,-0.23490176609939625,-0.09460046451305285,0.1645332828971569,nm,0.0
19.63921356201172,-4.816078701985939,-13.316746016938234,87.5785519338696,-0.3471293363854338,0.18960102717410765,-0.507478470421832,-0.2575997342610851,-0.13156866626826028,0.1397491587762983,nm,0.0
19.64111566543579,-5.54499298998684,-12.004816466602941,88.19302329045789,-0.21576811557131498,0.02920938502043426,-0.4906619197558867,-0.25570475907264983,-0.1249992963416022,0.08290906545069976,nm,0.0
19.65450167655945,-6.186709888939914,-9.270844146618819,88.28079850921387,0.11758229181659008,-0.34415309243301767,-0.15623822238539373,-0.2693193777986122,0.004110542564266898,-0.02859967082079054,nm,0.0
19.676058292388916,-5.6713267422500815,-6.067582576541894,86.99062076262103,0.9499397008401984,-0.827288297301332,0.5687913664739171,-0.3165653158649184,0.09143836143518139,-0.11405083015113787,nm,0.0
19.6830952167511,-4.411801468943754,-4.378032689704001,86.090603851468,0.9752255383371694,-0.962243579265816,1.3181224221681318,-0.3098274992477437,0.2785934672757336,-0.11870312332916487,nm,0.0
19.705344438552856,-2.9497217166800818,-1.6608073567582842,84.17387596546408,1.3140214403671153,-0.6944202161705602,1.3795975910420883,-0.20323716769328787,0.10486530793692947,-0.2064719542890949,nm,0.0
19.709590673446655,-2.8053140285748297,-1.4127303982270885,83.11616000751812,1.1728763329872176,-0.44374492329254145,1.3752376928556247,-0.03377825685325869,0.04030089004558031,-0.21528485875916595,nm,0.0
19.732081174850464,-3.501147788266056,-3.5054275876917065,81.97122565068909,0.68622796327585,-0.20001997771620547,1.0875273297437777,0.2830473005739336,-0.11756697235587255,-0.08722215092561966,nm,0.0
19.737555980682373,-3.799018969366941,-5.403923555411601,82.18551360639816,0.3175579333220707,-0.2700125929310594,0.7702509477124657,0.3809141055973063,-0.10516600191710448,0.03471395548511798,nm,0.0
19.766727209091187,-3.7612582299761943,-9.82105936184674,83.75689648993315,-0.3693730905132824,-0.5428040349697774,0.28195067169325927,0.464542008723257,-0.02322482025620467,0.17272189737681087,nm,0.0
19.768550395965576,-3.3227898374126217,-12.036266368078925,84.31665697033071,-0.29124638905143624,-0.40277116256513473,-0.3962092317964134,0.4624765607623137,0.04662933059935212,0.12598449586455107,nm,0.0
19.775465488433838,-1.7469588981353974,-14.141661575334942,84.25010502212315,-0.6718042417577959,-0.25791768839051626,-0.2866786918761167,0.46232530858534543,0.27096880341662977,0.05541211494894769,nm,0.0
19.78886318206787,0.23109696394828463,-16.140601843961836,83.27937561887248,-0.710604422820928,0.033488128613077296,-0.34314371938593585,0.45184421480947123,0.3434479273029773,-0.07785742950253863,nm,0.0
19.8075213432312,5.537614984071527,-19.696166687766144,79.68629291633012,-0.4557668483968053,0.5666906942025903,-0.24963379402993954,0.43551022924336186,0.5043393252840576,-0.17804064747551077,nm,0.0
19.816986083984375,8.184077548452757,-21.144848329688894,77.89081309648242,-0.31664920485645637,0.5944456987348387,-0.26397614278512865,0.39375763419445065,0.4371873007375289,-0.15202979846248008,nm,0.0
19.836567163467407,12.00251169101702,-23.686221867221576,76.18301626064935,-0.36950304488669306,0.23013122502608105,-0.3766151581956823,0.3220051729842505,0.24661451471402088,0.026324452279462732,nm,0.0
19.84238052368164,12.707624082529014,-24.670556615832194,76.19060026474513,-0.47394597792384835,0.09177792515854703,-0.5883075595126317,0.23416152784353167,0.08518245041981039,0.05572173942230481,nm,0.0
19.864391565322876,12.246511777749838,-25.202259155741817,76.8654828891228,-0.7998642219101788,-0.002266575517965321,-0.6412540016634688,-0.007334759416698833,-0.07874569990669786,-0.004345106298959601,nm,0.0
19.870702505111694,11.214542143492055,-24.729064263329775,76.98815261031312,-0.7921798186258996,0.21174698671011202,-0.6647148593046264,-0.12232570839576065,-0.15407869989689832,-0.10375712101304499,nm,0.0
19.893840312957764,8.232780406886475,-22.787425642725843,76.7728981225119,-0.6871858923080729,0.6495137383841925,-0.43117184734280395,-0.26702929229311906,-0.23869281541717116,-0.19823514563985267,nm,0.0
19.898864269256592,6.267013475128754,-21.671942991847274,76.81705741105873,-0.5858700938747533,0.775904234077785,-0.4492869290830962,-0.2877375681309501,-0.29759350793001693,-0.17252518012325854,nm,0.0
19.92359972000122,1.9471861022214274,-19.378587566369735,78.2403673592689,-0.4902613720617994,0.4424819325253671,-0.5048106078553003,-0.3064268547703148,-0.3477950730361542,-0.0031820442280291426,nm,0.0
19.929860830307007,-0.19246092281915364,-18.015774472617533,79.39382411297363,-0.3696814943247379,0.0452582852706828,-0.6002327263600228,-0.33321498454347825,-0.33925824803234866,0.06372662011054217,nm,0.0
19.94970440864563,-3.2915081393097156,-14.355923811625523,81.28837480657526,0.03728528579399192,-0.7813177619690528,-0.6567029023793997,-0.42615070982446807,-0.1761884456496051,0.0718348850536377,nm,0.0
19.959087371826172,-3.7059429147637126,-11.923355437841492,81.55819590447213,0.0028595333392125452,-1.1526669283096684,-0.11271060073164417,-0.4809686965198661,-0.00108675779366201,0.02542698099994172,nm,0.0
19.966602087020874,-4.189231304681779,-9.10866517549935,81.1848222510888,0.22570718016012387,-1.2840101957114862,0.4158170023457373,-0.5587232495595286,-0.0034295834989181216,-0.0953721988334985,nm,0.0
19.99358582496643,-4.970585875987684,-2.8448364262884143,79.22624733160556,0.8233206459549843,-1.0673903663911495,1.5326081992168599,-0.6153993128024002,0.09148907507300437,-0.223828304137229,nm,0.0
19.99562978744507,-5.93317842577345,0.002218872481655385,77.96441072584803,0.8989624319281873,-0.6448605859413267,1.9313822492348163,-0.583898293688143,-0.07086668573670683,-0.24104671137771974,nm,0.0
20.004329442977905,-7.654824463478845,2.1717638150024006,76.93677611549937,1.1714508631144889,-0.11284468028873665,1.267613672012693,-0.4857191822992779,-0.23754945530375005,-0.19697186802749217,nm,0.0
20.014243841171265,-9.37215312157084,3.5046144213046437,76.44000754092201,0.7768072519274403,0.32096188773577083,1.1849432919008551,-0.3252377939201097,-0.2687973473657174,-0.10005914857740517,nm,0.0
20.0369553565979,-12.909178703292115,3.082899716301945,77.2815171258092,0.30760862767020625,0.6964242424546303,0.6209262487758069,0.07395201735652145,-0.33597963553877686,0.1577646639040792,nm,0.0
20.0412118434906,-13.560129575127302,1.812130047982476,78.46613736620927,-0.13870617013516987,0.44298543829053694,0.39928355601813353,0.23478778982096504,-0.17609839673708283,0.24761022944054764,nm,0.0
20.064857959747314,-12.376109179166383,-2.4224751415106587,80.83394967380704,-0.4244900137989468,-0.3031876393729929,-0.20059810955429144,0.5223908024978798,0.15824841097912368,0.24400485092898005,nm,0.0
20.07243776321411,-9.980526175292342,-5.003343313820016,81.33278338322344,-0.9259828864179018,-0.5432887618129718,0.16234958087893223,0.5982458796271747,0.397779053606137,0.15983210377387227,nm,0.0
20.094638109207153,-3.466256202952068,-9.993496330407789,80.02460386722196,-0.6103760165490234,-0.4487803232518123,-0.12870724155224533,0.614174298028372,0.6449475636378229,-0.014370819083837775,nm,0.0
20.101994514465332,0.7537402924164652,-12.063953055269913,79.0392444142489,-0.5248254087461283,-0.23847924798469286,0.11050458717812299,0.5717344977851415,0.7456637912331232,-0.010982017614787882,nm,0.0
20.12148404121399,8.702572638450246,-15.241536161038795,77.85314656637475,-0.023919977766063548,0.2016222406661949,-0.13643545029544835,0.4649538636069676,0.6868262387157711,0.14952791845266644,nm,0.0
20.144426107406616,14.596051307749896,-18.17360748565335,78.48926217266123,0.004094163274337897,0.40979618985474153,-0.41083956080854883,0.39499064823151486,0.42255964498251974,0.2729992629448124,nm,0.0
20.145990133285522,16.46806144326034,-19.549222940098527,79.0318095383461,-0.14449704818825385,0.39247949356247513,-0.48667168404560757,0.3505670575843834,0.30173897945950284,0.23809540660928863,nm,0.0
20.165773153305054,17.786899989030427,-21.36546902992703,79.22540959592867,-0.3624213046872462,0.37821255759125344,-0.6722209360548367,0.15415905682312425,0.031442984973474315,-0.047670906387320876,nm,0.0
20.19202160835266,16.06320923155098,-21.354041610565563,77.96087854534768,-0.47142955359493394,0.3377512216318329,-0.5933743364584197,-0.07538451499595251,-0.21782120269232463,-0.3190202365009872,nm,0.0
20.193721055984497,13.987122989016815,-20.84654243394621,77.3951449324618,-0.46243112511463635,0.33791169121895076,-0.5293908464336088,-0.16899761581835987,-0.3506604742074892,-0.35601152720056994,nm,0.0
20.21747875213623,7.801948123328039,-19.16113289253221,77.74046100530153,-0.571918125187661,0.307311621071831,-0.42649806752911573,-0.307689239977447,-0.5790134113047598,-0.23552523480376644,nm,0.0
20.224024534225464,4.1030705597809405,-17.966582196244953,78.61206319576894,-0.6434076729937794,0.27335632644655133,-0.4346102719650071,-0.363162053273555,-0.6330278930056357,-0.14527952266633717,nm,0.0
20.245458364486694,-2.8393499341132613,-14.748618048390945,80.44880808602554,-0.658765206405405,0.02573305050811088,-0.5604844959634413,-0.43505517486219175,-0.5622307246077324,-0.07362040050985348,nm,0.0
20.251039028167725,-5.596069081710452,-12.936511539676573,80.76818077726956,-0.4860519942469638,-0.1451468847262045,-0.512096207971784,-0.4316384713547324,-0.4642559258230633,-0.10967115339822062,nm,0.0
20.27403426170349,-9.041483362057896,-9.237011394832503,79.80246580996568,0.11656117641220583,-0.5183096846642882,-0.12439853785448579,-0.39903802766460755,-0.19369515685105865,-0.1919909363860412,nm,0.0
20.278786420822144,-9.355832902642568,-7.354374094382286,78.93493984657594,0.1410849837282932,-0.7032696178813809,0.45688202463596744,-0.36870894724828585,0.013977259498137719,-0.16376890503018168,nm,0.0
20.30234932899475,-9.538066615908265,-3.7570833159154575,77.84042441352783,0.8228289318571002,-0.8239542296846453,1.0487657310444183,-0.32805428996412317,0.05684426282580787,-0.048105303077067396,nm,0.0
20.31092071533203,-8.783869302596676,-2.4294074387009217,77.93637634618906,0.6216911441519705,-0.6430782274215078,1.486735684057522,-0.21470478112508903,0.2084120873832183,0.056994899551888877,nm,0.0
20.319201946258545,-8.195300486888435,-1.7045537595770797,78.31092737874837,0.6836214496800076,-0.42778543627494914,1.4092706899539302,-0.10430624335946782,0.15027246422639798,0.11877346132636916,nm,0.0
20.340083360671997,-6.276960083125539,-2.363743804783677,79.44430888151271,0.5124842033763447,-0.21493732419023334,1.2469150024489561,0.19689221246869046,0.23057502036920074,0.1828486313657314,nm,0.0
20.34587788581848,-4.977065108710947,-3.642573729349781,80.05195942698542,0.39593685840726867,-0.2244274516640751,0.9331318784637017,0.31152879301433284,0.21512005141661675,0.17767012108745825,nm,0.0
20.368566751480103,-1.6953984786637368,-7.3074919462660315,81.18555514725425,0.04143465976521952,-0.46912158784866936,0.5857680425909919,0.4609882658540381,0.2954452562341485,0.15979533295659648,nm,0.0
20.391485452651978,2.113638549487661,-11.386007062811688,81.624615554403,-0.09483995681329342,-0.46071360505786196,0.056384125965552034,0.4610993016074537,0.33411096466386214,0.1266287324478408,nm,0.0
20.394933462142944,4.210230249919088,-13.169653057418813,81.64126918867416,-0.1924352186406101,-0.39056149117954275,0.025510620222810802,0.42542428575694713,0.3603345580289196,0.1120112630659166,nm,0.0
20.422019958496094,8.221256388244482,-16.33217007750252,81.33592249922837,-0.04203644934633831,0.12541821027644867,-0.40151032184236785,0.3712464008407906,0.3641465109453085,0.08680246131894384,nm,0.0
20.42441749572754,10.38100388030629,-17.713778066428,81.10617341620376,-0.22417042993161096,0.23886745159481806,-0.2117945387674273,0.34824305232204267,0.3737418672220156,0.08975243569090473,nm,0.0
20.447509050369263,13.651061693509991,-20.39016268939931,80.49025390443305,-0.25564892692919866,0.5053993561430461,-0.4948535333904481,0.3213419488640209,0.2593716442183999,0.050386234367215885,nm,0.0
20.451404809951782,15.043468460917381,-21.574000506149442,80.25825246580126,-0.4133489140849546,0.4049976056229653,-0.43584821436947774,0.2882553488837165,0.22516985838159917,0.0353455653806757,nm,0.0
20.47398853302002,16.863571804300022,-23.479895703123546,79.5792747007185,-0.5695225534312437,0.35005619492823103,-0.6276935293722274,0.20836396935619658,0.1288599062460174,-0.04946599388277885,nm,0.0
20.4794282913208,17.438356810799263,-24.061881520329905,79.07373426728473,-0.6681444248134807,0.32862525918569113,-0.5653457343218135,0.144970915173033,0.09026488510697349,-0.09141198401525086,nm,0.0
