timestamp,roll,pitch,yaw,acc_x,acc_y,acc_z,gyro_x,gyro_y,gyro_z,markers,motor_input
14.006915092468262,-4.286210134147495,-8.961366085508798,75.11981953945099,-0.20839708291471715,-0.35906075194035625,0.5671428481475882,0.10328573215531453,-0.02973720105903764,0.12182458287099059,nm,0.0
14.012598752975464,-4.0710807320054165,-9.463967916926043,75.82136213746941,-0.1898765830549565,-0.1772169617806917,0.19391583526402845,0.12137813153673388,0.020702638664536616,0.16795266641283368,nm,0.0
14.021236419677734,-2.9835757838145898,-10.012337744706887,76.4961318165795,-0.18793724550316734,-0.008416842389376527,-0.2434150921752164,0.17134707446808153,0.18704988926565144,0.1991743719593181,nm,0.0
14.04267406463623,1.3254398750515235,-11.352504065608521,77.01611207145936,-0.40489652746682075,0.14554975272685114,-0.25330899388955813,0.24610048767212891,0.40072290495803786,0.15338358370163596,nm,0.0
14.050652503967285,4.167324025591318,-11.96722223478438,76.88039483193288,-0.34825839837612055,0.1343274843377702,-0.2442552889994414,0.2596272307662367,0.5202347966592472,0.1420700248004045,nm,0.0
14.06428337097168,7.273798854570129,-12.44193120903764,76.6948914600644,-0.3556673767897228,0.07384870574222195,0.04525898468386262,0.24521497795632227,0.5755068295008036,0.1474458555601567,nm,0.0
14.083428859710693,12.471992680450457,-13.026709783743502,76.96021395298392,-0.018661965026334534,0.16059122286472585,-0.21729368319529266,0.17312235799447692,0.472915482040462,0.2011433084014574,nm,0.0
14.088356494903564,14.39963543396222,-13.211097626401433,77.60211748685796,0.035368520267037816,0.18966172525010222,-0.19440388715471063,0.1305109126481987,0.36512789071596347,0.22994636296383855,nm,0.0
14.100862503051758,15.51128004076777,-13.35884785347895,78.50190783552875,0.09472188634361868,0.28614068411041493,-0.4016787819812904,0.08497820660809806,0.21275666522550457,0.22534389586029369,nm,0.0
14.124344110488892,15.854740386722304,-13.552495705294803,80.28846948165362,-0.08685206260450373,0.39553157258627364,-0.24406838698831496,0.01710423951072499,-0.03325253721691143,0.12684599384776735,nm,0.0
14.126642227172852,14.869074392414467,-13.544205207455981,80.9208023102425,-0.14453933411898512,0.48165651067549153,-0.38868851056452636,-0.021575718574459314,-0.1817089184510735,0.024554874651380947,nm,0.0
14.13558053970337,13.377558481767803,-13.50232710921201,81.24119775184175,-0.27847711045821877,0.4778200228671795,-0.2444682721420243,-0.04144740028586791,-0.2783398246499393,-0.07031314993849597,nm,0.0
14.145338296890259,11.332055870405194,-13.461307036518226,81.28685057827032,-0.3642360731134724,0.5103110302907753,-0.33510168675990437,-0.05615105631074671,-0.3853765881527717,-0.15584490759380049,nm,0.0
14.155395746231079,8.972116329716652,-13.447895491822951,81.1788753814478,-0.483050042058177,0.4695455693333741,-0.2920825552809171,-0.05980103656565064,-0.44691917132296133,-0.2000269160776181,nm,0.0
14.182574987411499,3.513548909637688,-13.390714614173225,80.9761536833191,-0.6079136162109797,0.37604338753731037,-0.47702841613998975,-0.08276910408632533,-0.5331326783109122,-0.19537928775776947,nm,0.0
14.184290409088135,0.8116169218892005,-13.22942711364712,80.99239542544944,-0.6546145474007472,0.2882187747473801,-0.5222054859722746,-0.10121302197232246,-0.5085467724791456,-0.1573708617232939,nm,0.0
14.19302773475647,-1.7125573575355748,-12.929011507926747,81.04812073636599,-0.641109548501618,0.17094870482406452,-0.5628165866854051,-0.12316120692491003,-0.47063398502079884,-0.12792635069348735,nm,0.0
14.217920541763306,-5.756042830982363,-11.970260942081115,81.09630919435577,-0.3491120678782392,-0.15385943419764422,-0.4858944193599505,-0.14680404527778815,-0.32731958935527394,-0.11034162329920967,nm,0.0
14.223672866821289,-7.017409537152596,-11.356068887572244,80.7720155207992,-0.07729380598297221,-0.3755595400898503,-0.3144142213571798,-0.147506961146324,-0.21885588827607033,-0.10910950649909483,nm,0.0
14.246545314788818,-6.674891823240806,-9.933780481382179,79.8022554953785,0.0077162535373199136,-0.961927045012387,0.9395948148499398,-0.10712043106253377,0.17827079853022912,-0.026999979230738432,nm,0.0
14.249819993972778,-6.032302854888771,-9.134735194736443,79.51546725677728,0.3675700105376712,-1.1119254607335547,1.1800945338164843,-0.12136509604341757,0.15936271048808898,-0.008885929030251965,nm,0.0
14.27375078201294,-3.464551695846451,-7.6994854495162235,79.69300753423927,0.7614267458074484,-0.8844466622938558,1.585719261454818,-0.05436060232882605,0.3533939124368322,0.12449314955113022,nm,0.0
14.27948522567749,-2.0927721489506603,-7.446358563116009,80.10297065379369,0.9491196337735606,-0.6202179630776264,1.5020831272000008,0.010983847921609061,0.28279851710937787,0.1486107430055503,nm,0.0
14.331948518753052,0.5055391000665782,-8.334871123174471,81.11421946030835,0.7751542647210945,-0.08394030811974156,1.0665554161552548,0.17947202435853207,0.24722286886579384,0.1655888051571793,nm,0.0
14.333486557006836,2.5077277479379565,-11.135722110117444,81.62003495712509,0.33170717077253453,-0.11300251576331682,0.49975422204028563,0.37046544782222174,0.14531669332733477,0.052870065999599244,nm,0.0
14.335323095321655,4.543649065304241,-14.663077362503572,80.31010832100381,-0.0964350971895119,-0.40847178401864725,-0.07009619534217128,0.38443351814433646,0.1501021682646078,-0.07591508935181472,nm,0.0
14.353748083114624,5.679149668970445,-16.262195564457983,79.23856422699004,-0.23214899338436812,-0.47030356746384877,-0.08922756505527744,0.3665514668918771,0.1648014530829803,-0.11406219776009917,nm,0.0
14.355462551116943,6.66849639863095,-17.489079843955512,78.25506797586085,-0.13017752811524133,-0.3309202527881544,-0.4024756176467117,0.2902756128452687,0.14445548946682285,-0.13231942357041238,nm,0.0
14.376643896102905,9.23385673859242,-18.672905128068788,76.89342719209853,-0.36393540877244773,0.013747007358740404,-0.26659273924500126,0.15436814445234975,0.22813881792847485,-0.03614814448167534,nm,0.0
14.38419246673584,9.97618740206881,-18.939886831781667,76.54349094932024,-0.2556845379814173,0.34998379066254687,-0.427847717733329,0.09648459533135793,0.13128524505208933,-0.03318990301335424,nm,0.0
14.404754638671875,10.910471478056643,-19.163957982050484,76.22567172720093,-0.41299470551286965,0.6381201845871415,-0.2847373169466161,0.04824748869531515,0.06322526169957302,-0.015344734640570406,nm,0.0
14.412303924560547,10.78011685894679,-19.378300450924552,76.06325495625052,-0.4332960421968378,0.7145955378057949,-0.43747804275941393,0.04794188730103389,-0.027573185430300184,-0.061945801259827765,nm,0.0
14.434253454208374,9.732371207254625,-19.749629280333107,75.62003290786788,-0.6426124713773415,0.47192577831435367,-0.4222060369654075,0.00741859613732272,-0.12380095943783245,-0.1272950510924506,nm,0.0
14.442540645599365,8.680897325475609,-19.75702111192451,75.45772531714792,-0.6881391068689664,0.38461416018009936,-0.5554516207625112,-0.035294600298844625,-0.18601140893848153,-0.14564355095796633,nm,0.0
14.462082147598267,5.844300724411477,-19.10745602972055,75.79460709616332,-0.7923209721439315,0.28928250499715114,-0.5670329754050316,-0.14931807719492324,-0.25265045669651004,-0.08631054301937974,nm,0.0
14.469995737075806,4.139596880438177,-18.378281256857154,76.46018405365656,-0.7863285900057347,0.32194973182972975,-0.6296551827157145,-0.20590391860631302,-0.2732193391055769,-0.029832139216902365,nm,0.0
14.491113901138306,0.8297711571732969,-16.334986068340335,78.19703562532405,-0.7197593791695338,0.3305769630288249,-0.6017505465408167,-0.27119599451876697,-0.2487751161801982,0.08125835203599058,nm,0.0
14.496536016464233,-0.6164614483194187,-15.066377408039315,79.21546962050901,-0.5620644058525645,0.2496564180508048,-0.6530846616840397,-0.29077348978192413,-0.21767320595254364,0.10871809426531649,nm,0.0
14.52044939994812,-2.645802611042322,-12.25239052361774,80.94142278623356,-0.14579749928838162,-0.17352337055677375,-0.5468038559772146,-0.3040290813632435,-0.11294016535537127,0.12126524818747689,nm,0.0
14.537743330001831,-3.0595053933590615,-8.692483781959956,82.15227663868437,0.12130333651409077,-0.7810636576889851,-0.0578949687107599,-0.3590656210270418,0.08322222765449525,0.12171788682301432,nm,0.0
14.547024488449097,-3.345245824398142,-6.576990501802563,82.45867675428552,0.5132811243290926,-0.9733311676775712,0.14446800071128352,-0.4148194825781445,0.007130331862133861,0.06889406278008764,nm,0.0
14.572012901306152,-3.495231713485376,-1.778094475516428,82.35239756483524,1.063743579612243,-1.0121703556764328,1.2683399524403642,-0.47209390223350994,0.10416731312146098,-0.02230893266233579,nm,0.0
14.573591947555542,-4.071436469814725,0.6091089127046785,81.81597630787198,1.181339738554352,-0.6639076885270592,1.6187772825500089,-0.47673902751620445,-0.042695663774882334,-0.10692314065751368,nm,0.0
14.59685754776001,-7.978617891430894,4.127799054106646,80.14875150791464,0.9762332637183809,0.06869656496120385,1.2792847286635984,-0.3489455983976036,-0.41593554034346153,-0.17923784058477904,nm,0.0
14.602949619293213,-10.59444220237548,4.616081160501302,79.5233476703213,0.6995847083614766,0.3742182954449627,0.9369159489411005,-0.17426359988791745,-0.49231884655935076,-0.13226727098877963,nm,0.0
14.62404489517212,-15.712907320436392,3.57628452380125,79.45722625587028,-0.01551566730728197,0.31552160018605463,0.24072322673772098,0.0750576145057474,-0.5211371114087404,0.05526584005708555,nm,0.0
14.646427869796753,-19.358237499487657,0.6667070173203993,80.81258358401251,-0.37029881829573086,-0.31840252564819715,-0.31633994316990666,0.2757090652484553,-0.3685303756651951,0.14841225891339735,nm,0.0
14.649380922317505,-19.570506013295873,-0.9788294838996907,81.34379022227029,-0.6991687639869539,-0.5182771213877204,-0.3746545359947926,0.33222036233519,-0.08775179399083428,0.11547137981762319,nm,0.0
14.660234451293945,-18.757589820559947,-2.5345426973832286,81.42774395395692,-1.0665824821166756,-0.5290751133704532,-0.2610146653706265,0.34581017022761773,0.1193631562933822,0.046572468422752575,nm,0.0
14.668853998184204,-17.398185870481125,-3.8784571457026065,80.99348049073413,-0.7239247884192157,-0.34515441102975486,-0.4902776146956426,0.32119505220794153,0.23238996009867416,-0.032203083014054217,nm,0.0
14.677079439163208,-14.913017139400656,-4.908169839121329,80.23257360916007,-0.7532471315693651,-0.018685584100261565,-0.21013416821278738,0.29877798536836064,0.46054906280688673,-0.05951197108715045,nm,0.0
14.687155961990356,-11.947786249789411,-5.683196285662177,79.4530178731748,-0.6138672757882244,0.3065695416095391,-0.00437108342454571,0.2718450257693171,0.5591341391199055,-0.039257485305174616,nm,0.0
14.710575819015503,-5.729876345207448,-6.9090234474504655,79.05310539075494,-0.17354829495587817,0.6165254814693876,0.08173168995051856,0.2505374722261674,0.6050717835481652,0.14508444393255854,nm,0.0
14.716295003890991,-2.8883070952761014,-7.580725827713858,79.5865620502349,-0.12405513343801859,0.49080269131643933,0.05053351813744771,0.25103020291346145,0.5347979161388192,0.23831581087901887,nm,0.0
14.742396593093872,1.3220226969721374,-9.181183121106066,81.47485091878967,-0.24144999022837382,0.050742498781711776,-0.08902218034603224,0.2270561036725699,0.3466565369012134,0.26753162660170177,nm,0.0
14.746764659881592,2.6179541696144013,-9.790824159283636,82.19193261744756,-0.3034281690600331,-0.07088146298069907,-0.25667979394449786,0.1693523971950681,0.24263418822609187,0.18712516213105662,nm,0.0
14.772279739379883,4.055269766087763,-10.170091754733322,82.22147555180344,-0.4083426644881705,0.12394719869115804,-0.37649851179830723,0.03227511160728124,0.11339673752069762,0.002778550621462168,nm,0.0
14.773849248886108,4.186744840749238,-9.929486404431264,81.9543281440532,-0.3895837524077564,0.3346997582211656,-0.4365410105989599,-0.032128118282814776,0.03903052617085395,-0.036684157156034396,nm,0.0
14.79701852798462,3.5040801053705026,-9.073684284714414,82.52088550860849,-0.38301054356058145,0.6193477240396925,-0.5025832240412464,-0.09388701095710174,-0.07344335076079672,0.05093921194417982,nm,0.0
14.800865650177002,2.826602950478639,-8.537995913591148,83.4118771072124,-0.39976726539012686,0.5471816466419019,-0.5779600154271441,-0.11080259843516381,-0.11320630072550288,0.12930669249022828,nm,0.0
14.824334383010864,1.1950431847060645,-7.212803707571511,85.81436713175097,-0.36754942072798397,-0.0018755240789347994,-0.6197921055160113,-0.14573255600649554,-0.15205255338483545,0.18296353361264414,nm,0.0
14.846131563186646,-0.32653330018730153,-5.2306296386586615,87.08498852556092,0.01829280088257015,-0.5280932966221775,-0.5725912804846903,-0.21553178606689305,-0.11699962458512764,0.03406221586395441,nm,0.0
14.849842071533203,-0.6195171683928037,-3.8646956142508184,86.91531134142956,0.08092088324661494,-0.6527158179010359,-0.23148338576262162,-0.26435497404016056,-0.03723403074737537,-0.06333452165549386,nm,0.0
14.868836879730225,-2.317968449976308,-0.4997830107108995,85.0345495120494,0.9680444531361327,-0.6439930473166758,-0.07904462654986197,-0.35624403928711695,-0.18009138688525234,-0.21345420847923008,nm,0.0
14.891510725021362,-3.644302724513668,3.104508115971838,83.4061757337821,1.043319117413753,-0.8857333067425684,1.4937977238821523,-0.3576505395717328,-0.12184530577646138,-0.17702370692746408,nm,0.0
14.926334857940674,-5.050780793490873,4.609544534122504,82.79313887893352,1.0714727392567025,-0.8213634524817128,1.4478705039736648,-0.3200497099984663,-0.23767879542374734,-0.14012977032519366,nm,0.0
14.928188562393188,-6.96387773470667,5.880663652029372,82.292886121458,0.701491006334259,-0.4535225749582318,1.6131706715543825,-0.28865450892119804,-0.3403001690711987,-0.10252226034705345,nm,0.0
14.930583238601685,-11.725221191998937,6.901069095813686,81.8397870008023,0.14866565358812042,0.19246607334570526,0.89865207928862,-0.06840110617902634,-0.4370998005479926,-0.0015079038461386608,nm,0.0
14.94542407989502,-13.600535804605226,6.123533377545117,81.89508168126305,-0.20615722480100002,0.46435815161042443,0.7015221220765292,0.11414327667204284,-0.38608128685416315,0.0669244915523952,nm,0.0
14.94706916809082,-15.134866257716928,4.866779543473928,82.19490088864201,-0.29775752678052664,0.3327958183121127,0.24606249980886044,0.21956945284438792,-0.3324794521266297,0.1170388710888025,nm,0.0
14.96865963935852,-14.635786184005,1.1199755228420878,83.51108147607071,-0.8308438473765395,-0.08323196882860175,0.05346345128114916,0.4464676010806352,0.15869279904034977,0.14237365186383508,nm,0.0
14.973265647888184,-13.077331171822467,-0.8760943396332243,83.81921040716674,-0.782523971526844,-0.2756204715109268,-0.21579585788704134,0.4449571576662351,0.2715101580803253,0.09290549445209169,nm,0.0
14.997604846954346,-7.151156727009593,-4.397583925636655,83.2875142543398,-0.6607901238112955,-0.24226143529255506,-0.07793284294164957,0.43163954905886304,0.6573341937125561,0.003280373248377645,nm,0.0
