timestamp,roll,pitch,yaw,acc_x,acc_y,acc_z,gyro_x,gyro_y,gyro_z,markers,motor_input
104.0030517578125,-48.952548623255254,-29.540910004082694,169.61569884286425,-0.9492944732750793,0.5445827241471907,-0.3703033938222815,0.13283247655197336,0.170514288380367,-0.04661551704729667,nm,0.0
104.02212190628052,-49.15178695188693,-29.326370019531208,170.2353800132152,-0.807358833787214,0.3988474480202191,-0.40614084880678714,-0.03088946793238105,-0.07060522821614063,0.08518411765549327,nm,0.0
104.03561663627625,-48.66198471656999,-28.413065411165093,170.54658041889473,-0.6520214304379579,0.31442416517282473,-0.4337645947480307,-0.11726735647503159,-0.15425847041849283,0.10573406358043332,nm,0.0
104.04082083702087,-47.721870230934236,-27.20033382159932,170.698615654557,-0.5229189811260289,0.1983632615903192,-0.37712947175222356,-0.20606544178513156,-0.20075189472612184,0.10494632012946283,nm,0.0
104.06461381912231,-44.80371494165317,-24.12994734411977,170.1906072553482,-0.33253941349691474,0.13983955143365756,-0.19418080728222567,-0.3419724673715043,-0.263059192661708,0.04359478809784055,nm,0.0
104.07354736328125,-43.08426548149669,-22.281630665620582,169.7545678943177,-0.24350390149736473,0.13096402916522004,-0.09406712206010022,-0.37885015038135667,-0.2972796560792067,0.02950367003106121,nm,0.0
104.09254717826843,-39.921921121343104,-17.718480918476615,169.2771141143022,0.050968636668130674,0.051384281521596985,0.00540483632380696,-0.37152785062571486,-0.4164868505522586,0.039884854390143436,nm,0.0
104.09863352775574,-38.634820413986475,-14.98021495016539,169.3498707978615,0.25825158490257644,-0.08818700434563373,-0.021840757528844977,-0.3479550133525232,-0.4804900015326836,0.05639475746878958,nm,0.0
104.1232271194458,-36.69274575076131,-9.168471062037273,169.9429105956083,0.7371094980694695,-0.4747074845743235,0.1008001217574466,-0.2809010886922092,-0.5280851964139526,0.06762599712141187,nm,0.0
104.12849950790405,-35.8475896647903,-6.499660211475355,170.2744463027854,0.9462584329614014,-0.6770562060915519,0.240477344373516,-0.2613078546255361,-0.4847863841906074,0.06594665702547917,nm,0.0
104.15050029754639,-34.1328689040252,-2.5989403481481115,170.70452507149923,1.0751706115160418,-0.829889624083848,0.511499685184986,-0.22943667326811668,-0.2885406694886256,0.04033285653654262,nm,0.0
104.15507769584656,-33.44637091348653,-1.630953872072634,170.57359322217067,0.8787231037206554,-0.7306815166804587,0.5045532314879818,-0.17244082442330944,-0.15549851648304508,-0.0010602967154043162,nm,0.0
104.1788420677185,-33.09628292990164,-2.4025317805419615,169.69257357693027,0.3870712867994986,-0.4519759423324175,0.5571153772384919,0.023713390815116725,0.1894761447349896,-0.08353254408987482,nm,0.0
104.1832025051117,-33.37235454063648,-4.251882681168749,169.068692173492,0.26812076830728315,-0.3271750968212771,0.6207825283939433,0.1181124244406001,0.36704092171026004,-0.09872998801849987,nm,0.0
104.20288848876953,-34.537263031380405,-9.678298345902112,167.8025884013014,0.47087508981217485,-0.10350968554328678,0.4683301762697333,0.2460794234009189,0.55283076432438,-0.0931911624754723,nm,0.0
104.21177554130554,-35.48796465738972,-12.717793938126952,167.39868849480723,0.6131775291380788,-0.021850284342653545,0.33252759251380803,0.3102470438972511,0.5670560876640796,-0.07140104603340987,nm,0.0
104.23611235618591,-38.29014933543029,-18.136194644276276,167.14056300627402,0.5642591223232372,0.0033182932137030756,0.027265040802050895,0.4011345154321309,0.436738598803357,-0.07098428396539626,nm,0.0
104.24161577224731,-40.15868704507364,-20.28319122826811,167.18300053285174,0.36977572228247446,0.06643226060268641,-0.17911319104560697,0.4372760786291023,0.3532335635000764,-0.09409357891398108,nm,0.0
104.26285791397095,-44.201713374380056,-23.738413819167302,167.06142074436912,-0.256361468891028,0.0768963371705853,-0.36668614445230396,0.434521594660446,0.24110938848188943,-0.16456915869506009,nm,0.0
104.26939535140991,-46.14672728205067,-25.251943816221356,166.82059293434034,-0.5461852676857104,0.22080157359976912,-0.46466380974922433,0.4118812758831046,0.22716786858270194,-0.19057007587952896,nm,0.0
104.29171562194824,-49.08896119480129,-28.152005779262698,166.2497198018579,-0.9355179848086644,0.33417476507596533,-0.41503337219137787,0.28350300695116104,0.2291801739530041,-0.1592912610088603,nm,0.0
104.30007743835449,-49.93795682948257,-29.315428450185564,165.9988276840263,-0.9473341574707157,0.3723677649867391,-0.40642172226993795,0.19971233845819708,0.20203831143711112,-0.11039951591279805,nm,0.0
104.32081818580627,-50.32622628381961,-30.451554456209205,166.01095987574706,-0.9982513215427444,0.29076610643238077,-0.2902645536146492,0.00811397083885933,0.07001491025064725,0.0256129331898509,nm,0.0
104.32713341712952,-49.97102996575712,-30.133913971006752,166.07498741329434,-0.9301255571395827,0.3124679738853324,-0.33155500739315125,-0.07582371845700847,-0.035211973213328675,0.05713062124862469,nm,0.0
104.35092067718506,-48.446135915566046,-28.21689697780221,166.6468571541505,-0.9058229862324889,0.23675374871678412,-0.2008620504897321,-0.21141412236797788,-0.17543636706005103,0.16499278992349206,nm,0.0
104.35459184646606,-47.270284098542355,-26.699319960914718,166.98484710916298,-0.8060496147266211,0.272836531876449,-0.21181958068915008,-0.274465662248319,-0.2361185145257915,0.18397313491883438,nm,0.0
104.3794596195221,-44.28523055117317,-23.274295693785263,168.1596350162061,-0.5233994940382637,0.17234143989969114,-0.13789785423462966,-0.35672685788876923,-0.26856595402145717,0.23524036385072802,nm,0.0
104.38778805732727,-42.63648575667993,-21.391948294145898,168.728999679345,-0.27750238788918263,0.18041247162698307,-0.1472505578956376,-0.37740234100727066,-0.29591389499846626,0.22008757730741862,nm,0.0
104.40522885322571,-39.32754790156319,-17.144244089561948,169.6713062823866,0.278420984639044,0.043306022426823215,-0.12660745444270075,-0.383955606522772,-0.3655212995142126,0.1626396882946223,nm,0.0
104.41185355186462,-37.89672955805196,-14.679367315594224,170.00072485802374,0.4980421531192561,-0.007080168171989902,-0.10521334292169297,-0.3618166120053067,-0.42479000130742844,0.11166399433826808,nm,0.0
104.43380498886108,-35.73480131604143,-9.035165944406895,170.34843360982362,0.8925689492684954,-0.29138391368274147,0.045979304919674384,-0.2852976861981666,-0.5268659149286256,0.020280465854235877,nm,0.0
104.44121193885803,-34.98910484215918,-6.138739166817501,170.40794110685138,1.0840396037295135,-0.5465183891660599,0.2813949252950426,-0.24697565064381052,-0.5342753369803964,-0.0024336909097685856,nm,0.0
104.45977854728699,-33.83353549248988,-1.1777764319361894,170.43676298306133,1.39695411451922,-0.7719886814297279,0.4717431643097555,-0.19131191255609167,-0.4131174981935862,-0.017149179448794197,nm,0.0
104.4709804058075,-33.25312644835202,0.5175311732992951,170.26047780112464,1.2061772632266956,-0.7911601918908534,0.5827481856065319,-0.176636056249588,-0.30190892866987823,-0.03992885726645917,nm,0.0
104.49418592453003,-32.57482107888911,1.38197572671554,169.25405495192814,0.5274719839745508,-0.5367495500059525,0.6865504517696877,-0.041098579481515,0.04384937690365026,-0.10315732216796293,nm,0.0
104.49796175956726,-32.66592487444277,0.04464704377112084,168.56181272443274,0.20793956926066157,-0.387855034345714,0.7176727173830536,0.0649064073904357,0.27267144745304306,-0.10811202383324407,nm,0.0
104.5209424495697,-33.75954338465708,-5.203845622739812,167.24507923333772,0.3320103063412706,-0.1525308648522276,0.6600056646676511,0.26116113193920937,0.5606975652871221,-0.09600915923430717,nm,0.0
104.52797436714172,-34.76328129544372,-8.512074042410786,166.86925166635916,0.5243650374734807,-0.12586840606324523,0.5818920768185982,0.3398024728004685,0.6137932663029534,-0.05907300280302414,nm,0.0
104.53583717346191,-36.15553250956036,-11.749917932482498,166.77180391460303,0.6557785899669091,-0.12349580480242124,0.4399596550785715,0.4121709729154245,0.5813560156090418,-0.028864665551048788,nm,0.0
104.55972576141357,-40.18514390763482,-16.971506992875177,167.22408963396305,0.49850407074127695,-0.07960807786697073,-0.07333339677619721,0.5184130068765921,0.3812075784590872,-0.01720490094817456,nm,0.0
104.56477618217468,-42.6807314661714,-18.93347108886283,167.63783600956089,0.18077737111411082,-0.12315777784584733,-0.22272305807678355,0.546727829495395,0.29202329234108965,-0.03912526020761558,nm,0.0
104.58679747581482,-47.887575508443604,-22.313334237301607,168.379426476064,-0.470419921471899,0.007351966152484732,-0.5313863980472516,0.535721613157375,0.24562279717761284,-0.11119980476505956,nm,0.0
104.59479689598083,-50.20937695156014,-24.159137480909855,168.56146937076272,-0.7861934917512267,0.1188651934725033,-0.5521711205222364,0.49039623878673155,0.28822947916877023,-0.12557779627981902,nm,0.0
104.62263464927673,-53.49780816765312,-28.063242074196467,168.60461908911506,-1.037157019285685,0.3555294270388446,-0.5193148133269054,0.3216597964761084,0.34624193325540753,-0.09222482564881195,nm,0.0
104.62605309486389,-54.36745041433589,-29.820237863011457,168.7426184782427,-1.0675644861495386,0.39801667895265824,-0.3932440301953355,0.21769688597158518,0.3259533264076954,-0.023313057919450732,nm,0.0
104.65090584754944,-54.42393698696259,-31.454069430654304,169.079178683624,-0.9146064401911961,0.4518599637165512,-0.3767939347734379,-0.01904085017392393,0.1042316514016175,0.08090052852625884,nm,0.0
104.65253019332886,-53.91238498320506,-31.16756331328287,169.4371301622101,-0.7938194978261606,0.4575807764090679,-0.3691806743942944,-0.09777453959215042,-0.02892951459920217,0.1296825739482906,nm,0.0
104.67201805114746,-51.6960648584018,-28.569856331020187,170.00775724147968,-0.5775569579295102,0.3268126724681314,-0.3701965639689672,-0.28364662988047323,-0.26471167543708557,0.16224909169384852,nm,0.0
104.69059109687805,-48.29030869888767,-24.570120025279763,170.05190498883925,-0.45017912024080387,0.2394736132863266,-0.23075101311128435,-0.39687134541044694,-0.3403078626070958,0.13680117626918145,nm,0.0
104.69924879074097,-46.314202174897986,-22.365692472126263,169.8384744412094,-0.3615929863879928,0.2358131077680073,-0.175898363461303,-0.43698721554647385,-0.35953876552024144,0.09617450763700328,nm,0.0
104.7209529876709,-42.476143986075535,-17.682309627235725,169.23718155316715,-0.08605059995650025,0.1619234391609541,-0.044295227444587096,-0.4357532765155711,-0.39290267518909056,0.04315257166009457,nm,0.0
104.72596216201782,-40.82622971609325,-15.090785171014627,169.08616299446712,0.11617460928429374,0.09329860653884567,-0.016527025823230287,-0.4119145880822696,-0.43796095515487066,0.02599649555924308,nm,0.0
104.74755501747131,-38.328813972625014,-9.345155200165397,169.08851228682178,0.6991318563121371,-0.24601877857871407,0.019388767190561575,-0.3275002555419602,-0.5203070526899721,0.018684267506707063,nm,0.0
104.7557544708252,-37.380772482275056,-6.490450810685657,169.28699641002873,1.0258902013227973,-0.60425162050289,0.31467989037930433,-0.29564268265272264,-0.5135571863486469,0.027786122084179892,nm,0.0
104.77818775177002,-35.674909928141794,-1.9609446377510082,169.7313427675994,1.3707525526891777,-0.8897646352497383,0.527932229244493,-0.24060196324750696,-0.3455054087378569,0.019801617707675228,nm,0.0
104.78458762168884,-34.939543871511184,-0.7081176310833798,169.61540497961508,1.1853497599670573,-0.9443725808706396,0.7106854548519076,-0.1947087498578732,-0.20723067619490332,-0.032729131124231814,nm,0.0
104.80285501480103,-34.47979570014183,-1.1488071168880467,168.22324516722404,0.43185207271064574,-0.6305206110705913,0.7595350646536249,0.022738444571565517,0.16832532172144962,-0.13799052861006492,nm,0.0
104.8114640712738,-34.85971304332806,-2.9553263031122685,167.3329604704705,0.09735538520339716,-0.3709151379171805,0.6310696737072578,0.1469578909773761,0.3506895497090406,-0.14388670112030583,nm,0.0
104.859450340271,-37.5407683422279,-11.401005793212791,166.30893190896586,0.268524338587883,-0.07619120885167444,0.3472925316263958,0.3484494265450703,0.5424920048433426,0.02237207899830783,nm,0.0
104.86163806915283,-38.778713062820174,-14.029455147952458,166.67654832641205,0.395843158791248,-0.07903991450531234,0.14125051315446885,0.35532222136173763,0.46783382712452004,0.061387856359242,nm,0.0
104.87123250961304,-40.16433925375683,-16.142143188026132,167.19921973240338,0.39960033027370784,-0.039835359894951905,-0.12793639361834747,0.35359466575100273,0.3641387431816331,0.06244793596458058,nm,0.0
104.8730480670929,-41.62930605753275,-17.773031284462313,167.58279057123002,0.20487472957272643,0.010035975542318902,-0.32989702888557576,0.3422817843529197,0.26971230693594694,0.032609236953713434,nm,0.0
104.87927913665771,-43.05932686696634,-18.987460004516546,167.7616666014241,-0.11187662033787626,0.0965018546209005,-0.4683992445902312,0.3144988093486792,0.19188802052094622,-0.025105251257796626,nm,0.0
104.89687848091125,-45.31075644045563,-20.66840050776004,167.48514352381196,-0.8243420320931034,0.3748592384092951,-0.5697012585866534,0.21150873242200552,0.12100181316464872,-0.11175834276984542,nm,0.0
104.90706753730774,-45.95907881205036,-21.299692867160825,167.18554417443616,-1.0991700180445347,0.47870444636849785,-0.5157826882917367,0.14344304961102758,0.10912635693393162,-0.09944720141517291,nm,0.0
104.92595505714417,-46.067018128508764,-21.803793717488624,166.97146135797573,-1.2067519690440585,0.5174682702704043,-0.44802890804088286,0.0,0.0,0.0,nm,0.0
104.93650412559509,-45.54249300652011,-21.518244207663308,167.2221669989825,-1.0770938195011945,0.4120572764908432,-0.42896917389552014,-0.1104523627784244,-0.021531366085442837,0.09593111304229264,nm,0.0
104.95767641067505,-43.5770044907496,-19.77942610355845,168.12653651551847,-0.6388502268486826,0.23501358279844983,-0.41501682569703213,-0.2546874033156384,-0.14896270185316737,0.1795795568864423,nm,0.0
104.96618700027466,-42.15227975125643,-18.442493015819846,168.6303308848512,-0.44389766882992576,0.17312973173730545,-0.3843513671876212,-0.3210996285347227,-0.19555793462908147,0.17479883405827745,nm,0.0
104.9866783618927,-38.712528198376994,-15.178459986676064,169.02598711276377,-0.18973101263594008,0.17400106474194751,-0.20030108874369976,-0.40830128782848496,-0.25930596608224266,0.09361136677773435,nm,0.0
104.99577832221985,-36.88274815327409,-13.284585535539437,168.9743215127956,-0.11299728644730431,0.17751719169279542,-0.08672062956095287,-0.42465326332419656,-0.2919921029594494,0.04878362373943055,nm,0.0
