timestamp,roll,pitch,yaw,acc_x,acc_y,acc_z,gyro_x,gyro_y,gyro_z,markers,motor_input
4.001624584197998,-25.846014758632105,-11.010157670259337,134.95548190903668,1.5260912327457858,-0.8524662527724703,2.2713616580189875,-0.7157694971301164,1.119149502432466,-0.333428214716007,nm,0.0
4.0302653312683105,-17.65116341064667,-14.175989815483028,129.6775630344166,0.7365882222088554,1.6186037282666323,1.5122295409183528,-0.12677330128458353,0.6939330824255168,-0.29467166409724993,nm,0.0
4.033026933670044,-16.52595165324385,-16.53137476859493,129.12602821712426,0.5384819000507096,2.116028408317424,1.191336143825734,0.23128727013481226,0.48088967563371854,-0.05016629599725909,nm,0.0
4.035984516143799,-17.111960133795126,-19.40785529595341,130.23005371739453,0.3371703919258652,1.5320448406134881,1.263358903291146,0.5191585055163406,0.29551635750196703,0.18584481097694036,nm,0.0
4.05380392074585,-19.563777645247253,-22.519390314041296,132.3297516536623,0.3215172236488336,0.5728406907208261,0.9776415456577796,0.7749531467231876,0.0801111055111972,0.24649324346646256,nm,0.0
4.0557098388671875,-23.384892759051116,-25.48528442729376,134.36215573469812,0.38320493475592665,-0.27975200712759757,0.3774048723921554,0.9157025451233247,-0.08733875458689294,0.09847416795018339,nm,0.0
4.078684329986572,-31.795275603909158,-30.68590517966342,135.18457217136532,0.1648661397692041,-0.6883333727243495,-1.0536019548610562,0.8760547898134874,-0.12936299157762893,-0.5127641542766321,nm,0.0
4.083091497421265,-35.54215352019009,-33.32412439243538,133.76111403012837,-0.22829738320190238,-0.30581392753949743,-1.1162014192541065,0.8283968263814736,-0.06992068312671566,-0.740609890951426,nm,0.0
4.112076282501221,-46.68276803940966,-38.53514676286292,129.6536704926101,-1.4767372453501686,1.2273896449286834,-0.24992785334087209,0.5388753093699891,-0.33519056665177477,-0.6701910343897151,nm,0.0
4.13474178314209,-55.3069128005919,-37.42897868810328,130.7683258840971,-1.7650654098399952,1.8439324788502607,-0.4076185991288785,0.2839818539939667,-0.6297579953663912,-0.4237121369449915,nm,0.0
4.143317937850952,-58.785799999721206,-35.96415530000594,131.73107191805,-1.8743862141919545,1.63495521524317,-0.7637163928069443,0.15610054591725836,-0.6046421211590981,-0.2855113004626832,nm,0.0
4.163756847381592,-63.78265360146286,-33.50003715825653,133.24648669523577,-1.415511365527185,1.4006186723005705,-1.1937976636283576,0.08028487027659478,-0.3913165346720633,-0.12906377146232104,nm,0.0
4.186808109283447,-64.87895102055671,-31.380300590154857,133.87461460081178,-1.0255550849167567,0.9387881600267968,-1.142943062949504,-0.1492290761310098,-0.17066682946854672,0.03366755367016527,nm,0.0
4.18863844871521,-64.26517616203692,-29.508877436217944,134.1691611105659,-0.7720505685154027,0.7227091557454081,-0.9890466522767464,-0.3380129184050654,-0.17592212174354932,0.12708083549611487,nm,0.0
4.197423219680786,-62.88449300736699,-26.59291858341341,134.7203875424752,-0.5431293987598381,0.4022795413734505,-0.9276859019084164,-0.5828719669593413,-0.22607872256487266,0.232877057305021,nm,0.0
4.220640659332275,-58.16186832111758,-18.035160930585096,137.0483418802988,0.20198676454947148,-0.5809298438046485,-0.9089313531647634,-0.9989436184050873,-0.3075417227062133,0.4382253029312835,nm,0.0
4.243093967437744,-49.797929805648366,-9.439984757292306,140.5391753847539,0.9627559763723611,-2.5585292146217906,-0.08211481837022205,-1.2188800910096729,0.005207530143811917,0.551463796051373,nm,0.0
4.244738578796387,-44.80582111045823,-6.648640151209216,141.7465153202391,1.8280273618064715,-3.0230269568363983,0.7299273923590158,-1.1190015200553345,0.20237126912499856,0.44731077638077543,nm,0.0
4.268472194671631,-33.09003816212983,-5.539363705472221,140.86446244359558,2.100824809360714,-3.1379710948310873,2.230993610202069,-0.9129620900222497,0.7940668560132595,0.07936721411357088,nm,0.0
4.273776531219482,-27.78240065100203,-6.478190405877242,138.71289151972968,1.9650250946907566,-2.0533388640474235,2.334729794976177,-0.6791200691159283,0.8432889803507454,-0.20485041617341698,nm,0.0
4.297107458114624,-19.678795650508015,-9.95867723587243,133.55453104154984,1.079204435942526,0.30687587332589134,1.8089640190680385,-0.20396932433659046,0.7948591246305304,-0.3586429312256217,nm,0.0
4.302728891372681,-17.538354888974464,-12.312610516804542,132.01623731817017,0.8186371560316836,1.2148125791603628,1.38345273178215,0.06450029102801064,0.642609734680098,-0.2189574905416979,nm,0.0
4.324175119400024,-17.158989224585383,-18.133732813997145,132.8563718415218,0.4391396001315614,0.9144294543553179,0.9272873303112583,0.5399014515755541,0.36625327912589495,0.18247482353436317,nm,0.0
4.337578058242798,-19.1186570082411,-21.422893949538068,134.64881380001327,0.3603134812959319,0.3185022201839272,0.6977509673012486,0.7346843141434966,0.20293053634250047,0.21586318603450005,nm,0.0
4.343099117279053,-22.032011876594183,-24.416848948253666,136.3177922471331,0.33472583267077455,-0.29954587003248107,0.14169984312779516,0.806909412870736,0.06526001107395828,0.0848122119087232,nm,0.0
4.363529682159424,-28.794325383905914,-30.218547453102733,137.03797368184385,0.002754451750884399,-0.2581439519340726,-0.9016123401176128,0.8342990640167165,0.046487664640670716,-0.3940579044108458,nm,0.0
4.368463039398193,-31.786985598716658,-33.10303018447643,135.97342103861328,-0.37252283836762073,0.035803080238982966,-0.9174614340163948,0.7721827342123004,0.08203381865829004,-0.5736613786994539,nm,0.0
4.391430616378784,-37.815730403105285,-38.037544960364364,133.27639297339869,-0.8592869835887414,1.3474666313896255,-0.6322719044790706,0.6659155416291463,-0.021914147875895844,-0.6434902977393832,nm,0.0
4.3997156620025635,-40.722698152816676,-39.5403328286362,132.66776461957596,-1.3846899875691343,1.277875785315733,-0.2821664442992322,0.536064146964102,-0.11549169446399951,-0.5161848021546758,nm,0.0
4.420235872268677,-47.70413796912395,-39.753614672850006,133.0046431857044,-1.6234204567433197,1.7477908937381688,-0.39422360146735985,0.32715458827111626,-0.4342560401803897,-0.432281123988958,nm,0.0
4.449631929397583,-53.566301007214264,-37.778181875301144,133.97630116158524,-1.7417441322833158,1.3808424420385144,-0.7286589809195276,0.14313071656666182,-0.4533073694789906,-0.2821114517986982,nm,0.0
4.451374530792236,-55.66049821251185,-36.524895994979545,134.32360935590532,-1.5725135155785523,1.3068381963598328,-0.9081564540779735,0.06003934364588904,-0.4055994434711245,-0.24014887635597615,nm,0.0
4.456724643707275,-56.97704234877766,-35.11949840853279,134.5081261343232,-1.4289758362835676,1.1609584865832903,-1.0130646346499472,-0.04467145607803956,-0.3409256258394335,-0.16317627923591377,nm,0.0
4.481513977050781,-57.57128877984732,-31.045921494504263,134.80028579690364,-1.0732791117156744,0.8768208630719995,-0.999681663808829,-0.3346465088088043,-0.3152060508552432,0.03820884550017303,nm,0.0
4.490521669387817,-56.85295872102334,-27.901051908469977,135.34866673142764,-0.8203909140894542,0.5756059942490213,-1.0230822905550214,-0.5279725399612589,-0.34838800474740983,0.15763948191114388,nm,0.0
4.511657238006592,-50.59652396297112,-15.206078049864697,139.6902567495781,0.5318929586191704,-1.2773154444903319,-0.7423530086825563,-1.0022370270104901,-0.29299033823432225,0.5202959030537961,nm,0.0
4.526993036270142,-46.60041821132883,-11.239254103455021,141.65663173830103,1.2217150565719046,-2.1862555958842913,-0.2393303860634931,-1.1038721279054804,-0.10697634570255278,0.5939546770408006,nm,0.0
4.549681663513184,-36.26472712599418,-6.777628775330549,144.95305988735316,2.7134030447325546,-3.268984960524965,1.262227936873023,-1.0257301294207462,0.38246708797683465,0.4415765979879713,nm,0.0
4.551976203918457,-30.233473655659186,-6.684787256748809,145.02042352317468,2.8158926507575885,-3.0165083812456395,1.902383712756085,-0.9903768967457109,0.6892405274368402,0.20500337174519126,nm,0.0
4.55963921546936,-24.1789680196545,-7.5620509601082935,143.45723138318397,2.430073329837804,-2.517792761217708,2.3974919815975424,-0.87046658628315,0.8614793571480454,-0.11641820488176433,nm,0.0
4.586313724517822,-15.582686228963922,-11.236902997157653,137.8786930148403,1.2292928075004144,0.5157853221343044,1.7090735558185899,-0.3012052240009769,0.8012277413971503,-0.46073895037245877,nm,0.0
4.588475942611694,-13.052332942507972,-13.44823843068839,135.59507107272645,0.7468233288844047,1.3516803132950244,1.3549586614643165,-0.054051352820910926,0.6757787572394105,-0.3492988249519805,nm,0.0
4.610751390457153,-12.632800978072524,-19.603971651618405,135.44453281599343,0.2911512027047711,1.4021054818993293,0.9125575008929662,0.5555720068058265,0.41831766268583387,0.1135644563194761,nm,0.0
4.617432117462158,-14.738763872257309,-23.07796150361355,137.3029740610752,0.23291821507710528,0.6166394039600396,0.8479017136079674,0.7668909398772179,0.24694878487279756,0.2095596824492461,nm,0.0
4.6408610343933105,-21.917157177535955,-28.879731527403543,140.51536974349324,0.2745097021157438,-0.4323892009696698,-0.5555359212570952,0.8796559141159138,-0.004383511570329544,-0.13645366931980862,nm,0.0
4.646062612533569,-25.558169868451984,-31.545030084693504,140.41641966574937,0.03535084420391464,-0.35376712841967817,-0.9900875926061627,0.828755220780958,0.025051029937932717,-0.4154738546286078,nm,0.0
4.669374227523804,-31.45937139279002,-36.52286525709942,136.8568502875078,-0.7453117460243078,0.5605929654840445,-0.9081248935602309,0.6706944833128057,0.06043446593049545,-0.7939347401204396,nm,0.0
4.674596309661865,-34.16914688407779,-38.57998225471718,134.87545216230984,-1.0119315678859666,1.2265356935721459,-0.579577115335405,0.6012067760192638,0.008929511963157891,-0.7672397475882305,nm,0.0
4.698896408081055,-40.31302954816226,-40.39341809112283,133.42219506997435,-1.800203330221134,1.5048719951131155,-0.06823195145257531,0.430900254866984,-0.30923256045223374,-0.5365872572874169,nm,0.0
4.72181510925293,-47.390207029652686,-38.98625206970766,134.94824366914986,-1.786743507037693,1.5677256016870538,-0.5664351257291245,0.23491620996594828,-0.4878068282621205,-0.2783788633795461,nm,0.0
4.723777770996094,-49.911819891032756,-37.81179437762065,135.8356879429826,-1.870738816427128,1.1055493391360962,-0.8110648339527583,0.12348083532213565,-0.43527282454827376,-0.17547987089165093,nm,0.0
4.745852708816528,-53.017353623323224,-35.502087619771565,136.3848009348942,-1.3041194539209815,0.9666545299702441,-1.2017695608280838,-0.01661683777354444,-0.274336825894661,-0.10970287956348138,nm,0.0
4.74970555305481,-53.12397096786008,-34.2781353466331,136.27840457001818,-1.306921783161411,0.6506755208430465,-1.0718706591729859,-0.15100422241066033,-0.17971542554627895,-0.02920904502806412,nm,0.0
4.771832704544067,-51.495246818720815,-30.088267241040427,136.21725566762308,-0.778545498545778,0.5867576249349302,-0.8706148983119428,-0.47537077286696394,-0.21198882932810983,0.12748471750380214,nm,0.0
4.792227745056152,-47.82431910413465,-22.868726885025517,137.95134747272647,-0.29691674115675226,-0.10181021330359366,-0.7063374162697266,-0.8048295175772229,-0.32528816594109544,0.38997424433616884,nm,0.0
4.795480728149414,-45.22838923381826,-18.495543728465577,139.51486775213922,0.22267880530322526,-0.7007635974457496,-0.6743098334530157,-0.9397070570010385,-0.3253792687742523,0.49024837331913906,nm,0.0
4.820425987243652,-37.836205932757494,-10.672440218665551,143.4052334027643,1.3391101513870656,-2.6535677615553115,0.5048183901933313,-1.068596344864958,-0.07595248790497655,0.5732587723340099,nm,0.0
4.82448148727417,-33.597858826535195,-7.956588958607809,144.91162032665994,2.400699506511349,-2.8350667144126795,1.059081656099845,-0.9959971450167437,0.06456928676686621,0.45801650059821747,nm,0.0
4.849079608917236,-23.65476748871365,-6.102552336614194,144.88809019243863,2.563281540761535,-2.4153103533651366,1.9772392149025984,-0.8666305031071742,0.5236960601584559,0.06148152976356285,nm,0.0
4.856595754623413,-19.350668976901787,-6.4406392706037545,143.0764512778884,2.2496036841959732,-1.5005575271793783,1.9934599309611607,-0.6503626256214853,0.5744068112324431,-0.21436605476441986,nm,0.0
4.8772358894348145,-13.455353090938337,-9.736213987254496,138.4666241190061,0.8890560876416681,0.6871227835257859,1.4121977222814075,-0.10705966995958502,0.6344394670534005,-0.36698305905795187,nm,0.0
4.886279344558716,-12.095276092894855,-12.128235084727184,136.9015277683363,0.5404056058333304,1.324188359763831,0.9635331739113187,0.12764655007848305,0.5482974415596459,-0.24866360885452804,nm,0.0
4.892732858657837,-11.689503957933642,-15.046000953376252,136.46589283911652,0.29829560123156895,1.3233510104866189,0.8217365441661897,0.3463052943135803,0.49325452434872397,-0.054837577014706755,nm,0.0
4.901299953460693,-12.48609065587006,-18.48428808668158,137.17226956832818,0.19565363524788293,0.8743629812126125,0.7033341180937195,0.5850543705484028,0.4117397933105038,0.09536835167430743,nm,0.0
4.925844430923462,-17.17013206258323,-24.974962246479958,139.63654466771212,0.2175063972809177,-0.22869716886380362,-0.02696164756577535,0.7710861554534297,0.146875064416028,0.005775408711265805,nm,0.0
4.95085883140564,-23.027538795975644,-30.373331203814445,139.7818208257378,-0.09615629594523345,-0.15106719598039242,-0.8513476652705185,0.7259430689265641,0.10091743160064716,-0.38190823158975645,nm,0.0
4.95257568359375,-25.496653368940795,-32.76536612101582,138.6400548234181,-0.49586386763358337,0.03066898064308113,-0.7185533215426415,0.635390853096232,0.10170915771709246,-0.5204605431466249,nm,0.0
4.9750401973724365,-30.229778521025704,-36.48998499566068,136.1328589804511,-1.019565855725719,1.1387015373371578,-0.5918603691102213,0.5056838006661589,0.008863435525060234,-0.5195697307375176,nm,0.0
4.980384826660156,-32.47209996608831,-37.718424051562806,135.6433616023981,-1.465568378662348,1.0387482861599004,-0.24690126343175248,0.433615899244718,-0.06009633340531294,-0.3897723412623429,nm,0.0
