timestamp,roll,pitch,yaw,acc_x,acc_y,acc_z,gyro_x,gyro_y,gyro_z,markers,motor_input
34.001431941986084,13.892294596738726,-23.586061224774507,44.16461250056288,-0.5715448716301278,0.9181823642915571,-0.07552693065622572,-0.2126927066350043,-0.14697167845120745,-0.06563634869698412,nm,0.0
34.00498938560486,12.2310515755637,-23.25916179284713,44.42237558880987,-0.5190663370216023,0.8865561823031703,-0.01804093894263743,-0.2504813728584684,-0.16628706821775954,-0.051549869713705405,nm,0.0
34.01123547554016,10.368251949437536,-22.973345596075678,44.92402531304603,-0.46316573692784946,0.8261776906922025,-0.024222524036122087,-0.27018378247259617,-0.20099998367547095,-0.04954826905390485,nm,0.0
34.03367257118225,6.30221425632157,-22.570305672080938,46.16530544876517,-0.3796388445106287,0.546632444282688,-0.12164960476772138,-0.27686857405439796,-0.2464888782854764,-0.026607491401654436,nm,0.0
34.0408456325531,4.159480468870632,-22.357626036661763,46.96924405662776,-0.3757862801770714,0.3819932276700015,-0.2062378148302487,-0.28931454528005124,-0.25948314390015964,-0.005570870499276627,nm,0.0
34.05860114097595,-0.17161668145207895,-21.67127639687679,49.047558729599025,-0.2790698722291449,0.08855833984958116,-0.37244271907522114,-0.30868024519509546,-0.24195443668231714,0.0638057957579643,nm,0.0
34.07355070114136,-2.1860229808658134,-21.07924179790856,50.19655448207881,-0.2209880170698412,-0.05057800292123686,-0.40675962625599793,-0.3194368971097456,-0.2098955190708796,0.0979664926335819,nm,0.0
34.09876227378845,-5.042895134603309,-19.421839810659844,52.41822314197084,0.08243935057445581,-0.265724582501097,-0.5336974548525353,-0.2539060369681687,-0.049412627106872886,0.16802402168523953,nm,0.0
34.100417137145996,-5.4166985850402645,-18.41745598965276,53.28768530814397,-0.08644386187334027,-0.3596248312121981,0.06796354611773846,-0.1885699494127139,0.06495749272621361,0.18762839421310512,nm,0.0
34.1161425113678,-4.073321431565676,-16.60757656363451,53.989429018872485,0.46740982684601534,-0.6917670986270245,0.43020041743327064,0.035936052208219986,0.3026879047265224,0.1962179089886808,nm,0.0
34.13060474395752,-1.9543785541775676,-16.15765403506714,53.81387747584729,0.45905082704626776,-0.7337617542002269,0.9923467941759143,0.18276823631471215,0.3813308588519598,0.17055509424541923,nm,0.0
34.13635730743408,0.47192319803359395,-16.17362708737984,53.369519472461114,0.8507440902693487,-0.7829400667681848,0.8588350432881809,0.29459592971750076,0.3730793840006247,0.09884993660528445,nm,0.0
34.15608263015747,7.1046398947102345,-17.456203587604712,51.383909734635814,0.833027234455773,-0.8551206591172291,1.007870006914051,0.5497876873205226,0.417426434393706,0.0017447722233753238,nm,0.0
34.16376566886902,10.466425328079978,-18.48441660109605,49.893672297204326,0.8772380992310598,-0.8650070261557405,0.7830778325371719,0.5796647303612543,0.3639849840073009,-0.05378383661845542,nm,0.0
34.18716907501221,16.635947445791675,-20.341572518106286,46.80669194087237,0.5976409326546063,-0.6853689029864444,0.2443913209781185,0.5113543286506255,0.2869569216462322,-0.10559886194873906,nm,0.0
34.1940975189209,19.299741832020995,-21.228238293597936,45.269668214704346,0.45706348144629416,-0.5308153873005288,0.011928372541220473,0.4873878692576624,0.23643780632201852,-0.12365311375713668,nm,0.0
34.22167253494263,23.56928631961845,-22.969987455935154,42.506487945834564,0.12165486558725093,-0.3150172677710353,-0.20118762517025496,0.3852827241605556,0.11864320727524229,-0.1542479654893717,nm,0.0
34.22351598739624,24.976510840705213,-23.708277434310258,41.155486777103214,-0.038754938265892255,-0.20746912214630417,-0.2816805786775453,0.30467380767015007,0.06318587732711631,-0.16443623102782434,nm,0.0
34.2364764213562,25.837892697952462,-24.309353851736105,39.94353065746402,-0.2515256520402845,-0.1438512357749048,-0.24484787406898967,0.21127521110462472,0.011656838673249669,-0.1780603051591844,nm,0.0
34.24294471740723,25.946777112038376,-24.7651094593019,38.85368179289478,-0.20699031266963294,0.03372215100115136,-0.5864451716282183,0.08659926814567795,-0.05745938929209841,-0.21467094024701178,nm,0.0
34.24942946434021,25.987928739410624,-25.06566199286278,38.006067094861415,-0.3096542872014839,0.16491757029918672,-0.5596099438589421,0.056655610106030395,-0.04217820174737024,-0.1820642049906845,nm,0.0
34.26888036727905,24.69802969591101,-25.218170439999284,37.30125110820537,-0.47842315610917363,0.4524088218612801,-0.23526360264995302,-0.1424386904745167,-0.12325417550755295,-0.2112064914009677,nm,0.0
34.279895305633545,23.436669703272525,-25.15364652777017,37.17591694694743,-0.4134326202481654,0.7320258092358846,-0.31174455941559864,-0.1760447022895939,-0.12865361386156643,-0.17736298867181502,nm,0.0
34.288480043411255,22.083682256863984,-25.056987773925236,37.251771600550995,-0.581278242141062,0.8481447514195618,0.028712877232931797,-0.1933424589345099,-0.13372079763462486,-0.13314063079389218,nm,0.0
34.29696536064148,20.20554701688136,-24.96795475620736,37.51317417319576,-0.524195060721244,1.0150203038498937,-0.12064147203902366,-0.2677689476448337,-0.19380318435912833,-0.1362807766113639,nm,0.0
34.31965255737305,16.183995388889404,-24.770268854510167,38.627602452198275,-0.6851210865972358,1.0107273896637754,0.06202048235570247,-0.2871191931924962,-0.2111668450142047,-0.06580493968711094,nm,0.0
34.339693546295166,11.725305324848954,-24.529143278268812,40.63550215921488,-0.669331252103175,0.8943674459220153,-0.16329448381135805,-0.3122405467541354,-0.24354878411936154,-0.025667580101416943,nm,0.0
34.3443329334259,9.560168578790003,-24.308656202106036,41.727924362037896,-0.6622397838123895,0.7856381724614803,-0.1537327247277142,-0.3118948795365101,-0.22839206174574733,0.011995465388516462,nm,0.0
34.36673355102539,5.2724744888496256,-23.598903339668144,44.14793801344605,-0.3787176718510369,0.5052314135788044,-0.34490054894257044,-0.3168504926197171,-0.20854316570718706,0.07448413556106424,nm,0.0
34.37308406829834,3.3615307150350144,-23.124494678356484,45.41120209866496,-0.2971150041928347,0.38159877209982335,-0.3111634490390815,-0.30211092566057324,-0.18116340229061223,0.10839996855323888,nm,0.0
34.39779210090637,-0.2922903173261722,-22.00124810645454,47.8203026172188,-0.07474853560373658,0.1231489324569514,-0.36965351420292425,-0.296607115748025,-0.166651848784025,0.11892714887729355,nm,0.0
34.40081548690796,-1.9422775108916959,-21.367726836711608,48.934279155347696,0.061470671426313614,-0.0033570302666920053,-0.4740305750834967,-0.28453329439793346,-0.1460828179949924,0.11751473497922221,nm,0.0
34.42431116104126,-4.755366171323245,-19.870143507422682,50.89048046688895,0.13970507655190062,-0.3207731617867295,-0.4547284911614804,-0.2868254433777114,-0.11700162610594032,0.09604539916477792,nm,0.0
34.432315826416016,-5.904422398927075,-18.977020464858427,51.7499187180809,0.6556707307115798,-0.687180357710051,-0.7184980433129748,-0.2608739037733689,-0.058262436305348275,0.10983833311989123,nm,0.0
34.453293323516846,-4.6450440828433415,-17.016545945339104,53.11792935767621,0.5718799095895797,-1.2894907957240604,0.7966961289426164,-0.017602280345162775,0.27702136928485716,0.2196621349522049,nm,0.0
34.45791673660278,-2.992862617243568,-16.19530461894216,53.45286844397373,0.8016612830369628,-1.2624659500254223,0.9427971855745184,0.07255869776514128,0.35216275979933337,0.19553221507030774,nm,0.0
34.48369574546814,0.6568185061703832,-15.348464043583984,52.963703581568424,1.0984402228004286,-1.247956005508624,1.3969564731118143,0.18543497761973585,0.29932015661508854,0.03430877976272038,nm,0.0
34.48765730857849,2.519227908400076,-15.645739512028063,52.38442039388828,1.0485252240084895,-0.8348582435757217,1.253804974870938,0.27929108792909535,0.24972274140424897,-0.019658265356402877,nm,0.0
34.51135849952698,4.477875528541756,-17.293351636697327,50.775156999125905,0.6792423819654965,-0.4500506904143931,0.41210878647149823,0.25033712199910163,-0.027869930905351586,-0.13434891247068562,nm,0.0
34.515252351760864,5.173235116743539,-18.60661606256928,49.99228849297612,0.2800248363449778,-0.4008993518879974,0.46318696258294423,0.301084581367583,-0.06575697511932226,-0.11717864833953716,nm,0.0
34.539283752441406,5.881720682677049,-20.715164819212525,48.85604603975982,-0.23249262984014887,-0.3298525912852985,-0.22778080906115142,0.18301315891556483,-0.08293625350921774,-0.09148785599146686,nm,0.0
34.54341673851013,6.2376552447058495,-21.429070120805022,48.370195706511105,-0.39954235038644964,-0.21958550545533553,-0.23355521602982654,0.16533069709521844,-0.04488565832826568,-0.07474662724676283,nm,0.0
34.56513023376465,7.305656963633202,-22.011515362422916,47.444961453632104,-0.3044302173901948,0.13030110281442359,-0.3590988855058515,0.12862629461809363,0.07973625566281323,-0.051918825628018736,nm,0.0
34.57232069969177,8.126847763887,-22.139533954362673,46.88768859358077,-0.3218949129902722,0.3293472009596098,-0.18791596061559537,0.13645629284922126,0.09394560856848057,-0.053088275435920235,nm,0.0
34.5937762260437,9.747759631020418,-22.579061715232175,45.87003301856433,-0.1352478402623759,0.5363761218191456,-0.2136919379735796,0.16977269302141448,0.09167503086923823,-0.022999036900223445,nm,0.0
34.60236358642578,10.741118007213093,-22.93635201882501,45.5233727579016,-0.23674915651223,0.5283263656925605,-0.1340549921186999,0.19329848007851777,0.08097590880343386,0.003926292744339143,nm,0.0
34.620020389556885,12.747907635987593,-23.859408467044158,44.94629346342678,-0.3754018031249477,0.45667901382974996,-0.12869364394371788,0.21599875926596124,0.07524808910806575,0.04041659574140483,nm,0.0
34.632221698760986,13.77275421109738,-24.209377021436808,44.599130901308726,-0.4888479434720536,0.41665773445069204,-0.15662654193200476,0.19641079693506178,0.08199495983067094,0.0346040378863404,nm,0.0
34.65167260169983,15.693018657658621,-24.537661340822186,43.90803837761142,-0.4773757956521219,0.49051654481253,-0.1793040509974376,0.1508957157721499,0.10983104873781595,0.005020355075809698,nm,0.0
34.663347244262695,16.447196510483998,-24.451129703747284,43.56772522551865,-0.4224129372703939,0.5385652923743288,-0.14322032746955712,0.1011206801855777,0.10761604308342947,-0.009780379647252067,nm,0.0
34.68133735656738,16.86157634533628,-24.001093460379664,43.39432062830781,-0.30874838426634693,0.6229148899184709,-0.0560675695233113,0.0,0.0,0.0,nm,0.0
34.687318325042725,16.244664133984788,-23.680073485928173,43.72528973764758,-0.26495389126873825,0.6441757718324754,-0.08425970271121963,-0.1123723239921965,-0.03130238554699719,-0.0033426437852839613,nm,0.0
34.71076488494873,13.418830604045972,-23.074320445904075,45.33721894137028,-0.2599932278521251,0.5194221587421151,-0.11224050689577304,-0.2420076699562166,-0.17303708251671449,0.010724157660944969,nm,0.0
34.71463680267334,12.001652366659236,-22.867573020956623,46.08299514295305,-0.2751563949714777,0.37690022472177964,-0.19121651448409321,-0.29442018020323846,-0.22306253537979978,0.012193181673510403,nm,0.0
34.73627281188965,7.299211046228156,-21.971259742458013,48.28194621085888,-0.26352820087686873,0.08844359853262646,-0.277749375626832,-0.36217646292548195,-0.26692288533410474,0.008704927282084768,nm,0.0
34.745245933532715,4.803888445628143,-21.32785935211564,49.439543127591094,-0.1782265162559543,-0.04778073085134458,-0.35603820990214247,-0.38799257016361133,-0.26575418626389347,0.011932041888839359,nm,0.0
34.767040729522705,0.33907144394237854,-19.59753287294533,51.787399880798,0.1303728719470368,-0.3630787325241923,-0.44861759714730093,-0.3749660566978658,-0.18697893393690182,0.07583002787097373,nm,0.0
34.77236223220825,-0.9397594498565937,-18.540844444497402,52.9874052580783,-0.04241886196120879,-0.5444978336160459,0.12608811124962485,-0.30103318887481095,-0.06261749859060016,0.15435591350562491,nm,0.0
34.78164315223694,-2.0014378981542555,-17.38385428991802,54.216925634744385,0.15169935083680092,-0.769302006910377,0.3735409356721847,-0.29218786357336674,-0.025175164229614903,0.17839652176259727,nm,0.0
34.80528378486633,-1.4201602848872446,-15.268495267932678,56.17292632834765,0.41997118539329537,-0.7269726396337937,0.7819766238023343,-0.04885543961668662,0.2511917866683282,0.2544728982493728,nm,0.0
34.811649799346924,-0.16395832336298052,-14.716558158702787,56.59548537289668,0.7445715164684686,-0.5157019030387745,0.6688655565437286,0.056936083615261805,0.2642663751108333,0.17512397883204908,nm,0.0
34.833367347717285,4.197494811118742,-15.357959480213845,55.58185480779089,0.9600206736928948,-0.18588543885028225,0.8991588362253341,0.38177619310971245,0.32932699913942426,-0.02068820266570428,nm,0.0
34.839497327804565,6.7179497852451515,-16.43343699623287,54.25044354805819,1.0012380904213198,-0.28347792523124843,0.7627565299075321,0.4691701399379987,0.2742114480522945,-0.12172750338277674,nm,0.0
34.85872292518616,12.034211713376187,-19.481004596088873,51.023925591341744,0.5231868761736351,-0.6059608062638686,0.5039096921463184,0.5697158399721576,0.19151909677280712,-0.16628914053304386,nm,0.0
34.867772579193115,14.318020344709492,-20.977853512479555,49.57841989903759,0.3195336899146444,-0.6656767743482802,0.015718198887660684,0.518286248042954,0.14001933521344742,-0.14746268119816958,nm,0.0
34.89260745048523,17.98311080599665,-23.271850182643526,47.183646904456666,-0.17676330936269694,-0.5354773389755069,-0.3033827001794141,0.3580858800697388,0.07839448897420571,-0.10743042490213436,nm,0.0
34.895623207092285,19.171631559943442,-23.962641473769306,46.149306193227865,-0.19397845751211096,-0.29993974922568695,-0.48200507970338646,0.26385402406569197,0.06476367520614869,-0.11648223661255772,nm,0.0
34.9148268699646,20.157244705790077,-24.36875286924317,45.11098005030831,-0.3206313945574214,-0.1286146429667192,-0.2792624381935253,0.19763270337052327,0.07285436827721235,-0.13190668966299604,nm,0.0
34.93078851699829,20.58000217420216,-24.795765577684215,43.02247569250921,0.012903875136218643,0.3495640184654133,-0.6093826600775744,0.056224873179871404,-0.008168186261576163,-0.2284481516952473,nm,0.0
34.93428039550781,20.813751199084354,-24.952845695321603,42.079734998143415,-0.3147024410335149,0.3610022657488677,-0.01795497293170744,0.06617064658292895,0.006024732289307268,-0.2007582537147963,nm,0.0
34.95743203163147,19.29042980761992,-25.3368639871591,40.81752039780949,-0.28097758114536997,0.5631645575105084,-0.3283548677962413,-0.07859982193282745,-0.1374587953205592,-0.21885212510993673,nm,0.0
34.966309547424316,18.358918342688998,-25.493778428918823,40.62653368822239,-0.6095855179951123,0.5337782712148244,0.03437751337033148,-0.09320518188342952,-0.1341581438167051,-0.1569153457824932,nm,0.0
34.986488342285156,15.198185209495676,-25.398215656197827,40.98264573797598,-0.6601878527718104,0.6543555543853418,-0.17274411605455806,-0.22557738639695268,-0.17715194788236577,-0.11233392052465728,nm,0.0
34.9917311668396,13.542592051087063,-25.12934099648505,41.438795129863095,-0.7706972641541178,0.6957180417314963,0.006746023903161043,-0.2469130150896342,-0.15807428588874142,-0.07475223250268608,nm,0.0
