timestamp,roll,pitch,yaw,acc_x,acc_y,acc_z,gyro_x,gyro_y,gyro_z,markers,motor_input
48.015629529953,-7.707730152718021,-6.962529981062812,64.91927500066136,0.19480790873863277,-0.012763663446311517,0.29234406231531535,-0.03033283434622101,0.009519689724391817,0.047874651525768766,nm,0.0
48.01999258995056,-8.01474288533508,-6.78485980750724,65.15079475911303,0.14077070043889087,-0.09799903114936247,0.25021850971308074,-0.043966103622298615,-0.038225982320652475,0.06115924289901742,nm,0.0
48.03073000907898,-8.448862540203049,-6.6137623015303015,65.4233762020386,0.060142853795040634,-0.14002338774499473,0.2489095886612926,-0.05316528283705384,-0.061989127578960905,0.05803492169148199,nm,0.0
48.04058814048767,-8.965499103748332,-6.405992223207345,65.5683901426757,-0.04858126582389387,-0.1585959637887842,0.2615831332878408,-0.0664332113800974,-0.07413996758324978,0.03156367920200845,nm,0.0
48.063246726989746,-10.192309861357911,-6.010877816481374,65.27726637176002,-0.10477361948960705,-0.049425353388749885,0.19892927467060353,-0.06949748218618076,-0.09537911898328166,-0.04877953737501557,nm,0.0
48.06658625602722,-10.849797691036764,-5.8877343018097665,64.90728234771117,-0.09159641510330596,0.06287515565246161,0.16835248417033652,-0.06340683833305423,-0.1065078437619743,-0.07154051309310384,nm,0.0
48.07596230506897,-11.496170064111205,-5.824576608903928,64.51358723955539,-0.05260305201288996,0.1422423852460022,0.10535624864684828,-0.052345251439616367,-0.10924456901976225,-0.06625283167247699,nm,0.0
48.09612846374512,-12.41246660950419,-5.896675340003351,64.32318348626696,-0.08638519200696872,0.1779141982052802,0.03759598685141813,-0.008544286114414757,-0.07345647533651188,0.01155896841829125,nm,0.0
48.11262083053589,-12.605623930116678,-5.970907330040639,64.49122088128178,-0.125525963538903,0.0635215975761408,-0.03128177517041734,0.011013159260174403,-0.03947329062797346,0.049360549077241744,nm,0.0
48.11713099479675,-12.396578115495043,-5.913775968887799,64.633463878008,-0.1815765838112995,-0.05414733663678151,-0.011223430891067707,0.03402259656630516,0.0038778833717637443,0.0672698414211513,nm,0.0
48.12581467628479,-12.060545131652253,-5.722711486662776,64.67845521357367,-0.18912938122257986,-0.17778678413753637,0.018370864279950633,0.04656495998667606,0.03825080253613005,0.05616996338958744,nm,0.0
48.14873242378235,-11.238120876433575,-5.33193491417521,64.15471913942969,-0.09040527237153118,-0.2652260492768017,0.0997190054973111,0.03532554486958214,0.08419401491710687,-0.011980042685840912,nm,0.0
48.157692670822144,-10.877720283087026,-5.161641844528284,63.679362162109896,0.021558418183214204,-0.20764922009049722,0.15712961227076064,0.01537879469506046,0.08101426467247988,-0.03523778672980625,nm,0.0
48.1751823425293,-10.517069856610005,-4.572112730602083,63.10464423681274,0.20548337786670698,-0.027766455591277675,0.041922070687207824,-0.03413722393094882,0.04991041967080117,-0.009181527406072634,nm,0.0
48.18411111831665,-10.689208834933396,-4.373230864074235,63.15773276872147,0.19753705801054525,0.027426667608525964,0.012693317901540572,-0.04285516246887518,0.03153460894014446,0.02663635444772343,nm,0.0
48.19099164009094,-10.823397026899253,-4.158873609352014,63.341368714920314,0.13247225932922538,0.03998514582779378,-0.04128369735447708,-0.045468760483378216,0.027290746398215937,0.05353071749219451,nm,0.0
48.19938945770264,-10.797961783468917,-3.8099881686908947,63.532947587850884,-0.044433398224524995,-0.03601136511496732,0.7814436359109089,-0.04598414932595813,0.03724036423913569,0.05778090655181928,nm,0.0
48.22537636756897,-9.650686811814936,-3.295302848501774,63.50198772840188,0.03010809358502715,-0.18977897077536196,0.010006195868432403,0.05568351082379281,0.1585667938768244,0.014973349664872166,nm,0.0
48.232046365737915,-8.771056726610638,-3.580755464145755,63.18566644254477,0.019957831219275086,-0.23827627160442444,-0.07414373626180651,0.14423781531931115,0.13270266792779303,-0.026901811517345355,nm,0.0
48.25849962234497,-7.421520485558942,-4.2763980480046415,62.09772514015508,0.011807488851096632,-0.21179488050759776,0.3820254857481178,0.10481094807560146,0.08572303681550011,-0.09496220760209553,nm,0.0
48.260072231292725,-7.2108806400931735,-4.237976869394351,61.55231016588231,0.13998346644442103,-0.17338263451628783,-0.12005098106109655,0.027204138519407593,0.041766936200685195,-0.08993644017235441,nm,0.0
48.28140163421631,-7.284854242388065,-4.000448336240423,61.25178442811533,0.18869496233318117,0.16468282448673474,-0.20734588384331284,0.0,0.0,0.0,nm,0.0
48.28707456588745,-7.567875536154818,-3.881901143029748,61.42003445699491,0.08662418502734599,0.16806606654045925,-0.28980541224242856,-0.03386354452436927,-0.03719224823338831,0.03914440543674361,nm,0.0
48.30838704109192,-8.716892006153644,-4.146058320228589,61.94897878946399,-0.2918681144443386,0.05405770049016339,0.35332623259832846,-0.02146621301053888,-0.13125544660437785,0.03636848135501301,nm,0.0
48.33021402359009,-9.973183784462789,-4.340831804807456,61.949411900865655,-0.4105650211094831,-0.2339078698546587,0.09789211932068394,-0.010017179059255744,-0.09670423085835068,-0.02289559552778978,nm,0.0
48.33430814743042,-10.235003768843349,-4.4773536214653,61.82723538770163,-0.36573996179309576,-0.18816504104388948,-0.03345205504544687,0.013703824448720288,-0.05796277038705958,-0.030843378614255918,nm,0.0
48.35582232475281,-10.18760680076944,-4.264966376240702,61.67707696597733,-0.18570984160696516,-0.09693337186584665,0.049283011784282925,0.0,0.0,0.0,nm,0.0
48.36489200592041,-9.956523374018083,-4.006123603989738,61.64512055699223,-0.027112769594616518,0.019573616261201084,-0.062091449632907525,-0.009465880676849303,0.06620660990840126,0.008427983194950077,nm,0.0
48.373178005218506,-9.730849409252254,-3.8513147390279943,61.638395568805805,0.09970047381071104,0.08960992482364828,-0.08503910149324781,-0.013272582102091184,0.07940931141409685,0.015704614580594908,nm,0.0
48.38064193725586,-9.490532545959011,-3.81529554603427,61.65199488283878,0.1302473348685217,0.11075087111244476,-0.011781635681692295,0.0059662483021379305,0.07564855879591355,0.014382186592240151,nm,0.0
48.391406297683716,-9.272432001397219,-3.8031197474595433,61.601908871937255,0.17688558099184726,0.07589631998386245,0.09601517411331481,0.03275911224355148,0.04046525419180363,0.003479863198104484,nm,0.0
48.40087938308716,-9.108545058347104,-3.934209694333919,61.52151191344558,0.1821545909128544,-0.02532105520094379,0.1232345128428239,0.05284907263402536,0.017248424704693434,-0.010150972558812324,nm,0.0
48.409616231918335,-9.004057241403023,-4.165680072754434,61.42121893039499,0.0995486808878283,-0.16888773906368543,0.1573214897433786,0.06486201011978032,-0.002842288663399418,-0.021251863011714823,nm,0.0
48.43045496940613,-9.176533445754892,-4.782948401177341,61.199302576457306,0.010785153461505348,-0.3309454878568471,0.12711270013334114,0.05209113767698779,-0.05094843634865963,-0.025197954301735083,nm,0.0
48.443994760513306,-9.443621474340988,-4.895302129451591,61.14252091807801,-0.024421627770717436,-0.3253468874299857,0.04264519320529432,0.008224352112990076,-0.05663395773291369,-0.018340610812584066,nm,0.0
48.45115637779236,-9.897208788099206,-4.613084708970599,61.16894726525048,-0.02661634341285274,-0.2351659939651339,-0.0018894634130296724,-0.028204181158940366,-0.05744985424370003,-0.0044982582415391,nm,0.0
48.459009408950806,-10.287131007045488,-4.355050496934351,61.26024146909252,-0.03851662061444933,-0.07023629741875326,-0.006100463627379488,-0.05174111850853328,-0.04898316880967774,0.009875668242047634,nm,0.0
48.46769571304321,-10.603559539452045,-4.1424200336837504,61.374119991625555,-0.022066546733935603,0.05430968615338276,-0.0058324582422249185,-0.06562850660991122,-0.03868198305050736,0.01578914007681024,nm,0.0
48.48844861984253,-10.823588079553355,-4.182775533800138,61.49576113934619,-0.03906625605492631,0.17596283340883373,-0.012733300855089984,0.0,0.0,0.0,nm,0.0
48.496806383132935,-10.7247142604089,-4.421746285921595,61.438291586841224,-0.04320614010636636,0.14049035190446885,-0.012024173842494235,0.0,0.0,0.0,nm,0.0
48.50393271446228,-10.490530469090762,-4.651313461018702,61.30674493425709,-0.07614750956216623,0.04317613482959873,-0.016153746607341337,0.06727049862463466,0.003285110739498316,-0.024940059176504024,nm,0.0
48.525851249694824,-9.966180181959686,-4.843656020238297,60.90827163525257,-0.09808160170028865,-0.1656024976955911,0.013340232100748197,0.08513381451926508,0.02647153999797483,-0.021423277817295146,nm,0.0
48.532894134521484,-9.674169174462543,-4.934002668145602,60.78101656231855,-0.07705621208149327,-0.23958924579781918,0.07339096406928922,0.058438374101745856,0.042832157523210714,-0.00598232772388666,nm,0.0
48.564460039138794,-9.395730083495677,-4.285647997170372,60.65718072314193,0.0007715088205863913,-0.17175813687132924,0.07529075948051561,0.0030933183486603452,0.054884930877295866,0.025955193263298468,nm,0.0
48.581522703170776,-9.36325813870864,-3.8317399238329743,60.66340671074541,0.06866682292567745,-0.007675404265999653,0.05799627799348868,0.0,0.0,0.0,nm,0.0
48.583773136138916,-9.418424127661595,-3.8422673025381324,60.59443502701553,0.0734029403267502,0.04955635176775211,0.05255682410204431,0.0,0.0,0.0,nm,0.0
48.59149193763733,-9.523752519145456,-3.993874694828045,60.39020903093665,0.06416975152705673,0.05965694773620549,0.0414987130692717,0.0,0.0,0.0,nm,0.0
48.59942841529846,-9.656480060772273,-4.193548180223495,60.104577696290285,0.014709259933871394,0.025584917090640306,0.002163874969427874,0.03236927492357218,-0.03596238376642056,-0.04990009121042862,nm,0.0
48.62279987335205,-9.933953587121366,-4.477885413555221,59.64765316706161,-0.06906752982964537,-0.10366791202779849,0.03158681968948621,0.040052109495233586,-0.04671227890015398,-0.04575833728350671,nm,0.0
48.645002603530884,-10.07016735635862,-4.221536140233179,59.53092658768298,-0.10025194825060274,-0.16024547621311153,0.015138315824850734,0.0,0.0,0.0,nm,0.0
48.64933633804321,-10.050028686104197,-3.972076877170331,59.612260858350524,-0.09979003204245679,-0.10436816409780432,-0.01567002415891894,0.0,0.0,0.0,nm,0.0
48.67024874687195,-9.84499049782083,-3.5604399883880413,59.80172209481256,-0.028383358866366136,0.016930441390194974,-0.0057239286870541875,0.0,0.0,0.0,nm,0.0
48.69668412208557,-9.537412804868586,-3.6034210426329047,59.734360716418465,0.04239188879938755,0.07264499980916853,0.005296748267913654,0.0,0.0,0.0,nm,0.0
48.69850015640259,-9.418042955577725,-3.7505199805207012,59.596889220662405,0.06498264248221727,0.030491454905830093,0.010631176533544652,0.0450023470590538,0.019266970153211004,-0.028587429669430987,nm,0.0
48.7037250995636,-9.352545523450576,-3.9035385878337867,59.34630181800107,0.05303136174039576,-0.034691480282150314,0.04112134585872064,0.054478464589355305,0.007504459429481413,-0.03197322609829721,nm,0.0
48.72822904586792,-9.40864881265579,-3.9713803759670308,58.99339527586712,-0.008689713272915695,-0.157329403733261,0.06961367578778056,0.0,0.0,0.0,nm,0.0
48.736647605895996,-9.51001843317188,-3.82812574852845,58.99660865532594,-0.04105905098633664,-0.17697885822009876,0.06998434110093635,0.0,0.0,0.0,nm,0.0
48.74192428588867,-9.634067584777704,-3.6091288688716197,59.06852295044696,-0.05592035641683482,-0.15138384454977086,0.05693595100079086,0.0,0.0,0.0,nm,0.0
48.751322507858276,-9.750069166757353,-3.3755516823818548,59.146249664725595,-0.06248830068156361,-0.08978806444125961,0.03785314002402135,0.0,0.0,0.0,nm,0.0
48.76168632507324,-9.84147343228174,-3.2071870120484114,59.07808395383899,-0.025625116790667875,-0.03269239930891871,0.027616931005958543,0.0,0.0,0.0,nm,0.0
48.78412699699402,-9.934436434942384,-3.2255831183427133,58.86085223906093,-0.004588940129701982,0.07652818050674767,-0.004073616489128818,0.0,0.0,0.0,nm,0.0
48.7894287109375,-9.933248651563488,-3.3767246980308174,58.72036199563784,-0.00021092233021618542,0.07085044781392388,-0.0029188271667404384,0.0,0.0,0.0,nm,0.0
48.81505227088928,-9.857106532304988,-3.6740349114831234,58.43936470032858,-0.017670355347251136,-0.028767019236548213,-0.0021678415433466864,0.045125415294110155,-0.010608600527359981,-0.021213544911058067,nm,0.0
48.818809270858765,-9.805266454320096,-3.6876981743963286,58.34455732025033,-0.05448084820525968,-0.07982382252026675,0.01977030957747283,0.0,0.0,0.0,nm,0.0
48.827515602111816,-9.759252925968372,-3.601389464944063,58.275282481774276,-0.0746899527672909,-0.10918070248001088,0.027327636834409256,0.0,0.0,0.0,nm,0.0
48.853031396865845,-9.716828057301635,-3.290830643886016,58.16722960413572,-0.023113557919211023,-0.09516009362632934,0.06116401955977216,0.0,0.0,0.0,nm,0.0
48.876489877700806,-9.808280611713789,-3.1108910408046686,58.06643830326884,0.0258491239582562,-0.019005848004492003,0.04520844731550304,0.0,0.0,0.0,nm,0.0
48.87814545631409,-9.90650083151642,-3.1409855502591855,58.002821201438614,0.05221591531645767,0.03151565942745596,0.039270325753253045,0.0,0.0,0.0,nm,0.0
48.88666915893555,-10.030734834141722,-3.227148523685602,57.9440213579431,0.04707270312299983,0.037649456000115294,0.03669057098740687,0.0,0.0,0.0,nm,0.0
48.89906144142151,-10.167274545721956,-3.3353146944695644,57.8353511618909,0.011887781267406429,0.027952342264890868,0.028654704224430956,0.0,0.0,0.0,nm,0.0
48.902976989746094,-10.292899280645996,-3.424693169257763,57.76057239840792,0.0,0.0,0.0,0.0,0.0,0.0,nm,0.0
48.91240739822388,-10.394562574749926,-3.4585781144161203,57.704087774590505,-0.0347791572018791,-0.05502387767361037,-0.003934080491309032,0.0,0.0,0.0,nm,0.0
48.93614053726196,-10.491580762760742,-3.313680758536197,57.70238886966013,-0.06285436636076641,-0.09943495453170159,-0.006810970535132959,0.0,0.0,0.0,nm,0.0
48.94179010391235,-10.482114917350982,-3.187540731004024,57.65785603986045,-0.05264210822219897,-0.08313612886291975,-0.005480019903099576,0.0,0.0,0.0,nm,0.0
48.95120716094971,-10.440007407344725,-3.0778628508992156,57.61070088896905,-0.03081119302088002,-0.04857072009661511,-0.0030928338320556793,0.0,0.0,0.0,nm,0.0
48.97423577308655,-10.31854592306002,-3.024738241128255,57.25979905086841,0.015381289392583647,0.023921883796222208,0.0015027971011901701,0.0,0.0,0.0,nm,0.0
48.980700731277466,-10.270352774867469,-3.0990358804103297,57.14801375446779,0.04904552686427366,0.022896459592621408,0.039793710834463064,0.0,0.0,0.0,nm,0.0
48.988911390304565,-10.247705891220004,-3.2051471327857617,57.06307233253788,0.054002326978592995,0.01248438767151062,0.042819078594203364,0.0,0.0,0.0,nm,0.0
