timestamp,roll,pitch,yaw,acc_x,acc_y,acc_z,gyro_x,gyro_y,gyro_z,markers,motor_input
38.510889530181885,22.315829453494132,-21.298344969343564,50.75130889444466,-0.454489511772648,0.34120793299319907,-0.35182316225704857,0.13649760425271176,0.019073893435345334,-0.08591339487963934,nm,0.0
38.512535572052,22.321541872674178,-21.50058118712312,50.22039536085314,-0.5199986353128242,0.3490604177220207,-0.36179357289806924,0.04500606225543855,-0.022641740185699488,-0.09363499666468247,nm,0.0
38.52783250808716,20.924329028050085,-21.162523528798424,49.95747589160024,-0.5467616382522174,0.4569723504769789,-0.27465503494477905,-0.14281234564026815,-0.09925333378988999,-0.08931809199874542,nm,0.0
38.567421674728394,17.777473428033712,-20.340792246985412,51.03321186961612,-0.43399757791580684,0.5624546042242111,-0.15614153514773796,-0.26382132649334894,-0.19871012148658238,-0.03451892966946169,nm,0.0
38.56924772262573,15.707706842719052,-19.87927522649002,51.988926117070875,-0.3882518474254724,0.5836103704274113,-0.17541781789352354,-0.30068124657105155,-0.24585342410447783,0.009108149483472501,nm,0.0
38.57109522819519,13.439953020502948,-19.404663420364706,52.93628727722989,-0.3668665221719147,0.5610639056511408,-0.192186079626487,-0.3225814121378332,-0.27927684674909287,0.05335256940012326,nm,0.0
38.57867980003357,11.046720608288902,-18.88108516911328,54.05234000660993,-0.3455016876794519,0.493459844880477,-0.24955869995629712,-0.34019318616798944,-0.2995797669884449,0.08592340428490497,nm,0.0
38.60306692123413,6.278053197813623,-17.59700402455651,56.91972059103171,-0.2788379277700998,0.22526611168664593,-0.32763963102171756,-0.34923076205054543,-0.2960034235856679,0.10014739068052278,nm,0.0
38.6053946018219,4.077026328963952,-16.815665716754165,58.16567252887469,-0.20772805230731017,0.07081203820518212,-0.32717027696934786,-0.34369039724012773,-0.27000565978350644,0.08963069363620868,nm,0.0
38.61473369598389,2.0817766344170674,-15.918224401588267,59.27433256676074,-0.11785149227463879,-0.08946572497324752,-0.2897786992238541,-0.3383019480727758,-0.2330647184132607,0.07612226358159105,nm,0.0
38.62684392929077,0.3503782144881889,-14.919238304287035,60.112179421618286,0.06492425809206649,-0.23916201484779762,-0.3404312226905052,-0.3272689368976178,-0.18596054358971556,0.06784985999434508,nm,0.0
38.646310806274414,-1.3052148817782994,-12.76642719327445,61.32879453930259,0.02838290772118436,-0.49225156733945463,0.6107773667827511,-0.2367285861926568,0.0013011378032411474,0.10192859424808391,nm,0.0
38.65259575843811,-1.9194077381696157,-11.708496401694228,61.82508941210478,0.5898451034554438,-0.6869867602279615,0.29799420519778536,-0.229499685224359,-0.002834461252422242,0.09307999143122397,nm,0.0
38.66610264778137,-1.4432013286055352,-10.85770701812971,62.32504603060374,0.5669115021383244,-0.7034604076737911,0.74042508992266,-0.09263759874821983,0.1644113074642562,0.1357080759941267,nm,0.0
38.670828342437744,-0.6145467183427319,-10.328890922681532,62.651587716300504,0.5504650795665766,-0.5810341020352945,1.0415232171564999,-0.004515485251385372,0.1956080590829696,0.11396172553604603,nm,0.0
38.67963242530823,0.18116172745239834,-10.191997105563539,62.64077426425746,0.8830986284089871,-0.4927612347261654,0.6798236831909448,0.061675012677431994,0.1538636759320138,0.04677136398950835,nm,0.0
38.704222202301025,3.15638431587903,-11.299534557535125,61.618891997300516,0.7437391558109159,-0.39272751851971177,0.8253100502655267,0.2973110372714792,0.20129299016910188,-0.07388414729851268,nm,0.0
38.70901918411255,4.838679445764228,-12.435243615407456,60.66179060889333,0.723340796291301,-0.43031138303674765,0.5566735320146592,0.3719250321485859,0.18105898200675274,-0.12657262953026396,nm,0.0
38.7325394153595,8.689069755980931,-15.15354191999806,58.36692112574501,0.3556973822366045,-0.5068975999347152,0.31069844761312454,0.43922191542429306,0.17278152990603285,-0.14510231439717883,nm,0.0
38.737534523010254,10.560702900444664,-16.44364355951727,57.24929605448787,0.23472402144260668,-0.450458185340313,0.10152712527132828,0.4242369072666869,0.16967663007820932,-0.12634543448223343,nm,0.0
38.7475483417511,12.394878365923384,-17.55153735927468,56.238551026328096,0.09156346153254619,-0.361072856989367,-0.07516027283148953,0.3915704892562267,0.17421684736459078,-0.0997525870401191,nm,0.0
38.76178860664368,14.127257437880612,-18.560316956047643,55.304480163114555,0.014072778910773588,-0.21459080794465313,-0.2631480595831269,0.3659272381375862,0.16127875998613092,-0.08437399927665515,nm,0.0
38.78209161758423,17.0283109041515,-20.323962914804635,53.54953454756562,-0.14405699307782174,0.009312365599883582,-0.08251808456136665,0.2841489277015782,0.09830759856565474,-0.09198904764943955,nm,0.0
38.78772830963135,17.742873483710806,-21.02098217966522,52.773581766607194,0.020875439565880956,0.21413363713788022,-0.6644724246496057,0.2053038813939344,0.025824598872246966,-0.1237772086984375,nm,0.0
38.80147647857666,18.778569043816464,-21.737612677820433,52.09584128961711,-0.16349690725753516,0.25980635636237903,-0.44340710294752567,0.24474969380052333,0.06809185470352776,-0.08702012591949093,nm,0.0
38.80455279350281,19.536083589446424,-22.393116274568833,51.465480029587084,-0.39251917096768146,0.2518843395945566,-0.08291509108776474,0.20340782850695924,0.0316445284095136,-0.08924630609253738,nm,0.0
38.81415843963623,19.560573108274088,-22.86113592338407,50.98082416881352,-0.33316851349334065,0.3836854919193095,-0.47919409411351455,0.08931018593501958,-0.052909074293782055,-0.11439721384108939,nm,0.0
38.83724617958069,19.147037353659805,-23.3663101294773,50.76672157895185,-0.6379376214852295,0.47104513465201847,-0.10230552773529226,-0.005471124651358469,-0.07752921177086809,-0.048838837933720444,nm,0.0
38.842140913009644,18.144083595549283,-23.343128188407924,51.08564440756239,-0.5862370351875918,0.6104593564538658,-0.2473354396844032,-0.10617752023110075,-0.1382493000986997,-0.042051901812497086,nm,0.0
38.85387301445007,16.938136142023474,-23.181212197716146,51.66653012943897,-0.6513267888208547,0.6754294178334355,-0.15219185691378742,-0.150107156691103,-0.1511858643489423,-0.0031673080082564938,nm,0.0
38.862581968307495,15.430632953224213,-22.96017296466576,52.480423321174705,-0.67441050357174,0.7401029721724088,-0.09074334742811453,-0.19175289671729998,-0.19008395974359124,0.014021591012359058,nm,0.0
38.88490962982178,11.8686093563101,-22.34279126673238,54.52389419978003,-0.6207898689554915,0.7091146936646233,-0.14918109832494986,-0.2342660574224565,-0.22495536505678157,0.043685520355274496,nm,0.0
38.889076709747314,9.972174606694452,-21.975150213022417,55.42482438602521,-0.557228572809623,0.617731871383091,-0.22041884688683455,-0.24837468360426204,-0.24369082121114902,0.04261161528027301,nm,0.0
38.90009522438049,8.067845972892691,-21.56910722710341,56.31398641189838,-0.42726348422565946,0.4868403813939301,-0.3023586895528716,-0.2521883897375548,-0.24545581367960462,0.04493138790640021,nm,0.0
38.90855956077576,6.263779277585724,-21.068622527244152,57.23821619436761,-0.3533231068180198,0.3594435603714125,-0.288304697556077,-0.2542852183750687,-0.22464421722940767,0.055559384303456937,nm,0.0
38.9361526966095,2.6966968142339973,-19.750606372138705,59.01835517303882,-0.12087843247541222,0.07790301104309391,-0.3781255359787762,-0.279310976803481,-0.20545152028438557,0.058340597099963656,nm,0.0
38.93833374977112,1.0330136349312935,-18.90975777166025,59.741087117412235,-0.02784858470750564,-0.035989908469459805,-0.36243140301450893,-0.29112415810963815,-0.1825251502333791,0.060900971346840034,nm,0.0
38.94696235656738,-0.3799240033837737,-17.940596345505053,60.50587593861754,0.14472354166942952,-0.15968252914799305,-0.4977971033942028,-0.2878986311347707,-0.1341020794683843,0.06991739154753004,nm,0.0
38.9564254283905,-1.4109556573482411,-16.899124756035942,61.21683324470314,-0.08919468149326887,-0.32406235675038403,0.08118952982849771,-0.2639344129893603,-0.06860523130527355,0.07814118280540516,nm,0.0
38.987234592437744,-3.5135629197295595,-13.540034823678514,62.31824886251419,0.4090041186452397,-0.8931666667307847,0.8908105983735701,-0.18264010786636012,0.0951444834197984,0.050832168042695844,nm,0.0
38.99580693244934,-3.4881315197013354,-12.619935388359648,62.374613383179216,0.6724164117404687,-0.8236333037826664,0.8197322081899117,-0.1467348941769642,0.09186796421128011,0.02572049529976498,nm,0.0
39.017953634262085,-2.4448333320581925,-11.585881956951127,62.016045908622125,0.6893292298207688,-0.4915205747083522,0.8988839353455901,0.016671476051138265,0.14454271054492704,-0.0066679017814486406,nm,0.0
39.03046536445618,-1.4764437969675008,-11.835026292433588,61.61352694779744,0.7191027098615583,-0.3289132789805797,0.7373110841379693,0.14777060386687216,0.14546145047119477,-0.024808913484394773,nm,0.0
39.03265929222107,0.045744964399936076,-12.591574213103016,61.08774496185984,0.514925294781752,-0.2252482629845943,0.7749552921042138,0.28985061858890365,0.1904064866542547,-0.02716005711371507,nm,0.0
39.05734348297119,3.992863929633028,-15.06309471674521,59.757221718434636,0.2754487595610659,-0.3232641726151798,0.3792872124577878,0.45764700618727655,0.22827286985707493,-0.04457371495453807,nm,0.0
39.062495470047,6.536548799548065,-16.49662532574963,58.811412683240924,0.1036349376530762,-0.3740296024775307,0.3330580478485108,0.5110288305665428,0.27652793347262894,-0.03942635916275156,nm,0.0
39.09012055397034,11.830188794184442,-18.955940839450967,56.768885278466115,0.07628303391777125,-0.2643162461767812,-0.10779125126125187,0.4800340469671978,0.3065463396070712,-0.04169252303755728,nm,0.0
39.0920205116272,14.450402486977543,-19.940799205986206,55.758935587285784,0.07654716330589992,-0.14932827592032652,-0.16112849424616138,0.45216016571152917,0.3043627055960495,-0.032195299845362436,nm,0.0
39.1008358001709,16.827521286468418,-20.822851290346236,54.83411598780386,0.09957455133201377,-0.011787082720875638,-0.2524537631984535,0.4125349379378855,0.26886569746515937,-0.02429989814964184,nm,0.0
39.148656129837036,21.20474081122624,-23.23076182261116,52.98930488251106,-0.09023731066017766,0.13979856897310453,-0.4135590339826312,0.22496801504499445,0.02769812029090972,-0.06370073852090145,nm,0.0
39.1506450176239,21.55331052396288,-23.87820550957138,52.63650882487161,-0.1261358436656209,0.18932776336015406,-0.6565460702426692,0.1551910692434915,-0.02424066663584922,-0.08036121137532953,nm,0.0
39.15230584144592,21.687804875570073,-24.31949608952395,52.397134227933805,-0.42803147872493796,0.12187859600317089,-0.26197509195542446,0.09835660814390144,-0.031188552494993513,-0.07812387786794493,nm,0.0
39.16710042953491,20.89504115711093,-24.463443670498005,52.05853237974259,-0.48249062029271983,0.23875396203935625,-0.3406047444735865,-0.05245535206598112,-0.1291723468469315,-0.13824056931094308,nm,0.0
39.169193267822266,19.502456429716858,-24.324550838791613,51.96188449926925,-0.44426936148988333,0.3849439069261704,-0.4141843995105637,-0.16467339970626382,-0.18062902173569143,-0.15622815924625222,nm,0.0
39.175122022628784,17.778484696137404,-23.975340647258506,52.27920945226202,-0.5577254730357132,0.47712003638096373,-0.08135220746569616,-0.2345982617431402,-0.20391976144671392,-0.13489551499258393,nm,0.0
39.18996286392212,15.414315630720601,-23.4900752337871,52.821476207380044,-0.5315300072751871,0.632377399927147,-0.10298845028317741,-0.32642292217554164,-0.28352463024472274,-0.1320623459770486,nm,0.0
39.208200454711914,10.055232664150633,-22.39742326303698,54.388038472860025,-0.5803788680190034,0.7799808464027517,-0.03133882920815238,-0.3686765382424879,-0.33712343482445806,-0.04240951179696398,nm,0.0
39.212810754776,7.2722810041083985,-21.862548537446393,55.4994890262409,-0.5742674764646385,0.7707170343035222,-0.18150198027982492,-0.3697577128282008,-0.3598195152357732,-0.015185125998353166,nm,0.0
39.22282409667969,4.694925644467999,-21.339163694567596,56.623908362169566,-0.5901926722932033,0.661205458253551,-0.2292156007843533,-0.34045256086197573,-0.33830171526402847,0.012986003406271646,nm,0.0
39.24596929550171,0.24188042961327302,-20.148217291070466,58.61052319888695,-0.41970426676967865,0.32368443347456755,-0.3809974865975588,-0.3026772052381855,-0.26917198756579525,0.025135676747558684,nm,0.0
39.256083250045776,-1.4749296086781007,-19.43593502483249,59.421176718157696,-0.2875220334591913,0.14312023083589379,-0.3804051343906906,-0.27455138978226906,-0.2023451543250227,0.04389102781874845,nm,0.0
39.27596044540405,-3.7719172002515764,-17.685348233808497,60.78595785773166,0.0770568136977821,-0.1869724590043576,-0.28577773396080175,-0.23810032480908816,-0.06301902286989595,0.10497130113855936,nm,0.0
39.279303789138794,-3.9329057100595404,-16.6871937450162,61.5073302178569,0.11065866653343376,-0.3699121698842727,-0.001598556299806884,-0.17558837457022475,0.07153673302018863,0.17037675583112136,nm,0.0
39.303622245788574,-3.262843505820742,-14.807140215186378,62.8887293821708,0.5471235576038964,-0.7097563890162557,0.1707163136797606,-0.11255844628273569,0.14886531121236699,0.19376136475859237,nm,0.0
39.31801891326904,0.20451445427409856,-13.735139573786789,63.577669590676926,0.5266603185758936,-0.7463620867740979,0.9411303094627926,0.11564460528426121,0.3757788030936699,0.18133640313112975,nm,0.0
39.33234882354736,2.1370218492472706,-13.670393518398297,63.3253272651353,0.8906713548874645,-0.6805971713638345,0.6183139591787457,0.17093916041285195,0.3443393733563402,0.08698789595459844,nm,0.0
39.336714029312134,4.545794506064156,-13.947915344777545,62.698822894169545,0.8800529962780212,-0.641589670493352,0.795831698756745,0.27638284017248205,0.39435924545107637,0.0253563847919744,nm,0.0
39.34610033035278,6.919428646020162,-14.573215160283134,61.79721900046607,0.8832709631374617,-0.6074492007186616,0.7625529711921774,0.3392026795443269,0.3516920608286644,-0.04234897549321751,nm,0.0
39.35535430908203,9.085095493762244,-15.441746197621871,60.85600489197597,0.9115117315693084,-0.5654845935817852,0.48397322826346123,0.3669819038081405,0.286792678667219,-0.08067473081984762,nm,0.0
39.36581206321716,11.161851405813415,-16.424598140458478,59.947893755009105,0.6973068666702409,-0.5603820337506783,0.4608399506836496,0.38196065321093803,0.2533043936930697,-0.07238507387230933,nm,0.0
39.379281759262085,12.827508738320411,-17.460051547494455,59.155933472148725,0.528803639403276,-0.502417693837636,0.215236591486359,0.35371211067539887,0.17286803981409082,-0.06621388777074799,nm,0.0
39.386207580566406,14.18860479502058,-18.48110231053036,58.49784260523264,0.3584611938861131,-0.3927787579055885,0.012617748424307554,0.3223786056022911,0.11894399933571288,-0.05257545402228518,nm,0.0
39.41214370727539,16.13917350940171,-20.195428098105385,57.35394094561389,-0.003537226811987015,-0.1336299488690113,-0.19567386081583216,0.23042731956878054,0.047976221073220915,-0.07919189830451766,nm,0.0
39.41573095321655,16.746174812146165,-20.891039067197728,56.535094450682166,-0.15326291139858872,-0.022161269176804384,-0.12193115807647953,0.19208057474807683,0.022402808249227427,-0.1262048036781812,nm,0.0
39.437947511672974,16.84564920437368,-21.463488251515226,55.66183252494231,-0.1252342334663838,0.16234408097291214,-0.3371622410278563,0.1188889245188545,-0.045538709515872106,-0.2049163824245316,nm,0.0
39.461007595062256,17.182827429103956,-22.374841507308673,53.502660369268035,-0.4254247261333476,0.3620294747129563,-0.09229398595301644,0.1102674373781171,-0.012351661498368086,-0.21639965067796418,nm,0.0
39.46357035636902,16.14165845869175,-22.98312553654805,51.38562030262642,-0.4524426577631172,0.5672589556869695,-0.37931343934523887,-0.01604753490745645,-0.11767163889558128,-0.20250074372404184,nm,0.0
39.477904081344604,15.396986221796654,-23.127060770902617,50.86981750014709,-0.6970537146151449,0.5674615966552097,-0.126080637816497,-0.050101427044718747,-0.1232201575683613,-0.14246130768720344,nm,0.0
39.479756116867065,14.075213078045033,-23.145680043079675,50.92236324903501,-0.6954810997553227,0.6522637644673214,-0.25829873864680325,-0.13660852927771175,-0.1899403528263475,-0.1250855274219629,nm,0.0
39.4908390045166,12.568029158547315,-23.02422147995943,51.318085320515856,-0.7092251496203664,0.7134992320323004,-0.2675793058472405,-0.1789929608994214,-0.19984948725697396,-0.0829604273104579,nm,0.0
