timestamp,roll,pitch,yaw,acc_x,acc_y,acc_z,gyro_x,gyro_y,gyro_z,markers,motor_input
80.507009267807,-28.990118733513025,32.731475704207966,-96.85337747743367,-0.10125721437481251,0.3351205320968372,-0.35274582557629414,-0.06782621028837128,-0.08196365598977891,0.02585231717726592,nm,0.0
80.52853202819824,-27.71669390076657,31.480011227270275,-95.58060295289648,0.023674643243488402,0.31599401167905516,-0.34841486318828874,-0.17802796820353875,-0.10496237357324853,0.03712340556225993,nm,0.0
80.53248739242554,-26.97515104287206,30.441639425756183,-94.9996575250206,0.08551643397188405,0.2835382159189657,-0.33810783926149235,-0.23165799810908214,-0.11334139005733147,0.024794612866045916,nm,0.0
80.55615472793579,-25.226295321225766,27.75355637999665,-94.00500294259882,0.16161350404520108,0.15556905367558999,-0.31637271696128483,-0.3098550699962645,-0.14930236405503508,0.009165108534316211,nm,0.0
80.56206488609314,-24.152417013370606,26.230201871468132,-93.40326870884337,0.209642641151043,0.007366265800829468,-0.3016302763387387,-0.3295596604288366,-0.17741994519704854,0.019640320750258386,nm,0.0
80.58528232574463,-21.647168555665857,23.026412620050873,-91.68862953711475,0.35899995796532347,-0.2752800076116207,-0.12370750153567359,-0.34745121182832944,-0.2330529856766848,0.06774461455116645,nm,0.0
80.59029984474182,-20.317775486630293,21.31801265841806,-90.61270761636858,0.4817408582825452,-0.4094225899844413,0.09751883233187314,-0.3592015528940505,-0.24639221147982063,0.09073227953441906,nm,0.0
80.6176426410675,-17.95312400748699,17.813897081312437,-88.75350433923218,0.6103219746338381,-0.4035047058695732,0.470508063419589,-0.3577795229669668,-0.22360429520812913,0.08921498680300281,nm,0.0
80.61969065666199,-17.012132527658643,16.20964773322753,-88.17415604590632,0.6060615775030125,-0.2651650672730968,0.592457043390496,-0.32838316506331655,-0.19581358710508756,0.05735585611612167,nm,0.0
80.62962555885315,-16.26221148928756,14.877827607221151,-87.8895149970315,0.5561077288931214,-0.10957259122170634,0.7121928429149944,-0.27359522347978327,-0.16093017594838285,0.013245141752062529,nm,0.0
80.63714551925659,-15.708522980149663,13.951869289273985,-87.98023639153169,0.4884824229222088,0.0037566354559176052,0.8301384473581916,-0.19355621089670524,-0.12102377069666476,-0.02910111232915731,nm,0.0
80.66154551506042,-15.381280840804653,13.668160467066715,-88.64450813540086,0.35552009671794277,-0.01500852621598154,0.8877235968473897,0.015138452976201824,-0.010294533452357785,-0.05544067128144916,nm,0.0
80.66900515556335,-15.68313248823613,14.324627441603965,-89.03568367071733,0.32820817068988123,-0.10301228887867772,0.7897689033743763,0.1181554054992296,0.05417912190385322,-0.03688377605044018,nm,0.0
80.68932390213013,-17.172718021080264,16.668761374866275,-89.72152338914171,0.359943081290612,-0.24385481706993548,0.4513332353474974,0.24507447625684675,0.1632967525958363,0.008090369732014874,nm,0.0
80.71548247337341,-19.521784183326016,19.434138267444443,-90.73153431709041,0.40770122242560036,-0.16027838584589754,0.09938094102236088,0.26520194569792943,0.2288976590260232,-0.00840708091210979,nm,0.0
80.71714735031128,-20.87065542680291,20.726883623977585,-91.54470290398427,0.39705411624390174,-0.05828294153715297,-0.0236661380834557,0.2516832421975383,0.2416929614379262,-0.03564470118614078,nm,0.0
80.72301864624023,-22.242665962843706,21.93957936601689,-92.49417219180232,0.3443613307175804,0.03736953034407543,-0.12989065669292543,0.2393687571252906,0.24063194951780803,-0.05999817459151084,nm,0.0
80.73300194740295,-23.5535662923428,23.14015743817983,-93.46038787921847,0.2904712721786554,0.13113850412105643,-0.15406899495868015,0.2401107191390463,0.22334649531711184,-0.07245933103600376,nm,0.0
80.74821066856384,-24.742990885384607,24.405865373074874,-94.33833451036938,0.22066455258755102,0.19654855104394728,-0.17913879180538966,0.25492764149916153,0.1941764801119291,-0.06745773122234743,nm,0.0
80.76413321495056,-26.62621782335152,27.25144117245771,-95.70520923551551,0.08963217078675506,0.2815106197176986,-0.2264097311303807,0.29501608427248677,0.1189658306807668,-0.02780982823859087,nm,0.0
80.77056384086609,-27.333507314607253,28.742720207097396,-96.17007611972195,0.038361100810948026,0.317445695168606,-0.264326904304667,0.2969707623887154,0.08778880569293451,-0.013143822548465888,nm,0.0
80.78402614593506,-27.945118540195725,30.12645710625847,-96.59922735505604,-0.010179360552533276,0.3461376145572251,-0.3115827538644271,0.2742113885940048,0.06956839352186775,-0.009613854570135128,nm,0.0
80.80298495292664,-29.107157043582927,32.121274528356736,-97.4714671629115,-0.10140673339022059,0.4074749781627773,-0.40334870793729344,0.16638811069246676,0.07262516245029288,-0.025628007405106023,nm,0.0
80.80858731269836,-29.69198485079936,32.61676992495768,-97.99268772111868,-0.13510989492021108,0.42959763441278526,-0.4106006239697806,0.09850097225492203,0.0794532542473298,-0.02966494865045436,nm,0.0
80.82710480690002,-30.63106829366096,32.81079468024201,-98.72723157856029,-0.1670925304200717,0.4933246933022269,-0.3860259744667121,-0.0041632751123602384,0.06282574464285395,-0.0058397456494046025,nm,0.0
80.84243631362915,-30.824620979977123,32.67339331838478,-98.72512851077957,-0.14772659840383495,0.5288680331887863,-0.35291688678568334,-0.035492464041984605,0.03130464598286651,0.01863807286918956,nm,0.0
80.84627604484558,-30.76433738540393,32.462108390683596,-98.38591702840037,-0.11569775187663645,0.5514018927626952,-0.33094621152726605,-0.05656623784107269,-0.00896335038122435,0.043290431387750884,nm,0.0
80.87008714675903,-29.953393050419756,31.85924252423581,-97.21856957477799,-0.017161033274616887,0.5195592909169098,-0.3038020166736771,-0.09243864167764072,-0.08141052603843306,0.06358873344889684,nm,0.0
80.87510442733765,-29.296825726252507,31.36296928041137,-96.57448544522619,0.018520918973599584,0.4541480552906056,-0.31623424232799585,-0.1251717763515661,-0.10468259961197474,0.05717678944017545,nm,0.0
80.9022536277771,-27.68083941356745,29.715444211263296,-95.21192967027112,0.056517037169148326,0.25909699357155175,-0.34921758693844096,-0.21493003640522246,-0.13404595817726014,0.031304340040823796,nm,0.0
80.90569519996643,-26.747232981749956,28.545141720549967,-94.38636164508584,0.0787150454997553,0.150180568291755,-0.3474178910213244,-0.25978406339878357,-0.14942929466293983,0.026586582873546823,nm,0.0
80.92719531059265,-24.662112684689674,25.720756559368283,-92.69351978623203,0.19043985535462646,-0.05684521655710838,-0.2621172975952923,-0.3180784412321378,-0.18272399765644892,0.05136189429557876,nm,0.0
80.9327027797699,-23.543151129868697,24.150859001653256,-91.7912619136873,0.29546155826025916,-0.15179469784768024,-0.17601729502224267,-0.33460273447007355,-0.19717671141517487,0.07404723869819482,nm,0.0
80.94172787666321,-22.430184391459374,22.50755228807936,-90.77409021789545,0.4357111589942079,-0.25312041593983403,-0.045930417076367296,-0.34588877909540744,-0.2040432630629621,0.09366255372991103,nm,0.0
80.95275402069092,-21.38834903036899,20.81586613382222,-89.83981687803681,0.6007929517211197,-0.3504846476809794,0.13149186351400546,-0.35210029115215685,-0.19892661738074052,0.10037283025446037,nm,0.0
80.97486329078674,-19.646474989320662,17.36761426712021,-88.5047550059198,0.8600913287554736,-0.4068908197425405,0.4204006961928534,-0.35413522600253994,-0.16904168611957782,0.05772433192799314,nm,0.0
80.98123502731323,-19.184473795834162,15.732921276284358,-88.2526774185045,0.7575086249365577,-0.3575509946902152,0.5061969798682598,-0.3368418446807796,-0.10513204883428962,0.02111628515913096,nm,0.0
80.9906599521637,-18.686841574671618,14.31518947594121,-88.30276552647186,0.5969073679675472,-0.24993491389316938,0.4922660103675875,-0.2930091589191807,-0.11199187904366327,-0.03879076678066828,nm,0.0
81.00126791000366,-17.94862338530321,13.23326645524458,-88.5987767333986,0.7955372026274045,-0.17232920434567162,0.8153212194640934,-0.22484546155225174,-0.15659269598205108,-0.09741645509628216,nm,0.0
81.00742220878601,-17.514773636642925,12.611548417480051,-89.09667977902538,0.5689203673274484,-0.07172201564672098,0.7920486855979848,-0.13498025127467292,-0.09428389096305483,-0.12208643094774785,nm,0.0
81.03330945968628,-16.48625595787497,13.12086345903428,-90.18827957060905,0.32368857058292094,-0.022760081054111914,0.739659451938427,0.09850251858585946,-0.12111881971381624,-0.13382454195551707,nm,0.0
81.0452311038971,-16.04010471038047,14.162498613643189,-90.61673812080038,0.5532818498797248,-0.14977074807623653,0.9758997660356524,0.19560166459215383,-0.09491830696614476,-0.11031251685360104,nm,0.0
81.0636248588562,-16.78988458302831,17.184182034668584,-91.59788906885727,0.1306648168735017,-0.18562478467036803,0.4148192679926955,0.3135423404564789,0.0643790889659026,-0.05643974043619076,nm,0.0
81.06624221801758,-17.502709864443666,18.8582244565182,-92.21679208266478,0.29573275795358844,-0.22424039791077055,0.424112226568642,0.32712444453597583,0.11799315026885662,-0.054547347535284514,nm,0.0
81.07505679130554,-18.875623234699788,20.46950407851147,-93.07129916385595,0.03260768787866924,-0.1009370541854028,0.08156556053535013,0.32191890683844687,0.23731163410473496,-0.04633491453162204,nm,0.0
81.09873485565186,-22.16669660149228,23.434025766168013,-95.27681983618656,0.18281962476738214,0.04354564986683705,-0.05297449966395194,0.3026878592592632,0.3057471293820282,-0.06779320198643979,nm,0.0
81.10369753837585,-24.117567161406907,24.830940608952766,-96.41438229548353,0.08570845415639564,0.14372108089847177,-0.17320423188711706,0.3017052700958279,0.32061809988582113,-0.054863827033281624,nm,0.0
81.12959337234497,-27.68251740107738,27.821542071189157,-98.39178220539432,0.1027273134002817,0.25974371984916766,-0.2910542846609947,0.3370244032874471,0.2651044280890256,-0.0029846644882809024,nm,0.0
81.13321185112,-29.16676065571193,29.432770995533073,-99.13864066239069,0.0877495522494619,0.30952027154201994,-0.359834247471868,0.34554129158534375,0.20328466397875142,0.016875625964141213,nm,0.0
81.15667366981506,-31.425521184771593,32.44329902410734,-100.0458818242298,-0.01776331333296253,0.42914684761092803,-0.5315513614547798,0.2979983178788957,0.12071607150722348,0.028512580198610613,nm,0.0
81.16272687911987,-32.19784358050851,33.56839731770221,-100.4730745069694,-0.021631673402187166,0.4427665364114846,-0.5422199212610502,0.23146905982436933,0.08254100808585221,0.008976382252701275,nm,0.0
81.18603420257568,-33.27436746162838,34.659027262242546,-101.14690085080996,-0.16913962123119963,0.505439702305202,-0.5335190642834723,0.06897369330671903,0.05311825460098133,-0.013138777536990838,nm,0.0
81.1887104511261,-33.48249683457097,34.66969196682091,-101.30973997436877,-0.16773228507350227,0.4921834074109811,-0.4707544360596152,0.0,0.0,0.0,nm,0.0
81.21430563926697,-33.23895387899651,34.04915385152795,-100.82315970803003,-0.18507292564724506,0.5002885647133477,-0.35845918118168424,-0.09801466086030926,-0.03216988021213739,0.03853986606838075,nm,0.0
81.22033929824829,-32.754492612253365,33.552520030898066,-100.07284326425683,-0.1435975785774823,0.4945511623287935,-0.3217130058605175,-0.12570464638789844,-0.06630295348798569,0.07300710814698522,nm,0.0
81.2416341304779,-31.24557396465593,32.237597449104605,-98.09767544114268,-0.02383821432953683,0.47133734267821376,-0.31489716267152706,-0.17725385209936867,-0.12295857028765196,0.10973498170007567,nm,0.0
81.24576139450073,-30.3350259117766,31.33068724967916,-97.00884553462737,0.02751156780379518,0.4331620394806406,-0.34400534736563115,-0.21344245781444718,-0.1353461893952068,0.10793127883303892,nm,0.0
81.26975727081299,-28.302479853113486,28.848027569129247,-95.0291460665271,0.15037952723675876,0.26916346085100123,-0.3865979212735332,-0.30035676263494326,-0.16173293629918586,0.07077017946399557,nm,0.0
81.27527928352356,-27.199058568146228,27.292261332441853,-94.22337773664773,0.21297651880963875,0.1788231138384039,-0.3760357374829459,-0.3391032185855694,-0.1751700229599997,0.05457432386763214,nm,0.0
81.29863142967224,-24.724918889660994,23.74385274457496,-92.47814630146745,0.36485251725085793,0.0009393342497248041,-0.2981949786955126,-0.3918078293161527,-0.22227379723899882,0.043041456460860716,nm,0.0
81.3084352016449,-23.36753327728372,21.812681162907793,-91.61659365796525,0.4961833771701537,-0.07931360406976946,-0.16916164600119418,-0.40778783625877923,-0.24345031791892285,0.04479847837072538,nm,0.0
81.32967758178711,-20.9022719544376,17.803595483102832,-89.8172349318999,0.7690290031546694,-0.19440070361915615,0.192249064552416,-0.41710288146961777,-0.2175088116834525,0.0300083933494851,nm,0.0
81.33475613594055,-20.04297324377136,15.79771354280921,-89.32028769527322,0.6191070118284044,-0.2484954215751158,0.240183930975591,-0.4123431470753305,-0.17563563224573842,-0.0014357529413193781,nm,0.0
81.35634136199951,-18.16033761861156,12.21695165874777,-89.69403696558649,0.8374203085632677,-0.3998600394966072,0.712790815352001,-0.34708441502504983,-0.1747513957949742,-0.10871807805329482,nm,0.0
81.3600549697876,-17.36004316014763,10.894359388339597,-90.15001236724373,0.5762844046885236,-0.3353101483917794,0.6683682557421442,-0.27684757915475955,-0.164530071011511,-0.14239423836345566,nm,0.0
81.3858380317688,-15.248365002633252,9.856992856330573,-91.09616975696076,0.19107280091997356,-0.19501970366946467,0.8265220768467924,-0.05954314714298291,-0.21901127529746636,-0.12553123843792727,nm,0.0
81.39010453224182,-14.00312014345255,10.267369469212076,-91.24422782158828,0.4432188168420845,-0.236243539807975,1.2507482177027613,0.06477140761891606,-0.25378045864040943,-0.07663090345340723,nm,0.0
81.41337394714355,-13.61090435624756,12.589023827320506,-91.1564493978256,-0.14515959268681625,-0.13711335569880678,0.626955731887497,0.25901201155244624,-0.019129936532842565,0.04267367095978444,nm,0.0
81.42173337936401,-13.793405536494115,14.192986429263147,-91.03612283341681,0.20552027695334685,-0.2128194850900545,0.8266554183352337,0.30949281282917546,0.022673402189733984,0.05016357460881592,nm,0.0
81.44334816932678,-16.451804025825002,17.481447141584972,-91.71032277095351,0.1273587147238716,-0.15554905786012424,0.2669510053231434,0.31714502356203683,0.26812078671770295,0.013566953890763006,nm,0.0
81.44508647918701,-18.355212547886946,18.97753682218855,-92.53320332344805,0.31838317220099965,-0.14582583428049478,0.16593195237122785,0.3006232560875331,0.34416227876990885,-0.016268851433223513,nm,0.0
81.4626362323761,-20.67289154789579,20.362528702088646,-93.57777906659449,0.15694120709468878,-0.004208182352414696,-0.15196429228680533,0.28810058380326437,0.4152037858561229,-0.018947137597549166,nm,0.0
81.46422362327576,-22.78400147809634,21.669653972327364,-94.52888704376089,0.3094192435836087,0.03475999353665246,-0.14870006306040354,0.27649817868421717,0.36897909824067837,-0.014430671765878797,nm,0.0
81.47359681129456,-24.810151528080944,23.025295779808392,-95.27714467031397,0.2997634987121625,0.11685702726776513,-0.27017016374148406,0.28990015603001473,0.3446220725015947,0.026341703654789522,nm,0.0
81.48478126525879,-26.521821476228908,24.535655306007662,-95.75797665700796,0.21391722927851697,0.26314405308034605,-0.41025884948489777,0.3184348085270572,0.2770779994247192,0.06305093637391815,nm,0.0
81.49410891532898,-27.747281485876076,26.165483850764286,-95.95572558722628,0.31677001508819796,0.34552263015434453,-0.4041738116045431,0.33435835211949894,0.18138150174032402,0.07794796028894027,nm,0.0
