timestamp,roll,pitch,yaw,acc_x,acc_y,acc_z,gyro_x,gyro_y,gyro_z,markers,motor_input
10.515921354293823,6.13185597632758,-8.691746982401138,94.84407511026905,1.5342639711893489,-1.0526190674715858,1.2702916731592357,-0.38862663300790334,-0.027926201305982053,0.04052867958224214,nm,0.0
10.522275924682617,6.58124242039101,-6.966786715255833,94.73312210337859,1.5260328858603758,-0.9221510606047935,1.928608515087364,-0.34159145141646935,0.06927071495386221,0.004034600523701348,nm,0.0
10.531744718551636,6.722047983716451,-5.788998243450917,94.35630923541625,1.58549333368718,-0.4762400068097389,1.8212773834198088,-0.22726718853744424,0.018198961526459636,-0.06263347905969399,nm,0.0
10.543401002883911,6.918569642744786,-5.512846835873749,93.88358211307346,1.4464812564998504,-0.06915902113203101,1.7299789692993235,-0.04787665736991272,0.04377319588751344,-0.09639287728218508,nm,0.0
10.549853801727295,7.377945714864587,-6.419646055415754,93.31564102098744,1.00673143889451,0.25925757067508787,1.4965279789424049,0.18565110856895306,0.11127050366006405,-0.09467795852634844,nm,0.0
10.575175285339355,8.75409741385635,-10.71468582993135,92.61743660397852,0.4279567713676626,0.13548144319903288,0.9418877468208894,0.4919014732455004,0.19857992202629188,-0.008104432563847174,nm,0.0
10.578923225402832,9.987667848919937,-13.568986643578363,92.34373255629723,0.09787872864556753,-0.23211738720282174,0.6846413061844498,0.5708080887075524,0.2744666441144813,0.024085618974510673,nm,0.0
10.590879917144775,11.457566567477874,-16.579351606952077,91.88293500898065,0.07489968491301273,-0.40185434501542355,-0.0711758376052436,0.6019229037215139,0.3152198663806004,-0.0005125847441722037,nm,0.0
10.613131046295166,16.941200831959605,-21.76234469143859,89.38524477444409,-0.368185111977745,-0.7722248174890852,-0.19180408257777978,0.47892637035518265,0.5636482505773117,-0.06780141984204041,nm,0.0
10.622806787490845,19.86934363604567,-23.52004487750422,87.34747971453126,-0.2784958699398983,-0.38261661689484977,-0.6920895895801874,0.3774818463092995,0.5400459220075,-0.1482095713720077,nm,0.0
10.646975040435791,25.914112111067084,-25.574001486048527,83.20005623310328,-0.15483636964514175,0.2205839805495303,-0.4193798376562532,0.2266512460329755,0.4942857416491125,-0.13476999279463067,nm,0.0
10.664868593215942,29.607239288342498,-27.240738619176998,80.68745472032067,-0.24271366873283717,0.7361590733755318,-0.4712509833175664,0.23256511852367495,0.26111313753870036,-0.06364511271107247,nm,0.0
10.673977136611938,30.34480341604667,-28.276731370500556,80.01442695360062,-0.4008178525792273,0.7529120868622785,-0.557361488160706,0.23550870439978025,0.1039331638833984,-0.07130451464764388,nm,0.0
10.675855159759521,30.463961651109752,-29.29042760761514,79.6303965393577,-0.6010714644705151,0.6016480788924609,-0.648305556509752,0.2126616932366058,-0.005101293650972789,-0.10177547860593729,nm,0.0
10.697286605834961,29.309941463694617,-30.467276602327654,78.50990754811589,-0.9510231019369935,0.24709005938632023,-0.7860005777008285,0.057176323657761416,-0.1435880886817462,-0.25103462613551264,nm,0.0
10.704124212265015,28.176053992540787,-30.358671578110602,77.7887527567238,-1.027743365314867,0.1637027347525721,-0.8007162993264061,-0.051304298625999493,-0.17781129840230372,-0.30530475135073165,nm,0.0
10.730809450149536,24.620148215026084,-29.033900394545025,76.90957694411529,-1.0208761518151495,0.23404678127316528,-0.634242745034305,-0.22638920631540885,-0.3040733563399341,-0.2882107108180693,nm,0.0
10.732351779937744,22.099636634760643,-28.039043646873978,77.38964852500062,-0.9757954999690704,0.35292948304331034,-0.5403063839769384,-0.2814607911007674,-0.3798129742475599,-0.18378460007229389,nm,0.0
10.756337642669678,16.075186380032136,-25.566890134062216,81.12917213681791,-0.9205254871652512,0.488981381605235,-0.4936941660628287,-0.34459274800350437,-0.5003713087193271,0.09699303604009693,nm,0.0
10.761184930801392,13.132091829831959,-24.092014359481187,83.66664207616554,-0.821880780957197,0.3834392232356454,-0.5102958148825695,-0.3514323497329563,-0.4831852148987612,0.206985839930193,nm,0.0
10.784253120422363,8.657492262391134,-20.737417611033585,88.0900782586372,-0.36624624677777573,-0.1650565900147938,-0.4549480149712232,-0.35503989932399016,-0.34092903895058296,0.23210974587475258,nm,0.0
10.7885422706604,7.421206008875268,-18.87747635575698,89.4727489551093,-0.0109802858312869,-0.5239743124174906,-0.22915891369238833,-0.3666019278142889,-0.2159304330838067,0.18919014760577652,nm,0.0
10.814116954803467,7.162093939981417,-14.667313706598204,90.71321529628642,0.5417176797013388,-1.0928627213540483,0.756055156345771,-0.4263698467022537,0.05505249869217411,0.13299088465512546,nm,0.0
10.823073387145996,7.19196459476873,-12.387483693284384,91.04857341476595,0.9360805864981946,-0.9922903273536439,0.9926654994279781,-0.446071239622227,0.008267556486983478,0.09723129707776526,nm,0.0
10.830465316772461,7.26976033563852,-10.212601397283375,91.56759750710276,1.2972114914489086,-0.6780895675116271,0.7960417036218606,-0.4253366292902084,0.014342670118451232,0.1173315345153855,nm,0.0
10.8510262966156,7.559365195830885,-7.28534382470995,92.87575723355663,1.1156459278830364,-0.0038298969067308065,1.0492989834505486,-0.22035367259397953,-0.028468972179751622,0.15694417345992934,nm,0.0
10.855053424835205,7.4401276422468925,-6.859164491370138,93.55674764547038,0.9683110793016113,0.292244080426257,0.74381906685426,-0.07382843125445958,-0.019600617092962777,0.14798201468853225,nm,0.0
10.878498554229736,7.817596319241063,-8.33830329773375,93.75323136879841,0.42980270376315544,0.2639922151318527,0.503935999309476,0.22812939995954531,0.05986804366254264,0.022278477500573917,nm,0.0
10.883080959320068,8.354844212074967,-9.921443287129854,93.29328301588693,0.24014828989865292,0.06245135323653222,0.42456337492219626,0.3199264831022095,0.13434348318375128,-0.0670759813651881,nm,0.0
10.91176962852478,10.110123921357474,-13.46035594654424,91.10436872967824,0.04008252179621543,-0.3477974642377807,0.10902874401157203,0.3584273150383553,0.20130811482597652,-0.20191002997965554,nm,0.0
10.914764642715454,11.102027302574378,-15.052695791942572,89.76154933091905,0.10730123510987155,-0.33347865500208174,-0.31136664697607913,0.32776291535419766,0.2035500779406458,-0.2022508085160021,nm,0.0
10.938658237457275,13.793062788107436,-17.457776700603194,87.96202512048413,-0.1386863539031024,-0.2664309354643926,-0.23452477440289834,0.23251870059814764,0.2517271152126195,-0.04682402627743636,nm,0.0
10.941562414169312,14.639773343939485,-18.312332211410784,87.60060784737398,-0.11288075421046166,-0.019720329464768916,-0.45953378236355896,0.1875180738922566,0.16341605239376977,0.004934697722563594,nm,0.0
10.965843915939331,15.973367293043076,-19.749129043453816,87.32216445617183,-0.3785952026519314,0.23149034645192923,-0.3333740787126322,0.15578183142801136,0.10530712309168143,0.04829251233336018,nm,0.0
10.97096562385559,16.18468885778156,-20.399138070516088,87.21537307738139,-0.4068199484708047,0.371090697743487,-0.4084677126814111,0.14186047808452137,0.042713329453055594,-0.0048236373772750285,nm,0.0
10.992594003677368,16.215820135015548,-21.414211189427686,86.26503227029367,-0.538751410673748,0.41155232689521093,-0.38458013362438304,0.10174544950256138,-0.013357123067919904,-0.11793022951072958,nm,0.0
10.997637510299683,15.850552327431009,-21.798128779002255,85.66664841766675,-0.5439369625027451,0.424556714574742,-0.4438898063382418,0.08217975544913096,-0.06413782463942269,-0.15986518379945708,nm,0.0
11.021459579467773,14.226776785662324,-22.2035916800512,84.86577652331037,-0.6234877070236945,0.30779671535593645,-0.457396558524126,0.021293850145156282,-0.179555711101043,-0.13943131023958633,nm,0.0
11.027169942855835,12.845843265204739,-22.19388179097157,84.91470575081237,-0.6574880207786462,0.25538030388933913,-0.4806658806930079,-0.013981869963774738,-0.24607417497611048,-0.09875307175926908,nm,0.0
11.0519118309021,9.338083805738595,-21.500906759479633,86.1153244312324,-0.7372230522691348,0.09524765053216916,-0.47741608201628194,-0.10982445695707867,-0.3283656985516964,-0.013518158810956395,nm,0.0
11.054746389389038,7.44941541725198,-20.75085676241027,86.86262824830428,-0.705805513815272,0.033166413457371625,-0.5117183843731905,-0.16041116367404942,-0.3342695345593904,0.009886529822024669,nm,0.0
11.078492164611816,3.984699775623012,-18.3694282164158,88.29184102194613,-0.4043969999972653,-0.11336314768814187,-0.43051807733686653,-0.26907438517556265,-0.29761302148591406,0.025016974897692033,nm,0.0
11.08372712135315,2.5452535116438377,-16.756225281266538,88.8199768288207,-0.13019264924700677,-0.22730643681259755,-0.3277734436000863,-0.3187788399623851,-0.25780947567517487,0.0363599591492129,nm,0.0
11.104623317718506,1.1935605567631085,-12.933451616993844,89.73832751280868,0.5150739326583824,-0.640608043488601,0.18102806129405286,-0.3884298920697402,-0.04124005167340536,0.10575361371030373,nm,0.0
11.111690044403076,1.565454095043926,-10.899505346717541,90.0249570547547,0.6175817220141485,-1.1284262705924957,1.585075640536951,-0.39574838110976307,0.08290734888220137,0.1202571984194446,nm,0.0
11.136986494064331,3.136541061087291,-7.686808387512174,89.83307428328928,1.3344767569918583,-0.7588119976751689,1.67443741763726,-0.2614200255123902,0.25307116390924816,0.04208734592254037,nm,0.0
11.140974521636963,4.246037399522453,-6.948220020922688,89.19906519855182,1.3661819501732275,-0.36734106808237144,2.5934004327424867,-0.13437820773101958,0.2298856538670402,-0.042543474193622,nm,0.0
11.163411855697632,5.677784464811678,-8.429721787170624,87.33556591395757,1.159900788380473,0.28622700611855073,2.049626192318996,0.2770930146159771,0.17184067205191797,-0.14733647284808218,nm,0.0
11.175161600112915,6.683317403810383,-10.602840650344746,86.5375716177375,0.7701348745222454,0.1847507793449529,1.7684569868587814,0.4563681980740419,0.1825968962646692,-0.11947913083644049,nm,0.0
11.177782535552979,7.753158232657029,-13.254045992309784,86.01555824668782,0.3934425394188685,0.0820584324785614,0.8925767382904,0.5545732606030722,0.18232164515944627,-0.0513225104594243,nm,0.0
11.202163457870483,10.685350777804679,-19.103248301141043,85.22284589031598,-0.012866983771008521,-0.41048910403819916,-0.3064685895022172,0.6361380550484975,0.28268228309232557,0.03147905660977093,nm,0.0
11.207568883895874,13.752304007909789,-21.947386041712416,84.2214688957131,-0.4385327456460017,-0.6854463515290526,-0.11207677542092939,0.6316465495568836,0.5277590378341954,0.057312688338420015,nm,0.0
11.225739002227783,21.397097554352463,-25.799958306846523,80.10619834111226,-0.41482315114159996,-0.46725262535864526,-0.7318485767760654,0.4456635126851414,0.6921095080301408,-0.10710442924268962,nm,0.0
11.239725589752197,26.071529502491284,-26.916866847236882,77.22798198684637,-0.2748784440638082,-0.3430249731025228,-0.29151932853404117,0.39572782133288126,0.78642889710045,-0.11905587788160255,nm,0.0
11.261406421661377,33.820440123160246,-27.72535944022799,72.7164947309964,0.012298297241252695,0.3460358389447143,-0.7650724971635632,0.24703710950358115,0.6067076345951269,-0.033673256372866535,nm,0.0
11.263277769088745,36.76187621909284,-28.26157933656231,71.60776296482156,-0.0036617444322403,0.4381435137921078,-0.6319610109729177,0.2709334257215706,0.47128906027241674,0.048483033691083734,nm,0.0
11.286662340164185,39.91608367090414,-29.78801815672087,71.24454598722431,-0.39724034629198085,0.48596550800960786,-0.8121690558559653,0.22645429926913355,0.16468108649773772,0.13300057573130805,nm,0.0
11.292969226837158,40.61204210551622,-30.436506450819184,71.56044591494997,-0.6621669643547481,0.3608674655830108,-0.7778301194848519,0.17027085282608945,0.08285694838082079,0.09041885350016442,nm,0.0
11.316786050796509,40.673123784246414,-30.31182478450361,71.65307885643098,-0.9104036509164697,0.28138554452923326,-0.7535414609984655,-0.06825272896139074,0.009892610781229815,-0.07988876843874546,nm,0.0
11.325363159179688,40.210927515914825,-29.486939810491098,71.5363755524304,-0.9594845007319184,0.3372159014309745,-0.740336928059422,-0.17306599305455087,-0.014879681260261556,-0.14066329228635238,nm,0.0
11.33021068572998,39.3328401275771,-28.4771599283921,71.53270199528389,-0.8621947267206016,0.39066754375608487,-0.5958111935102385,-0.23122770768142825,-0.07311592198774503,-0.15765401463322848,nm,0.0
11.349241495132446,36.06869170157504,-26.604908238257632,73.4374602388598,-0.8028380635493734,0.5322259495378191,-0.441468837626703,-0.25409348644952195,-0.26140780373662986,0.012975750024959685,nm,0.0
11.359385013580322,33.756189031015595,-25.983664096669624,75.5306115801985,-0.8514863758747167,0.5500404740909732,-0.4282804074060402,-0.22040176021037605,-0.3582604013516519,0.12866369947633544,nm,0.0
11.378949880599976,28.724025338385143,-24.923406097619047,80.97822927266115,-0.861817536421236,0.3178325939688138,-0.3846922426889534,-0.1832206816224664,-0.41621129254246575,0.26258935214015894,nm,0.0
11.404234647750854,24.375000878763558,-23.2116582047279,85.36639613058418,-0.5748183379323314,0.07312450102660735,-0.39808817836368515,-0.2190600923554764,-0.3436352378319168,0.13953915189922972,nm,0.0
11.408725261688232,22.599894451891018,-21.991464376721872,86.602574154659,-0.33801994641419175,0.05913357157828128,-0.3577338195779878,-0.2567182678758151,-0.301222699591809,0.043261420069850065,nm,0.0
11.417343854904175,20.9882960660585,-20.62649377690036,87.42401960174729,-0.03669167707444712,0.05936339360833893,-0.27774452483645073,-0.27844826900706116,-0.2772883744178802,-0.03147285862553797,nm,0.0
11.44326114654541,18.3394373208102,-18.14941216814917,88.43050423103891,0.7033318231579933,-0.006320022082858471,0.08527693488015986,-0.2293008565623767,-0.20577211436038242,-0.02443302598851805,nm,0.0
11.446532726287842,17.70426834870093,-17.235236945914835,88.9770371418447,0.913512107019612,-0.4233088026128269,0.9449308037855367,-0.17621098477326816,-0.1077821794630039,0.04770333903511001,nm,0.0
11.469469547271729,16.358716464414442,-16.42969824310547,89.9049142279042,1.430655706920667,-0.6811821072396965,0.876607710363337,-0.03219467067001502,-0.08426345685206432,0.024032553957704723,nm,0.0
11.473496198654175,16.480150430061347,-16.626668618052,89.74794407147155,1.4446630739996489,-1.015436058491754,1.7497171164416354,0.04899978452540982,0.03254852261950193,-0.03009549202370826,nm,0.0
11.49584412574768,16.78556430749579,-18.01108131005529,87.49122815715829,1.1633765372701828,-0.6910429465350444,1.0487493169813784,0.1799420981174986,0.07620260276823057,-0.24200022240751998,nm,0.0
