timestamp,roll,pitch,yaw,acc_x,acc_y,acc_z,gyro_x,gyro_y,gyro_z,markers,motor_input
59.512040853500366,-23.60547659537183,35.170325084288805,-68.64680243801023,-0.22861615977435212,0.37764328872887554,-0.28599366175476976,0.15071514192772664,0.001561346568846749,-0.09164546333675949,nm,0.0
59.535773277282715,-22.516433865616758,36.31851180484875,-69.03326092995039,-0.38893006950592734,0.3524626946584256,-0.25213096600690604,0.11249392602600791,-0.06064920875475781,-0.12913457291502256,nm,0.0
59.539249897003174,-22.002125146881284,36.50935024276055,-69.44505131458835,-0.4713795393664056,0.2551263283896987,-0.3148403401208292,0.05550959802137772,-0.07365366977117407,-0.14832837435058965,nm,0.0
59.54672312736511,-21.554262127686968,36.4054850426543,-69.9424945394002,-0.5077135148365683,0.12601706329514134,-0.3966591829919819,-0.004172262457694202,-0.08443879282497439,-0.15769992811636133,nm,0.0
59.568610191345215,-20.695271789037488,35.2720761698498,-70.53918732050982,-0.6114177827524302,-0.049658205062351156,-0.515839691208512,-0.12180487572789325,-0.13083326518135813,-0.09199949451585011,nm,0.0
59.57331442832947,-20.103250452195066,34.28944247287792,-70.20903236472883,-0.5276997212116382,-0.14030019075929231,-0.4396658363823502,-0.162257087866323,-0.16742273666562774,-0.022887323936427013,nm,0.0
59.58480787277222,-19.43490737013818,33.1391341937583,-69.45694143766008,-0.4679599031213345,-0.13384932935970975,-0.4169274191405605,-0.18731458630295889,-0.19367665926540442,0.05574232085109416,nm,0.0
59.592164039611816,-18.69180756779846,31.798625830725417,-68.43405753554444,-0.30675457168996895,-0.10057569107689866,-0.37634559774759857,-0.2148128985525726,-0.22342795461521386,0.12005294335726821,nm,0.0
59.602943420410156,-17.988035775761123,30.231367258872776,-67.24973068795109,-0.12190527847656235,-0.07804470269126809,-0.37886727036654383,-0.2542707463663522,-0.24029625729674553,0.15966934710086791,nm,0.0
59.624199628829956,-16.85120558944787,26.387093357622483,-65.21268227587069,0.2852208528462287,-0.10500237399509368,-0.36160077108534805,-0.34440042129955845,-0.26485848747861174,0.12948256036519393,nm,0.0
59.63316607475281,-16.414652889984787,24.08392990858943,-64.57505969795214,0.5674740658890972,-0.22318768379814333,-0.18884987235520367,-0.39256218133488885,-0.2780766181535026,0.0858822722338782,nm,0.0
59.657352685928345,-15.834886436834473,19.207681248240572,-63.85959812379414,1.0498845086968516,-0.3848277606298407,0.662092896354701,-0.42792347305367706,-0.2654179232511876,0.021279339346224887,nm,0.0
59.66230297088623,-15.753307007999357,16.966959657446022,-63.69374499499739,0.8389560421584918,-0.35760663884438115,0.8712208088374648,-0.40366648753324774,-0.22365764499710009,0.016475597150514866,nm,0.0
59.67293953895569,-15.263012622733132,15.225287884685457,-63.599116392144545,0.7437927989537279,-0.07658462160059953,1.1211889253237757,-0.2786562645685633,-0.2507568208616507,-0.012024195737566856,nm,0.0
59.692230463027954,-14.198978066828465,14.032316638992885,-63.74303033938858,0.271958529421996,0.3578575172421762,1.2432936340123,-9.628841081537079e-05,-0.10146273198676034,-0.055340636157874566,nm,0.0
59.69755458831787,-13.548611579551727,14.861875005007313,-64.06025490134151,0.11486379155668439,0.3246078677638347,1.11723283218979,0.1965595263921903,-0.05144308557592161,-0.10006492688342769,nm,0.0
59.70651817321777,-12.819169122820925,16.56904218966588,-64.52982395736088,0.5647438444291447,0.18364766426407494,1.5425845274343915,0.3607702498579976,0.010541936806037214,-0.13797992126309036,nm,0.0
59.73001575469971,-13.585823132789663,21.408978057863408,-66.11859536217577,0.1732648860973877,-0.6133344454277966,0.564409982635966,0.42664654769334115,0.27137266435363444,-0.10949022990507569,nm,0.0
59.75365328788757,-15.808739268755803,26.288891649549885,-67.9628043087833,0.09182311216264052,-0.6690643368157637,-0.14098073434370834,0.312143818767713,0.42762835759255075,-0.01242742680119291,nm,0.0
59.7592453956604,-17.39842301469971,28.253507196789673,-68.91476631684809,0.2301519833129762,-0.4818768201305952,-0.13618469462694316,0.2533157055086945,0.3972641353791025,-0.002292549861620548,nm,0.0
59.79503870010376,-25.87539240237324,34.3216837053729,-73.1372438688328,-0.12119859660087015,0.4256693010737345,-0.3928928001386458,0.1530202295717155,0.3978434124070878,0.03568311133476033,nm,0.0
59.802552700042725,-27.578470760338927,35.82675631829126,-74.0748412191365,-0.2773230045726649,0.5023390061408388,-0.47487475442121885,0.2004833461404887,0.34302196807041063,0.021939101154551926,nm,0.0
59.81330680847168,-28.73262895267474,37.344123749898884,-74.732210604901,-0.19178959822841235,0.5212793352707528,-0.4715816732172366,0.23255719204945025,0.2508802682311042,0.0024660064656370603,nm,0.0
59.83350872993469,-29.931458296334924,39.969042441041815,-75.50403783962024,-0.36858977268901677,0.4479966578591481,-0.6275473097669829,0.21299457276559455,0.10779636813149596,-0.020668914838373166,nm,0.0
59.84180760383606,-29.98051696431556,40.863711418487185,-75.71759519435882,-0.4005752563073448,0.44986470091251807,-0.6181605584421934,0.1613222306172489,0.04246094080633692,-0.040251437390836274,nm,0.0
59.849074363708496,-29.836043950118473,41.29916677484391,-75.83225203806212,-0.5228145977674336,0.39520414795216774,-0.6510408706333188,0.07949153847855954,-0.008946278408643258,-0.04589980576477255,nm,0.0
59.87193560600281,-28.91806885881685,41.01555080071766,-75.61666573739456,-0.5767464036430543,0.35390222614917993,-0.4747943593316731,-0.05070691905768195,-0.10167401006884544,-0.05777214089021843,nm,0.0
59.8785617351532,-28.19312157692522,40.428043009027725,-75.20853404148477,-0.6121028009952524,0.3339358108221837,-0.38409869518579093,-0.09638033920942517,-0.14537863346021399,-0.040984289700501914,nm,0.0
59.91337585449219,-26.197492354794512,38.86991605027063,-73.73269987214577,-0.5489961534724115,0.32010300756430987,-0.20624012234632036,-0.12143421987026226,-0.21084579910450246,0.015503271967822835,nm,0.0
59.915037631988525,-25.04266810622625,37.99346211653701,-72.64052024804823,-0.47989246425782467,0.3159194815373346,-0.1733978507546479,-0.12539852788324313,-0.23371090943000047,0.04267052401285518,nm,0.0
59.917102098464966,-23.870847949878957,37.02511100819078,-71.49116061847087,-0.37204914836498076,0.2825202241092884,-0.17958449089999406,-0.13682952101597654,-0.24645431732347933,0.059554363271356936,nm,0.0
59.925957918167114,-22.76217725920315,35.943736450184716,-70.41962131497151,-0.256665179790192,0.25160657684142584,-0.22941841189571868,-0.1559955197213395,-0.2491510388810235,0.060321695413998434,nm,0.0
59.934717655181885,-21.720724490390108,34.694312755756776,-69.51933565770943,-0.122822635487146,0.16437244296188805,-0.23993140540864302,-0.1862560878837339,-0.25541725737406257,0.04550986451251081,nm,0.0
59.95814561843872,-19.898783044491555,31.63275145860078,-68.19915783394141,0.19095011804457665,-0.05726646807708817,-0.22503770281569385,-0.2556694836591596,-0.26628743807313077,0.004886323217190287,nm,0.0
59.96419644355774,-19.065646139989582,29.885304717938332,-67.71251586845545,0.370793378572286,-0.153583367929649,-0.11979281353794545,-0.279526977393516,-0.27456394656571315,-0.010054761624497947,nm,0.0
59.97294545173645,-18.301367934353756,28.069314211420952,-67.34306045465904,0.5508671750758285,-0.24221588108833517,0.05500243015440958,-0.2938311606393124,-0.27309781899770097,-0.014867717953784996,nm,0.0
60.00426173210144,-17.122172428657155,24.77905749001336,-66.9713540963982,0.9267732747914792,-0.3021523490612891,0.7550032388409996,-0.2576370450409511,-0.21663446517421703,-0.03088885545438206,nm,0.0
60.00607705116272,-16.76241070007648,23.542911455983155,-67.0749313636499,0.8522792970711953,-0.17701634238214914,0.8281416127205443,-0.21116400761598647,-0.16762216537824104,-0.05459711602232623,nm,0.0
60.03186631202698,-15.952073818791286,22.432298038752442,-67.90082634392249,0.42725333872808025,-0.004141799612280325,0.7566880388181769,-0.03115776287640494,-0.11057665554030649,-0.14054040260946718,nm,0.0
60.03493642807007,-15.507315455956682,22.795276476094774,-68.51499867835831,0.41663876970599023,-0.200817039624613,1.085438636871829,0.08883777581032971,-0.059553268673492636,-0.16176304289425955,nm,0.0
60.055153369903564,-15.188486021438903,25.296491296846323,-69.77459929893614,0.05013573473299501,-0.35423883294269404,0.7399748071275349,0.27185920419085735,0.08079644726857257,-0.12212769350393066,nm,0.0
60.058698415756226,-15.34446786046519,26.995855721337293,-70.33701161004151,-0.07167590982489325,-0.38270558852468595,0.5415348565741693,0.30082067569872467,0.13261649299852785,-0.08489550663233171,nm,0.0
60.067992210388184,-15.911282320524608,28.79334286726081,-70.90814940390798,-0.08828427371291847,-0.42005923722140676,0.4963640788664949,0.29672877120082686,0.20436241068247996,-0.04229465075230116,nm,0.0
60.091604709625244,-18.69179249659417,32.29791557724658,-72.33092404278702,-0.2443794999201787,-0.28499407831655,0.0030540870558970626,0.2274338627036424,0.36543808444368236,0.04434034223093659,nm,0.0
60.09776496887207,-20.710746584760837,33.77833453293993,-73.16534083293317,-0.1818145020904533,-0.2101846673061369,0.007500438402904219,0.17300715682193293,0.4021794423893779,0.08315891726522884,nm,0.0
60.122962951660156,-25.305433429923557,36.01147086248448,-74.62049867521861,-0.1992725597626965,0.11224464614511225,-0.307460845305206,0.08830369904832325,0.41430078421287553,0.16516687062042262,nm,0.0
60.12882375717163,-27.514414232480192,36.95388098134534,-75.1211616325511,-0.23225616456268267,0.32215664403158123,-0.4428541001584535,0.07955843425181554,0.3830851416729619,0.19121992701689194,nm,0.0
60.136213302612305,-29.41391483479975,37.746724008932006,-75.29733173573642,-0.2464123238183086,0.4310014815327267,-0.5587472229315292,0.0662885298635162,0.3233071662153052,0.20977157890169404,nm,0.0
60.16470718383789,-31.85568376057739,38.9436838807142,-74.89768100358782,-0.3104092150695142,0.6119511691235777,-0.766436064413596,0.05058428667131647,0.16434459147947666,0.17967722690951984,nm,0.0
60.167319536209106,-32.28698463248855,39.16140559096654,-74.42943903616076,-0.33819246018684646,0.6198871554792031,-0.8446304947053226,0.01432278777052624,0.06629007225683341,0.14488439937578784,nm,0.0
60.17275929450989,-32.17226239357883,39.02339582946195,-73.8533067401586,-0.32258907308781865,0.6151644479397134,-0.8397809727485563,-0.03160407369343508,-0.03471535623141355,0.09758871654493337,nm,0.0
60.18414282798767,-31.59104137666224,38.531167499157746,-73.22850725039441,-0.31586989276840527,0.5746727667955036,-0.8054179290190864,-0.07863645483872822,-0.1250180499990871,0.0488898860631939,nm,0.0
60.190579891204834,-30.579690205063283,37.67576133658508,-72.44053979995478,-0.2944905166236516,0.49848144735440647,-0.730499657537317,-0.12616516588324342,-0.2130597929900617,0.007982157954638618,nm,0.0
60.22209334373474,-27.497585420000455,35.080795962902094,-70.57541809444152,-0.19765904547009544,0.30269896126670476,-0.5000689297615708,-0.18749094295133945,-0.36144007642716386,-0.040635394435538354,nm,0.0
60.22370791435242,-25.592743722835117,33.46641241841334,-69.46856588008042,-0.15965002907863915,0.2330619711053584,-0.4148755308702051,-0.2046170746478309,-0.4174042994608687,-0.04610467701129913,nm,0.0
60.22955298423767,-23.561382259445804,31.651092398326163,-68.25720190584407,-0.08727465319555315,0.12960316890652895,-0.35320587304097056,-0.22341383886949545,-0.4618132699729823,-0.04063208398339202,nm,0.0
60.254502296447754,-19.491220409982517,27.54125042319383,-66.04663404896874,0.13966523269479908,-0.10392371095903749,-0.2353786403331701,-0.25912909133474743,-0.5069199799302352,-0.03171303185678335,nm,0.0
60.25878286361694,-17.570139385318477,25.192029268748467,-65.1130710594137,0.33589295155116766,-0.24679807612263333,-0.12793394637270059,-0.2934576800370497,-0.5195733794801293,-0.03117184517129015,nm,0.0
60.27393579483032,-15.868998207258633,22.692465897699602,-64.441584419817,0.5791592506637326,-0.4045791118975718,0.09460798710573792,-0.3279059572124776,-0.5061857229944935,-0.036412383545829714,nm,0.0
60.276870012283325,-14.483085643132803,20.152100579948556,-64.01772079020594,0.8292417013430486,-0.5185009941059378,0.49925849028732683,-0.3534413866640199,-0.46522669997515254,-0.049600027302472816,nm,0.0
60.287904262542725,-13.458454114135103,17.659427699783475,-63.885764838385604,1.0528066750062135,-0.6009770679772506,1.0686929682872777,-0.3709478851614942,-0.4050238414586522,-0.06663430253477642,nm,0.0
60.30441737174988,-12.716068991918075,15.450053068055421,-64.11406224871445,0.9466630654251308,-0.49343565869865785,1.1397146173661006,-0.3432678447145624,-0.33317564405798084,-0.09235983189171397,nm,0.0
60.32049298286438,-11.2334320698263,12.728777052403396,-65.02366081797635,0.4443927949179032,0.07357832250339372,1.3946365099142226,-0.13289557695289714,-0.2317027714818828,-0.13793006865681526,nm,0.0
60.32655668258667,-10.649584695221266,12.688195713550302,-65.53753221793689,0.17110861849188036,0.17341616484509434,1.4806892031395364,0.032054480035315934,-0.11800418230341989,-0.13301574370639402,nm,0.0
60.35532283782959,-10.4044813835539,15.937315498903393,-66.5487123083325,0.0215344838196503,-0.0846797746931743,1.3270948543153915,0.3668434470573334,0.17285458421477742,-0.07366583996329526,nm,0.0
60.35695695877075,-10.985797251027275,18.56987175974127,-67.03864173683564,0.13655835817340226,-0.4615377064199314,1.0915503379590947,0.4325342168805645,0.29868125105032,-0.024758518097350822,nm,0.0
60.36280059814453,-12.017806699510354,21.491571669974316,-67.50984171971037,0.2785501848914365,-0.6871890841082651,0.7418633806589008,0.4563695342804606,0.3941381453461081,0.011611397327531766,nm,0.0
60.38614869117737,-15.614640406438863,26.698675621279587,-68.94331246442327,0.4230107926749511,-0.6810004625606375,-0.04517715667416906,0.3037745004141776,0.5101993344317773,0.054018254392356024,nm,0.0
60.39323544502258,-17.96626333001514,28.761207090467742,-70.01101799911159,0.3752004339991603,-0.4469119663753227,-0.3029754635110747,0.23202403149711132,0.5249434216020482,0.04345514788817258,nm,0.0
60.41662883758545,-22.760653299956306,31.831046823608343,-72.4025297764329,0.11532781496275907,0.13173308936983602,-0.4790998718576068,0.12540091638854145,0.455336009699469,0.032332782620125775,nm,0.0
60.42135453224182,-24.76141147891747,33.181163361820694,-73.40930293555083,-0.017657353703943605,0.3315516414910131,-0.4936297866572674,0.14932918285486446,0.39267855561571074,0.029158952865706845,nm,0.0
60.44796538352966,-27.35463417262155,36.38839006449072,-74.77923992844595,-0.2335245946557515,0.5858388543461653,-0.49763177017578797,0.2655657525819268,0.24277732003455474,0.024436804455943335,nm,0.0
60.44982171058655,-27.933474349170037,38.109980317429944,-75.18871603371171,-0.2640069587739986,0.5614482910386952,-0.5031424595385305,0.29890797063049496,0.16881045236936845,0.006787822757784503,nm,0.0
60.457271337509155,-28.222308499504475,39.7712054781101,-75.54506134888962,-0.3599529201714552,0.5483486051682547,-0.5594435256197566,0.30016376099995123,0.11823253287376385,-0.027748919377174365,nm,0.0
60.4720356464386,-28.312398557583386,41.09672877771845,-75.93812933775168,-0.44816658088068984,0.5059849427812683,-0.6312222761866396,0.24341163279672173,0.06959653590781935,-0.06614417516383221,nm,0.0
60.47635817527771,-28.319757540859385,41.910007181540465,-76.39137706756081,-0.49175049688855554,0.39853989159550496,-0.6798583441205562,0.14730334846287035,0.031122812274775435,-0.09401876264415074,nm,0.0
60.49832057952881,-28.234333865603716,42.04549002376931,-77.20658610868236,-0.6446723595058478,0.2960388148958785,-0.650019265309129,-0.041840721678012775,-0.030402433647304182,-0.09397517780679616,nm,0.0
