timestamp,roll,pitch,yaw,acc_x,acc_y,acc_z,gyro_x,gyro_y,gyro_z,markers,motor_input
79.00189352035522,-23.67063292878088,24.850165397584785,-93.46030572220663,0.2652693122778045,0.027094324181003635,0.04376344323605728,0.3402496744335897,0.30495941105191043,0.02913609980601599,nm,0.0
79.02492022514343,-27.802837534282094,27.88059406796903,-95.74531008839088,0.31838170285245215,0.3111682532605425,-0.1705021771568835,0.31099729178083846,0.3441757846556689,-0.03319708283983412,nm,0.0
79.03024816513062,-29.901124542502277,29.203754681742254,-97.19659784978421,0.27797315220818786,0.3530311823755817,-0.2842675218260829,0.2920459967613019,0.33107360521391277,-0.06954980546067682,nm,0.0
79.05520677566528,-33.38770497913255,31.60394693940835,-100.0562161135657,0.08409826460371474,0.33005195187665815,-0.5520341452796458,0.2619824682110519,0.22222849258478683,-0.08980182414876081,nm,0.0
79.05817890167236,-34.508961434999755,32.70474542770604,-100.99448874700595,-0.009492870367171388,0.30690054365443065,-0.6522521525795054,0.23804984723781003,0.1416023645272898,-0.07043830072907445,nm,0.0
79.06817197799683,-35.14186200485756,33.685764160662664,-101.55665780983085,-0.0744773022807352,0.31707526538055464,-0.6941330557049754,0.1999668931541358,0.06067125490445604,-0.04526503289161208,nm,0.0
79.09220361709595,-35.14833496179193,34.89344475829369,-101.69866847844351,-0.13522435994403703,0.4266220092235064,-0.6103176554353156,0.06733862281933554,-0.050913232209890705,-0.01959382117906299,nm,0.0
79.10104870796204,-34.74078172990226,34.952698647836314,-101.49626079026339,-0.15179008522317897,0.47095060818612594,-0.5105816308204718,-0.015200875879451506,-0.07275915204523808,-0.024124231077190573,nm,0.0
79.10594081878662,-34.1993199923258,34.64677362559757,-101.24699516304926,-0.17044398405462563,0.4883754874880214,-0.4004903136437601,-0.09095844591631722,-0.08009610861513493,-0.03336659445315276,nm,0.0
79.1155366897583,-33.56327972586405,34.05457548381826,-100.92338479773011,-0.1966864098658937,0.47478735743984984,-0.30092871790161196,-0.14989042402366182,-0.08539518410241008,-0.036391885014185145,nm,0.0
79.14181423187256,-31.983957141529793,32.46841763238879,-99.86487697873956,-0.21758253173407308,0.400183285606971,-0.1807836384347528,-0.20044518107576434,-0.11599417539814076,0.008969140776084962,nm,0.0
79.15016674995422,-31.023149729251948,31.656453537272295,-99.00310213780566,-0.18221546046884424,0.3565403078327566,-0.15814892868595234,-0.2003086736239639,-0.1393969765081651,0.05303065860721769,nm,0.0
79.17082715034485,-28.874952510358405,30.021504550129432,-96.46073345191719,-0.026641173971932136,0.2687812971303802,-0.1901038145354676,-0.20300105469331436,-0.17272415089787677,0.1288333082776823,nm,0.0
79.17484521865845,-27.78891622734955,29.050161093565258,-94.98861598589482,0.07900985845429886,0.20488671724113208,-0.21967649245139778,-0.22502313605199467,-0.17503233974149332,0.14089701242550903,nm,0.0
79.18260383605957,-26.763691748334836,27.87027439557445,-93.76398205075962,0.1825612926803479,0.11372188190000952,-0.23725237002065327,-0.26209031851489817,-0.16804146408297269,0.13359111025278952,nm,0.0
79.20611333847046,-24.90641033899819,24.794265840575278,-91.8228436061378,0.37207837145700223,-0.1491390839789792,-0.21080506759446155,-0.3499134520092598,-0.15719706127868113,0.09099539285003938,nm,0.0
79.2108039855957,-24.0022083806411,22.96494252414831,-90.97515080823764,0.48891636572058145,-0.3254289812797172,-0.09991932425865768,-0.3826504315584801,-0.1634421074115209,0.07729851336924645,nm,0.0
79.2349021434784,-22.14806964689129,19.141828844361953,-89.40556960504047,0.7551515982662949,-0.558710538238664,0.3209979043720281,-0.3942294859373285,-0.18365653494297035,0.08702776448564216,nm,0.0
79.24385833740234,-21.265202173710783,17.311166197596396,-88.54533605267488,0.8837477759626106,-0.508321011252362,0.5292398668293187,-0.3756051183350815,-0.18190772044428635,0.09839650914542049,nm,0.0
79.26784706115723,-19.908257729483825,14.355207429554236,-87.40450024563737,0.6091133950080342,-0.1027000029570787,0.5086606086277031,-0.2699206043638138,-0.1581394078858377,0.052573416661649,nm,0.0
79.27050685882568,-19.03996473458253,13.46492671752921,-87.30069573946382,0.7685911788614052,0.06990344620522415,0.7938322038963876,-0.1823486552409601,-0.18430850680664715,-0.0176398903974787,nm,0.0
79.29622626304626,-17.831031090025203,13.363202589688612,-88.15642825548017,0.22254200553678405,0.1406179387535304,0.6363967547283602,0.043698329513263356,-0.1376281668057026,-0.14193447992781064,nm,0.0
79.30128145217896,-17.082278577128694,14.19872843964475,-88.86184179872907,0.5920696700062528,-0.07382608586743607,1.094844342985471,0.15880949491105537,-0.14834000500515973,-0.17211367818230697,nm,0.0
79.31586122512817,-17.56897672755675,17.048671139928818,-90.22019092210947,-0.0077617822743177006,-0.25915846851786195,0.5924386952736636,0.30038241053086523,0.04031074254754868,-0.0984056919707552,nm,0.0
79.33972072601318,-19.727814421021673,20.304688728118073,-91.3541438013012,-0.04029739040295391,-0.08299731780155062,0.22682562571472784,0.31711695114835675,0.2689581914198189,0.006713444741238149,nm,0.0
79.35513663291931,-23.522367209762017,23.41041771832919,-93.15618132807855,0.3185415518209476,0.19156620690508805,0.12598086982087245,0.30819202947616303,0.3808271644945359,-0.022465088692231155,nm,0.0
79.36411690711975,-25.941330416958557,24.80559685782519,-94.5254892097703,0.22700409354086618,0.3065512975207198,-0.08440746939923875,0.2959377356227586,0.4161226112057091,-0.05093585953887284,nm,0.0
79.37406539916992,-28.243589099494073,26.157877930585325,-96.03676914451823,0.3892253876742177,0.27128355710309243,-0.1383327297011144,0.2952081805473317,0.3834643739565124,-0.08650745532420888,nm,0.0
79.38426041603088,-30.559042458292183,27.51026792208225,-97.563535370555,0.2221161335816349,0.31653281000822847,-0.37880845528799584,0.30501002891557627,0.3729178540559567,-0.07937730093028751,nm,0.0
79.39173889160156,-32.44124217822519,28.859381589636182,-98.86931499348452,0.12946554706737853,0.32962920322478967,-0.5474866991385141,0.3017789453849468,0.2845607600424706,-0.0695819791628817,nm,0.0
79.41495537757874,-34.74242013269368,31.407325148036126,-100.54825974086815,-0.0004329784532279855,0.3318524188960336,-0.7607924436786349,0.2577411357663759,0.11032190575638143,-0.023786826850268835,nm,0.0
79.42157506942749,-35.10899661435926,32.42904902021674,-100.86328672730453,-0.021454540426976667,0.35789345052679306,-0.7616227575024658,0.19923618879217186,0.018093162413416162,-0.026200277928425973,nm,0.0
79.44355487823486,-34.71530602135249,33.35577695229606,-100.83159886618617,-0.15654021739653376,0.4463772343548287,-0.6213346058274488,0.026254561069274703,-0.07272212741560986,-0.04001390749237194,nm,0.0
79.45137810707092,-34.10555338816433,33.246803343594074,-100.69688116798349,-0.17419710602081195,0.4412575035783788,-0.4960004094375768,-0.053809290997118016,-0.10120289260631193,-0.056640454677198505,nm,0.0
79.4715085029602,-32.49469614751876,32.27415444178028,-99.96021868217193,-0.2881683621848858,0.4171826611179602,-0.25395128540807244,-0.15267450091901108,-0.13051348357185147,-0.03334555188377093,nm,0.0
79.48053455352783,-31.510785790706624,31.651059636989093,-99.33124999366129,-0.28181064349705554,0.37184626936591214,-0.1490421583334981,-0.16422343616588972,-0.1490447719201576,0.0045266340900504895,nm,0.0
79.48655843734741,-30.489822914986743,31.043703165219373,-98.43333315575612,-0.27855839099930024,0.34210951930851785,-0.10719286075457214,-0.1602670056565504,-0.15898868034891148,0.05774465158055166,nm,0.0
79.50951170921326,-28.455091031274335,29.75632519655163,-95.8422671225659,-0.09250156622398839,0.21404024737650493,-0.12554977570249423,-0.16681196332450376,-0.160901868508346,0.15291648305146935,nm,0.0
79.518319606781,-27.560546430127633,28.929355110723023,-94.491647868312,0.003349444869563727,0.14847143331597226,-0.16019210566859224,-0.19184156380749584,-0.14649772142277553,0.17409699229747821,nm,0.0
79.54072308540344,-26.14812068260179,26.5470633278003,-92.15258184279696,0.2759784857250365,-0.008156977708366655,-0.18835477480553284,-0.2821835963855248,-0.10779439401501532,0.15663133512544464,nm,0.0
79.5469913482666,-25.557475044424528,24.985283387766014,-91.2384529702685,0.4193240214221687,-0.08637097419737932,-0.15259945497033753,-0.32830492762368013,-0.10380109846703937,0.12878936784013784,nm,0.0
79.56488084793091,-24.472012086471235,21.464512470517725,-89.82357400666285,0.908004340745695,-0.3167194951792637,0.2605938902420766,-0.3704062769242929,-0.09993283180230328,0.08850360084323881,nm,0.0
79.58055472373962,-24.342962968795145,19.734788108189104,-89.22868094867329,0.6708161888774951,-0.27836375517842293,0.144910649471623,-0.35845265699674156,-0.034408726928357926,0.09508268776866427,nm,0.0
79.58220505714417,-23.776005858273706,18.14978581769362,-88.6416662872318,0.6867143874721809,-0.26165028951800995,0.12948645381511076,-0.3274420789198106,-0.12093350565518766,0.05257803451415863,nm,0.0
79.61180472373962,-22.192306701662304,15.612185335534127,-88.01110321396725,0.7597328163249363,-0.11425745632529026,0.2962066460453133,-0.23816954345248567,-0.14115240416126823,-0.024753281837227206,nm,0.0
79.61499977111816,-21.134179814056903,14.808245612887607,-88.14535677810906,0.7626854475651016,-0.08062426705594364,0.548455712657621,-0.16613466379021935,-0.21718387624008645,-0.09062799845509742,nm,0.0
79.6441113948822,-18.95964217354974,14.570922773215392,-89.02539758928839,0.16868276134887916,-0.0268345456185156,0.4981645732926332,0.0152335278336504,-0.21199198362144836,-0.15535745925063996,nm,0.0
79.64563608169556,-17.367894013821154,15.141040696124103,-89.46690388527219,0.5414332497134831,-0.1628203770390826,0.9569980584666078,0.10593701154806073,-0.31344779610832424,-0.17341132352930735,nm,0.0
79.6480667591095,-16.793441778838993,16.10470666999771,-89.88951330434705,0.31245625321177,-0.21081133996426546,0.8870627365423963,0.18128697824542037,-0.11641099134778238,-0.11912241187699345,nm,0.0
79.6609296798706,-16.859135877925116,17.342445644892706,-90.24356289896282,-0.3722776811417525,-0.09692448026624166,0.31544355896455556,0.23552066676490083,0.0057428704917275065,-0.0707619269357407,nm,0.0
79.67068552970886,-16.723986455380967,18.73543690589797,-90.58106812465243,0.15391231490138244,-0.21519940336038298,0.7760631127356812,0.26635273814083915,-0.034283090947143366,-0.06741532973213092,nm,0.0
79.69313549995422,-19.236568944994023,21.64901879686133,-91.84892556223113,-0.16602117533193375,0.03771284260295832,0.22003955566768638,0.2869102606214234,0.26119792052959484,-0.010410098817937542,nm,0.0
79.69816541671753,-21.010796344552002,23.092460583774205,-92.825469829551,0.20796946887029652,0.020719828040375088,0.33202954980885996,0.29009216642844515,0.30993211252622754,-0.0190238725559967,nm,0.0
79.71931076049805,-25.852683525230194,25.94733944457128,-95.18551199436241,0.18212686456164837,0.15668110225086376,-0.046348842009413006,0.3089913760958387,0.40015624593675314,0.008483125513704155,nm,0.0
79.72477746009827,-28.273682248504752,27.45380109810982,-96.22596725986548,0.2697568547992065,0.17769388792076676,-0.18179940209181872,0.33067036640335956,0.39485114718404657,0.03836675570858414,nm,0.0
79.7475938796997,-32.40409707100336,30.697223108709924,-97.72386391439508,0.23259231113043569,0.30584505459548367,-0.4572428042457588,0.3555160620729618,0.26227888300426905,0.07600438226723265,nm,0.0
79.75337767601013,-33.910955243442935,32.30342296382121,-98.1366578579218,0.18002359498366302,0.40594972999684337,-0.5742689938870414,0.3410007686541862,0.20464505254821166,0.08466456142553988,nm,0.0
79.7766182422638,-35.72068887962721,34.83200737278597,-98.63254763389159,0.10525502356238924,0.5661272023171681,-0.6344553244923675,0.22345303600284677,0.075423331843396,0.029145630576106255,nm,0.0
79.78142833709717,-36.21284958722061,35.54719496593077,-98.89471451707712,-0.03432335712652444,0.6409034378013097,-0.6315071879997336,0.1406699003396489,0.052177004777710784,0.002145350755612052,nm,0.0
79.80509638786316,-36.244193375583045,35.85592672949595,-99.32032443693763,-0.1337362764198086,0.5739155993333689,-0.4849292325079057,-0.0188419666778632,-0.02699927081851307,-0.052623578211479886,nm,0.0
79.81022429466248,-35.84354772201618,35.618958581736784,-99.3149058701434,-0.22697512855609653,0.512296042026875,-0.44869396492863634,-0.07056622852481205,-0.06202715850175659,-0.048004717018201644,nm,0.0
79.83422565460205,-34.05377732344452,34.6884861850321,-98.30763297723368,-0.20928482067655335,0.2849702054945506,-0.36371593487594306,-0.14496814407665137,-0.15782496897957374,0.006108734129559951,nm,0.0
79.84234595298767,-32.786216971522805,33.98765831215696,-97.29141297874828,-0.17503903184576744,0.22198375799206513,-0.34178306195912767,-0.1804506272980107,-0.194278855833148,0.04429106992099608,nm,0.0
79.86389708518982,-29.978979787182386,31.884271973898993,-94.76961818077183,-0.006057835141675839,0.13967399847484188,-0.30286539888247965,-0.2718709920490248,-0.2195349689209278,0.08762113080413682,nm,0.0
79.87165832519531,-28.630434807780645,30.405102392943803,-93.64625784067427,0.10488265157629396,0.09589163145875661,-0.2754215116302374,-0.3251328745841193,-0.21484923072988138,0.08235850140588744,nm,0.0
79.87580394744873,-27.389350152176174,28.66426483099,-92.69376294960149,0.21982787205896379,0.03174629110582839,-0.2422756718839129,-0.3727048553637206,-0.2028805451143668,0.06528054926034237,nm,0.0
79.88639545440674,-26.245137883010837,26.731093569729413,-91.83522832046692,0.31707588780167123,-0.045625032782249546,-0.19360682987806493,-0.40727155814477534,-0.19417079039143365,0.04395832555496927,nm,0.0
79.90899777412415,-24.01037520910827,22.59905430008516,-90.60579793383427,0.578825150813463,-0.27131250200669066,0.09413710067211223,-0.4323473114149522,-0.20546835417272025,0.017118408879198993,nm,0.0
79.91390371322632,-22.87185000010203,20.583801726798008,-90.10215602575617,0.6933880579227959,-0.3324935438272666,0.27406325903713286,-0.4172461783070693,-0.21632160677090065,0.014106279471696015,nm,0.0
79.93806505203247,-20.5896831756658,17.066156150533384,-89.30698767038507,0.7601771644664652,-0.2091068180960089,0.502443484733024,-0.3401629544146584,-0.2255349092817976,-0.0038005155923766212,nm,0.0
79.94658088684082,-19.530688289261853,15.738425377619075,-89.23750681494397,0.6674359248337025,-0.07763899206025576,0.5806524642227616,-0.2756696742681294,-0.21364476669724863,-0.03349529807515826,nm,0.0
79.95217967033386,-18.496414026131784,14.830514176415997,-89.40065168583958,0.6298505043601665,0.017362251944108016,0.7456384436515203,-0.1917825718327608,-0.20882944059074207,-0.07934357653674255,nm,0.0
79.96793222427368,-17.674046903284644,14.424345955789317,-89.8024631315435,0.4761578113039369,0.07133728368127445,0.8221617189864086,-0.09256426061796819,-0.16675918566135797,-0.11987537096681534,nm,0.0
79.97564387321472,-17.056527177275903,14.551146893383155,-90.44477588794939,0.3303554102046077,0.035864001047372945,0.8621661485036496,0.012684138554791063,-0.12649683633017697,-0.14728409094744932,nm,0.0
79.99551892280579,-16.98536383004021,16.23863857925837,-91.8133461954365,0.055944345313796606,-0.2094127500090996,0.7125551664661165,0.19930865629264674,0.026749707046868975,-0.11297320615848136,nm,0.0
