timestamp,roll,pitch,yaw,acc_x,acc_y,acc_z,gyro_x,gyro_y,gyro_z,markers,motor_input
73.00495028495789,-22.065875750014936,25.699353010293486,-76.4040357458429,0.3923794246438801,0.19582786731453836,-0.2851175414452016,-0.3329716701314614,-0.1345976958817211,0.06864562656055674,nm,0.0
73.0173282623291,-21.808970226674493,23.89699273098992,-75.83743233802636,0.34505423755926223,0.17233860857924224,-0.3000685033640903,-0.34952790527822003,-0.14147176534755082,0.07875218828428768,nm,0.0
73.01924705505371,-21.22494609378456,22.050938313782197,-75.18898779865515,0.28161459955130475,0.15717090588482796,-0.3571595557175522,-0.3410414251700357,-0.20666675981793947,0.05623296438241297,nm,0.0
73.03011584281921,-20.15293816685463,20.173430557714067,-74.64646879669809,0.7329549954723907,0.15652093489797464,-0.03296588008954705,-0.32076336987623894,-0.3012077857764849,0.00463779542220603,nm,0.0
73.05407285690308,-18.288283164583532,16.35588418096939,-74.54896557700714,0.7228090438109239,-0.048850024179058406,0.09115183179011666,-0.3259164586634615,-0.29691837308477537,-0.09898648623234513,nm,0.0
73.0674421787262,-17.00138546228478,14.563090214595137,-74.89297377792522,0.9874079755931005,-0.21862891784016567,0.5283063399405683,-0.29048154926545094,-0.34435891035579536,-0.1731585828273663,nm,0.0
73.08353447914124,-14.367826192863054,11.647935381562135,-76.20117222887909,0.6669228593543469,-0.5198687116957549,0.7897462827249707,-0.19807641044194405,-0.3455583243659798,-0.23317516443447853,nm,0.0
73.08806443214417,-12.813385743649768,10.717638727677404,-76.85706085340507,0.4336862677512029,-0.5164879420983531,0.8662098313633947,-0.11999584837788159,-0.34987538670595547,-0.21674619064307044,nm,0.0
73.11359071731567,-9.285351478131698,10.512078596876357,-77.61659217769314,0.40047260436349225,-0.23335742836358597,1.4881686295581904,0.1008077793873041,-0.3336897933072677,-0.1381642842186785,nm,0.0
73.12911176681519,-8.740820518021545,11.280973520104054,-77.93236855925703,-0.2834857860146671,-0.22622124327826257,0.8119077350851736,0.16277945825680262,-0.08112702255371161,-0.07528801145181742,nm,0.0
73.13079571723938,-8.27285671616958,12.601926936290539,-78.24044464497193,-0.2877771126891909,-0.20711207609877288,0.9071561219451447,0.2673148774770422,-0.0442713099292683,-0.05523964445044084,nm,0.0
73.13546204566956,-8.493954989422942,14.329508505897174,-78.62336964840402,-0.04555500275946017,-0.27596943168683846,1.0239412489376252,0.3199765136921011,0.10242549053010352,-0.03457020611391597,nm,0.0
73.15828657150269,-11.646762102728252,18.366278239289098,-80.01711037314725,0.03406363576793187,-0.4110738643088915,0.5313650124127131,0.3390998322969998,0.3946404575138946,-0.00037227704937017127,nm,0.0
73.18073081970215,-17.033969803638243,22.394040837565665,-81.912649963851,0.1602752876417211,-0.2488026205528956,-0.0049228116851766,0.29793526256358255,0.5867785483518112,0.07319476836325134,nm,0.0
73.18233299255371,-19.871173334898277,24.302297720869916,-82.77957247005533,0.3959268342304026,-0.12691801222370624,-0.04961518450924065,0.2989914173358789,0.5592329947243477,0.10064502091370695,nm,0.0
73.20909428596497,-25.430071199806438,28.12820082188476,-84.06004918342163,0.3704188575632006,0.1918985121271767,-0.3952432493515181,0.3195600759341299,0.5084266528617347,0.17988997664128314,nm,0.0
73.21118211746216,-27.837486894155507,30.05690360597015,-84.43094939669786,0.0991048192623129,0.3405384423213596,-0.6445537518467443,0.3310782094734462,0.4492717916477158,0.19547060590700538,nm,0.0
73.2333767414093,-30.670570274622953,33.51890579810518,-84.69297189266527,0.22493011473639854,0.5003619074172797,-0.7207749558332307,0.2903256881990305,0.21960637305948585,0.11839594482214134,nm,0.0
73.2415657043457,-31.643094958544964,34.74057287444636,-84.71688116889045,-0.05249201247174924,0.5656978865067644,-0.8192409753462399,0.21707111679001104,0.1750002379615835,0.0962069499742354,nm,0.0
73.26364827156067,-32.28656112757917,35.97945607159897,-84.86570101854909,-0.11679160073545816,0.61184600703659,-0.6648214671713346,0.06990997531563199,0.03386498075784416,0.005473064196783069,nm,0.0
73.26794409751892,-32.18081557615951,36.025594310654654,-84.85716791893472,-0.3132181881407723,0.6325324815050793,-0.6089705836220345,0.0,0.0,0.0,nm,0.0
73.29303765296936,-30.217522920715496,35.464366279932335,-84.22113048922346,0.09088781209671042,0.5590644650998514,-0.2457016355789236,-0.06283296684110413,-0.20584438235968874,-0.07731505295200276,nm,0.0
73.29543733596802,-29.30994545335396,34.980908837230906,-83.64512895674707,-0.30601309960824047,0.5767612629970502,-0.3500314868078735,-0.09190023264189805,-0.1660278733469786,-0.023656286868972226,nm,0.0
73.3355700969696,-26.41250715998068,33.63374680053197,-82.19024505270703,-0.02925549368118923,0.34210465560913284,-0.13010603627733286,-0.12492975618068929,-0.2820920779145275,-0.050411263864077197,nm,0.0
73.33723282814026,-25.161422067569557,32.68591253376764,-81.44575679782825,-0.25034627501992757,0.30790813365916764,-0.29106666338716014,-0.16906338731974715,-0.2429284562072624,-0.01858055068331692,nm,0.0
73.35209774971008,-22.594239014350727,30.085020305738926,-79.73920369253312,0.03327568139518647,0.12651151271379563,-0.20465153232779637,-0.25451820747990017,-0.2579913903560326,-0.028622819614455296,nm,0.0
73.35368156433105,-21.594120206964394,28.46416216279079,-79.1674141715983,0.02951097230309544,0.08400215167332363,-0.2783986571108868,-0.2977243178873488,-0.24010315243925864,-0.024918266402775936,nm,0.0
73.37687397003174,-19.661704224028615,24.756372235178397,-78.41391685941569,0.34388207474899857,-0.043222724558373955,-0.18050518752220343,-0.354592129222376,-0.24269549134662383,-0.028288273005033338,nm,0.0
73.38147044181824,-18.74103341111094,22.779130584450883,-78.18747499887508,0.4748780862544977,-0.11600402953955889,-0.08795758312457284,-0.364266227216707,-0.2542925613010456,-0.03286937562333039,nm,0.0
73.40476536750793,-17.133012038434842,18.873293093138763,-77.94343198923181,0.6150782914556897,-0.25493217048809663,0.2837641543622397,-0.3613831449283572,-0.21126134553487952,-0.03450779585884786,nm,0.0
73.41086483001709,-16.311116863144782,17.09227720617192,-77.97195914136074,0.5278159940130102,-0.26361444746353974,0.38785350919860423,-0.326769446381611,-0.2365172287700783,-0.060269424761364966,nm,0.0
73.43434858322144,-14.236043148974975,14.36810124025968,-78.44876632000745,0.4155576233962482,-0.04730048051492372,0.6718110313218785,-0.20544602954034566,-0.23819772467296055,-0.1182629436276724,nm,0.0
73.441899061203,-13.18245644663385,13.667238132040932,-78.90734596418366,0.1313436225041995,0.07154745042129362,0.6377288420771386,-0.10810044177691325,-0.23713130229577856,-0.14691237118424466,nm,0.0
73.4743275642395,-10.896124599138084,15.035648585945578,-80.68895621109228,-0.2793396466126017,0.11428593427881992,0.5139361686514691,0.18860420834059893,0.004074322193566355,-0.13144803706578795,nm,0.0
73.47663378715515,-10.679496871295779,16.419915685658484,-81.32596782945588,0.07722378766181169,-0.02811574590791757,0.8281569277430972,0.2693207510236265,-0.0061611855406773905,-0.1285400076597005,nm,0.0
73.49121809005737,-11.326842336228902,18.013309800152154,-82.05500832351099,-0.015190372849632086,-0.06316864896193104,0.4648605202126343,0.2868351988112379,0.1605335868749413,-0.0917129299205122,nm,0.0
73.49582982063293,-12.382185704277095,19.614544783698435,-82.95228065729225,-0.05436623104358363,-0.07139953392412053,0.18012047972573647,0.2808180026988985,0.2321473477313847,-0.0838711401968001,nm,0.0
73.52289271354675,-15.410495782933616,22.569315552164454,-85.4228927491194,0.1213866263161187,0.12977720323556116,-0.11509260148136212,0.24232982435929962,0.3470406859085327,-0.10192329155492666,nm,0.0
73.52462148666382,-17.11847797245119,23.878165669088148,-86.90705708116418,0.19882852209014407,0.22898671692190478,-0.16929295184447413,0.22904687573968938,0.32387757279071455,-0.12863115780378925,nm,0.0
73.55415463447571,-21.331139690765813,27.800925384361708,-90.65985380671479,0.12410324357641628,0.3682974481420893,-0.4634961287080822,0.259804014947539,0.18612765854877394,-0.11670741536651931,nm,0.0
73.56417179107666,-21.921287137761613,29.155020500114528,-91.49084945011298,0.04056544196022546,0.39219637021247583,-0.5844120809895679,0.2605151847153863,0.09277229770974398,-0.10975375080713069,nm,0.0
73.58594059944153,-21.63115792300558,31.32572851076737,-92.43085517727502,-0.03120128029314997,0.3710701174925282,-0.6820423863059047,0.17378817144279965,-0.06911465432284115,-0.13108386289476437,nm,0.0
73.5900149345398,-20.916139633392095,31.852405664370036,-92.77259300633969,-0.15715656340349074,0.37555420910541676,-0.7552338512242008,0.08722567624666122,-0.13191903910618596,-0.1602714256505053,nm,0.0
73.60422611236572,-19.807703315723558,31.906945415301912,-92.98483193888701,-0.021032584135625806,0.22516142346383158,-0.5742323310481015,-0.010971380335356634,-0.1939545119911729,-0.1941518488473647,nm,0.0
73.6246726512909,-17.47183970459343,30.76199865135192,-93.10649373518474,-0.32839621065628194,0.18082103180056466,-0.5846834866075024,-0.175453635574422,-0.21964664776659412,-0.16465426183291879,nm,0.0
73.63416528701782,-15.966996221041331,29.718183984793747,-92.79914289621614,-0.24439067069779458,0.07943249383016159,-0.41631292156707567,-0.23437413824143857,-0.25446804261463496,-0.12405965387520691,nm,0.0
73.66022825241089,-12.98399865225512,26.990872192744064,-91.11430717781532,-0.20801772781022537,0.05186440804135244,-0.3671060176569103,-0.3106168078322954,-0.2724281829343387,0.00884016517998259,nm,0.0
73.66205382347107,-11.55346966544126,25.355259339003418,-90.0523281843468,-0.064357841559846,0.02528842986081916,-0.3365537639351318,-0.342025110025227,-0.2595420644988215,0.06207445718277459,nm,0.0
73.66635584831238,-10.302353873348977,23.516026552621515,-89.05877926274147,0.01835313811528971,-0.02812717559313774,-0.3605656308908637,-0.3784648052874985,-0.23675781077154248,0.08963800547120616,nm,0.0
73.67966437339783,-9.155783343764924,21.470935404117135,-88.16212748162765,0.21890235868993893,-0.1589969731513935,-0.25691839663780414,-0.41604420315774204,-0.2281123712411289,0.08601695733828925,nm,0.0
73.70443391799927,-7.372874817039961,14.122887889356722,-86.57033993253816,0.332661942400473,-0.6169477309092954,0.11763748099736512,-0.5321191512777186,-0.07741286953200306,0.0888715296190794,nm,0.0
73.71656823158264,-6.8092733097343245,11.477411785377184,-86.10295396667017,0.48605114299673335,-0.7128501922344618,0.5439239957933399,-0.5331549326501679,-0.15043156310939607,0.08867072617629189,nm,0.0
73.73038697242737,-6.16086009305889,8.94117361641174,-85.51838357299034,0.7463751650553528,-0.6133884649093523,1.0939746979669127,-0.5085473167203929,-0.1717706893519889,0.10807240958310955,nm,0.0
73.748455286026,-5.229159356207761,5.0358208313908595,-84.39640040849008,0.5608231157079316,0.035504916333059085,1.2829071750204755,-0.3334526251034076,-0.1568620987286406,0.12563423922574696,nm,0.0
73.75300812721252,-4.663619079030452,4.144928577140185,-83.95544436632572,0.5158644574414053,0.38448483149013674,1.3701931823363271,-0.17710038461684585,-0.13845189781502512,0.10708684874518516,nm,0.0
73.76217246055603,-4.376221667200577,4.151346965001681,-83.69093770644137,0.26250348839408044,0.5310793172183654,1.218465454681662,-0.0034662366470647795,-0.06526610015868069,0.07504357561889204,nm,0.0
73.77352905273438,-4.174156550945273,5.078903004840791,-83.58528536386005,0.19390517155943246,0.4672238956276992,1.2132511288003387,0.17821203640029437,-0.027995907599885798,0.04041121299319375,nm,0.0
73.79568552970886,-4.667214270294722,9.071056417220843,-83.8442626096611,0.12062976244121303,-0.1549704425618135,0.8105041967178827,0.43363959503386934,0.10585187714367313,0.004743297540675795,nm,0.0
73.80183863639832,-5.344733782383105,11.587183365992887,-84.10829075770792,0.32165169191701387,-0.4821550606498411,0.80033302389732,0.4763356924778287,0.17708010577217492,0.008199868315761331,nm,0.0
73.80992722511292,-6.756000782788798,14.112917793007068,-84.47248842618997,0.14173270980257513,-0.6070691794043525,0.260689756149301,0.4652167399603211,0.316184188062889,0.027497624722661214,nm,0.0
73.82103419303894,-8.25464563702633,16.482307971311666,-84.86302271038227,0.13471271068366855,-0.5452908906588154,0.042873648053221906,0.4345215505745323,0.324565089639245,0.02366831768039266,nm,0.0
73.84503650665283,-11.960604478197954,20.485845466001788,-86.23996485028395,0.1277972035378845,-0.09932333356905226,-0.24318480426487435,0.3370759652312624,0.4026990967719236,0.005751304891648749,nm,0.0
73.84893941879272,-13.93391599499301,22.220889486784547,-87.2170541284717,0.20872042969788127,0.10246682149691487,-0.22572352954669145,0.31453856062060476,0.3800834167221826,-0.019627541285136177,nm,0.0
73.87196373939514,-17.945481652212276,25.527460642832757,-89.28371999757617,0.10539816294232822,0.395393286650332,-0.4159503899551902,0.3095029827527598,0.3577025315710439,-0.013706368985805682,nm,0.0
73.87743902206421,-19.585147361947424,27.19295462082338,-90.1508279569171,0.15884142008490848,0.39936174258543883,-0.4311206233833564,0.3199541537690101,0.2893472397969992,-0.007680299934936415,nm,0.0
73.90029072761536,-22.11225392686739,30.3660912241154,-91.40428908141467,0.04080035208049615,0.4386074051190115,-0.6448806682279272,0.2958673293723078,0.17940547304712345,0.010951151747626765,nm,0.0
73.90557527542114,-22.901997681636736,31.61669463340616,-91.82894203887786,0.03378717096649544,0.42170452824903293,-0.6864263054546053,0.2415766935161363,0.12260273349813104,-0.0036904998279228057,nm,0.0
73.9139928817749,-23.505445647462434,32.47657808549872,-92.19007709737295,-0.06985370852904622,0.4618239575293927,-0.7208488114323145,0.16299699685237984,0.09067239905408808,-0.022617198422688275,nm,0.0
73.92609643936157,-23.860812190288033,32.88547962746477,-92.54264592115128,-0.12202905853827603,0.4444229880320363,-0.6783057626735329,0.07158023606359432,0.050851501895513775,-0.05084667260089068,nm,0.0
73.9471116065979,-23.91669209392996,32.57420601371099,-92.80485040922136,-0.28160499302716907,0.43161598511396027,-0.5424990287211561,-0.07517709876867956,-0.018275063360097397,-0.06317187916067676,nm,0.0
73.9523937702179,-23.517863804410275,32.06143252911004,-92.42714936886534,-0.2595949098505072,0.37825491890601337,-0.42020996953588136,-0.11812254085957989,-0.06875449449713869,-0.04071703497675289,nm,0.0
73.97600412368774,-22.10785162087421,30.703634454390325,-91.08251384179553,-0.2954679116828439,0.3293870099292924,-0.3548998599577077,-0.16046814794805975,-0.14344753111724665,0.062141282609400744,nm,0.0
73.98149299621582,-21.14487743370253,29.869909105658856,-89.92736635608976,-0.20143435375782962,0.2905259443775414,-0.3124504588585061,-0.18063769880163066,-0.17132301747070353,0.10743249453778027,nm,0.0
