timestamp,roll,pitch,yaw,acc_x,acc_y,acc_z,gyro_x,gyro_y,gyro_z,markers,motor_input
16.50459861755371,-4.900772386435666,-7.813438915173486,91.87335066859963,0.33045415619137297,-0.8426403409839921,-0.3334559142565901,-0.4519903484821735,-0.3924341414886551,-0.10806399288171327,nm,0.0
16.51388382911682,-5.728607915228157,-5.196045644306532,91.62804633185245,0.35536042289691844,-1.0845406892061997,0.6164484067631445,-0.5070170537254617,-0.1732157564791175,-0.09919297624734257,nm,0.0
16.522104263305664,-6.31045197162596,-2.275978453907948,91.26702345451538,0.40490585583502636,-1.1028063268709358,1.5847059119442888,-0.5699070346331851,-0.12318989196255677,-0.08331471510690325,nm,0.0
16.53164005279541,-6.947342417830543,0.7995620742802495,91.02597018739249,0.9347806424573759,-0.769889188121028,1.429313934733271,-0.6014066890845053,-0.13225726915849997,-0.05361600600756711,nm,0.0
16.55568504333496,-7.053090518840163,5.778840196455445,90.65123474636947,0.5254556652254707,0.35634101165162396,1.342162595270173,-0.40996794793332747,-0.04646752819494059,-0.033320794805872564,nm,0.0
16.565086364746094,-7.4916241898752105,6.476141905670617,90.27306706768981,0.6901350295534928,0.8101910786194201,0.5809583438418665,-0.1271192049903606,-0.08129244040118307,-0.05166957610750654,nm,0.0
16.585886240005493,-7.29238525817599,3.6387781494742986,89.41653033624699,0.11235971584017627,0.5914973435375906,0.42948092309548935,0.41920310586172693,0.016560409149623936,-0.07343681947133726,nm,0.0
16.590054512023926,-6.8286546412279945,0.8183409262692762,89.10044041466016,0.09221321144785209,0.0034103506367269072,0.34008266170731627,0.5779388323675959,0.09214882160809308,-0.050505385081549295,nm,0.0
16.611642837524414,-4.495654548714695,-4.802255694573793,88.54380474180407,-0.12112843762882025,-0.9874634582142736,0.10759288473789096,0.5332896861209917,0.226592493155173,0.014973272779085008,nm,0.0
16.617954969406128,-2.570612081039123,-6.6508621136660615,88.39661273727586,-0.11881640921724612,-1.0080493829315087,-0.3523072635688317,0.3925712738574581,0.38049679693106464,0.04086667295254395,nm,0.0
16.63195300102234,0.04116740450715346,-7.877294127187707,88.09947073812786,-0.4335083052481355,-0.7342090421547741,-0.041560379925386755,0.2739213526151517,0.5181349908587742,0.049854171857114035,nm,0.0
16.641355991363525,2.334985150814123,-8.587276485845083,87.62385859707118,-0.1967582358814312,-0.118311355408111,-0.32830016113344723,0.17130398698520777,0.4563206096226014,0.00943241192219599,nm,0.0
16.6463782787323,4.684963235220312,-9.035342036369823,87.0988095689205,-0.10268808750771553,0.4220890994498944,-0.33847829101305243,0.12293206404206061,0.467901659430642,-0.006829602668560851,nm,0.0
16.67046880722046,8.19876583841259,-10.643375232203717,86.28506039554263,0.047642536987091415,0.919179917657916,-0.3130722895386476,0.22520581289764913,0.2741479987960268,-0.0156335496782954,nm,0.0
16.694132566452026,9.406872666541972,-13.137538950101517,86.22459803978828,-0.16020650377046156,0.3381869780864216,-0.3019694340708451,0.2722398500645967,0.04693127198087437,0.009780178713895167,nm,0.0
16.695861339569092,9.126553460963907,-14.360466072491036,86.27776059457834,-0.29467474558742585,0.013528511160457987,-0.4035523096003402,0.2517573739203261,-0.062168634438561854,-0.015445042036502227,nm,0.0
16.719168186187744,7.40756705091032,-15.619769064777863,86.06303982174529,-0.6088107551086817,-0.17289404827760796,-0.4846294014702333,0.0743815073555679,-0.2008691789344497,-0.12437184285465763,nm,0.0
16.722588539123535,6.107117281665689,-15.635519915734076,85.71083876424466,-0.6715998295523514,0.05907807123974567,-0.5241202355456019,-0.0030665219721389154,-0.24239298447323165,-0.18153520883283308,nm,0.0
16.748342275619507,3.1115395754185107,-15.092274103563424,84.76915779308712,-0.7393532979816503,0.6647793594529298,-0.4723410627137264,-0.08083634932484283,-0.2901041314344388,-0.20979576620111676,nm,0.0
16.751088857650757,1.5292615093424686,-14.775991216668329,84.4613936033781,-0.7210929946462301,0.7965957414084961,-0.5487301056579046,-0.0795020154467659,-0.2915204296555635,-0.16950007899438543,nm,0.0
16.77415633201599,-1.339711213564501,-14.218675053619481,84.62479920215233,-0.6635574581541821,0.5047666153585514,-0.6350750236760585,-0.0745205562353114,-0.2537493194908075,-0.040190590619830185,nm,0.0
16.800437927246094,-3.365901315906252,-12.995703572464631,85.59352727792292,-0.4012106246527054,-0.24554903419615096,-0.6737257050795129,-0.149176631952204,-0.14961131466354738,0.0614807344463763,nm,0.0
16.802135467529297,-3.9097873888518118,-11.880271737878031,86.08886745627446,-0.17988449553854483,-0.5727535479588822,-0.5082881372916513,-0.21833991791646915,-0.08241426360587392,0.08756726833446797,nm,0.0
16.82422709465027,-3.59179595252215,-8.1670204619632,87.08753135566377,0.38989082843363976,-0.9147087906092365,-0.006228753230861017,-0.40436220257011385,0.12471734449374505,0.14090463460786462,nm,0.0
16.827144622802734,-2.510985045916786,-5.664692949915316,87.69262210633727,0.2325387961621827,-1.015131490763804,1.2358743958364287,-0.4785559847719564,0.24545711888027835,0.17418852527065154,nm,0.0
16.847004890441895,-1.0584422935624522,-0.6194466117287918,89.23106389037598,0.98097165049562,-0.43644602064251403,1.064945167016573,-0.46441964684096365,0.19913194776485468,0.18935074635192983,nm,0.0
16.856727838516235,-0.06700586687905699,1.0614777502108368,90.0809406959231,0.7205557784026347,-0.1434139344273266,1.451992411350222,-0.32386591522599995,0.2081541885207082,0.18351145549563974,nm,0.0
16.877671718597412,0.5979324527210823,1.6435506130568984,91.4451939158132,0.5952591350783321,0.01078250786523689,0.8430671907475822,0.044744180936488596,0.0952891952431004,0.12183614218243928,nm,0.0
16.884360313415527,0.9446416322147064,0.6112938379090612,91.86201613918549,0.17522628075978244,-0.1983978681452969,1.1963063072921893,0.21564244018413567,0.0829795657378321,0.08580639464455564,nm,0.0
16.89383363723755,0.9545599590190159,-1.0018917998815098,92.15189933806411,0.13211220721311082,-0.4380274918301265,0.7439838162507117,0.33370926308227467,0.021213435655547907,0.052953510308166515,nm,0.0
16.904688835144043,1.2801240865222205,-2.8511901714800225,92.35271351986444,-0.08706711318559184,-0.7005306301022224,0.493224681511613,0.3783420988673525,0.0877733526765345,0.037486445978888526,nm,0.0
16.926067113876343,3.9614172737261084,-6.2117011080930356,92.36510193881226,-0.4349297533827576,-0.757771169930337,-0.013205364815093726,0.3036925688936267,0.3891107499998976,0.037637541801353404,nm,0.0
16.931325674057007,6.191308040987499,-7.243558004911396,92.10813519875184,-0.5341727324316573,-0.5283151663851469,-0.1300197108099128,0.20004944761574764,0.4594633052327271,0.021150629230811447,nm,0.0
16.95716881752014,11.675644816693518,-8.333602484900293,91.27244058159425,-0.4535007250199481,0.2419336109215158,-0.14933188308181639,0.08960080181979786,0.5937603900243136,-0.008910882536404678,nm,0.0
16.96032738685608,14.437421934751343,-8.807025384042928,90.71230515183899,-0.30102553979879215,0.5657010939861455,-0.19064208791487056,0.09534790957938347,0.556931229120604,-0.018089189381067614,nm,0.0
16.970693349838257,16.949021293593297,-9.371850835790143,90.25764733950908,-0.17278976249202593,0.6889641950417493,-0.30789009388936933,0.1184842965060447,0.5061395384723735,-0.005943520588164011,nm,0.0
16.979198694229126,19.120523785190898,-10.11800467036999,89.98608747734701,-0.12541503582839042,0.5971431267882797,-0.2613420757279111,0.15754476742465423,0.4376262301174189,0.012202043219292443,nm,0.0
17.011565446853638,21.63635997345881,-11.759704546019275,89.88015393543843,-0.14334360930059833,0.217749158619252,-0.4200020329476858,0.16514993499077424,0.20141923906973488,0.004833683476459332,nm,0.0
17.013634204864502,22.080888669289866,-12.290450361439186,89.7328179981792,-0.24972702588915216,0.08895737498759382,-0.40297261214186897,0.11520582393200494,0.09581977120663727,-0.023563387447337766,nm,0.0
17.029231071472168,21.497467649939313,-12.386019852765772,89.41277168469121,-0.47807700201524245,0.30404889478386343,-0.4795582975276595,-0.011855340682229511,-0.08341225358678449,-0.11096056850688504,nm,0.0
17.03775382041931,20.69031152747065,-12.136128593843765,89.26633722636134,-0.5583968307395308,0.4907383458501045,-0.4516470483384438,-0.042429812580982294,-0.14853971391337234,-0.13949444932675542,nm,0.0
17.0594482421875,18.264012261859026,-11.659202567783472,89.13833805057409,-0.6266489683569636,0.7271348781374624,-0.4681242195216161,-0.037473451514450536,-0.2472096421975387,-0.10736452599397389,nm,0.0
17.06519389152527,16.785980721017946,-11.511276106020809,89.3826466322598,-0.6647414750133375,0.6225151089986659,-0.4854035952325105,-0.023354865095118495,-0.28079626045780637,-0.056799001063868704,nm,0.0
17.09190583229065,13.526883707015106,-11.207121271950342,90.67691431497396,-0.6239923931480014,0.08601616607706294,-0.47130650201848834,-0.027970930988692373,-0.31550353363738964,0.029707890597994103,nm,0.0
17.09379291534424,11.83549681882514,-10.747757303570054,91.5092361948649,-0.5244023796967849,-0.27560711133517835,-0.44174308957327724,-0.07499440197462,-0.325471237358631,0.042617774560288736,nm,0.0
17.119884967803955,8.515250492256511,-8.77517161481153,92.8248038158229,-0.08972064427916777,-0.7639858694331974,-0.26152283274637544,-0.21030092219561888,-0.3222786649666845,0.015582567628863479,nm,0.0
17.138960361480713,5.829511903178275,-5.226887662796303,93.72484869208672,0.58428631146577,-0.8982920976416054,-0.13926814048914177,-0.36714497800180923,-0.25002028862974857,0.011053825397537076,nm,0.0
17.14217734336853,5.375060282096783,-2.9545925163288462,94.08622896777345,0.6459487380460578,-0.9987104840691432,0.9769173469712481,-0.43733836346831456,-0.11368459670153715,0.02944372795422043,nm,0.0
17.1654314994812,4.179525412353517,2.0887934962358417,94.18824029191362,1.4612627976670538,-0.706716904758313,1.2973321414125616,-0.48548358699278454,-0.11542682171217075,-0.02750867022629893,nm,0.0
17.170565366744995,4.000932065473317,4.297897240784463,93.82130831053003,1.148640708918884,-0.2724908457114997,1.8259939062664694,-0.42825592216872976,-0.05902848545982475,-0.08747573664110292,nm,0.0
17.192426443099976,1.161015533331935,6.421736600032142,92.33896586787637,0.9736618761723151,0.5010294786826385,0.9240349278665575,-0.07940290656731558,-0.31156500370712237,-0.15574870240608152,nm,0.0
17.20553493499756,-0.5150106754485531,5.726702565606915,91.6591679047154,0.42361207500504283,0.6129591551137011,1.1481784986718588,0.1620966052333161,-0.3213554649668575,-0.12019480262155996,nm,0.0
17.20714282989502,-2.5913496504758613,4.084652710283791,91.38396687381308,0.24282116564514197,0.37934655032809406,0.6863815492338554,0.35119421516177707,-0.3978728931157263,-0.03438276581531451,nm,0.0
17.23367977142334,-5.734206332617687,-0.7383351265008832,92.27649821775358,-0.19948299935838232,-0.5290364645151839,0.05687346968060689,0.5324598640032042,-0.2609711015121441,0.13245101213466592,nm,0.0
17.235676527023315,-6.175225322850276,-3.1906727145578797,92.95870636220873,-0.4990811433621067,-0.8412711608292598,-0.17816613709469112,0.5059094418831805,-0.05794813479556754,0.14933300453557571,nm,0.0
17.254703283309937,-4.784538937795811,-7.175710217730003,92.94788850151473,-0.790503276143517,-0.7382681578910009,-0.7095900102209785,0.37195026697451156,0.2156733623264169,-0.01443763531608805,nm,0.0
17.270576238632202,-2.7589642589334495,-8.736626779265713,91.97356274114239,-0.851927416816301,-0.2968573210130142,-0.5937339102568266,0.30694575318588246,0.42265170514661865,-0.10457973530012278,nm,0.0
17.275816202163696,-0.14221310010612245,-9.956892451183515,90.50163532159935,-0.7575388743139023,0.1697684902557436,-0.3255946631837759,0.24553381307522099,0.529898659129595,-0.16130247242292026,nm,0.0
17.28515124320984,2.625784779735645,-10.989517088117774,88.97789812030585,-0.40909561869914396,0.6719498861297237,-0.3429419924091634,0.2217120394309999,0.5517111318428977,-0.1548489136797818,nm,0.0
17.30624771118164,8.104833585618419,-13.226161319050856,87.09469867302063,-0.1191213810132345,0.9569902933825526,-0.08085563825645824,0.2757288350474062,0.49546018106302153,0.018275196094517457,nm,0.0
17.31345558166504,10.056049764970455,-14.745276452521445,86.82011876469481,-0.06582731782309248,0.7810703872207999,-0.19043694979377332,0.33522550154137115,0.37023982428947005,0.07367911080410756,nm,0.0
17.33484697341919,12.026766924320093,-18.092435039519412,86.42813313842674,-0.2542637711344633,0.14092368640981012,-0.38202497436089977,0.34246589158700796,0.10989994159558368,-0.01578619758720894,nm,0.0
17.339946269989014,12.108087239315442,-19.405677659896007,85.67196611778803,-0.37408830440435364,-0.041943375132127585,-0.5537213964929377,0.2741106574876482,0.005815790328601804,-0.14375515297451785,nm,0.0
17.363439559936523,11.057024255260892,-20.89346998933558,83.16106978146773,-0.5499321000352807,0.08259396210885936,-0.5849543459106106,0.10741086588822898,-0.14221654499082656,-0.3573435315354153,nm,0.0
17.3694965839386,9.881517254768099,-21.2067842707883,81.9039982893326,-0.5583696294446158,0.30127015270365454,-0.5660440990622236,0.04548542295622563,-0.21807199264547156,-0.37018339261246647,nm,0.0
17.39380168914795,6.286066767632901,-21.55306133333287,81.11805538344987,-0.6386609576812773,0.5469070176935735,-0.5177527269308707,-0.018764186554498984,-0.36499104120581,-0.19705739109039738,nm,0.0
17.399046659469604,4.0098555543805565,-21.532438268870028,81.71096272158078,-0.7168251199986505,0.5052102914086084,-0.5426498170230726,-0.054751430977323885,-0.4112852453112008,-0.07707458699414019,nm,0.0
17.42534303665161,-0.5425157040548441,-20.842186750186713,83.72523471963613,-0.7582914138511619,0.16093377038603254,-0.6100487584802402,-0.12961697238126996,-0.39004426018204025,0.05841116167048871,nm,0.0
17.4268958568573,-2.4806527186888454,-20.09653930997687,84.5589335811289,-0.6048137339350992,-0.06526854917071051,-0.6550945764377858,-0.17365019300961296,-0.3388699529292298,0.051924881200574334,nm,0.0
17.455402374267578,-5.065171528655128,-17.744019850678374,85.54357157358524,-0.0854606096090271,-0.5994325021634418,-0.3934748898586823,-0.2704494052536202,-0.17197354614207352,0.01918735232039838,nm,0.0
17.4643235206604,-5.660129823787478,-15.956168601683471,85.80441537120936,0.33633952944021556,-0.8201972239959541,-0.341190699485641,-0.35332651157940964,-0.07890683611849103,0.0457789063471568,nm,0.0
17.4791259765625,-5.411188065821505,-10.738717537262355,86.86753283428943,0.4816643887105846,-1.430294942986164,1.1142711741810913,-0.565029121284244,0.04181660278336625,0.1614386538375306,nm,0.0
17.48325800895691,-5.288836568204851,-7.378979207937548,87.60590669675994,1.1566673487605494,-1.1517080521879806,0.8818281808071414,-0.6585983756166434,0.06526809204425418,0.19334379536751334,nm,0.0
