timestamp,roll,pitch,yaw,acc_x,acc_y,acc_z,gyro_x,gyro_y,gyro_z,markers,motor_input
70.50330471992493,-26.10690403417093,33.09350736845842,-80.4424608182953,-0.18090336519282704,0.4719135643726196,-0.5442732618944175,-0.11521413465085943,-0.11753081426310807,-0.05160742965732015,nm,0.0
70.53021144866943,-22.463679121942512,30.331960164739915,-79.05058286362147,-0.09596620287047584,0.4346999648461348,-0.25370731881431785,-0.16137969310269532,-0.27891977033044735,-0.04552025031790626,nm,0.0
70.5544970035553,-19.15943815938308,28.25022792779443,-77.48270553818529,-0.0619884834683649,0.4102673974336164,-0.12191562723302242,-0.15597640653093497,-0.3511974188493309,-0.046355117276264075,nm,0.0
70.55877089500427,-17.573207303489497,27.063123011179428,-76.84752767218055,-0.10721701948176207,0.3470510280825237,-0.16370448539996715,-0.17946108698934143,-0.33596060376961595,-0.056315607852465525,nm,0.0
70.59341096878052,-13.660342465898712,22.583052609723378,-76.0122995202923,0.008874916513182568,-0.15792242902263245,-0.19635367423432015,-0.2810618409904377,-0.2873023367053488,-0.09845459333168692,nm,0.0
70.59543895721436,-12.61361013005864,20.78875847223174,-75.88653648524195,0.1408250882985927,-0.3493718281288838,-0.15396722541457203,-0.3113449387492259,-0.28525703701477495,-0.07563136564869434,nm,0.0
70.61014795303345,-11.675562573709355,18.866271115793488,-75.6374231063826,0.27306654051835216,-0.511434775326166,-0.07187319539863879,-0.3397667031377077,-0.275075635356048,-0.028819519043544604,nm,0.0
70.61519455909729,-10.815150012035664,16.831082493970978,-75.21461760984076,0.41242731319291936,-0.6193634777393684,0.06257541405263867,-0.36317115989110305,-0.2704889396938852,0.022577586514435092,nm,0.0
70.63785552978516,-9.424730776674625,12.515311378221847,-74.03187212689363,0.7602956204197039,-0.6181350211785058,0.7840723670124203,-0.3982198606056899,-0.24098703306994593,0.08481266307974351,nm,0.0
70.64317965507507,-9.186020921587371,10.435892348305261,-73.62494122006306,0.7454362699174654,-0.43586065458917217,1.0279656822209082,-0.3965663778631494,-0.17057379585918897,0.07999632233124279,nm,0.0
70.66670489311218,-8.612608067831577,7.396688541576267,-73.67572572975695,0.4790935878688778,0.12477686645362936,0.9058523552344184,-0.22622916993502354,-0.17367881283983927,-0.03174029863441745,nm,0.0
70.67292213439941,-8.303643467710856,6.803535806487254,-74.12077402002916,0.3617613200419704,0.27456872219190875,1.0082561244862316,-0.10672257867149906,-0.101836495367787,-0.0884118519059992,nm,0.0
70.69838953018188,-7.9306482397045865,7.956891391044614,-75.39485144476147,0.08227516656128557,0.08451532286622708,0.7400738968282957,0.18866593563931902,-0.005776111472727869,-0.11820466482770747,nm,0.0
70.7029972076416,-7.735789849244438,9.529084019092078,-75.88623707117233,0.21588680022979895,-0.11868619172800877,0.74498382903545,0.3046779808532166,0.030907891631563565,-0.08203505152889957,nm,0.0
70.72390604019165,-8.887007145898155,13.621684226951931,-76.41204915810233,0.030587438233598295,-0.4209437768139964,0.23315439006307548,0.3680932343168157,0.23937586574889055,0.02237327488343868,nm,0.0
70.72836470603943,-9.645127127775956,15.694249598874432,-76.63444212354491,0.2500317534633189,-0.3665196136745598,0.3682662492176807,0.35950063929734294,0.23002050887551506,0.026796311611242653,nm,0.0
70.75260043144226,-12.520157427152599,19.33645762289377,-77.7860492556555,0.11580133106315922,0.01623916208024131,0.024586600600210062,0.26397973649377154,0.358973781350619,-0.017017510539136776,nm,0.0
70.76068139076233,-14.248344639804648,20.96229753895797,-78.74345371778253,0.22904132594902638,0.17722803394843253,0.07674750578309528,0.24222297288314085,0.37561693422190473,-0.055729997896233716,nm,0.0
70.766592502594,-16.251133731329904,22.55718470696004,-79.91520549924509,0.10049189377291197,0.2903849813912649,-0.09146209545238064,0.23442896905382143,0.4165365545922458,-0.05768570898365825,nm,0.0
70.7755606174469,-18.100174659013835,24.224178465225222,-81.03494476463264,0.1152568208171018,0.3152110777269034,-0.1387635445775901,0.2623388920460043,0.3818514966553077,-0.045122050013912465,nm,0.0
70.80252242088318,-21.12395309499109,27.9704499136378,-82.29796392613395,0.04795728386126954,0.33150369526772716,-0.41006694331284016,0.33826999896897747,0.2883238114005235,0.04416460129596272,nm,0.0
70.80472826957703,-22.032738029377686,29.90715006135262,-82.45763784120648,0.06834459145288399,0.3565571395983636,-0.5121377117496982,0.35185973021282235,0.20135418305175848,0.06112902899273915,nm,0.0
70.83015418052673,-22.967665583667426,33.03989907331725,-82.63348223558839,-0.08435841969555988,0.44939174949672683,-0.7018758148607682,0.25487785377026234,0.0852457644958493,0.014339017667034847,nm,0.0
70.832834482193,-23.12183135276448,33.923416490347705,-82.91096225685311,-0.1290828192244241,0.4404751764279818,-0.6735972965329999,0.16071464070472682,0.040263209362396045,-0.04280873208532479,nm,0.0
70.85902571678162,-23.094589312494804,34.285139376875144,-83.78542772262654,-0.33463315739686206,0.3750130845136654,-0.5500982879732103,-0.015027930802651253,-0.02416911951107741,-0.11401943959808654,nm,0.0
70.86276626586914,-22.784964298106782,33.97293189944445,-83.99998616801896,-0.3545796105482337,0.29273360830603223,-0.48706339131105886,-0.06836020315555194,-0.06500370070285458,-0.10158673924830927,nm,0.0
70.88520121574402,-21.385267049880987,32.90578484577839,-82.94811072578574,-0.33711029666184594,0.22687492454940034,-0.3385823467578203,-0.11229857185426328,-0.16125472484544628,0.001861948060376205,nm,0.0
70.89544367790222,-20.3682422698384,32.18185659811656,-81.98650654397154,-0.26337042150531165,0.2236837060968285,-0.30681315774153545,-0.13249243735335756,-0.19681772371225068,0.05847404881516266,nm,0.0
70.90278220176697,-19.283921422729684,31.271563655875074,-80.80465008234533,-0.17272414707934391,0.22979855178202874,-0.2928275150069746,-0.1636132675609497,-0.21776775495899425,0.08838316556918403,nm,0.0
70.9119484424591,-18.24288821064036,30.108237403763923,-79.70056460210255,-0.035768599781501965,0.22514214706045477,-0.2870440120704258,-0.21010286756188756,-0.22423881079658037,0.08356271689850886,nm,0.0
70.93620371818542,-16.503164370281326,26.89889654441672,-78.44417187891115,0.1731666595979385,0.08714751844450035,-0.3153109713442453,-0.3258405325481427,-0.219727371568196,0.007966616761181036,nm,0.0
70.94303917884827,-15.721362589345016,24.914223422593444,-78.08165701838807,0.26727599830889126,-0.043242036148439876,-0.3111706353163755,-0.37098848864277983,-0.22750799518086273,-0.026636704448319448,nm,0.0
70.9601879119873,-13.903403815815514,20.528056151432306,-77.34580509949964,0.4817675246359622,-0.31885704032216283,-0.07594907161104697,-0.4081694071558924,-0.2831162089428933,-0.023478018628891036,nm,0.0
70.9743869304657,-12.945398317690266,18.286440835297626,-76.70239692329673,0.5786725825137436,-0.40276954128954817,0.21477647672398564,-0.4066406860000325,-0.2867862317880744,0.016761513451658164,nm,0.0
70.98633074760437,-12.023176002749919,16.114670596861846,-75.93652957947866,0.47942484827876486,-0.41556525029553626,0.3913747033863809,-0.39055782034776215,-0.2840719332431464,0.05503783562763379,nm,0.0
71.00123620033264,-9.959712642448693,12.423460390355407,-74.68415551117057,0.5507800495398895,-0.07082382440046836,0.8391542053148694,-0.28839213580732226,-0.2731012748630935,0.04667359086197666,nm,0.0
71.00421595573425,-9.119552915719796,11.225972867196127,-74.38384156728937,0.3582981679873033,0.1963903662730172,0.8315223192939124,-0.19667582004396703,-0.23250487702595163,-0.007000640230225043,nm,0.0
71.01516509056091,-8.37766718010851,10.667645108586497,-74.56490013114147,0.2519486906034195,0.38013172799895867,1.1079617001570057,-0.07837952901831208,-0.1800786430036996,-0.07521882935139232,nm,0.0
71.02330255508423,-7.854517263565906,10.856200981125182,-75.13976555877062,-0.053223718516426904,0.40609036182942415,0.8902949122205547,0.05346098425650438,-0.09897545228935245,-0.12573316701827006,nm,0.0
71.04695701599121,-7.809684522789543,13.520266650455095,-76.55862866276019,-0.04819451825568968,-0.016139669813698538,0.7855298540798583,0.2977509043392796,0.1606516268076494,-0.09185681755797287,nm,0.0
71.07291650772095,-9.341444441691609,18.09667109399217,-77.26811445442549,0.22536631783734123,-0.451295256905103,0.6096993667786306,0.42229256223619555,0.24744518041384148,0.04032404421925773,nm,0.0
71.07522082328796,-10.775251745845237,20.453329474675364,-77.38679498006367,0.09596727521553507,-0.42010185137131645,0.0729164717321111,0.3910501670057866,0.3588191894101745,0.10447121994344777,nm,0.0
71.08211994171143,-12.162491884852626,22.628861283594937,-77.57237332384518,0.2514515357358104,-0.2822051520550944,-0.023983703135778398,0.35910150997873536,0.33784126598716135,0.09061847977934472,nm,0.0
71.10450744628906,-15.619926155612657,26.082891714462377,-78.86170079073537,0.16614075193220115,0.19306256370282296,-0.40082130261105614,0.22884293574156112,0.3833645901283338,0.010091249004908561,nm,0.0
71.10874271392822,-17.252932377048193,27.365861071352352,-79.92215015278981,0.23375858532875832,0.3102314837016017,-0.37100977876114544,0.1879548084814619,0.32618616089921026,-0.04825914412793358,nm,0.0
71.13218021392822,-20.123239307166923,29.603627584640556,-81.83207864307502,-0.11730327822034589,0.3595139401724931,-0.6556797309271282,0.1728094673234304,0.2537657505599776,-0.03129731040169599,nm,0.0
71.14835977554321,-20.48384882443379,31.646223757309077,-81.99041204213063,-0.03675914082754288,0.3107314807149706,-0.6529068914353645,0.18270302506787753,-0.0033036344412612595,0.014872562894639221,nm,0.0
71.15853571891785,-20.005610629372605,32.37982908323583,-81.48161100892787,-0.2266741982897307,0.36127720369818517,-0.7667555227920593,0.1456593219662647,-0.06680837177451396,0.04641642450651985,nm,0.0
71.18310976028442,-17.58379006909013,32.611417559408586,-80.06075860888072,0.07075031516063843,0.32760130779903796,-0.3784107413714963,0.00021197302635567772,-0.2338935763583428,-0.032430953428756355,nm,0.0
71.1906509399414,-16.735826128689684,32.01142911497238,-79.5980240503183,-0.3883703518661429,0.39804191190596583,-0.5707435761995548,-0.10384508539894273,-0.17016308934097116,-0.03069743332920567,nm,0.0
71.19407916069031,-15.613587612624865,31.064101352568464,-79.32917262870744,-0.329077379477834,0.31560624153447403,-0.3318095449428938,-0.16231674709778285,-0.2307299650410345,-0.09126054054528966,nm,0.0
71.20323348045349,-14.597257083906939,29.860790209319873,-79.1141971337459,-0.2649327421094688,0.2566886515360011,-0.14629117818411144,-0.214714837257406,-0.22519101607379322,-0.084423096301184,nm,0.0
71.23099184036255,-12.913858736971427,27.12115177483744,-78.17978158875124,-0.2809218959498849,0.17117429540633242,-0.08541964795685045,-0.2487561005971099,-0.22524287766351303,0.019116443171729045,nm,0.0
71.23298907279968,-12.180879712841836,25.729330857041205,-77.30105885469116,-0.20476414788965427,0.1906575596625503,-0.1395314029784316,-0.254990564507624,-0.1958204814993914,0.09626035491732676,nm,0.0
71.24333786964417,-11.537823932665157,24.281587472372554,-76.28231057976264,-0.09469077919988439,0.17445500521576013,-0.18544474763144328,-0.2659634368299525,-0.18826812500595702,0.13926120112071366,nm,0.0
71.26587557792664,-10.56806507265256,21.189047813995074,-74.72501705161469,0.31677362954879973,0.13636705131486654,-0.12406650599163475,-0.30068348476726475,-0.1549961140385808,0.10247793590206992,nm,0.0
71.27021360397339,-10.395580077988665,19.46709310888696,-74.50319436132928,0.5955554919328031,-0.003544508467950619,0.12086071277941197,-0.33394847013063295,-0.1315312717975382,0.04139350262794665,nm,0.0
71.27920031547546,-10.618210425402408,17.661334574546185,-74.51310521335677,0.4498027001326415,-0.15055070565386428,-0.07955228240507053,-0.3696720814583295,-0.06533681830134769,-0.011261381419880395,nm,0.0
71.30630850791931,-10.028203382120564,14.006408654560023,-75.20747521809984,0.9640617640099873,-0.45969307034911466,0.5838643088001201,-0.34088727563131277,-0.18011106181816544,-0.1115477869629176,nm,0.0
71.31315922737122,-9.7856454866355,12.317430169546949,-75.67413289502656,0.782709802848444,-0.5263787108194182,0.5858091442341108,-0.32555024356591306,-0.1399745659064691,-0.095667485999925,nm,0.0
71.33196830749512,-8.235757789871425,9.952463655766486,-76.16554247231056,0.6637341108388922,-0.20245832713028752,0.9414032645763065,-0.15556332757866667,-0.22199112243094363,-0.06280290742939405,nm,0.0
71.33639478683472,-7.367355044706656,9.524635239364962,-76.26090742486633,0.3427448191160473,-0.00180297247183541,0.8815907432549501,-0.052311633253801365,-0.19621315783627924,-0.05322110374082465,nm,0.0
71.34585475921631,-6.401741034472435,9.703635824021493,-76.38495578260553,0.18061407186921585,0.09562764643478563,0.9835750488371573,0.0699736396327856,-0.18602760881270294,-0.06206017844364923,nm,0.0
71.37129259109497,-4.650501153022926,11.931709883169054,-76.97990967234341,0.22031884745289265,-0.06401461505562961,1.1137634775673204,0.2984138568619574,-0.09891322788625813,-0.0944619912827687,nm,0.0
71.37640261650085,-4.891263330250231,13.727478317813723,-77.52135914678657,-0.09148338567039346,-0.2948689235691067,0.5931449322245549,0.3304043504203659,0.11612870179088257,-0.07309105744521192,nm,0.0
71.40026521682739,-6.2030097782160905,17.784388204615087,-78.6512247985178,0.040466522044590565,-0.5520868935266465,0.4885473773603659,0.36139445094902867,0.22211491491827132,-0.026679716884692173,nm,0.0
71.40392208099365,-7.83312235769833,19.746666816831947,-79.24731529068427,-0.14031115689087476,-0.43379120026858214,0.048462736179195255,0.3166123072071705,0.36996810513364586,0.03256892182741102,nm,0.0
71.41487193107605,-9.623519309001985,21.600689629700376,-79.83594491744648,-0.009504978292364987,-0.2663997985409875,0.0681977995931677,0.2942045097662792,0.38879396562327206,0.05270920953619106,nm,0.0
71.43296360969543,-14.212300384328243,25.139165821107266,-81.24464718793946,0.06910971535117133,0.17610444583085308,-0.14185259807853268,0.26412672873012766,0.4914612470057139,0.08960578143900494,nm,0.0
71.44253706932068,-16.54731453200725,26.887829503869867,-82.01933651211708,0.22315232809045069,0.27066837040083863,-0.12312174946883375,0.2745728375954986,0.4587023531779545,0.08019969205912143,nm,0.0
71.45832538604736,-18.86517180160891,28.667581206152487,-82.83930285377626,0.23390822890526475,0.3318551379782571,-0.26880050962065904,0.2884499411673762,0.4459888568404254,0.09013923662769456,nm,0.0
71.47423028945923,-21.012753401052827,30.45743758830742,-83.58572360909412,0.21602689974761996,0.32259705070800965,-0.37880526902685613,0.300817259424918,0.4057635772536387,0.10318341096119038,nm,0.0
71.47909641265869,-24.135324153954393,33.780132743922934,-84.22229051612379,0.033226323048813955,0.3533648052051769,-0.6833549402259013,0.2824008349630255,0.2382716911919665,0.1014618681537081,nm,0.0
71.4916467666626,-24.92977051637087,35.09381937905509,-84.08956548530504,0.0866759882232206,0.3822373396847584,-0.6919940067468678,0.23642849244297082,0.15019189256231505,0.08320543341384481,nm,0.0
71.49912452697754,-25.47188782726611,36.01825884842086,-83.86735038071653,-0.08683531858465891,0.46716938024144583,-0.745955684557667,0.16300800092324716,0.10001356558698567,0.07137430779770257,nm,0.0
