timestamp,roll,pitch,yaw,acc_x,acc_y,acc_z,gyro_x,gyro_y,gyro_z,markers,motor_input
65.00255537033081,-31.02260552154271,38.64134895088367,-84.30949295793268,-0.01594347443761921,0.41679958852906207,-0.6057271365243551,0.28039390911574597,0.2953941587527285,0.09959083645264932,nm,0.0
65.0182683467865,-32.3828113314418,40.12722497790151,-84.68704238228675,-0.20912856439309843,0.545886390510834,-0.6678275348788787,0.26444086374908105,0.23007239804708088,0.09794836103673932,nm,0.0
65.03528213500977,-33.85473782434578,42.15508462170975,-85.34974395318561,-0.3403340123348061,0.6268892598696904,-0.6111708389813909,0.14349102032566471,0.09452895988256806,0.019351187867080233,nm,0.0
65.03687953948975,-34.269329970276345,42.5259922279827,-85.7361161337745,-0.4846400707860587,0.6158133918494589,-0.600014686976255,0.057662778872173734,0.059058944231180396,-0.01479630898160377,nm,0.0
65.0422146320343,-34.43984792444713,42.49696702340233,-86.08761616427331,-0.5092696394597498,0.5501477280211894,-0.5387089042003598,-0.019277043965499892,0.01687681133674566,-0.045648012543652326,nm,0.0
65.05186748504639,-34.402481475745056,42.147111552345834,-86.2578188999446,-0.5723813178483258,0.4714134461962012,-0.4859204257869431,-0.08124995408425716,-0.01798755928334306,-0.04241411745360699,nm,0.0
65.07977366447449,-32.35072330454104,40.21471034642659,-84.5876782329877,-0.5114822505885007,0.3615583933346986,-0.3234516032379256,-0.1439957090799869,-0.17009893509668006,0.053599283282098543,nm,0.0
65.09085750579834,-31.137059217011508,39.3801943215564,-83.28076843830723,-0.4027480854750864,0.36364855805858576,-0.2887728949699329,-0.1577373340252455,-0.2115365744966823,0.08457265340510092,nm,0.0
65.09856271743774,-29.838832051469684,38.4116965498332,-81.912448874937,-0.28722069419276697,0.39721170852313126,-0.2852224618726648,-0.17742998314920963,-0.23396692493062712,0.09446491370749825,nm,0.0
65.1238465309143,-27.29932081981266,35.810655373916205,-79.48348329632982,-0.04658751081162203,0.37381002038798233,-0.32945312121334125,-0.2572854690732594,-0.2565264631512985,0.05268348392922775,nm,0.0
65.13002038002014,-26.09595334491512,34.16406341349564,-78.6168819703681,0.07245591795732012,0.3019832855053738,-0.35245069368407506,-0.2969355136284396,-0.2653564734922706,0.01580298294533743,nm,0.0
65.13922095298767,-24.87685791379305,32.354855819101886,-77.8002011783706,0.17327015097063408,0.22059346045524342,-0.36895358340836765,-0.3231661867623393,-0.2833013887156828,-0.01874702083953575,nm,0.0
65.167160987854,-22.10831669631349,28.47535059566037,-76.52290396616598,0.4464869805014769,-0.015262730357089145,-0.26350232179412364,-0.33465226772667384,-0.34458754020619226,-0.05468303347453083,nm,0.0
65.17653679847717,-20.572502325345354,26.529459386385586,-75.98302760647711,0.6389003554404459,-0.17222795297129373,-0.07080045802717566,-0.32383901735805326,-0.3669371280911327,-0.056963176941196764,nm,0.0
65.17815566062927,-19.08436458548309,24.59711313613543,-75.52172861166439,0.9019515234595775,-0.3869981312173664,0.32862037019130996,-0.31910783671655113,-0.3650956333880299,-0.049599129779105924,nm,0.0
65.18416166305542,-17.835196755177126,22.680125478203866,-75.18017815687229,0.9028145929237906,-0.5694179170994093,0.5520398907324748,-0.3237261241299898,-0.32804952760873285,-0.0359887693424094,nm,0.0
65.19320440292358,-16.548935430012328,20.870385243033603,-74.94414024170965,0.9055626375166569,-0.6273779690699296,0.6743777522793252,-0.2987000226771005,-0.3338480672870493,-0.052418404859725175,nm,0.0
65.20636940002441,-15.296010149180749,19.346349456547184,-74.8791887708111,0.953296691074566,-0.5596372718880375,0.944186827275721,-0.2434935212584217,-0.31626436485193316,-0.07746056294908475,nm,0.0
65.2149088382721,-14.265250608383996,18.262889164576485,-75.00771999337906,0.6052134661602715,-0.38688551734825655,0.9151276183222204,-0.16890658453472887,-0.25436399759237033,-0.09656310080212031,nm,0.0
65.22334742546082,-13.13242381022402,17.740606749459545,-75.24634373256424,0.3371212083567346,-0.2420559611861179,1.0873522796378365,-0.055869185518304394,-0.2445925421920116,-0.12234695346026986,nm,0.0
65.24950194358826,-11.532611774389508,18.880658278406713,-75.8414114236521,0.11650730271442891,-0.12772841981193978,1.3213586959982535,0.1926123635455297,-0.030566459126312784,-0.07942615652884813,nm,0.0
65.27517914772034,-12.076509413665415,22.542724246101074,-76.39590570774926,0.12661829695285706,-0.33380894141896755,1.0039834326512702,0.37163110481972234,0.1688589193139049,0.016413420959201445,nm,0.0
65.27685260772705,-13.445164744135148,24.882888237365652,-76.73543893952552,-0.0006626720603659884,-0.40487415377513286,0.5247653070938109,0.3876267601956197,0.343701490656243,0.08415321167418642,nm,0.0
65.28106045722961,-15.204534965431783,27.28871374332616,-77.25038187417495,0.11195359904652079,-0.4323429199624179,0.30903068315272275,0.3883754266912171,0.40754253829536924,0.0985928966263618,nm,0.0
65.2896192073822,-17.416810437157224,29.564581711068186,-78.01535100796353,0.28057921666678964,-0.3794732441394293,0.10413128611429114,0.3517810849557954,0.46920947136596697,0.10029338495006263,nm,0.0
65.31290531158447,-22.818088296544417,33.344941820344786,-80.4025664206843,0.22431430109025324,-0.09849212985624776,-0.3109472536005348,0.2532639114193317,0.5049449584067393,0.07489654781083097,nm,0.0
65.31727266311646,-25.555445155498944,34.84905254241093,-81.6925604903352,0.14563839954880545,0.06123188715499457,-0.43731380018606975,0.21618685128172554,0.48688061065250005,0.07807277962755202,nm,0.0
65.32889986038208,-28.039601022379642,36.202198874632856,-82.84320707831016,-0.021377242327489564,0.22290880836097995,-0.5437203924692977,0.20310346685262698,0.429312583849932,0.08511058684642131,nm,0.0
65.33591842651367,-30.01292694946526,37.515948506540795,-83.72990041459069,-0.07061285340140905,0.37169123503584506,-0.5690354505787418,0.2131706281416887,0.3364758975599378,0.08344149964893072,nm,0.0
65.3602967262268,-32.613018573740476,40.02803488053763,-84.58816796770205,-0.277471475208347,0.5729675196806044,-0.571116400208952,0.21620113947757608,0.178837283541751,0.08574573761099212,nm,0.0
65.36569833755493,-33.30597708048933,41.10320713759938,-84.67647302742616,-0.3455461104035885,0.6373184806126313,-0.564637712678918,0.19291736078931337,0.11713119788058225,0.06234193976279532,nm,0.0
65.3743953704834,-33.78102462890432,41.8715571338507,-84.73498401936621,-0.42216846541996156,0.6250382072099363,-0.5415731730788961,0.1350643535384576,0.07717985713838309,0.03886863376483494,nm,0.0
65.38655996322632,-34.052579065481844,42.23118372702058,-84.85470266414792,-0.4684386506054493,0.5641048721649906,-0.5580876474561279,0.05651811050370242,0.03872239388440205,0.009085580058163865,nm,0.0
65.40727376937866,-34.1425417165895,41.773184602918214,-85.040085651331,-0.5216826994536129,0.4305124422594229,-0.5306446745800084,-0.09478280997143118,-0.021632306620011442,-0.01804613860066869,nm,0.0
65.41450762748718,-33.81183154656853,41.02678214943009,-84.63180854819913,-0.48700248464122636,0.3476542186758063,-0.4501640682511257,-0.1557953855158005,-0.07128391295217969,-0.0068334025367337925,nm,0.0
65.42385625839233,-33.18995116403598,40.090365227660094,-83.92971214377415,-0.45289824172778653,0.30029450613479763,-0.41162719874707887,-0.18840510388722534,-0.12134105917530615,0.015608190499273502,nm,0.0
65.43297481536865,-32.28082025608873,39.04736103141543,-83.07275922914076,-0.38403152434041243,0.3447548305166728,-0.30475511329061405,-0.20292013647055715,-0.17147219344405754,0.0409401455549019,nm,0.0
65.45734643936157,-29.859620411026402,36.7154644172626,-80.72388096418494,-0.18784541287652795,0.3934788362581082,-0.21006799683938748,-0.21808064380248557,-0.24608053632129073,0.06635007302537682,nm,0.0
65.45988249778748,-28.537491306160398,35.43110914599537,-79.57714466565147,-0.0814605718138836,0.3841438095564275,-0.2138232924989524,-0.2275459275497474,-0.2637383334588592,0.05069586096381447,nm,0.0
65.46905207633972,-27.218892793248255,34.0093296042031,-78.62886926483382,0.036492803322418874,0.300881464924621,-0.24047842555411775,-0.2492430147351491,-0.2759165746536521,0.02245376069520706,nm,0.0
65.48269009590149,-25.91946204259189,32.43210844908383,-77.86829012220812,0.16830313233147107,0.14914204892507374,-0.25988515714380384,-0.27542211402420014,-0.28657588425925395,-0.011368005124698734,nm,0.0
65.5019748210907,-23.307795516909533,28.884124756354687,-76.77359682022406,0.46928850803732386,-0.21097172343754517,-0.1740592460958458,-0.31746917643030437,-0.31465606715081135,-0.0560736238061784,nm,0.0
65.50866961479187,-21.97261777264491,26.93658158535464,-76.27709814011973,0.6573889376584595,-0.39626631940597384,0.017528887878252446,-0.3343895569596118,-0.33011724871142556,-0.05202812570213124,nm,0.0
65.5343828201294,-19.38626199353708,23.00802995741671,-75.24443237785172,0.9098368167194428,-0.5704897369612054,0.5700900409598897,-0.3272955688941941,-0.3306782405379374,-0.017625679446182346,nm,0.0
65.53606629371643,-18.211297309312602,21.302399028188752,-74.86583822755253,0.8923233527146793,-0.4529980510532338,0.7698391219801477,-0.284089008239424,-0.30799373739338604,-0.010850705393828613,nm,0.0
65.55107641220093,-17.220239317890304,20.02193920483754,-74.45764382356802,0.7068009883421144,-0.2248980889433472,0.9088254781684515,-0.20800317189735734,-0.2566481491128519,-0.018413307448752102,nm,0.0
65.56870627403259,-15.755062019884681,19.498061492780234,-74.47363227834701,0.3505926623333237,0.060444006285286324,1.318410063631221,0.04654985337001681,-0.11351668351998016,-0.07463634260412959,nm,0.0
65.57641816139221,-15.597792545795011,20.45830511920015,-74.91875269746441,0.18634099893725733,0.004804211341075769,1.3150065576502445,0.1830863167490567,0.012727701186086727,-0.08249578170458628,nm,0.0
65.58346819877625,-15.957186520618688,22.114822806372995,-75.48727992911263,0.13991445617925685,-0.1913191823423919,1.1979546245083263,0.2934275451413136,0.14007083181042718,-0.06356336641081517,nm,0.0
65.60796976089478,-18.47001558069799,26.712172430962237,-76.75183025819543,0.1902350879798282,-0.5642408289692321,0.6192700437830685,0.3998066931769086,0.37666017752633696,0.043309696447299685,nm,0.0
65.61260795593262,-20.482266373056184,29.214962596213542,-77.45385631335682,0.258045294765133,-0.5710312528292322,0.3033222599235559,0.39928563622530544,0.449226897957816,0.09488212373656003,nm,0.0
65.63460111618042,-25.58768970248617,33.80293258596434,-79.35504149503377,0.29786055234070935,-0.25154422117243375,-0.1715004437444171,0.3331773698809768,0.5217344430278535,0.1335874139207424,nm,0.0
65.643470287323,-28.4629467690792,35.75073818280287,-80.61397283110193,0.24318612179082827,-0.01998800653569003,-0.3149959778188502,0.29177744394615446,0.524354637849088,0.12144170653575417,nm,0.0
65.67069935798645,-36.52005232386809,40.48043667698492,-84.62279708418795,-0.08375720777541536,0.4399464077882828,-0.5223953879055651,0.24286431432348954,0.3958305149885116,0.06917230439228389,nm,0.0
65.69548630714417,-40.11278584520898,43.26161974172911,-86.55613592916139,-0.2822199128199186,0.564319051158256,-0.6165765877402526,0.24272164474651303,0.23888837908270896,0.04943848013442355,nm,0.0
65.70387148857117,-41.235446252498555,44.42742321640236,-87.13204418184081,-0.3707058015069015,0.6111247309954019,-0.6416044183908681,0.2127090386834162,0.16631354404072965,0.033250429868263924,nm,0.0
65.7086489200592,-41.937982443588915,45.2596694198395,-87.52232656264194,-0.43126529233929317,0.6351507696539154,-0.6473065775458282,0.15033876874576976,0.09903690766693037,0.0070504386889943095,nm,0.0
65.7353982925415,-42.239038557148035,45.511992181042615,-87.95830074635063,-0.514902251355065,0.600657800523471,-0.6076625199173111,-0.03570311851294519,-0.013283074531201563,-0.05320107303207214,nm,0.0
65.74009680747986,-41.82918528176629,44.95492687168008,-87.97925573259299,-0.5073056318410226,0.530560064673504,-0.5489814548872691,-0.12092133752397659,-0.07012411582160977,-0.0777668647163667,nm,0.0
65.76260352134705,-39.823362585491225,43.07162969633412,-87.08844544751857,-0.45363078543784935,0.41227728029157684,-0.38759522645574773,-0.20747251195685684,-0.19247447575235394,-0.08151282601242017,nm,0.0
65.76427268981934,-38.24781832787506,42.00041484964928,-86.23619342720417,-0.4020113636520731,0.39123137947929226,-0.3216258582215131,-0.21191626082356294,-0.2530396847172883,-0.0637601856680432,nm,0.0
65.77450752258301,-36.39426228027914,40.91793399636891,-85.16343436628216,-0.3373921963070804,0.38757000705795586,-0.2778039683138418,-0.20665258878937987,-0.3020159913097116,-0.041287895100013614,nm,0.0
65.79708886146545,-32.28408701354115,38.51373204333087,-82.45543600377833,-0.1475053944929271,0.33230428897223374,-0.29421207558373735,-0.22479657321170812,-0.3601101669277458,-0.021554947904332336,nm,0.0
65.80234551429749,-30.24577026656745,37.03389859392851,-81.1288211022265,-0.0414087870091133,0.2530188862447143,-0.3398065576812739,-0.25768908817198977,-0.37062158280159635,-0.03075278870114457,nm,0.0
65.81160545349121,-28.278090478497447,35.29954908012178,-79.98051980200496,0.0797120446933673,0.12605080653939896,-0.40549015476455497,-0.300711557290225,-0.37993409726046484,-0.04878800202441302,nm,0.0
65.82099318504333,-26.372396345596755,33.28850828582703,-79.01491413438625,0.20690348760408564,-0.022524836230749436,-0.441816494500521,-0.34876287644169823,-0.3926602268268736,-0.06323190072899439,nm,0.0
65.85027647018433,-20.653620192603558,25.94519414193481,-76.39578184509831,0.688682229105342,-0.4629146069240518,-0.0012177919690240866,-0.44000135429329085,-0.46482555693316585,-0.04363749739358107,nm,0.0
65.88147044181824,-16.887992429076824,20.737607733493007,-74.54348477790542,0.8842714842450204,-0.5550210409891263,0.774051001148617,-0.4139229006282135,-0.4750465730432619,-0.013684695750323246,nm,0.0
65.88989043235779,-15.144091561401783,18.485197564371678,-73.90976687868998,0.7546670173027441,-0.3665085744992012,0.9774998555250224,-0.3541885490023502,-0.4490469985701171,-0.015320575240398517,nm,0.0
65.89190483093262,-13.592056779543013,16.7752840542327,-73.5713891814535,0.513662244286471,-0.08066597659082732,1.1469317646905746,-0.255633846449967,-0.3898414578026371,-0.03065541849035272,nm,0.0
65.90491986274719,-12.348504471959929,15.828661331845831,-73.46816926995534,0.2441090188546165,0.17909158235278105,1.3820199194583882,-0.12377503188291283,-0.292590864624312,-0.0536463437075312,nm,0.0
65.91231942176819,-11.570150003328719,15.77785323569992,-73.68187226718034,0.04209216303642571,0.297804677566883,1.4895605463441488,0.022690474645404152,-0.15630574929209692,-0.07028433899740036,nm,0.0
65.92091178894043,-11.413631913654797,16.68968447241342,-74.1039736566747,-0.060473248760217806,0.18950030168113824,1.454863340729932,0.17387740230343252,0.012112900539889816,-0.06929176111974515,nm,0.0
65.94173049926758,-13.413048201183143,20.949978415611014,-75.32981536942543,0.086262157386628,-0.4184282893350733,0.9802053060371049,0.39590749977648326,0.3698004767873981,0.0026758057682652898,nm,0.0
65.95826745033264,-15.449390129561849,23.657285084757458,-76.07213705587209,0.29104264476283276,-0.6760460219078669,0.6588499975796156,0.42264665929310585,0.48975854823652837,0.04824797551216187,nm,0.0
65.9599289894104,-18.02734687945664,26.325753569366356,-77.00233801008041,0.4897664367643285,-0.7458204965771154,0.3127095675498152,0.401156954890754,0.5698933005752529,0.0743102048131571,nm,0.0
65.9634313583374,-21.047278082976927,28.73647187227044,-78.28656888518034,0.5837196885444176,-0.5780691424997016,-0.02774793149116339,0.34719431848863014,0.6177278808186876,0.06874604480633033,nm,0.0
65.97453379631042,-24.362495248621325,30.710726064054317,-80.08346986298166,0.5891282427640795,-0.2684293211067241,-0.2714128978295158,0.2708415654548838,0.6311002408306263,0.034767634513817494,nm,0.0
65.99755930900574,-31.24878917023449,33.33853166704792,-84.63674146467008,0.5048800147702089,0.3121792813920363,-0.4007378501612981,0.14861445801520412,0.5972970404556522,-0.05209663583992928,nm,0.0
