timestamp,roll,pitch,yaw,acc_x,acc_y,acc_z,gyro_x,gyro_y,gyro_z,markers,motor_input
73.52289271354675,-15.410495782933616,22.569315552164454,-85.4228927491194,0.1213866263161187,0.12977720323556116,-0.11509260148136212,0.24232982435929962,0.3470406859085327,-0.10192329155492666,nm,0.0
73.52462148666382,-17.11847797245119,23.878165669088148,-86.90705708116418,0.19882852209014407,0.22898671692190478,-0.16929295184447413,0.22904687573968938,0.32387757279071455,-0.12863115780378925,nm,0.0
73.55415463447571,-21.331139690765813,27.800925384361708,-90.65985380671479,0.12410324357641628,0.3682974481420893,-0.4634961287080822,0.259804014947539,0.18612765854877394,-0.11670741536651931,nm,0.0
73.56417179107666,-21.921287137761613,29.155020500114528,-91.49084945011298,0.04056544196022546,0.39219637021247583,-0.5844120809895679,0.2605151847153863,0.09277229770974398,-0.10975375080713069,nm,0.0
73.58594059944153,-21.63115792300558,31.32572851076737,-92.43085517727502,-0.03120128029314997,0.3710701174925282,-0.6820423863059047,0.17378817144279965,-0.06911465432284115,-0.13108386289476437,nm,0.0
73.5900149345398,-20.916139633392095,31.852405664370036,-92.77259300633969,-0.15715656340349074,0.37555420910541676,-0.7552338512242008,0.08722567624666122,-0.13191903910618596,-0.1602714256505053,nm,0.0
73.60422611236572,-19.807703315723558,31.906945415301912,-92.98483193888701,-0.021032584135625806,0.22516142346383158,-0.5742323310481015,-0.010971380335356634,-0.1939545119911729,-0.1941518488473647,nm,0.0
73.6246726512909,-17.47183970459343,30.76199865135192,-93.10649373518474,-0.32839621065628194,0.18082103180056466,-0.5846834866075024,-0.175453635574422,-0.21964664776659412,-0.16465426183291879,nm,0.0
73.63416528701782,-15.966996221041331,29.718183984793747,-92.79914289621614,-0.24439067069779458,0.07943249383016159,-0.41631292156707567,-0.23437413824143857,-0.25446804261463496,-0.12405965387520691,nm,0.0
73.66022825241089,-12.98399865225512,26.990872192744064,-91.11430717781532,-0.20801772781022537,0.05186440804135244,-0.3671060176569103,-0.3106168078322954,-0.2724281829343387,0.00884016517998259,nm,0.0
73.66205382347107,-11.55346966544126,25.355259339003418,-90.0523281843468,-0.064357841559846,0.02528842986081916,-0.3365537639351318,-0.342025110025227,-0.2595420644988215,0.06207445718277459,nm,0.0
73.66635584831238,-10.302353873348977,23.516026552621515,-89.05877926274147,0.01835313811528971,-0.02812717559313774,-0.3605656308908637,-0.3784648052874985,-0.23675781077154248,0.08963800547120616,nm,0.0
73.67966437339783,-9.155783343764924,21.470935404117135,-88.16212748162765,0.21890235868993893,-0.1589969731513935,-0.25691839663780414,-0.41604420315774204,-0.2281123712411289,0.08601695733828925,nm,0.0
73.70443391799927,-7.372874817039961,14.122887889356722,-86.57033993253816,0.332661942400473,-0.6169477309092954,0.11763748099736512,-0.5321191512777186,-0.07741286953200306,0.0888715296190794,nm,0.0
73.71656823158264,-6.8092733097343245,11.477411785377184,-86.10295396667017,0.48605114299673335,-0.7128501922344618,0.5439239957933399,-0.5331549326501679,-0.15043156310939607,0.08867072617629189,nm,0.0
73.73038697242737,-6.16086009305889,8.94117361641174,-85.51838357299034,0.7463751650553528,-0.6133884649093523,1.0939746979669127,-0.5085473167203929,-0.1717706893519889,0.10807240958310955,nm,0.0
73.748455286026,-5.229159356207761,5.0358208313908595,-84.39640040849008,0.5608231157079316,0.035504916333059085,1.2829071750204755,-0.3334526251034076,-0.1568620987286406,0.12563423922574696,nm,0.0
73.75300812721252,-4.663619079030452,4.144928577140185,-83.95544436632572,0.5158644574414053,0.38448483149013674,1.3701931823363271,-0.17710038461684585,-0.13845189781502512,0.10708684874518516,nm,0.0
73.76217246055603,-4.376221667200577,4.151346965001681,-83.69093770644137,0.26250348839408044,0.5310793172183654,1.218465454681662,-0.0034662366470647795,-0.06526610015868069,0.07504357561889204,nm,0.0
73.77352905273438,-4.174156550945273,5.078903004840791,-83.58528536386005,0.19390517155943246,0.4672238956276992,1.2132511288003387,0.17821203640029437,-0.027995907599885798,0.04041121299319375,nm,0.0
73.79568552970886,-4.667214270294722,9.071056417220843,-83.8442626096611,0.12062976244121303,-0.1549704425618135,0.8105041967178827,0.43363959503386934,0.10585187714367313,0.004743297540675795,nm,0.0
73.80183863639832,-5.344733782383105,11.587183365992887,-84.10829075770792,0.32165169191701387,-0.4821550606498411,0.80033302389732,0.4763356924778287,0.17708010577217492,0.008199868315761331,nm,0.0
73.80992722511292,-6.756000782788798,14.112917793007068,-84.47248842618997,0.14173270980257513,-0.6070691794043525,0.260689756149301,0.4652167399603211,0.316184188062889,0.027497624722661214,nm,0.0
73.82103419303894,-8.25464563702633,16.482307971311666,-84.86302271038227,0.13471271068366855,-0.5452908906588154,0.042873648053221906,0.4345215505745323,0.324565089639245,0.02366831768039266,nm,0.0
73.84503650665283,-11.960604478197954,20.485845466001788,-86.23996485028395,0.1277972035378845,-0.09932333356905226,-0.24318480426487435,0.3370759652312624,0.4026990967719236,0.005751304891648749,nm,0.0
73.84893941879272,-13.93391599499301,22.220889486784547,-87.2170541284717,0.20872042969788127,0.10246682149691487,-0.22572352954669145,0.31453856062060476,0.3800834167221826,-0.019627541285136177,nm,0.0
73.87196373939514,-17.945481652212276,25.527460642832757,-89.28371999757617,0.10539816294232822,0.395393286650332,-0.4159503899551902,0.3095029827527598,0.3577025315710439,-0.013706368985805682,nm,0.0
73.87743902206421,-19.585147361947424,27.19295462082338,-90.1508279569171,0.15884142008490848,0.39936174258543883,-0.4311206233833564,0.3199541537690101,0.2893472397969992,-0.007680299934936415,nm,0.0
73.90029072761536,-22.11225392686739,30.3660912241154,-91.40428908141467,0.04080035208049615,0.4386074051190115,-0.6448806682279272,0.2958673293723078,0.17940547304712345,0.010951151747626765,nm,0.0
73.90557527542114,-22.901997681636736,31.61669463340616,-91.82894203887786,0.03378717096649544,0.42170452824903293,-0.6864263054546053,0.2415766935161363,0.12260273349813104,-0.0036904998279228057,nm,0.0
73.9139928817749,-23.505445647462434,32.47657808549872,-92.19007709737295,-0.06985370852904622,0.4618239575293927,-0.7208488114323145,0.16299699685237984,0.09067239905408808,-0.022617198422688275,nm,0.0
73.92609643936157,-23.860812190288033,32.88547962746477,-92.54264592115128,-0.12202905853827603,0.4444229880320363,-0.6783057626735329,0.07158023606359432,0.050851501895513775,-0.05084667260089068,nm,0.0
73.9471116065979,-23.91669209392996,32.57420601371099,-92.80485040922136,-0.28160499302716907,0.43161598511396027,-0.5424990287211561,-0.07517709876867956,-0.018275063360097397,-0.06317187916067676,nm,0.0
73.9523937702179,-23.517863804410275,32.06143252911004,-92.42714936886534,-0.2595949098505072,0.37825491890601337,-0.42020996953588136,-0.11812254085957989,-0.06875449449713869,-0.04071703497675289,nm,0.0
73.97600412368774,-22.10785162087421,30.703634454390325,-91.08251384179553,-0.2954679116828439,0.3293870099292924,-0.3548998599577077,-0.16046814794805975,-0.14344753111724665,0.062141282609400744,nm,0.0
73.98149299621582,-21.14487743370253,29.869909105658856,-89.92736635608976,-0.20143435375782962,0.2905259443775414,-0.3124504588585061,-0.18063769880163066,-0.17132301747070353,0.10743249453778027,nm,0.0
74.00635361671448,-19.26121084367881,27.630046095789307,-87.41338642224582,-0.01226063801484801,0.21135024514695067,-0.3369869735525106,-0.2528898472987967,-0.17935637019670442,0.1371999086979362,nm,0.0
74.01058864593506,-18.433641049587386,26.138380176972436,-86.3779646416604,0.10055391868827254,0.1461868216608467,-0.35563371638341296,-0.30214095544805086,-0.1707458849906507,0.12054700306420191,nm,0.0
74.03553104400635,-16.93055396363126,22.393315329379934,-84.7174067884921,0.3428310176643836,-0.08338132913240677,-0.29030996055673125,-0.3958514914551238,-0.17941114185184948,0.0705943472872728,nm,0.0
74.03755927085876,-16.183038548265383,20.25364542642272,-83.96999083395289,0.5415950034449423,-0.2252645268256848,-0.08867760104890515,-0.4239416149605684,-0.18914586571094072,0.0615525387971947,nm,0.0
74.06651401519775,-15.19278616482005,15.840113061708685,-82.58598743004292,0.4447426869913614,-0.3858520526960668,0.1529326400752257,-0.43597369992787566,-0.16057621929026333,0.08618339891567069,nm,0.0
74.07203102111816,-14.213336326735952,13.766410749667013,-81.90554814822211,0.9142197734628305,-0.42551629433698207,0.8090096861400885,-0.39685306373464035,-0.252516853320641,0.06728429533280297,nm,0.0
74.07631039619446,-13.514933165321867,11.94480887409575,-81.37221527356249,0.7800593304555636,-0.272845260345175,0.7751489817804326,-0.3519793393850086,-0.1966889174232518,0.05745191472315183,nm,0.0
74.0866322517395,-12.686702565589254,10.472627810579747,-81.07388863096993,0.6052916063089098,-0.090583729332851,0.8015585105692739,-0.2773818715501666,-0.21451949688212182,0.014275292880898597,nm,0.0
74.11006259918213,-10.870220775113616,9.209092798226967,-81.34176985496816,0.2724329118477924,0.16547683483588346,1.058313028167239,-0.046010467515903486,-0.16902647388487196,-0.08597336369468801,nm,0.0
74.11328864097595,-9.94329369200913,9.635688367930884,-81.76563560552127,0.027314928795639817,0.18654123076719895,0.8407959480104733,0.10044766039247047,-0.1770286757325779,-0.11944404965715726,nm,0.0
74.13766741752625,-9.503919652894195,12.293827857528283,-82.83229327580669,-0.07049368458687715,-0.15556159927876534,0.6678988522761485,0.29379627873044784,0.12290296133199027,-0.08099541019967263,nm,0.0
74.15818047523499,-10.887115451644494,16.259988779000484,-83.87958414535383,0.24328561804373924,-0.449218121791111,0.6542331004222968,0.37462086880945433,0.19654471526967365,-0.029661599430647317,nm,0.0
74.16104888916016,-12.622004922681352,18.201141808236436,-84.53234428234295,-0.06464856394154009,-0.3801097564130779,0.042098803962399865,0.34234415933338364,0.361299666935771,0.00945519709166312,nm,0.0
74.17544722557068,-14.29675120933044,19.984912029126786,-85.36355232003667,0.16575559388765737,-0.28095332011564134,0.0780456996610827,0.3169370540021495,0.3391868897111983,-0.010917825887935812,nm,0.0
74.18200421333313,-16.341301860386405,21.55156930917317,-86.3569752469008,0.2561089417928359,-0.08954014727650791,-0.06575428838429795,0.2741086676516588,0.3968506206288158,-0.014953504960969586,nm,0.0
74.20558714866638,-20.57818147012771,24.18386241987377,-88.49013605373798,0.2300386127992654,0.22343630811319562,-0.2397561722067706,0.23045616164043842,0.362754811727177,-0.026455302045312042,nm,0.0
74.20857524871826,-22.534128952621554,25.480945174177332,-89.46628321666141,0.11549889075613047,0.36637724834939256,-0.38158518160371846,0.24161565742398028,0.3528983436711767,0.005647863004089647,nm,0.0
74.21934795379639,-24.135920473539038,26.839727006423875,-90.10448954980197,0.03249473648966251,0.4296030045552293,-0.4592540654072684,0.2588690202349054,0.2820125431111042,0.033980581966308425,nm,0.0
74.22841906547546,-25.284071102141812,28.270993810833232,-90.39376362564133,0.11070543911790762,0.4284974646120961,-0.4635033867648799,0.27510508686127827,0.19589006721548008,0.05389894533382255,nm,0.0
74.2613935470581,-26.69854542483524,30.87993358269358,-90.36614214296984,-0.08202182358510941,0.5133549592345067,-0.6467774228721955,0.22880220406525134,0.07900162491788898,0.06325687420431744,nm,0.0
74.2630045413971,-26.96435873282926,31.722141522685778,-90.23015448128281,-0.10765609253044471,0.4797024567194727,-0.6236507463065809,0.15645474163596182,0.03804742106297838,0.045882830501798456,nm,0.0
74.2653980255127,-27.10771048386207,32.15890559187109,-90.1161682563134,-0.20311984323270024,0.43961418367451616,-0.6007540024176624,0.07512348274697273,0.01750947296447956,0.02722701984190702,nm,0.0
74.29079747200012,-26.939670374965228,31.949105986892018,-89.76335566911115,-0.2795065272653146,0.42327809236996716,-0.4559888726209073,-0.06710188530447499,-0.03015005911070943,0.010889799241420332,nm,0.0
74.29443955421448,-26.63006578113199,31.44463736875326,-89.41205561504503,-0.32315346343071766,0.4334624380220252,-0.3907141929933007,-0.11294948940559645,-0.06024716597491054,0.028693220788573302,nm,0.0
74.30394959449768,-26.11947530622795,30.838478379443153,-88.80637508321585,-0.2784010950052413,0.44649352316154955,-0.2905249150412103,-0.13222557106525282,-0.09629689932399603,0.05398306364142692,nm,0.0
74.32706689834595,-24.691582672741237,29.454446274331254,-86.9985762690636,-0.19603910883922285,0.5091958460927902,-0.25345159643910536,-0.15080206637640614,-0.15014666482556288,0.10820045052710853,nm,0.0
74.33340287208557,-23.838029708576595,28.651627103808153,-85.90296966752803,-0.11506831352037036,0.5129222136878556,-0.2701605303826897,-0.16297783048783565,-0.16656310263507657,0.11214558932205275,nm,0.0
74.35185980796814,-22.067740611235326,26.60729567114303,-83.94053407840612,0.0028032077618233577,0.4450540441271573,-0.3477820161572975,-0.21773289866616932,-0.18943583019505025,0.06780457832789889,nm,0.0
74.36586284637451,-21.144957503217803,25.308052629524962,-83.22853069317199,0.046330884997513776,0.35588949926369556,-0.3654758914418505,-0.25133720077341076,-0.20224211204875756,0.036660673197493124,nm,0.0
74.37022757530212,-20.15442855176296,23.863728970206832,-82.49576431541412,0.08814052924999594,0.24025700383034926,-0.3485099576630977,-0.27554010916117727,-0.22345861374935214,0.012413662120083995,nm,0.0
74.38415312767029,-19.061929056010662,22.31432366195323,-81.8077971190819,0.13950724107469317,0.11766069085436352,-0.31774584537879963,-0.29072553603768064,-0.25039515746590063,0.0050064644800412806,nm,0.0
74.3894829750061,-17.883213486008874,20.698588693464135,-81.14763992187777,0.20719943111582545,-0.023507947559773073,-0.2577919126483174,-0.29831091209499055,-0.2737253487121922,0.016089087527592024,nm,0.0
74.41840767860413,-15.421174931793626,17.361197842076535,-79.60661568818635,0.45572825217437296,-0.33159144102150345,-0.034073806065117535,-0.3033137850864148,-0.2972099125715728,0.05769570445090558,nm,0.0
74.4209475517273,-14.300655114017305,15.600113591814004,-78.82288147953416,0.65143784343121,-0.5179487211979648,0.20865843322446778,-0.3166288776177034,-0.2864291209591396,0.06970129691041924,nm,0.0
74.4400486946106,-12.9820566971332,11.910924964358482,-77.85727787924469,0.9780984691447762,-0.798182487060629,0.9934083923022199,-0.3572029097169476,-0.16420585187385436,0.053679083423671996,nm,0.0
74.44810581207275,-12.803722884579011,10.1690941454565,-77.75687678322443,0.6648359373914784,-0.7136579226741087,0.749715619188292,-0.34398027920689694,-0.11712962751435937,0.0156593485962237,nm,0.0
74.4620521068573,-12.150489050044282,8.692666639339855,-77.82951437901269,0.8014714034415701,-0.40367005983334225,0.9859366125379245,-0.2720165483439257,-0.1980565239957718,-0.04674619650371188,nm,0.0
74.4668447971344,-11.705690177392842,7.626148657399982,-78.16065848222652,0.6489157072074254,-0.1120756192838479,1.1205413391916261,-0.20095176286079403,-0.14003187339111542,-0.08747356413791033,nm,0.0
74.4886679649353,-10.951356357809765,7.640911274231978,-79.22522140266256,0.1997829766276978,0.12453897603391642,1.0217069536379288,0.09052075828938838,-0.08228655478570948,-0.10798048041679854,nm,0.0
