timestamp,roll,pitch,yaw,acc_x,acc_y,acc_z,gyro_x,gyro_y,gyro_z,markers,motor_input
6.010624170303345,38.10837888896177,-27.979330376941785,94.1703708561232,-0.8897552030348189,0.32553353272204044,-0.8904817551990104,0.04111289985815337,0.03616011467675377,0.04707492518524366,nm,0.0
6.014644384384155,37.861727836582276,-27.97501607123854,94.6192051658553,-0.8590838031120618,0.3944769154251644,-0.8705263190544974,0.0,0.0,0.0,nm,0.0
6.042087078094482,36.207873858816946,-27.49693795827596,96.04240801589305,-0.723551010158039,0.4791165597116416,-0.7426951061947343,-0.036029021972622234,-0.17757698442775183,-0.009388633303362348,nm,0.0
6.043665647506714,34.73655323348487,-27.220563958140737,96.99567642334758,-0.6334286878694455,0.4608431163374747,-0.7633321543456189,-0.019554320539916164,-0.25416674950488544,-0.011967878560703804,nm,0.0
6.052718162536621,32.92399262325935,-26.947832021232074,98.06428296203154,-0.5003112046172484,0.33434252678659965,-0.6720720151668473,-0.0059782573340507895,-0.3153623516649034,-0.005427035464576321,nm,0.0
6.076419353485107,28.246636620361997,-25.850613965255036,100.64670284765201,-0.19249133839803179,-0.05711504346011293,-0.6789392068308159,-0.04718677389595767,-0.44727651969849636,-0.017627029928963076,nm,0.0
6.08204984664917,25.663354959746016,-24.91145690012268,101.91430346818677,0.03844793171851972,-0.250360666355457,-0.5273506024180322,-0.08585360123504557,-0.48321231134031983,-0.041149004863520224,nm,0.0
6.0928943157196045,22.98642423350875,-23.581837282036965,103.08680974069657,0.3076561918651858,-0.37483361369215124,-0.42736312748760447,-0.1464530376358478,-0.5231855253167107,-0.06548105386448942,nm,0.0
6.114541292190552,18.41157574221766,-19.985464236814522,104.95769270331785,0.9789221875247616,-0.7752359003600126,0.532574792208912,-0.2669504387430418,-0.4512474479518685,-0.03659509530184799,nm,0.0
6.118671655654907,16.256498822424998,-17.91817092494658,105.62550198399302,1.4204427659986725,-0.9751007829235518,1.5202859941530573,-0.2841842610962711,-0.4916208981919191,-0.05041072601530455,nm,0.0
6.143136739730835,12.624116633116186,-13.78730365681097,106.81183493889966,1.480311933586063,-0.6335280206847319,1.6260755795292108,-0.29061734668148465,-0.3689826792432583,-0.012848576294301842,nm,0.0
6.150745391845703,11.480818983105287,-12.38709085044957,107.15284409432788,1.2818162681607164,-0.31625305001024223,1.5272205574182125,-0.19538181649946448,-0.2841520104025719,-0.03165106954984039,nm,0.0
6.17068338394165,11.324955830991364,-12.792275997218532,106.60590235422374,0.6360435906079248,-0.03163414779542628,1.237676170555368,0.13897399057526558,0.12509011464545655,-0.06721095983806197,nm,0.0
6.176320552825928,12.25007911039063,-14.503146245944315,105.80280926490686,0.4118014733452552,-0.2659720891535577,1.2801990490588868,0.28628828154352737,0.2794554372398789,-0.08958923661207688,nm,0.0
6.185513019561768,13.518475923726774,-16.82372513962795,104.76600332821651,0.5184141688703443,-0.340197229177061,0.3992404226152459,0.39133970313387856,0.3693968818500503,-0.1158602332502247,nm,0.0
6.211013317108154,20.007787796940477,-21.73720554055962,101.79451553562626,0.14913704926180335,-0.9261797586342256,0.5281073772341136,0.30944113669333634,0.767263980284205,-0.005202497190994423,nm,0.0
6.215454578399658,23.636099598370063,-23.353095203020217,100.0843280174422,0.041466382753089226,-0.5628564644244796,-0.5966339480800235,0.1987641417514835,0.7313410420143885,-0.001982376911339747,nm,0.0
6.223215818405151,28.06815246346078,-24.552995646859284,98.30806347146702,0.03558191914201446,-0.409112543517235,-0.23657747860878392,0.11586872198743535,0.850413033525807,0.06521946981774551,nm,0.0
6.254719972610474,38.65494758226745,-25.82503103535524,94.36506081368819,-0.17084657247704704,0.8573663991475428,-0.5025020977826323,0.02861174054602953,0.5903819770963356,0.10293977827007436,nm,0.0
6.263333559036255,40.96670547425233,-26.398263418669053,93.57974690521759,-0.187433405134708,0.8984560538168657,-0.26839530181032906,0.09037441118068759,0.4344917050474131,0.04749934394970988,nm,0.0
6.28522515296936,42.77858368716514,-27.573198315031508,92.68059013306811,-0.500959730331697,0.6436057571274133,-0.7115688122287926,0.11418116833247047,0.1411963135807025,-0.0739312843570765,nm,0.0
6.290514707565308,42.7497698307537,-27.982599711956595,92.07389497964151,-0.46527007575310825,0.23869437061638968,-0.48064335127186464,0.08660966447209556,0.010521379306386521,-0.17829856108764913,nm,0.0
6.315646409988403,40.87951308929853,-27.438572958075692,90.89349678490612,-0.734172974502624,-0.008576182455348887,-0.7583227187480169,-0.08890875478167418,-0.13722099603170387,-0.25393417338938373,nm,0.0
6.318804979324341,39.363740720689464,-26.683212319579404,90.3397923772341,-0.8351301679145646,-0.13380734956674017,-0.4459298369334249,-0.14218111374905895,-0.2606133225855523,-0.30853088499192666,nm,0.0
6.3425211906433105,34.51826186913862,-24.752831929642475,90.52757911501499,-0.9759652136868604,0.16491602455463578,-0.37715965536014817,-0.18993255611755017,-0.42548065253464123,-0.22430101795906174,nm,0.0
6.348444938659668,31.64025162272704,-23.805388539997935,91.33990089189722,-1.1185763333369103,0.2510299475758813,-0.22877708409351044,-0.17236791534605847,-0.517911865105198,-0.1657213096522643,nm,0.0
6.356754302978516,28.427538549099545,-22.93764294717711,92.45843915646141,-1.1629066785320596,0.48991943198435356,-0.47834701978505323,-0.144937996867188,-0.5854704126795329,-0.11410216981083891,nm,0.0
6.382669925689697,22.89983575299069,-21.077503161010913,94.9400273694694,-1.1742120362086728,0.2926741669427345,-0.32618123889998435,-0.1437115816898509,-0.5059503899872281,-0.010882097774209657,nm,0.0
6.3858208656311035,20.477714368769202,-20.1542333972827,95.8601084476757,-1.0109662879445738,0.2818067124884302,-0.55299508743002,-0.13269416722207347,-0.4587474909496899,-0.03168720334919937,nm,0.0
6.409672737121582,16.95640222164801,-18.13633435200104,96.74062866420735,-0.45084284164264304,-0.016645882441890674,-0.34532634393400424,-0.1667027685515077,-0.3281851083999013,-0.06242655050406114,nm,0.0
6.414104700088501,15.67755487590522,-17.04085723152083,96.9394914832473,-0.04380210687909231,-0.15287986278109303,-0.2757643828256137,-0.18035521450618658,-0.257994791043884,-0.04296796477462506,nm,0.0
6.437812328338623,14.301363693432517,-14.648272400595573,97.73126129265859,0.8275605560013923,-0.6087401550098306,0.38281443224926487,-0.2265074493747819,-0.12877650345832267,0.08975893747839017,nm,0.0
6.442941904067993,14.517750662774842,-13.388298887183828,98.37987387223973,1.15479073091428,-0.9392034141987594,1.0006089932334543,-0.2473770617575985,0.017156757140250556,0.1857489513782771,nm,0.0
6.466455459594727,15.510184102352303,-11.205187013037644,99.61129838631008,1.8800964992518874,-0.7888675728051943,1.0992275321005573,-0.2084535597448055,0.08491041980053929,0.1723347463546901,nm,0.0
6.4721550941467285,17.0666895751319,-10.587084433593175,99.81718765898104,1.7975567597246271,-0.6637716888853032,1.4855393494861533,-0.16542974764091112,0.2913077384465598,0.13132651156338304,nm,0.0
6.499440908432007,19.39313786960854,-10.921428855018425,98.5802669538305,1.6969172142250915,-0.11541794225127057,1.0657103018823795,0.06428876925087888,0.2144153830808123,-0.11028045637840808,nm,0.0
6.502567529678345,20.553576614855068,-11.78790549492403,97.56646528801161,1.4275870405283217,0.01180674061838518,1.5024047219026404,0.14763024256733528,0.2598858512426949,-0.14024444828806343,nm,0.0
6.524430274963379,21.640579618226727,-13.973199677337055,96.11538657383505,0.4948973979877452,0.07361493838465771,0.12214498743973273,0.2449574343282509,0.1271320650378248,-0.08532575875606019,nm,0.0
6.5278160572052,22.02720380026686,-15.444122091933089,95.74618115899422,0.29621350010414493,-0.16654817390579116,0.5802817217721293,0.29293268536768385,0.11499880096758971,-0.04133388865834593,nm,0.0
6.551753520965576,22.60539302876618,-17.99878263398132,95.27596792537024,-0.30814240609245863,-0.26652320002131635,-0.2885880308656192,0.2391317715897881,0.15979720745003984,-0.0025455064361357234,nm,0.0
6.557936906814575,23.384667857918103,-19.107382322528046,94.64010314183511,-0.5778225829487128,-0.34825840536778313,-0.08232095196160504,0.21609601667680645,0.17699519058724042,-0.062351929163473284,nm,0.0
6.580406665802002,25.044824557983933,-20.415365942936308,92.12898334384384,-0.7726690216520463,0.003761663761466266,-0.5116079440543384,0.1010077833261281,0.2297666750454786,-0.14045510299009203,nm,0.0
6.585745811462402,26.248337941955477,-20.851909251245797,90.87991702503362,-0.8278954168598365,0.14995939324185845,-0.42702797622647354,0.08946984660587616,0.2380930234049046,-0.14941256568055394,nm,0.0
6.608659029006958,28.43814109116923,-21.532407557676574,88.98100940178506,-0.8310807687845642,0.4555486901244824,-0.47959054786191874,0.07107810636041845,0.22508944410963305,-0.04796467628453634,nm,0.0
6.613772630691528,29.33227756580633,-21.869054018399005,88.5318124269386,-0.8716222665034399,0.5322222698042034,-0.5249380603703274,0.0788496291289134,0.17515914744515354,-0.00849962569894036,nm,0.0
6.6364240646362305,30.607985182421892,-22.582534435067025,87.99593372299906,-0.8941338940449626,0.5542430585883695,-0.4979348340703859,0.07521776003792414,0.11936376863995529,0.010080285955263092,nm,0.0
6.642437696456909,30.91676773998625,-22.75231060049645,87.72328899910664,-0.9044633418502765,0.5093997795448241,-0.5419964609510037,0.04367920762551927,0.06619778506491304,-0.03336370152998547,nm,0.0
6.666157245635986,30.570778442906708,-22.64823562984528,86.86450408015061,-0.8143721849938157,0.43043350376455425,-0.5401219805942238,-0.023167348263044778,-0.05306945868863435,-0.13326256773467968,nm,0.0
6.670798063278198,29.70124332873206,-22.349172596429703,86.4892707711761,-0.7594908058701441,0.351256976204347,-0.5769829932518116,-0.06110632540565348,-0.1469370479273986,-0.14817824263438462,nm,0.0
6.694850921630859,26.357299381471336,-21.568116845925026,86.87106515237363,-0.6290909408705724,0.1542424938099127,-0.469156838321994,-0.09639255971674013,-0.34483180754598275,-0.07678638196227995,nm,0.0
6.699818849563599,23.868634430636956,-20.990883745950846,87.854687867057,-0.5841089172606923,0.07365694447554771,-0.4292560621542055,-0.12768548344505162,-0.44874811303525153,-0.010429168725004184,nm,0.0
6.723763942718506,18.07967229449183,-19.217525748754696,91.15505282751627,-0.4484901934052543,-0.04096033316502195,-0.28361859119016575,-0.18664975364490816,-0.5465119278163433,0.09631293004847322,nm,0.0
6.732428312301636,15.204859177060946,-17.97513153260192,92.87048491238414,-0.2999584044908501,-0.101756283833296,-0.20655216989001868,-0.2191193649113333,-0.5445120774686827,0.10718269274778758,nm,0.0
6.73748779296875,12.67202307410814,-16.56027747878054,94.24190261010112,-0.05210588457321212,-0.24104578585974243,-0.05396277596654966,-0.24296563808753027,-0.4912434685028589,0.09827035064235708,nm,0.0
6.750251770019531,10.677431472028376,-15.101583980699907,95.30631777509718,0.23112289285052684,-0.44305599768240866,0.21571319377421058,-0.24937739469518125,-0.3975348133081341,0.07992037286094408,nm,0.0
6.773682355880737,9.031043346730858,-12.307923517953203,96.46914704453422,0.756598339054159,-0.9966646268301511,0.9455254097671186,-0.25385226876432027,-0.07659565010582166,0.09586393669153886,nm,0.0
6.778956174850464,8.847410764623433,-11.128347983850855,96.69911448079546,1.0142499298309944,-1.093534353588499,0.872456791481492,-0.22127692979831676,-0.05262692308784686,0.08271548802929515,nm,0.0
6.799730539321899,9.876356141592964,-9.642428572767964,97.31666254027824,1.450725709442429,-1.1631098982388557,1.3477705574246717,-0.13041544061081767,0.17351373483476307,0.16513100528081717,nm,0.0
6.803515195846558,10.00150866857795,-9.039970155794082,98.00186412604515,1.4696676986162138,-0.702478786141102,1.220009203339683,-0.11381258673261768,0.01843395696813822,0.1816706945182625,nm,0.0
6.82801365852356,10.099641393482322,-7.166365582705334,100.67326540200548,1.0678367129861557,0.3593643801314427,0.6119616968997179,-0.1798899127255054,0.04118911112710614,0.28883583453389017,nm,0.0
6.8326404094696045,10.33012716878646,-6.991290686086395,101.76864089309548,0.7353754022894561,0.944431271250242,0.6458245073982286,-0.034879948450425885,0.0482904637683681,0.2526320920830079,nm,0.0
6.856553077697754,10.342058994137206,-8.250918606226731,102.7868240117758,0.15561800110100765,0.9295346871933413,0.4452345498145859,0.18270175519590284,0.044221354298299646,0.07151429060568369,nm,0.0
6.861830949783325,9.915343592947623,-10.08281177744591,102.29702932848608,-0.005150757926890446,0.4620842205834167,0.36132733069199635,0.3846234324744675,0.0074724895263476275,-0.09634481995844052,nm,0.0
6.870821475982666,9.20190363940909,-12.442396585958305,101.20514259031985,-0.022076173692684456,-0.029613001902378422,0.35559278017912105,0.49958613574289357,-0.030641317761420258,-0.24063415163371876,nm,0.0
6.894893169403076,7.469984948097498,-16.292250956327777,98.3585786273105,-0.03671956809672962,-0.7845300488313259,-0.7640279154662967,0.3848074850833537,-0.09658094202914798,-0.31989726080891867,nm,0.0
6.903785228729248,7.266159813677643,-17.76807953116038,97.0987566215576,-0.3804890246383776,-0.8571407271101908,-0.3674975741937152,0.30749921177925194,0.01080437621153713,-0.2279058661308917,nm,0.0
6.9228575229644775,6.402981392486087,-18.50911485335333,95.9744446011875,-0.6885382882336368,-0.10623260960560854,-0.857039365262359,0.02798272357738868,-0.0718180245699955,-0.0742344582965888,nm,0.0
6.927128314971924,6.50588951401835,-18.523696860498468,95.77566230692787,-0.9675071318901769,0.2755070752684235,-0.5934447009944969,0.0,0.0,0.0,nm,0.0
6.964830160140991,7.128893953622086,-18.61891090404026,94.88678852575129,-1.0639416761689806,0.8894699163631039,-0.5171014633604684,0.010267558803330492,0.08606933293996091,-0.03620360167961865,nm,0.0
6.9667322635650635,7.89833002002474,-18.868001588291136,94.05390778325824,-1.1157838734610441,0.8878154790467903,-0.41409689425706225,0.048561842025522425,0.1590980489106351,-0.06911984420022324,nm,0.0
6.970076560974121,8.685021489318506,-19.378732217287624,92.81529247017438,-1.0212166776496048,0.8089953406728341,-0.3219710144643232,0.10376032011217937,0.16402697738238736,-0.10998208704192106,nm,0.0
6.989408731460571,10.211760155725841,-20.292461061573288,90.8227875037217,-0.8152660414541654,0.27773824965268534,-0.5304651876469538,0.08511383115631493,0.15023340035255905,-0.05259709272841725,nm,0.0
6.993915796279907,10.605034631443543,-20.467068933053916,90.54217295112912,-0.6874532492532501,0.045899002081542406,-0.6457331409799751,0.04434424784430776,0.0836645495691526,0.007869381598290244,nm,0.0
