timestamp,roll,pitch,yaw,acc_x,acc_y,acc_z,gyro_x,gyro_y,gyro_z,markers,motor_input
66.0223376750946,-36.77280746120502,35.41653176038629,-89.28444921248061,0.11154253186808952,0.5914451581083495,-0.49427830048204197,0.19317569850436703,0.36396640457004065,-0.16056533178429055,nm,0.0
66.02400350570679,-38.48346324247525,36.68381182151811,-91.16537235480017,0.06207278701572835,0.6164588446086208,-0.5679070905128837,0.2427959706312458,0.2682686054780987,-0.16863566144247868,nm,0.0
66.04835820198059,-39.83152882485036,39.37845959082317,-93.82295710307179,-0.26485651174042046,0.6162828689647819,-0.7276647687268765,0.25205902893693666,0.010311491329559613,-0.2232687342133709,nm,0.0
66.05013298988342,-39.251715097106825,40.38436159532989,-94.7270036246891,-0.42045865313096,0.6788376636480205,-0.8192702727048468,0.18179069413953497,-0.11043771993300863,-0.28159177258547835,nm,0.0
66.0609781742096,-38.08654526305427,40.84808136660185,-95.40297426297602,-0.05056117035265505,0.444831907592546,-0.6476348430256058,0.06453187638002392,-0.1909113171271256,-0.33333066901396896,nm,0.0
66.06835651397705,-37.20034754308975,40.73483569612057,-96.04351986975878,-0.6456046099110468,0.4358186863991998,-0.768214747826892,-0.04846277608939003,-0.13767512990242453,-0.2969247474140345,nm,0.0
66.09375143051147,-33.811959500824706,39.3402863559688,-96.7171882735124,-0.5952684688105933,0.013600883930079589,-0.39546949944390186,-0.2181212436872121,-0.2807443275980956,-0.3092403567733004,nm,0.0
66.09669923782349,-31.918899462630854,38.27684395003359,-96.23820890306061,-0.924304164217723,0.005897050151559095,-0.36544074577371605,-0.25750262044210986,-0.27531103358630415,-0.17583420998182175,nm,0.0
66.10887861251831,-29.668750749745215,37.18880450503467,-95.08025407500043,-0.8120392123908465,-0.04401016882517393,-0.1730137471514281,-0.2644350600516732,-0.33892724073080177,-0.07391818567425004,nm,0.0
66.13178372383118,-25.74552479401582,34.764310278762416,-91.24595119738018,-0.6243646023411139,0.04776546516584663,-0.049240888268507026,-0.2812650586859271,-0.28348055388144566,0.19726193329572062,nm,0.0
66.13508200645447,-24.212828297606684,33.31439765067653,-89.05204023735902,-0.27070561129989046,-0.02722385135143019,-0.03212364763663787,-0.30312813308483855,-0.2601818506925928,0.2470077322663626,nm,0.0
66.14479303359985,-23.26295016704862,31.613921112302265,-87.06683028308262,0.006523911725634043,-0.1273250596208172,-0.0784763621652398,-0.34688885581471823,-0.17892968110156224,0.28002331994117835,nm,0.0
66.15390515327454,-22.818182016240407,29.529395291335714,-85.39646543587281,0.16406301649189522,-0.2908229527742801,-0.2804470919085995,-0.4233549439257948,-0.11123901997940737,0.2852458054312155,nm,0.0
66.17730379104614,-22.417434054050435,24.288040300998542,-82.5579140299084,0.7117702818873368,-0.7821953316269423,-0.19408568888027766,-0.5599163639768151,-0.09668231187947743,0.2600058328134016,nm,0.0
66.19235372543335,-22.401036476944583,21.298287726516477,-81.28202723266949,0.8879823460119282,-0.8691601028936861,0.09179946116886821,-0.6036675899411735,-0.09501793981372428,0.2783793496504104,nm,0.0
66.2086455821991,-21.231931451900042,15.539164870606896,-78.54862465055021,1.143190483744267,-0.30380563200269756,0.8833282187319539,-0.5186146119674514,-0.28944956833357344,0.24064714196579293,nm,0.0
66.21781373023987,-20.36617860265882,13.274616315363897,-77.34228279652213,0.9092771286847622,0.3234659338995194,0.9730555725714427,-0.4190327909195879,-0.26833028743308784,0.2047017535066962,nm,0.0
66.23418831825256,-18.434317923217833,11.220614891484926,-76.33643492704238,0.5248621522509314,1.060725655884325,1.2794875865101145,-0.06711910244517032,-0.2252662739936272,0.019725056216739843,nm,0.0
66.24486660957336,-17.74415593215218,11.749279310286395,-76.66170777616439,0.10059330571287398,0.9483916896584703,0.9558698208323347,0.12403779772285574,-0.11676697533296922,-0.06922627241668328,nm,0.0
66.26328229904175,-17.20531843924819,15.377151565676847,-78.21856165200518,0.3672288141433134,0.013055800696019571,1.0222091284941544,0.40402396069007757,0.12485477525140362,-0.13642983082242907,nm,0.0
66.2696692943573,-18.009217764400223,17.869670834397613,-79.13366626291716,-0.08654861101725653,-0.42137499448428783,0.3934427616795793,0.4486361284841683,0.23963617248829447,-0.10333601238473464,nm,0.0
66.29158425331116,-20.175661226108232,22.591083939037606,-80.72359977386091,0.10000721517993456,-0.6042200196714465,0.039280521086280634,0.38655671314068446,0.34009524372937716,-0.02225533634216115,nm,0.0
66.29832816123962,-21.970686405396535,24.512755951730153,-81.68923355621128,-0.02079835535344241,-0.31591825049519234,-0.11180156180403748,0.3192156110693007,0.3755919252994468,-0.0137989809779601,nm,0.0
66.31100511550903,-23.985859219644603,26.093831019261113,-82.87741747825201,0.2031948699999569,0.022211212850481308,0.0064415950699274905,0.2538204642670613,0.39547287492590244,-0.03545789560845193,nm,0.0
66.33013796806335,-29.121898140261024,28.697437438686606,-86.10764305052658,-0.04958464430565937,0.558972818011752,-0.19925297628749822,0.20354772350831268,0.46104233527516264,-0.07448044478776632,nm,0.0
66.33514618873596,-31.541926761812793,29.98772053225338,-87.8424828549214,0.04898268428200606,0.5563328586877134,-0.22628248568406042,0.2242923547483118,0.42741100270895793,-0.07989474292796149,nm,0.0
66.3626811504364,-35.45434493457143,33.078215268907655,-90.57974342632255,-0.13528741046303572,0.3754463952831263,-0.6516493855503176,0.31726455229872175,0.2742292993167463,-0.05512040825752467,nm,0.0
66.36440181732178,-36.49257012128589,34.6991610579839,-91.40967360576765,-0.15730222807211808,0.3165002591855183,-0.7815444679221369,0.3153409752088713,0.15938550968582096,-0.03864486843066793,nm,0.0
66.37233757972717,-36.88540551417754,36.03820835281925,-91.79103000442024,-0.29015311869192384,0.31916759228890035,-0.9064446504483997,0.25751002920690946,0.049378515708563664,-0.03292619930429987,nm,0.0
66.39597725868225,-36.02450253770289,37.21481730436196,-91.6697181045597,-0.3810218517172162,0.36497449441273627,-0.7776012707189434,0.043128864889533124,-0.10887483830615899,-0.07886348876322155,nm,0.0
66.4087290763855,-35.01400458769757,36.892254116469374,-91.45484676809131,-0.4101348412762722,0.33085654597579806,-0.5944560041638061,-0.08119038123975522,-0.1667658513778523,-0.1013984024551265,nm,0.0
66.42431926727295,-32.250675449156745,35.18197853416048,-90.6273836878441,-0.4550800921564254,0.27251739570034017,-0.29039530989654005,-0.2061475163297022,-0.24091339596747746,-0.08794364579723402,nm,0.0
66.43056344985962,-30.563706639750684,34.18802353484842,-89.81288964707802,-0.45825174758283044,0.27179040981410724,-0.22911842649479927,-0.2122017094050417,-0.2841053551378022,-0.04822123690717323,nm,0.0
66.44105648994446,-28.681874112475974,33.20976850043035,-88.56787062833172,-0.352212543314414,0.22582437930473437,-0.19433683281952355,-0.2032217034467014,-0.3235338469517694,0.00759206714654228,nm,0.0
66.45155239105225,-26.76254291876112,32.254308101391274,-87.01526922942493,-0.2682623924104969,0.19008593016179112,-0.22758963721445197,-0.19023677848406087,-0.3379196595741483,0.0637013344275079,nm,0.0
66.47384929656982,-23.004048372035424,29.945083635666638,-83.70335411354664,-0.0014858269293332586,0.07269672973280007,-0.3642536296791058,-0.2347943688246412,-0.347489173043279,0.10005562742519036,nm,0.0
66.47667837142944,-21.323084223904093,28.354768699530926,-82.27151124272119,0.15886120083720268,-0.04410604349825971,-0.38375855249696084,-0.2910495351676481,-0.3389706578286738,0.07998261992792055,nm,0.0
66.48714709281921,-19.83928936862203,26.429069386262935,-81.28482460789806,0.32212946702749456,-0.1821757865030244,-0.3181389558994362,-0.3550998355570219,-0.3243762293093624,0.05011192732840162,nm,0.0
66.49775552749634,-18.506247052277057,24.193594332026606,-80.51089706879631,0.472224766517653,-0.3425168238330332,-0.16063295327192198,-0.4148129938902519,-0.3174992119780588,0.025944706264343493,nm,0.0
66.51448845863342,-17.201030311865406,21.781147339396114,-79.87329188362432,0.6370640672925328,-0.48238215574209675,0.09838483492818878,-0.44591060628658025,-0.32794148620081554,0.01351922443785389,nm,0.0
66.53197193145752,-15.04200820429413,17.174576058430404,-78.73178941875508,0.5723691968741037,-0.47040993759748684,0.6313570270973216,-0.41230378711392995,-0.2720260338137831,0.06694650954310347,nm,0.0
66.53515028953552,-13.786903142158653,15.257634837010018,-77.98952669629396,0.5205870545910003,-0.34102917044628417,0.8016172044786178,-0.33803144197606266,-0.32257017001684,0.08875311661021511,nm,0.0
66.54406976699829,-12.508406217081628,13.788709947799925,-77.15529253267067,0.585426522599926,-0.07229989143417165,1.1227001663107732,-0.24455749242782682,-0.31426303080425994,0.11860079267596181,nm,0.0
66.55342555046082,-11.739146943804316,12.87570612834789,-76.28462282735484,0.33068870533316524,0.09127380725987834,1.1328835698079915,-0.15383887684321623,-0.1970975534526918,0.1501627796036188,nm,0.0
66.57843327522278,-10.57906213000462,13.709550633255947,-75.34383188061724,0.5465442803185001,0.3237471328901344,1.509395533887154,0.1855474339170909,-0.06115953650006519,0.061719333687765304,nm,0.0
66.58863401412964,-11.055802096942793,15.273038618068957,-75.6283923147523,0.20923778564059256,0.2676593716575952,0.9063864400727515,0.2700688946732865,0.15825409926724457,0.0001837843000595415,nm,0.0
66.60844588279724,-12.62803490636412,19.33977982523417,-77.48379317070109,0.2796388724601102,-0.248778835883715,0.7884641054378311,0.36590311669990705,0.24580498728915637,-0.12224956587762915,nm,0.0
66.61248874664307,-14.254191111984863,21.546003700029658,-78.64788297507893,-0.052414672806938095,-0.37534341333328036,0.22603177605540303,0.35907913485657106,0.3807431627995554,-0.07931464165337324,nm,0.0
66.62043738365173,-15.907287644426283,23.77175907384496,-79.62645974766392,-0.04836206236773874,-0.38108573664795375,0.08480032520158273,0.3698670987589719,0.3750485225081384,-0.027964676692467987,nm,0.0
66.63392949104309,-17.725509992316358,25.95431759904937,-80.35908737758554,0.042532281338451806,-0.2746064535915591,0.00837834404264141,0.3626945236949056,0.3923789391337562,0.05274508615332105,nm,0.0
66.66010570526123,-21.70750262172115,30.20351597617497,-81.38370709577296,0.030856634780760398,0.18466859843727002,-0.22666511132018186,0.3532112180781239,0.390060438934153,0.13151037224178408,nm,0.0
66.66169881820679,-23.785722010002676,32.135485457419854,-81.99085496877365,-0.029643423859855696,0.4069861052179142,-0.39597591558201567,0.32048969234594554,0.3998297382697711,0.1248243851246499,nm,0.0
66.6708071231842,-25.81712015340645,33.77877887750295,-82.81319196117906,-0.1295414678801136,0.5252160861737605,-0.5697220523079682,0.2700083190512969,0.37356142401091375,0.0827943678075562,nm,0.0
66.69192695617676,-29.182077174784556,36.02052323960385,-84.7509605936902,-0.1979794165369121,0.5185973936777426,-0.8091909133954295,0.14989710032441753,0.2649650608327865,0.0028256864884607844,nm,0.0
66.69502878189087,-30.188069875740144,36.616944874996165,-85.43292103073075,-0.22729698489639183,0.46470814040279795,-0.8881608829673773,0.0933887390535835,0.16418586205012892,-0.016347352450860237,nm,0.0
66.7073724269867,-30.539741466299763,36.92821417920651,-85.71959654556947,-0.21963756874592721,0.43913754926484494,-0.9129503246914135,0.04601470955114962,0.053359570255836056,-0.018551348689141458,nm,0.0
66.73126554489136,-29.24158215293814,36.68645346570416,-84.97578577535505,-0.19598061503670927,0.44983613025592173,-0.7669586049591046,-0.053726783961528336,-0.17091364600165423,-0.017070258258612372,nm,0.0
66.7346203327179,-27.776870800843138,36.07017266852317,-84.16034743303597,-0.16745861219490085,0.4467972869646127,-0.6335899346138306,-0.111993388491125,-0.2545168625932417,-0.029648591637769277,nm,0.0
66.76536345481873,-24.070438114117756,33.8011959438705,-82.37470915049748,-0.1301956159581068,0.3330402938538926,-0.383440354282224,-0.22960323365462598,-0.3585796726885806,-0.0896444539756785,nm,0.0
66.76750707626343,-22.1060421802978,32.21844440100958,-81.58213190513139,-0.12208293887364673,0.18632960068844415,-0.32084972359162856,-0.2783340015449392,-0.3792553362240727,-0.11105363511315564,nm,0.0
66.78684520721436,-18.259341889418376,28.48407193073438,-80.14147363346862,-0.03971305947660562,-0.13392023068872813,-0.2818932295402187,-0.3406227491648561,-0.3997309625196801,-0.09151676760310198,nm,0.0
66.79056215286255,-16.42449723585883,26.373667160826276,-79.36003549831752,0.04553303609072433,-0.28860552015041563,-0.2930020099242612,-0.36827807350108577,-0.40464519324864406,-0.04708469374483335,nm,0.0
66.80559062957764,-14.667359137632422,24.087447610764922,-78.4185860523299,0.21565683717864478,-0.4156986049824725,-0.23805697669713757,-0.3981251601362788,-0.4093350406307416,0.003607625910483459,nm,0.0
66.80989694595337,-13.058946968887144,21.600867927128217,-77.42587248416429,0.40811178845424034,-0.5088369046865471,-0.1192598038499167,-0.43498759697174444,-0.4033422402162428,0.04827860735636323,nm,0.0
66.82183718681335,-11.626929200677232,18.930126381924616,-76.47493085797555,0.627705606640477,-0.6063541386538852,0.1804047531478239,-0.470307705321649,-0.3919342751353608,0.07087102512854358,nm,0.0
66.87108850479126,-8.624770601309423,11.118401719974372,-75.0452955017546,0.5133447318481078,-0.2907479356077178,1.0919020471347727,-0.41245114104304303,-0.3333306146781517,0.006153657221910261,nm,0.0
66.87357568740845,-7.532160253243667,9.372664432256109,-75.16364553550798,0.5038716082627239,0.17466934763599498,1.509425170823328,-0.2927016891636802,-0.30704912226125847,-0.03188926009474552,nm,0.0
66.87528014183044,-6.961769178866928,8.468596952835565,-75.37599651906649,0.010551484824608463,0.5185733019735242,1.2428925551482306,-0.15626138539833898,-0.1646255386957922,-0.04914023324997565,nm,0.0
66.88863921165466,-6.344599208429293,8.555425258172463,-75.64118563272638,-0.1304344488604026,0.6644904997701053,1.143602762947666,0.0375383687478117,-0.12351324888197635,-0.05624097379655078,nm,0.0
66.89286923408508,-5.962639185967057,9.710865504376253,-75.94719658363152,0.19270075674275886,0.5380853635136801,1.6418873022517237,0.23295703468329268,-0.026192767365149913,-0.03675676553076872,nm,0.0
66.91742181777954,-6.764947321289546,11.867445936667059,-76.25713853437647,-0.09578705192651664,0.14218746656483558,1.0546351161697989,0.3719168626373789,0.24688120886097462,0.017806474259621858,nm,0.0
66.91909646987915,-8.841904861593667,17.701862781033352,-76.64651634969036,0.3694506814440226,-0.5794860255349775,0.7801312474854883,0.5268140509826148,0.34623135775354597,0.07284644755125073,nm,0.0
66.93414521217346,-10.785092026921001,20.617923474253942,-76.95704869698001,0.17790636384899025,-0.6565889182504508,0.10136495519632885,0.474693689212715,0.48205962369848726,0.08909588289180213,nm,0.0
66.93792366981506,-12.809275764240438,23.262824656387927,-77.68690939760866,0.3324369594877742,-0.5499789017273419,0.0013840349992817757,0.424349134197197,0.47394960255348045,0.04116855501289755,nm,0.0
66.94698548316956,-15.282119308305768,25.509716158893564,-78.77449567908315,0.3822076331654701,-0.3042921669308413,-0.12464873815816695,0.33807110821114944,0.5247538329668464,0.005607331502028443,nm,0.0
66.96415638923645,-18.12217774416328,27.374762036067672,-80.22241305608848,0.1544297730660054,-0.036174086612323866,-0.33615806551173316,0.26379601011853954,0.560413287335403,-0.016352440362776614,nm,0.0
66.97862672805786,-23.364289521054648,30.69239198359574,-83.38715926327667,0.05689930993938811,0.39341356171800795,-0.4385064538437073,0.2567165409724137,0.4771592229532258,-0.019171007010280933,nm,0.0
66.98102021217346,-25.534262954841946,32.4004010088744,-84.5541763424782,-0.03250895110887801,0.42380866780831833,-0.5117640506486015,0.2898598066198246,0.39628189648750034,0.012510941089978697,nm,0.0
66.99109244346619,-27.13007047627647,34.282447037267666,-85.39312790657348,-0.05099458635964253,0.4884245087509623,-0.6351534586774419,0.34048363908418755,0.2911101203984737,0.026499138061186606,nm,0.0
