timestamp,roll,pitch,yaw,acc_x,acc_y,acc_z,gyro_x,gyro_y,gyro_z,markers,motor_input
102.01999282836914,-36.96928594498299,-14.162030611301798,173.49329610497455,0.4984309995530147,-0.027745106017174323,-0.05030026280315774,0.4274079749130319,0.43236191794491974,0.07782292689175904,nm,0.0
102.02473425865173,-39.149424471712805,-16.208301467045306,174.08691759353292,0.2492130106822922,-0.03167479866947741,-0.30132969965858125,0.45859643458784766,0.3737946120657984,0.03349043508388484,nm,0.0
102.04852533340454,-43.4780453060612,-19.918080444384543,174.86516377051376,-0.47699738642259465,0.09414264037092922,-0.5596772668038068,0.4230466236221819,0.3385948128268611,-0.05807216238039842,nm,0.0
102.05320382118225,-45.281112028437654,-21.711989818928668,175.01922157215017,-0.7609634721481516,0.21889608267758096,-0.6319905376596111,0.36398187851729846,0.33962652105735874,-0.06701015736515906,nm,0.0
102.08338665962219,-48.02189226852485,-26.140117260561137,175.73651479537006,-1.0076178572263321,0.37824593792509575,-0.5262590930435862,0.08921657705197807,0.24016788762525293,0.05660341221401841,nm,0.0
102.09231662750244,-47.979670618939906,-26.860772462739718,176.07828759188988,-0.9446375019706121,0.3731801373356988,-0.4557557357728147,-0.0006722687810297284,0.1560851129096261,0.09879133578548865,nm,0.0
102.11825704574585,-46.64931182307678,-26.72307966879464,176.58136328620697,-0.7819899585099411,0.3737424708937577,-0.30560316073108884,-0.16055661158318615,-0.04300361478451372,0.11991249958213071,nm,0.0
102.11986494064331,-45.49312338537115,-26.008324933261335,176.6124122665944,-0.7379340272055201,0.36073225909468676,-0.20207375333130811,-0.21952692959149156,-0.11876139258254863,0.11639099679750954,nm,0.0
102.14326477050781,-42.66115185493229,-23.682000091622772,176.5243377176232,-0.6253596122562078,0.38712277676029133,-0.04812725945688583,-0.28864350654574006,-0.23074850276521716,0.08649531522385304,nm,0.0
102.15103149414062,-41.16459808235571,-22.188611251448137,176.4642467296902,-0.5237777246957004,0.3966433030846308,-0.02174600630453902,-0.2980202501701619,-0.2699014401310864,0.07387651647253123,nm,0.0
102.18028545379639,-38.468656813379624,-18.655755123916048,176.33031825966032,-0.20478897782479227,0.33637546178610167,-0.01930491316817605,-0.2682140508094189,-0.34499493820384114,0.04022030909858126,nm,0.0
102.18192887306213,-37.390915820690594,-16.594919185421578,176.2519766769051,0.0029628828918577686,0.2572526441982542,-0.04650658947875343,-0.23670828722983045,-0.38644831011196307,0.013845958819448506,nm,0.0
102.20512413978577,-35.86880967747386,-11.958719392864824,175.89571704494972,0.3536398732164769,-0.025375792449435018,-0.07509479880742262,-0.16767486412924562,-0.4583808457019411,-0.04639493103312032,nm,0.0
102.20724558830261,-35.397510232716165,-9.438606913059918,175.5828795670856,0.5137890697709595,-0.19441965132850325,-0.02472449426482849,-0.13518017727596057,-0.48388547188977654,-0.0755451982196848,nm,0.0
102.21534180641174,-35.09733957524219,-6.913262561158609,175.22278316019703,0.6547721148011219,-0.40187833472497253,0.08419980765460396,-0.10521852308291194,-0.4866964998038858,-0.08994575894767569,nm,0.0
102.2387433052063,-34.6699175215526,-2.390240997490775,174.6659135561956,1.0238856726288372,-0.7509560104923492,0.3005119990965217,-0.08732612452517033,-0.4058712406487601,-0.05778595683144985,nm,0.0
102.2610592842102,-33.881253960152506,0.5694446023070481,174.4749398535891,1.2653171502825173,-0.870383446270363,0.4039324922810158,-0.12127577572028458,-0.22793629041281502,-0.03647724797606431,nm,0.0
102.26499128341675,-33.388679615147765,1.234254633012122,174.1546578904034,1.1791949947579614,-0.8248447296089197,0.48691763375288694,-0.11746372914925887,-0.10978876174474858,-0.06827941488269136,nm,0.0
102.28593635559082,-32.648939361022705,0.2925123016008669,172.80030078819794,0.5547777014078684,-0.552341704185279,0.6046321293985751,-0.043601951790189664,0.18943359929980927,-0.13375139392335827,nm,0.0
102.2903504371643,-32.59520894611102,-1.2131149031306812,171.91498856743107,0.2971105094145329,-0.345515952803753,0.5950050084364544,0.024365936034491817,0.31336180463463476,-0.13650977282470764,nm,0.0
102.31683874130249,-33.32629469523553,-5.5593747300567165,170.8039867440297,0.1386445931322377,-0.05125104463586508,0.5253932803617611,0.1706761542818782,0.4568164475910064,-0.03539985806075308,nm,0.0
102.31864166259766,-34.18897686414875,-7.969327735543684,170.7507425608963,0.21324174510543173,0.002120303681278457,0.4199011455786311,0.2428255481036553,0.4613863147925273,0.03005735331798762,nm,0.0
102.34468102455139,-36.91876070763293,-12.55491335531408,171.60199798668955,0.3026973959239444,-0.0008547379018452528,0.04762764004135576,0.35717490582127,0.4096190243189389,0.0842216196022484,nm,0.0
102.34914970397949,-38.62589341049753,-14.665660130849565,172.12371465874097,0.20129074274115585,0.012716587661290663,-0.16681276395833247,0.3844675066003645,0.38368010100427297,0.05451085069415646,nm,0.0
102.37407064437866,-42.07627542124524,-18.743460434332082,172.5295780966593,-0.28897560832532343,0.15297554469006747,-0.44973503942111615,0.36919608000240745,0.373763772827732,-0.04831875165571423,nm,0.0
102.37679886817932,-43.60811509071893,-20.77617850157839,172.47132837297895,-0.5741456231239628,0.24589566818985395,-0.474948302934532,0.33588659439906215,0.37775716671247483,-0.08244916759657436,nm,0.0
102.39986062049866,-45.97266068905581,-24.425167235700354,172.30651191794323,-0.9608308867937652,0.39646652213091244,-0.3753320614562335,0.23274157113217267,0.32401639417789657,-0.07030469581975884,nm,0.0
102.40503978729248,-46.75120521482563,-25.72930234095176,172.45260397228932,-0.9866467376168282,0.4481404824792719,-0.3838127333461403,0.1715908827363499,0.2520132370488505,-0.024134493831119718,nm,0.0
102.42900109291077,-47.408184895064096,-26.659958019404282,173.15180952451271,-0.9030452964944286,0.3888598773707014,-0.37352832744084596,0.027328848962056906,0.03640096046199684,0.07924886893144203,nm,0.0
102.43434882164001,-47.219488246778575,-26.199304707649986,173.53419845113052,-0.7878273706687137,0.39262809681753646,-0.45974160022721766,-0.0474729698067288,-0.07586450418442094,0.10105026114379333,nm,0.0
102.4570620059967,-45.73500844612534,-24.155296248174892,174.03374153102345,-0.6314645419245973,0.2617420512433192,-0.34917522711527815,-0.19826026403377847,-0.20427215966219373,0.10385161149832817,nm,0.0
102.46288681030273,-44.458005685413994,-22.747070536628907,174.0204924201019,-0.5584968439005792,0.2673871177363537,-0.2899962804788896,-0.26620149786682507,-0.24431699352630218,0.07358633135341718,nm,0.0
102.48677039146423,-41.348401490008776,-19.52252019370498,173.68034762591898,-0.4225466323507328,0.25009672438051067,-0.08495096304887441,-0.3391117314538079,-0.2902193603112832,0.043700764178111993,nm,0.0
102.49452233314514,-39.76594237952138,-17.621997779731075,173.5407261104561,-0.2914245284335486,0.2427622083577863,-0.03516260845930142,-0.344914712442997,-0.3328024599711173,0.03878337119157712,nm,0.0
102.5017454624176,-38.30632854749559,-15.496780643235121,173.53266667259433,-0.09914868176074657,0.19629525219039062,-0.029721655366603015,-0.3304859630747634,-0.3792359228613099,0.044781477413507104,nm,0.0
102.51185536384583,-37.05785344620814,-13.183275999254118,173.6342840221521,0.11737843965698642,0.10253545466008317,-0.005004246875445187,-0.2969924479915501,-0.42098179323801205,0.05145736320020684,nm,0.0
102.51932048797607,-36.028524202028635,-10.687032615344897,173.76165645055087,0.3623308938583162,-0.04545272206776948,0.010989150389013347,-0.2601428348187575,-0.4622088630167589,0.04246433079572493,nm,0.0
102.54487919807434,-34.67796452404429,-5.524238515798279,173.9652797275129,0.8016742314025224,-0.42531424160704046,0.14444459271994928,-0.1705862310637261,-0.48608728791988226,-0.007728272059064987,nm,0.0
102.55084252357483,-34.25122855761451,-3.092436972405399,173.94751456632568,0.964399682116333,-0.5855587577954644,0.24989817475323733,-0.14133922412471098,-0.4625359623950464,-0.02442010632460308,nm,0.0
102.5715651512146,-33.340676082561814,0.913674740570757,173.91253972193638,1.3325955767260116,-0.7547516947252287,0.347098542849311,-0.14397836267049618,-0.3387980029035342,-0.0016690286412711234,nm,0.0
102.57599472999573,-32.78076947197732,2.273499840330371,173.98244491924027,1.396158476574717,-0.8239367862189524,0.45348004463640024,-0.14620855904459848,-0.2460321547382093,0.0035606339715990335,nm,0.0
102.59958076477051,-31.772808435961416,3.3295208953434288,173.4396556810863,0.9664576367128768,-0.7952335660470157,0.7348097863051511,-0.10211238092708484,-0.017937701751392515,-0.07164170853461957,nm,0.0
102.62204027175903,-31.74174934379841,1.318896562813879,172.0904524630114,0.15048736520923275,-0.43312271152724996,0.6649865237414941,0.06410893006589484,0.2884648665774599,-0.12511971162870683,nm,0.0
102.6276445388794,-32.194627241039036,-0.762724087670331,171.429618343741,-0.025799698545671223,-0.22228663552531233,0.5719654199327686,0.1444310025312588,0.4126010852597257,-0.10615748429333263,nm,0.0
102.64739632606506,-33.87973955285948,-6.258042012755301,170.91677450065558,0.10407185290229341,0.006616279077959358,0.38189738102138887,0.278826943990808,0.554392680769688,0.022302524427384812,nm,0.0
102.66844439506531,-36.60253442144388,-11.915636864140652,171.61026402813872,0.4059968013879972,0.05055686134004966,-0.0002662556758526776,0.3689142732297469,0.5122991887469014,0.09057951586419379,nm,0.0
102.67285013198853,-38.2846833083777,-14.46083619165821,172.0970269138173,0.3526170094203638,0.04214615160566916,-0.20663070919498835,0.3930073135900368,0.4700765159472909,0.06694489668947971,nm,0.0
102.6942310333252,-41.8348268324751,-19.05550018048844,172.5783584103618,-0.14321928134433815,0.19502864222397326,-0.4840931557626113,0.3886352578700158,0.41233871187297333,-0.05582823864061947,nm,0.0
102.70183730125427,-43.49488744799514,-21.23029715200407,172.4832633142695,-0.5317434889165596,0.30808667761162056,-0.5108461568810851,0.3625790658280131,0.40315376563443234,-0.10597953200201846,nm,0.0
102.72373008728027,-46.242797567006484,-25.141705191257724,172.0081472432936,-0.977741908195965,0.49334512303679673,-0.4583969742693559,0.27553948370471737,0.3471685670965261,-0.11977563984217943,nm,0.0
102.7287085056305,-47.203329529354974,-26.659208104419914,171.92311124219088,-1.056461072635557,0.48215798852390773,-0.40366311209101724,0.2113020541807173,0.28838245113668864,-0.06932716744456421,nm,0.0
102.75466895103455,-48.21075703061275,-27.975965068112345,172.35059559957804,-0.9980338448697845,0.4296064499292925,-0.40463377965473846,0.06550258303010409,0.06891647657445886,0.036502077160680615,nm,0.0
102.7616400718689,-48.14955067654318,-27.67460249016081,172.70184317624125,-0.9322947848247468,0.36629586119625873,-0.4365380129506423,-0.02132479785840439,-0.04666158726963348,0.08399256674241865,nm,0.0
102.76709651947021,-47.685860656078425,-26.85767136134553,173.01625787224123,-0.8489802255039195,0.30014049191165904,-0.42951130679117827,-0.10516846415787807,-0.1402519922605694,0.11330073406857942,nm,0.0
102.7906265258789,-45.462179693774125,-24.23558969034174,173.40976778801164,-0.6585709871166876,0.22233055799977502,-0.3297813578099259,-0.27506033541774216,-0.24459916043448676,0.1256057196796033,nm,0.0
102.8059446811676,-42.050236429787866,-20.951308129386714,173.50723175636563,-0.3841722964364488,0.19766371062645782,-0.1352006551264534,-0.3745634684069186,-0.29135195860845103,0.10889801553288518,nm,0.0
102.81957960128784,-40.18853768518062,-19.04899355798243,173.48675292060904,-0.18022061731660155,0.1682827677004963,-0.06980141666799111,-0.39524239805006633,-0.32676354332515567,0.0999844189046765,nm,0.0
102.8294370174408,-38.43411080938686,-16.92872028748231,173.61650816925865,0.052294685184304864,0.13008574372811443,-0.02048548746221777,-0.38368311164493724,-0.3725204022938355,0.08988317537429068,nm,0.0
102.84780025482178,-35.62723751562748,-11.979467830397178,173.97420318584253,0.5537074766770057,-0.054520415391202,0.04913263384693455,-0.3059103664080932,-0.4768018507284234,0.0531682370891178,nm,0.0
102.85171675682068,-34.65731452500672,-9.245888749356087,174.14433398118993,0.7908166684910238,-0.22817527049932498,0.13797105546354077,-0.2511021153861734,-0.5123393431934152,0.025468853189224178,nm,0.0
102.87684416770935,-33.423720693831235,-3.8833698845796882,174.43830145360693,1.1878627375799724,-0.6499764794335751,0.38632893166620497,-0.15800645671559685,-0.49758813104013044,-0.014812135335961749,nm,0.0
102.8802387714386,-33.026937959499875,-1.5777024391120633,174.50787290706833,1.3296526991067574,-0.6937689711842725,0.3323310156925796,-0.12879103247800738,-0.4392193950462171,-0.02162671882323314,nm,0.0
102.90546607971191,-32.30222671540275,1.7994867699978265,174.03395448571362,1.1846134945760012,-0.8077390612548881,0.48239649314581085,-0.10438785299738151,-0.2687630713251745,-0.07929241998614715,nm,0.0
102.91470909118652,-31.950079548713177,2.5376001667546406,173.49645173582937,0.8350148940541594,-0.7301352143187401,0.5130337983652363,-0.09210250552460536,-0.1262470461573373,-0.11448712424728824,nm,0.0
102.93126487731934,-31.659177668041956,1.302300816477422,172.02671150796348,0.08952060010078439,-0.372980607955931,0.5112021473459211,0.014116351973796718,0.22832266230431253,-0.13042970115533903,nm,0.0
102.94005966186523,-31.761210274989306,-0.5904752703655385,171.32721731954643,-0.030286781641438457,-0.2359125997581343,0.5465772765284146,0.07025498515283086,0.3851916904292153,-0.09926461908354905,nm,0.0
102.96222281455994,-32.70455768510893,-5.9132758777089025,170.7068363805813,0.2003121552215604,-0.011586202381023154,0.4860416876344095,0.20667150493758119,0.5518392933075383,0.009579750119793432,nm,0.0
102.96658730506897,-33.60862172125927,-8.793626541190603,170.85187053465785,0.39331645459703346,-0.008975157995718864,0.386104562035285,0.26578447348910195,0.5531674942879591,0.055810370703412646,nm,0.0
102.98861384391785,-36.49182207520967,-13.958274522180472,171.7504379572258,0.43660938446198777,0.05610851049716973,-0.015318749368325542,0.3774041658209871,0.4501017291154842,0.068036609719514,nm,0.0
102.99870705604553,-38.30239056822994,-16.110689680389104,172.31091168566755,0.22838449424228477,0.05915334718338808,-0.18061254999058288,0.4022533476471302,0.390654609574558,0.043523862763354716,nm,0.0
