timestamp,roll,pitch,yaw,acc_x,acc_y,acc_z,gyro_x,gyro_y,gyro_z,markers,motor_input
32.5038321018219,3.830311651092565,-13.596934663140336,64.71501570078459,0.7231131343810298,-1.093977376610023,0.5692360279519697,-0.04581428543149514,0.26759450464161916,0.18678331909159523,nm,0.0
32.50922346115112,5.47063709471905,-12.897875188931257,64.98228223503678,0.7596418679296423,-1.0209817661648835,1.0404512843587719,0.023282211402243798,0.3520783330333094,0.16874207414875236,nm,0.0
32.53276562690735,8.779057097652473,-12.388301022512795,64.7232764346137,1.2057587974024966,-0.5734708143410518,0.7160165037149551,0.15410441557863208,0.329233909692225,0.01806719891519626,nm,0.0
32.54060435295105,10.562684117763373,-12.800399287734649,63.96697108341442,1.1523470497688608,-0.4372219751312257,0.8256890080811212,0.23855170683679883,0.2816822549628119,-0.0600267562617546,nm,0.0
32.548015832901,12.090834597588065,-13.588559738974118,63.036515186142516,1.1003298728724662,-0.35284144969762843,0.5704801923759235,0.28713954377436723,0.19959887350959607,-0.12178765791667041,nm,0.0
32.569170236587524,14.93544095503234,-15.694162025600884,61.070634861134536,0.5263986387635429,-0.36512159353534124,0.3837682131385253,0.3239227782558418,0.11868225589026297,-0.12993897120638967,nm,0.0
32.57529139518738,16.023765162015682,-16.735013529333095,60.3109641743414,0.30707028790332463,-0.3099344521480991,0.08017134670276503,0.2970271989935147,0.08407798058674684,-0.11218042830359348,nm,0.0
32.59444046020508,17.836219846301113,-18.39891799823872,59.064662497916586,-0.15745806099546042,-0.19457029562386519,0.0024098806967123468,0.21853189591195998,0.05236172899918402,-0.09622994087088756,nm,0.0
32.60331630706787,18.199652253160686,-19.02308945485181,58.40968694993495,-0.10399642797648936,0.025877038563458236,-0.45237248669945124,0.15554039332512082,-0.002355826346643376,-0.13526279447766626,nm,0.0
32.62506055831909,19.681040289704207,-19.946989700396617,56.768444668897224,-0.46549948287946635,0.2760814943579764,-0.16675961693485886,0.161641087685851,0.08000192963459772,-0.1351789893861932,nm,0.0
32.63219928741455,19.995333422615353,-20.32588117873442,55.8156982274517,-0.38098015770488364,0.44987075794860487,-0.5003536922599715,0.10888108804287663,0.010239281557423575,-0.17459176474608326,nm,0.0
32.657488107681274,20.828304532544323,-20.958243892550684,54.4183809448023,-0.5698132398352941,0.498700084520232,-0.1932855742966528,0.09731894675997237,0.027093803754204095,-0.09399544437004419,nm,0.0
32.665751695632935,20.799216141516457,-21.159478792098447,54.13711551874727,-0.5531085981614333,0.5710428784485864,-0.3584655148018563,0.04257884027501127,-0.02495243856980063,-0.0638751027556133,nm,0.0
32.669835805892944,20.675165179580045,-21.31607161753603,54.149651541350146,-0.6116755624590687,0.5620095422088557,-0.2493457042024322,0.0,0.0,0.0,nm,0.0
32.692375898361206,19.596035574890365,-21.34149496846588,54.7628498220862,-0.6314604876318832,0.5631476907013497,-0.24476451484663553,-0.0692144813356235,-0.09974116013467224,0.017467701845394194,nm,0.0
32.700520038604736,18.79617601139897,-21.229168498043997,55.18349424848395,-0.6208736282426076,0.5542482182481833,-0.1537979210302492,-0.09090584857768874,-0.10632439033682813,0.020918682938751498,nm,0.0
32.70864200592041,17.76636377665258,-21.030436526409392,55.60081646246038,-0.5942426074841641,0.49515845323120916,-0.03096705547061353,-0.1287677889971414,-0.1327877292991872,0.0041780498112519,nm,0.0
32.730309009552,15.095946899078221,-20.41549813292728,56.48102548908906,-0.4775714177545154,0.42361018146131724,-0.06315567951377249,-0.18519260621991931,-0.1762762010414076,-0.009494551307266565,nm,0.0
32.736334562301636,13.484709310663956,-20.058001583864897,57.036778330824546,-0.4115956615061002,0.37653068418786445,-0.0873625897331086,-0.2123392819186801,-0.21129098125031637,-0.0048698101108387605,nm,0.0
32.75967979431152,9.906339949000314,-19.15672621389873,58.6248043414729,-0.3263084379902943,0.2472020505212488,-0.11850074530176949,-0.25035356902981026,-0.23883785703558183,0.050315226765096706,nm,0.0
32.767773151397705,8.008173082408087,-18.603899153109083,59.62017101804873,-0.2530416663604446,0.18312674681318175,-0.17832871680371062,-0.265867387339398,-0.2493093491243759,0.07242745133505164,nm,0.0
32.785396337509155,4.5364287092119735,-17.315070389680983,61.31324606667606,-0.12617320968692813,0.0013764495101988555,-0.21367783864345374,-0.25728280741017323,-0.20876850199660915,0.0968238387542266,nm,0.0
32.794320821762085,3.128189187188636,-16.640109907491436,62.042642401207125,-0.0057390222921769735,-0.15770719467031727,-0.20802579702168741,-0.23331864930624513,-0.17041297467305025,0.09356880118996803,nm,0.0
32.88254141807556,6.7384162397202205,-13.788679862553632,63.348728793979866,0.7857877851204974,-0.8669083032583814,0.9562585358209607,0.1492636221591913,0.4564961229683671,0.1447182693596916,nm,0.0
32.88456392288208,9.230948489000966,-13.619370324668525,63.024059235345774,1.0942075743802173,-0.7051559252517493,0.986453703540719,0.2025886964404307,0.45080155697140234,0.09277498163040121,nm,0.0
32.88740801811218,16.652911039310066,-15.315541102108234,61.23291351169249,1.2465186874366398,-0.4871713423607266,0.5673588144274854,0.38403754203838897,0.2879900359518742,-0.03250686620769614,nm,0.0
32.89987015724182,20.068768938331925,-17.78502344018419,59.7304417280716,0.5941882611157363,-0.6747004410860494,0.25822681599607095,0.37627360963862994,0.13178887030069938,-0.06544909893703063,nm,0.0
32.90914225578308,21.03380033755,-18.92433530850672,58.97840854732225,0.2669849210825816,-0.6424338478702337,-0.10482940147985745,0.3023549114785171,0.04541964103596748,-0.09559407813989547,nm,0.0
32.93160009384155,21.997337492299888,-20.521597798806646,57.90109401790477,-0.22229037616335587,-0.4002669642922565,-0.18165518100059527,0.15610380124719764,-0.014684981665966424,-0.13972624824567273,nm,0.0
32.93957448005676,21.678629244253013,-20.925372865322647,57.327708717192756,-0.2951487381742281,-0.17436944700713586,-0.15375513079622477,0.049233396608456936,-0.08984459665420932,-0.18581727343057822,nm,0.0
32.94688153266907,21.043944394374673,-21.213966398765653,56.80927897359134,-0.14782343845232224,0.32503492453858157,-0.7668192368697484,-0.002850819411688618,-0.12735846244336263,-0.19931176787205576,nm,0.0
32.95731496810913,20.91533359354084,-21.529999531594875,56.32718815912684,-0.4268338618446394,0.44885827070775103,-0.13168573083082233,0.052579666390150936,-0.05131319401429767,-0.1348280301277091,nm,0.0
32.97919845581055,19.35186422879341,-22.219141985008566,55.71241641124227,-0.4378402484496004,0.8703634676868992,-0.4784160394887846,-0.018381793692039038,-0.1709358071799797,-0.14470624712814445,nm,0.0
32.9846293926239,18.860893819475827,-22.611003815590145,55.55758335757288,-0.7062244752396208,0.7784424298954796,-0.02443868832915263,0.02680454280038876,-0.11613537476378313,-0.09717531927878086,nm,0.0
32.993828773498535,18.063956855401294,-22.964439980104597,55.36519220890308,-0.7544080224240116,0.8182986896127794,-0.15690215523183795,-0.011697939869374433,-0.15829649800683554,-0.12086428514288709,nm,0.0
33.002333879470825,17.224615241794737,-23.21639202566318,55.19836938583056,-0.7474871902468193,0.8023863006363928,-0.3314528670039329,-0.03305660485724436,-0.1529504049620356,-0.12353891299042379,nm,0.0
33.0282986164093,15.372100185707438,-23.364007904185716,54.932629156022,-0.8527754342198095,0.5789810208206366,-0.12242432860509563,-0.10178197253224482,-0.1682824357974915,-0.12263543368711659,nm,0.0
33.03220891952515,14.013194239344076,-23.245424906686157,55.107878737634266,-0.7412020829800473,0.5341210110879767,-0.11052867970219343,-0.14885933355509268,-0.1888746248681996,-0.10274018354193971,nm,0.0
33.04245901107788,12.499809861514606,-22.96248465391148,55.49259383149096,-0.7127449816055502,0.49109364584776805,-0.0021431295489537346,-0.19143240152777782,-0.19466712629433858,-0.05698910585032727,nm,0.0
33.062668800354004,8.760053925037308,-22.190278796658333,56.89473561568974,-0.4449503390429923,0.5072599366622371,-0.117755985244206,-0.2476232288446822,-0.2481112421675588,0.02023393529846142,nm,0.0
33.071791887283325,6.874406688726146,-21.750205610280236,57.79415368434765,-0.4186256552090605,0.46712645001793945,-0.08698323899819875,-0.2493536202452896,-0.24493266380975384,0.05187223321819305,nm,0.0
33.094693183898926,3.2928116173041646,-20.866335174431605,59.45847958866844,-0.26044395575378043,0.2687179921961503,-0.25994526899318937,-0.221824527010252,-0.22476267222499602,0.05021323365209739,nm,0.0
33.09855628013611,1.830212379305122,-20.448131781906664,60.06959918658847,-0.1988093869277542,0.13650964459463305,-0.25723239502206874,-0.19643084403904718,-0.19231348144435903,0.038287612649673064,nm,0.0
33.12138557434082,-0.24861975090243785,-19.61052129492909,60.801053192755376,0.08759457946988236,-0.20892832115088464,-0.39876443584295446,-0.1365518094485554,-0.09744005599362804,0.0402506249755715,nm,0.0
33.12880778312683,-0.3300385863263079,-19.205432569647154,61.16944121204219,0.09102430157041815,-0.4125957999041216,-0.17820857365729334,-0.06423471224177846,0.02807614444160339,0.0952653659578656,nm,0.0
33.15061044692993,0.7210915454970084,-18.14821363648594,61.80625528494143,0.6124988869540622,-0.8348403530672013,0.04926733145359164,-0.029484516132431145,0.16917166955398394,0.14582413169989614,nm,0.0
33.17163848876953,4.818547728051046,-16.95329044395777,62.14200671761664,0.770293107734483,-0.8640543571911777,0.8296943220531605,0.11592879566216002,0.4335891196262061,0.2000617634916538,nm,0.0
33.17824411392212,6.9349716491633515,-16.588014626478834,61.826217247458665,1.1386799829321994,-0.7126406448970111,0.5851546681055192,0.14087167330660438,0.39499405237540786,0.12780264535141067,nm,0.0
33.20495581626892,10.911423871006406,-16.775412369771875,60.6463403488712,1.1333244350423097,-0.6268210804251074,0.7404681115408168,0.2237936654113013,0.2743657236892067,-0.02026659103243113,nm,0.0
33.2186233997345,13.11220102530525,-18.043038015023843,58.78655017129678,0.6728271048241741,-0.6459174947665097,0.42888929650534136,0.22447565592271124,0.08176369024803298,-0.11495891069828851,nm,0.0
33.222867250442505,13.438669300749144,-18.732267795224875,57.95437092447177,0.37449743035453764,-0.6375013426979047,0.18520999757156364,0.1633908974736908,-0.01690858608771064,-0.13373558004850464,nm,0.0
33.24612736701965,12.926529180300614,-19.600833593353173,57.02507320701121,-0.12040464666670578,-0.40596006073514024,-0.022616969922273515,0.024519545613571305,-0.09596569410493128,-0.11522071664657173,nm,0.0
33.25079131126404,12.231789150749103,-19.725918645988024,56.80484061294428,-0.2888823291931799,-0.21390324389785323,-0.04821951088026623,-0.03682574616618444,-0.12107489874260838,-0.12225642281477106,nm,0.0
33.27388596534729,10.413741910501534,-19.6833525453179,56.04280548486524,-0.2568827816386564,0.29018838593997115,-0.27174676215364013,-0.07691741493259965,-0.11165243992506331,-0.15698354538033063,nm,0.0
33.28973746299744,9.088627699008661,-19.664817733332576,54.49257079199657,-0.41344925108188313,0.655307170392145,-0.23802712763282607,-0.06610296139075977,-0.1255167630708675,-0.20922396513580355,nm,0.0
33.299333810806274,8.566662389726915,-19.77407624172901,53.66585937144108,-0.4379630633319605,0.7157215806109135,-0.2427086338765164,-0.02616670666788108,-0.09125909109289917,-0.18991149847728733,nm,0.0
33.32665252685547,7.853755969608642,-19.985491313790966,52.51852950012992,-0.5887837948897563,0.7257356041038893,-0.22708306886930668,-0.020010481438096254,-0.07512770988815817,-0.12379802190208486,nm,0.0
33.32881164550781,7.471655880162511,-20.003800413597144,52.21430905648016,-0.6052278244557828,0.7111484027535654,-0.24210438523455183,-0.027059954185538995,-0.05838251811217066,-0.07074355285528128,nm,0.0
33.3492476940155,6.4956924190316,-19.803024906359486,52.23555738066269,-0.5828300666779953,0.6655219815917056,-0.29238619443754643,-0.07270705141024494,-0.06882781264720385,0.006562254751556471,nm,0.0
33.35507369041443,5.890742541219214,-19.606789263580346,52.43347216366321,-0.54847126320077,0.6180303661787153,-0.21644825062689477,-0.0868561593568703,-0.0654673199601924,0.03705395342186179,nm,0.0
33.37591028213501,4.276891850386137,-18.997651549404143,53.116922097883986,-0.37921505280560636,0.5081875259444606,-0.19521569256006208,-0.1404725082881369,-0.09454664753822661,0.054039385704900904,nm,0.0
33.384735345840454,3.295548512856816,-18.643406084747202,53.72192250031659,-0.30351078362225775,0.4558947318998546,-0.15652483860883612,-0.15371938657378761,-0.10642510988983041,0.06336486822448055,nm,0.0
33.407294034957886,0.909838309963725,-17.81178843694113,55.25416082642269,-0.15890470618721192,0.2947871094873337,-0.2014268410982394,-0.19527382216341052,-0.1458354035458125,0.08084380162326098,nm,0.0
33.41326546669006,-0.4098654938273917,-17.3556181234544,56.080640440210274,-0.1293603977452178,0.16852392612446285,-0.21648687553955656,-0.2033675476596357,-0.15563964560310087,0.095250033410614,nm,0.0
33.43280291557312,-3.007498656760949,-16.279085347445985,57.64152673959745,0.04846745983110676,-0.12963788887694536,-0.4214568582454689,-0.21122287554703478,-0.13808605212992928,0.10594112933062359,nm,0.0
33.441707372665405,-3.655087937855779,-15.676403875282858,58.24336121432731,-0.1044412470681508,-0.2978153764490617,-0.14391245972944794,-0.15425426393489336,-0.040362179615916226,0.12460408870564399,nm,0.0
33.49408292770386,-3.1515000305818868,-13.664924950342671,59.00246731598569,0.3915389519539593,-0.848642595243798,0.5305059810025813,0.01577378730747011,0.2678109448319185,0.10346986387695623,nm,0.0
33.49626445770264,0.21399193727351623,-12.868419677052211,58.40952620776863,1.0069520075895595,-0.7174163382233297,0.6225697525458295,0.14885472588402607,0.3221829054778685,0.041447843712729866,nm,0.0
33.49923801422119,2.5322000526092903,-12.91961085535472,57.81254140816964,1.0319272394074022,-0.6454908476372515,0.9133820109701051,0.26258236477072067,0.37939713911614914,0.037372692852129984,nm,0.0
