timestamp,roll,pitch,yaw,acc_x,acc_y,acc_z,gyro_x,gyro_y,gyro_z,markers,motor_input
8.006455659866333,11.647942866957438,-20.803975540801915,83.87245872990943,-0.5466475979033957,0.38207928904197086,-0.5720044511723956,-0.24660300929874546,-0.29544615855751716,0.09183283450498718,nm,0.0
8.011271715164185,9.800211869481974,-19.570272720651964,85.10242405150254,-0.41792781411766317,0.37244862955589747,-0.515817999755591,-0.2680927969945942,-0.3135900316912786,0.11038682898381189,nm,0.0
8.035956144332886,6.252644027674497,-16.94010202757601,87.1506364849262,-0.12974849767234836,0.12794182596659168,-0.39835400459265435,-0.2732978007099022,-0.3052259007443522,0.07516396985566605,nm,0.0
8.040057897567749,4.750760807736903,-15.563643744274358,87.7864836185092,0.11405461542280701,-0.10947341184513726,-0.3603148090780702,-0.276864460963989,-0.2679501595495649,0.03937554647857522,nm,0.0
8.063531398773193,3.4161138895384893,-12.605169444162993,88.29685298085569,0.4577854802356104,-0.9362458219143839,0.6854496632954533,-0.2961519483885542,-0.07791247809567585,-5.0616883751677285e-05,nm,0.0
8.068896055221558,3.0054050772837337,-10.963711921093786,88.2369345441519,1.114689282280008,-1.0567065633760364,0.5891343800570648,-0.3196422029859073,-0.06253136657342802,-0.03290647105662123,nm,0.0
8.096510410308838,4.139881868274723,-7.816470876184753,87.63543142194989,1.3373114122467153,-1.0097516207044668,1.741978408854158,-0.2816316435907886,0.13401483461688052,-0.02966774031855745,nm,0.0
8.099437952041626,4.387629444373665,-6.7653740691035535,87.21528086485296,1.5515683936605051,-0.6511443881239539,1.4691088596551638,-0.19666224990931222,0.06638949452202954,-0.053193758538550975,nm,0.0
8.121044158935547,4.955384612784708,-6.810592794407853,86.51862762625386,1.0902430246231438,-0.180611026809297,1.2225271505258821,0.0962364393247269,0.04104815601466009,-0.02911119232838188,nm,0.0
8.136438846588135,5.586223518885017,-9.629498422014585,86.45368314375766,0.33105324176440853,-0.2876731842682961,0.8165596403077335,0.34936752850605823,0.06056182601583148,0.042838651264884994,nm,0.0
8.146631956100464,6.013107717026875,-11.513927190543438,86.54661462447719,0.08111271379051387,-0.4558309441954931,0.33188515751535125,0.3930468661209526,0.06831769230077007,0.05094665845963373,nm,0.0
8.168403387069702,7.781196458615333,-15.021306665562255,86.15958891953491,-0.19762495108942915,-0.41751420927007,-0.3991197535380222,0.3533477565018628,0.19626529477380647,-0.00624563474524277,nm,0.0
8.175658464431763,9.67093771126088,-16.38875747045043,85.40604130785985,-0.4252429478859802,-0.25108368878422527,-0.30136264940288365,0.3113044997293987,0.3509407383565311,-0.02288776192616612,nm,0.0
8.195064067840576,13.962731178409488,-18.49169847726699,83.19619767598435,-0.32804024825155265,0.43619883858328223,-0.4449475757236148,0.25084776438631057,0.40440486650517105,-0.05877147863827521,nm,0.0
8.201510906219482,16.362910280034633,-19.40785174201791,82.20281425568766,-0.3484665082099022,0.6070565908737031,-0.2607302832003026,0.25110573167198763,0.435421915022379,-0.008872271586440234,nm,0.0
8.223640441894531,20.33136199570074,-21.47107199832933,81.05105094025184,-0.3218961302339333,0.7269015095250149,-0.39588687058191013,0.27822304755893906,0.3190250990943989,0.0664207483267169,nm,0.0
8.253410339355469,23.086346377761352,-23.58443949591044,80.57856560666633,-0.5081215720618938,0.42534690976324646,-0.518691139551459,0.24204912207710588,0.1873977601807988,0.04087927196048927,nm,0.0
8.254992485046387,23.957419302472182,-24.333272167726083,80.16444498413085,-0.6055320410949334,0.28866957548321004,-0.563563733082622,0.18448731015234268,0.14102839092318745,-0.017408094377123866,nm,0.0
8.272578477859497,24.45331432596915,-24.68579022159806,79.0449875701627,-0.7058400294563836,0.23529412978190517,-0.6195779813550852,0.004952369933041225,0.008479798373522958,-0.15860944627014917,nm,0.0
8.282130479812622,23.929362810115247,-24.346563441713286,78.47810176358996,-0.6994426951353813,0.27696111976840093,-0.5790475402329163,-0.07487714016054892,-0.0718109830653909,-0.1856846015743789,nm,0.0
8.286972045898438,22.796950126532376,-23.78710007315662,78.22664210696071,-0.6732384509804705,0.3642548909544875,-0.4973498548558583,-0.14088191417268472,-0.17183872471501987,-0.1705073678351708,nm,0.0
8.308838844299316,18.848759819992278,-22.189909944467434,79.67128212773558,-0.6756398034274687,0.43542213510617156,-0.486379109394863,-0.23517622170766483,-0.35933851239829057,-0.03036339710274465,nm,0.0
8.316454887390137,16.3649944428263,-21.186965686353183,81.06744461218247,-0.6852791260736669,0.3905498237307991,-0.4780062915942964,-0.26357048898674773,-0.414333019282679,0.04567899134694843,nm,0.0
8.325467109680176,13.806395987918462,-19.99883387094197,82.66660500960589,-0.6539128817213167,0.30046084856698624,-0.5029623392578082,-0.2915520492682705,-0.43343168926408543,0.09292300046539058,nm,0.0
8.35001802444458,9.179200033212869,-17.00541417126193,85.34221505081803,-0.3553407537717465,-0.04162530929360272,-0.46054572316515613,-0.3435579353696029,-0.37914212553731386,0.07406155910430205,nm,0.0
8.353927850723267,7.368675632801309,-15.26178054572165,86.12008262234619,-0.08331461878400458,-0.2541977321863704,-0.2779447947101715,-0.3626688765963883,-0.31344605137394305,0.03551653028104722,nm,0.0
8.376222133636475,5.521541666834134,-11.40089197268162,86.72326328110447,0.5022650946696731,-0.7355734865388044,0.4280763015195292,-0.3888593829000227,-0.06648218843044787,0.017448939487433472,nm,0.0
8.38243055343628,5.383872240717054,-9.43781891910747,86.74147703143028,0.6731219338551913,-0.9854417981339915,1.3329844226224232,-0.3827063930709364,0.0033710422925916977,0.014744461768532635,nm,0.0
8.401018857955933,5.925308226531666,-6.259736431594535,86.53798024217275,1.2716337547072538,-0.7886548203173542,1.6813018286254529,-0.25571193590002966,0.17015520848383467,0.025659341203157018,nm,0.0
8.411980390548706,6.610974734969281,-5.502327589937737,86.39271808999214,1.2080118122707966,-0.48686355232396406,1.7282171500330266,-0.13163664402230468,0.15309145254442758,0.0019074920378083142,nm,0.0
8.436031103134155,8.379712974219082,-6.4858257271132285,85.83768702757345,0.8767786917564827,-0.1748883280971952,1.3482763214036344,0.21419746837007012,0.23063809332061747,-0.03000544629640462,nm,0.0
8.439491987228394,9.57093776883155,-8.023457267226709,85.5227197128487,0.6633917656852514,-0.25690443926673695,0.9390031255957773,0.3357825843377423,0.22021431191580387,-0.03867406633127597,nm,0.0
8.461671352386475,13.093274700094845,-11.656613299506704,84.88560859816492,0.15616311301465136,-0.5658582823196617,0.35169869467379844,0.4089419006325951,0.3700216067713344,0.005829789039371411,nm,0.0
8.46882939338684,15.057355081914897,-13.239972172699014,84.238725898886,0.04848085608462189,-0.5465751123379866,0.14102633024381586,0.3633969401745745,0.359326135033719,0.009547545239624873,nm,0.0
8.505228281021118,21.461365117194887,-16.465979039395503,82.89721736693704,-0.2050568156526742,0.13440519509448734,-0.22578988531272431,0.24793544352375968,0.4061928331723675,0.04419541297895214,nm,0.0
8.506760835647583,23.17454841423819,-17.39986165464558,82.47945940143003,-0.22088578113951501,0.43477538305386504,-0.5493776432179279,0.23712330276740917,0.31011093084190294,0.028388670492403296,nm,0.0
8.522701263427734,24.82961141751686,-18.421891369160676,82.18024252649643,-0.34396632346157496,0.5203982477263261,-0.49718803274601686,0.25445328641383924,0.2938841642782163,0.043906764243987276,nm,0.0
8.525870561599731,26.175829647277393,-19.522819206139232,81.91352913571207,-0.4716648056055878,0.5312973956690573,-0.5039961603773373,0.2629591986683198,0.23083090377650625,0.03453003740572101,nm,0.0
8.547430038452148,27.989492904738302,-21.522820240283234,81.41534966323073,-0.6824397287724095,0.4386879169001922,-0.5919897899519472,0.2147574740698987,0.1337796573397598,-0.007796696434926989,nm,0.0
8.553508758544922,28.437331044923518,-22.193676289221703,81.11483399678326,-0.7776777153345784,0.43295227278534637,-0.6592779776437363,0.15448728954960123,0.07123112381035158,-0.04864531493381972,nm,0.0
8.562846899032593,28.496870610444645,-22.576567840491453,80.82034632701749,-0.8154696653679404,0.46282222897736064,-0.6916496140551864,0.08661473462635591,0.008205781181585867,-0.0860312625458861,nm,0.0
8.573207139968872,28.17766711855083,-22.68538174545424,80.63678602486695,-0.8370374557046176,0.4807060353497129,-0.6499181733252121,0.021350280928302278,-0.052484796429145844,-0.10585925581353338,nm,0.0
8.596150159835815,26.0564107289401,-22.28349102729847,80.86656211169431,-0.8154225299696041,0.5113402853348145,-0.5436598235356824,-0.08602021981958871,-0.22227738988547538,-0.10856157066565664,nm,0.0
8.602372646331787,24.319610160370907,-21.856111657933564,81.15349865013287,-0.8073892427324232,0.4933155026602902,-0.5018428937160585,-0.12505440263005976,-0.2960509283102588,-0.0845304958497047,nm,0.0
8.62517762184143,20.02052315980513,-20.565874239706815,82.31995991017601,-0.752794247681776,0.3567846063449867,-0.5004702047586069,-0.19207702334773852,-0.38454293729534506,-0.027502890493345596,nm,0.0
8.63020920753479,17.7602014390052,-19.651511439814772,83.27652755203916,-0.665583790968177,0.2457658351502358,-0.46528123181808734,-0.22386722501884154,-0.39049637076026217,-0.008898902549218978,nm,0.0
8.652166843414307,13.621756940843769,-17.266283576819223,85.16657461526812,-0.26645813493734266,-0.06721058282365136,-0.31613682398252674,-0.2779838271416694,-0.3406188302207786,-0.0015317221691040486,nm,0.0
8.660608530044556,11.980662283830746,-15.833815919195048,85.91670100107915,0.051671339031343334,-0.28088802779431565,-0.04751176598493491,-0.2991721670690684,-0.2839843015810392,0.00598736808406077,nm,0.0
8.677704811096191,10.343427491485969,-12.661264457619556,87.08844412791795,0.7457386908778597,-0.6924397737420769,0.628344101270243,-0.31858183427562364,-0.06404655695175254,0.07532879493124224,nm,0.0
8.687621355056763,10.649096544343276,-11.059156656747641,87.6357415072464,0.81385221951729,-0.9384539447066857,1.7671145825978298,-0.30713567650066903,0.08279519708925015,0.11665200863281676,nm,0.0
8.708811044692993,11.373905432890698,-8.918950648461484,88.29031807629755,1.3043736308411793,-0.3035225556766488,1.3052415676085738,-0.1503324976913964,0.1402510108680156,0.0900259320432282,nm,0.0
8.717232704162598,12.532403251573678,-8.565294877528896,88.32648733716924,1.1407356398446693,-0.07586701345311417,1.3186222313551483,-0.053182032335756996,0.23956182454236247,0.09683503313277494,nm,0.0
8.739475965499878,15.61313236642317,-10.87542554809783,88.0754387756387,0.9643421432903658,-0.04771930602121137,1.0091005256876844,0.363712969650563,0.3606543096063284,0.04950287146338026,nm,0.0
8.744947910308838,17.49112133074369,-12.952457853200944,87.77540705408603,0.7511948381116162,-0.4329364193481819,0.8662305617449232,0.4389082580905957,0.3609078812733234,0.03471824040914677,nm,0.0
8.76984715461731,21.278273842555592,-17.260454562660325,86.70562079407304,0.27241685086278594,-1.1183945943076634,0.04566084130504584,0.4650240311497036,0.3700418567157941,-0.026726460902821228,nm,0.0
8.780544757843018,23.102468463889004,-18.94607899943371,85.93052944059143,0.1615052262263437,-1.0652718975543107,-0.2278888273243692,0.3682342782527505,0.3341269555155776,-0.0478227490522111,nm,0.0
8.782684564590454,24.71174387144413,-19.85793121231097,85.29335964853237,0.024378315539277575,-0.8827974832077676,-0.47305302467004495,0.2142956817502879,0.29849120645226035,-0.026751696021716197,nm,0.0
8.805924415588379,26.886992972198534,-20.796927062417733,84.73221808494621,-0.04286163150778972,0.15959872657550317,-0.6027371074632321,0.10722530533390567,0.17877983340979042,0.008921990738001984,nm,0.0
8.812056064605713,27.545062948048088,-21.17172860838566,84.89909893748262,-0.18568232845016666,0.49145857893662126,-0.36750973898784517,0.09436653731247775,0.12551270058687825,0.051747068899382305,nm,0.0
8.83190107345581,27.538074195505402,-22.612819155981413,85.4885880598345,-0.5098397568680564,0.8975384454316786,-0.43745581929617744,0.18091795104356845,-0.026374435732920417,0.00782244703832257,nm,0.0
8.838907957077026,27.299780506912054,-23.52104133481793,85.65428641571471,-0.6683846229457258,0.8045711882913283,-0.33942091425507365,0.18658106264749874,-0.04746229131319948,-0.0319144151562405,nm,0.0
8.858206272125244,26.72925952723613,-24.824385085896516,85.08550724381169,-0.9263193318553494,0.6086080514998896,-0.5823919377677258,0.11845449545456295,-0.038122655870241474,-0.16037844980681676,nm,0.0
8.869398355484009,26.625872967161495,-25.103989287971153,84.37853799372421,-0.9632995587014805,0.517548573257869,-0.49875048481470313,0.06298869838132141,-0.013762832521965402,-0.20783901528793794,nm,0.0
8.891655683517456,25.99060288295356,-24.71445469311658,82.84824456817138,-0.9683685591546942,0.4163526831599966,-0.5041126553107513,-0.05948603323501656,-0.05934398941143955,-0.2230731209215174,nm,0.0
8.896615266799927,25.19486984081976,-24.330158119636703,82.4494361854493,-0.9540928588101589,0.37927088148854154,-0.4705409073137318,-0.08517857764126809,-0.1246391075705276,-0.1922243953825239,nm,0.0
8.91476583480835,22.26489077961953,-23.17389319662958,82.93681905987862,-0.9674057861338711,0.2554462505725943,-0.6261579033337173,-0.15900134140478342,-0.2771222602863087,-0.05126486940115902,nm,0.0
8.924250602722168,20.366200189391666,-22.325874956800018,83.84157555431365,-0.9086661292392993,0.15883576595327575,-0.5466828902335756,-0.1991048600226506,-0.3195844324855872,0.028901194893697062,nm,0.0
8.944376468658447,16.370435960600037,-19.56523735866109,86.83943875791586,-0.6160701513444735,0.07187814706612564,-0.5395729023656172,-0.32803038305539406,-0.3373415418621597,0.12933415597718143,nm,0.0
8.955731391906738,14.674605259337763,-17.770650259476827,88.2461300092063,-0.36357670208113635,0.018218908535819485,-0.4465641823077437,-0.36235776964803357,-0.2974184879186597,0.13493343222887588,nm,0.0
8.96240520477295,13.340765262457277,-15.867070972468728,89.29036695702439,-0.03813551311427381,-0.07959706894811125,-0.18560564491336332,-0.37646572462484357,-0.23850855527537093,0.11719929091140217,nm,0.0
8.976237535476685,12.438835916705585,-13.921001847255923,90.02934041552042,0.3927492668651632,-0.22239977888037113,0.07143119133124905,-0.3806696793039611,-0.16332754022608847,0.09163355262980855,nm,0.0
8.990829944610596,13.070885726498398,-10.344115797279372,90.49802057795715,1.1881482648935686,-0.8319181724562807,1.4983581468297795,-0.3299601616772256,0.1374207538477538,0.05578285540193009,nm,0.0
