timestamp,roll,pitch,yaw,acc_x,acc_y,acc_z,gyro_x,gyro_y,gyro_z,markers,motor_input
10.00066351890564,20.575828601676314,-21.723818704836926,82.02935088572211,-0.19744326387058603,0.056309970058368894,-0.3013493542542267,0.369304582117848,0.4408858779270482,-0.009908733196032011,nm,0.0
10.018893480300903,25.469639373278778,-24.523603785404905,80.3193357043222,-0.34751781437351126,0.048615093055288966,-0.3586022607594633,0.3494852761174019,0.36517443345357975,0.062447816855701464,nm,0.0
10.028682231903076,27.29003942946315,-25.717234084367316,80.00777591020116,-0.43692640478118605,0.1434775222987888,-0.5709288781831313,0.30167269603271885,0.29342342374921293,0.10927912740204009,nm,0.0
10.037903308868408,28.806376068453574,-26.649916821380288,80.04929423139023,-0.6131808244419727,0.16276430188821783,-0.5682056310316885,0.24056134978659352,0.24545351700518278,0.1512846779177056,nm,0.0
10.061617612838745,30.538155398142067,-27.720184294855546,80.06400412649852,-0.7546033557358625,0.4920597161728119,-0.6745961434799073,0.10792172175049365,0.12434768045064104,0.1009527918010391,nm,0.0
10.065701484680176,30.95464498986378,-27.75141496389671,80.28213552250952,-0.7855701004206891,0.5362875700296008,-0.5427343276562002,0.02762672466949238,0.08159829652790532,0.05373260488639483,nm,0.0
10.087984085083008,30.54109199686739,-27.1748803900018,80.45872224724573,-0.7643868873729392,0.6811314868245905,-0.5892684014468004,-0.07282657979783382,-0.044639357489341516,-0.06606042639040562,nm,0.0
10.094458818435669,29.693566595230397,-26.68973200111968,80.69842513187304,-0.7250646548545562,0.5908382294965085,-0.5301156598232671,-0.11121764369477422,-0.1238733030277328,-0.08978102615789976,nm,0.0
10.116148710250854,26.486612091581314,-25.452173703961037,81.97871347918968,-0.6773524442285227,0.36486033793293804,-0.560503170159258,-0.16767989962667978,-0.29588536483411343,-0.06657495211665208,nm,0.0
10.12310242652893,24.269742411191334,-24.649390878495847,82.98263301524418,-0.6493586999729439,0.25153514468294114,-0.5644630736467944,-0.20171564580692167,-0.36855372565637384,-0.03786106887188527,nm,0.0
10.142207860946655,19.257783812725034,-22.424106150703114,85.44271796339453,-0.5375987300018703,0.09291500844221454,-0.5120635226694524,-0.27391727206740596,-0.4393346874664808,-0.005042728414136992,nm,0.0
10.15170693397522,16.702919725270768,-21.011494111727956,86.40525867425362,-0.38972082402733216,0.07499265754548391,-0.4753061609180616,-0.3055615121980964,-0.44495147622831616,-0.01644800953451717,nm,0.0
10.175343990325928,12.102293646888265,-17.825659488007037,87.85693437170988,0.003488361311906224,-0.06334897911876247,-0.2496477581710221,-0.33046071551856554,-0.3950247297778551,-0.05355826022865075,nm,0.0
10.181665658950806,10.121267950909392,-16.25465245373657,88.28853721614621,0.2423968550490512,-0.2142487370786413,0.01470255544397132,-0.3160272375330633,-0.36019766400614656,-0.0679050865690703,nm,0.0
10.204210042953491,7.415258384990541,-13.461145691473696,88.75245681007128,0.45639260813361093,-0.8027009918253782,1.0679924917206962,-0.256088072946905,-0.20253320034642866,-0.023036627088302265,nm,0.0
10.208383321762085,6.138722021661416,-12.491742392164136,89.00513100731223,0.790420220205455,-0.904594146607904,1.061054425302729,-0.1880081494428019,-0.2368745339220681,-0.015096070961993445,nm,0.0
10.232841491699219,5.719027609396437,-11.80804103842494,89.69197906030885,0.706709351681121,-0.7252922481153572,1.1799761937419924,-0.018645360564341355,0.04311198268524782,0.10872973511391529,nm,0.0
10.236818075180054,6.371554325064366,-11.993513271148405,90.05221551573914,0.7795565845464731,-0.45454363669093767,0.9362616964786815,0.04835301698098196,0.13625824748167792,0.13523666438871662,nm,0.0
10.258342504501343,10.645433345657512,-13.812793564621385,90.39338846063022,0.4806029377005801,-0.17336161351710808,0.8457069162571808,0.24168997569817174,0.49465228835008807,0.17902547621507786,nm,0.0
10.264801502227783,13.57885143282981,-15.31662818935741,90.23677725666354,0.5453667566516732,-0.17197920828399513,0.6361576086469037,0.30904325757174544,0.5786425405711192,0.164123286984167,nm,0.0
10.287477731704712,20.356037790556318,-18.74147750334962,89.26993682160912,0.5055865920378407,-0.26843792617591405,0.2315030896928409,0.35843934127591226,0.6483741720304025,0.1195947928740867,nm,0.0
10.298139095306396,23.562110580072776,-20.253456453991134,88.58170020724127,0.4915368636158943,-0.2522164902713994,-0.0557967286779667,0.32331787491228037,0.60889627670931,0.09826270947741716,nm,0.0
10.316658020019531,28.731934117849608,-22.631064076285295,87.29187258765357,0.2620139431532478,-0.04413079469335557,-0.4237234616269633,0.2440309679756532,0.4224752625183813,0.041396100238053055,nm,0.0
10.323549747467041,30.397265781774284,-23.513494955760084,86.76658887406478,0.09753104766400922,0.10075094577204048,-0.5210198000347308,0.2001794605515227,0.30759622227711475,0.019243340050844427,nm,0.0
10.345982313156128,31.65357581365744,-24.76469675551167,86.30461203043009,-0.22955308187285478,0.2100137748453181,-0.343534690733812,0.12086453403168122,0.04297047100784376,-0.055770483753933724,nm,0.0
10.353018283843994,30.989824778795864,-25.141859708250465,86.29509113688682,-0.3636252774733982,0.5768766317419866,-0.8648863864493355,0.07572376822981818,-0.11441978408231031,-0.12023905765326899,nm,0.0
10.374834060668945,29.48153050964905,-25.446296810411166,86.361562918034,-0.7658918101976075,0.36810504093340635,-0.21108632205630914,0.011911459811349692,-0.16946187575876145,-0.14818588146784192,nm,0.0
10.378547191619873,27.77005085865788,-25.345002048823734,86.30285820486198,-0.8876319850672486,0.6337072566805685,-0.655387546631252,-0.03089714113323022,-0.2974035327038277,-0.22169791699810354,nm,0.0
10.399140357971191,24.43835143894908,-24.735646285384885,86.55570977896011,-1.1456133738393053,0.442539339610288,-0.33536809862804007,-0.08385066323270665,-0.31224412375823707,-0.19865660216579362,nm,0.0
10.407896995544434,22.25506344495783,-24.260268221804658,86.85836540419933,-1.1309880081866779,0.527962054847341,-0.5969310454422025,-0.10757827115085687,-0.38208028044081904,-0.1926236148326177,nm,0.0
10.432217359542847,18.010909434310452,-22.930055757906175,88.32140324405663,-1.1384053990875722,0.3020076170955861,-0.4662217018008456,-0.1526672455151429,-0.3896133816903466,-0.06736001266722084,nm,0.0
10.437371492385864,15.697538215938062,-22.030783506659372,89.28276443298778,-0.9691435835058865,0.2939195665908914,-0.6963154951103256,-0.17873299103607304,-0.41467160358383776,-0.01829212301732832,nm,0.0
10.467305183410645,11.60903284227197,-19.697348489457102,91.27279286254321,-0.5968555221034386,0.02951972700515728,-0.6265501607240221,-0.23878127288778409,-0.3773151204370496,0.06885070853187084,nm,0.0
10.475951910018921,8.299638955771613,-16.586306922518343,93.0468298040837,-0.03008023201764757,-0.2980855720730896,-0.4163598329908055,-0.30653065151382863,-0.283239327197313,0.10239206205985418,nm,0.0
10.489654541015625,7.146145413349336,-14.749299631419838,93.78721701947835,0.36481184474616457,-0.4456974331803028,-0.37798916275690114,-0.34407618872964524,-0.23416473770001264,0.09942794394594891,nm,0.0
10.49347448348999,6.645718512089912,-12.76555826431323,94.46263720334339,0.5919606109342087,-0.8480877868126686,0.5378132087345596,-0.3791989008265587,-0.11622400902350602,0.106857954281179,nm,0.0
10.515921354293823,6.13185597632758,-8.691746982401138,94.84407511026905,1.5342639711893489,-1.0526190674715858,1.2702916731592357,-0.38862663300790334,-0.027926201305982053,0.04052867958224214,nm,0.0
10.522275924682617,6.58124242039101,-6.966786715255833,94.73312210337859,1.5260328858603758,-0.9221510606047935,1.928608515087364,-0.34159145141646935,0.06927071495386221,0.004034600523701348,nm,0.0
10.531744718551636,6.722047983716451,-5.788998243450917,94.35630923541625,1.58549333368718,-0.4762400068097389,1.8212773834198088,-0.22726718853744424,0.018198961526459636,-0.06263347905969399,nm,0.0
10.543401002883911,6.918569642744786,-5.512846835873749,93.88358211307346,1.4464812564998504,-0.06915902113203101,1.7299789692993235,-0.04787665736991272,0.04377319588751344,-0.09639287728218508,nm,0.0
10.549853801727295,7.377945714864587,-6.419646055415754,93.31564102098744,1.00673143889451,0.25925757067508787,1.4965279789424049,0.18565110856895306,0.11127050366006405,-0.09467795852634844,nm,0.0
10.575175285339355,8.75409741385635,-10.71468582993135,92.61743660397852,0.4279567713676626,0.13548144319903288,0.9418877468208894,0.4919014732455004,0.19857992202629188,-0.008104432563847174,nm,0.0
10.578923225402832,9.987667848919937,-13.568986643578363,92.34373255629723,0.09787872864556753,-0.23211738720282174,0.6846413061844498,0.5708080887075524,0.2744666441144813,0.024085618974510673,nm,0.0
10.590879917144775,11.457566567477874,-16.579351606952077,91.88293500898065,0.07489968491301273,-0.40185434501542355,-0.0711758376052436,0.6019229037215139,0.3152198663806004,-0.0005125847441722037,nm,0.0
10.613131046295166,16.941200831959605,-21.76234469143859,89.38524477444409,-0.368185111977745,-0.7722248174890852,-0.19180408257777978,0.47892637035518265,0.5636482505773117,-0.06780141984204041,nm,0.0
10.622806787490845,19.86934363604567,-23.52004487750422,87.34747971453126,-0.2784958699398983,-0.38261661689484977,-0.6920895895801874,0.3774818463092995,0.5400459220075,-0.1482095713720077,nm,0.0
10.646975040435791,25.914112111067084,-25.574001486048527,83.20005623310328,-0.15483636964514175,0.2205839805495303,-0.4193798376562532,0.2266512460329755,0.4942857416491125,-0.13476999279463067,nm,0.0
10.664868593215942,29.607239288342498,-27.240738619176998,80.68745472032067,-0.24271366873283717,0.7361590733755318,-0.4712509833175664,0.23256511852367495,0.26111313753870036,-0.06364511271107247,nm,0.0
10.673977136611938,30.34480341604667,-28.276731370500556,80.01442695360062,-0.4008178525792273,0.7529120868622785,-0.557361488160706,0.23550870439978025,0.1039331638833984,-0.07130451464764388,nm,0.0
10.675855159759521,30.463961651109752,-29.29042760761514,79.6303965393577,-0.6010714644705151,0.6016480788924609,-0.648305556509752,0.2126616932366058,-0.005101293650972789,-0.10177547860593729,nm,0.0
10.697286605834961,29.309941463694617,-30.467276602327654,78.50990754811589,-0.9510231019369935,0.24709005938632023,-0.7860005777008285,0.057176323657761416,-0.1435880886817462,-0.25103462613551264,nm,0.0
10.704124212265015,28.176053992540787,-30.358671578110602,77.7887527567238,-1.027743365314867,0.1637027347525721,-0.8007162993264061,-0.051304298625999493,-0.17781129840230372,-0.30530475135073165,nm,0.0
10.730809450149536,24.620148215026084,-29.033900394545025,76.90957694411529,-1.0208761518151495,0.23404678127316528,-0.634242745034305,-0.22638920631540885,-0.3040733563399341,-0.2882107108180693,nm,0.0
10.732351779937744,22.099636634760643,-28.039043646873978,77.38964852500062,-0.9757954999690704,0.35292948304331034,-0.5403063839769384,-0.2814607911007674,-0.3798129742475599,-0.18378460007229389,nm,0.0
10.756337642669678,16.075186380032136,-25.566890134062216,81.12917213681791,-0.9205254871652512,0.488981381605235,-0.4936941660628287,-0.34459274800350437,-0.5003713087193271,0.09699303604009693,nm,0.0
10.761184930801392,13.132091829831959,-24.092014359481187,83.66664207616554,-0.821880780957197,0.3834392232356454,-0.5102958148825695,-0.3514323497329563,-0.4831852148987612,0.206985839930193,nm,0.0
10.784253120422363,8.657492262391134,-20.737417611033585,88.0900782586372,-0.36624624677777573,-0.1650565900147938,-0.4549480149712232,-0.35503989932399016,-0.34092903895058296,0.23210974587475258,nm,0.0
10.7885422706604,7.421206008875268,-18.87747635575698,89.4727489551093,-0.0109802858312869,-0.5239743124174906,-0.22915891369238833,-0.3666019278142889,-0.2159304330838067,0.18919014760577652,nm,0.0
10.814116954803467,7.162093939981417,-14.667313706598204,90.71321529628642,0.5417176797013388,-1.0928627213540483,0.756055156345771,-0.4263698467022537,0.05505249869217411,0.13299088465512546,nm,0.0
10.823073387145996,7.19196459476873,-12.387483693284384,91.04857341476595,0.9360805864981946,-0.9922903273536439,0.9926654994279781,-0.446071239622227,0.008267556486983478,0.09723129707776526,nm,0.0
10.830465316772461,7.26976033563852,-10.212601397283375,91.56759750710276,1.2972114914489086,-0.6780895675116271,0.7960417036218606,-0.4253366292902084,0.014342670118451232,0.1173315345153855,nm,0.0
10.8510262966156,7.559365195830885,-7.28534382470995,92.87575723355663,1.1156459278830364,-0.0038298969067308065,1.0492989834505486,-0.22035367259397953,-0.028468972179751622,0.15694417345992934,nm,0.0
10.855053424835205,7.4401276422468925,-6.859164491370138,93.55674764547038,0.9683110793016113,0.292244080426257,0.74381906685426,-0.07382843125445958,-0.019600617092962777,0.14798201468853225,nm,0.0
10.878498554229736,7.817596319241063,-8.33830329773375,93.75323136879841,0.42980270376315544,0.2639922151318527,0.503935999309476,0.22812939995954531,0.05986804366254264,0.022278477500573917,nm,0.0
10.883080959320068,8.354844212074967,-9.921443287129854,93.29328301588693,0.24014828989865292,0.06245135323653222,0.42456337492219626,0.3199264831022095,0.13434348318375128,-0.0670759813651881,nm,0.0
10.91176962852478,10.110123921357474,-13.46035594654424,91.10436872967824,0.04008252179621543,-0.3477974642377807,0.10902874401157203,0.3584273150383553,0.20130811482597652,-0.20191002997965554,nm,0.0
10.914764642715454,11.102027302574378,-15.052695791942572,89.76154933091905,0.10730123510987155,-0.33347865500208174,-0.31136664697607913,0.32776291535419766,0.2035500779406458,-0.2022508085160021,nm,0.0
10.938658237457275,13.793062788107436,-17.457776700603194,87.96202512048413,-0.1386863539031024,-0.2664309354643926,-0.23452477440289834,0.23251870059814764,0.2517271152126195,-0.04682402627743636,nm,0.0
10.941562414169312,14.639773343939485,-18.312332211410784,87.60060784737398,-0.11288075421046166,-0.019720329464768916,-0.45953378236355896,0.1875180738922566,0.16341605239376977,0.004934697722563594,nm,0.0
10.965843915939331,15.973367293043076,-19.749129043453816,87.32216445617183,-0.3785952026519314,0.23149034645192923,-0.3333740787126322,0.15578183142801136,0.10530712309168143,0.04829251233336018,nm,0.0
10.97096562385559,16.18468885778156,-20.399138070516088,87.21537307738139,-0.4068199484708047,0.371090697743487,-0.4084677126814111,0.14186047808452137,0.042713329453055594,-0.0048236373772750285,nm,0.0
10.992594003677368,16.215820135015548,-21.414211189427686,86.26503227029367,-0.538751410673748,0.41155232689521093,-0.38458013362438304,0.10174544950256138,-0.013357123067919904,-0.11793022951072958,nm,0.0
10.997637510299683,15.850552327431009,-21.798128779002255,85.66664841766675,-0.5439369625027451,0.424556714574742,-0.4438898063382418,0.08217975544913096,-0.06413782463942269,-0.15986518379945708,nm,0.0
