timestamp,roll,pitch,yaw,acc_x,acc_y,acc_z,gyro_x,gyro_y,gyro_z,markers,motor_input
7.512997388839722,14.955946467498482,-10.366010030084654,87.41449085989755,0.27724483277834616,0.08729131932838803,0.4224475762724332,0.5239691769794012,0.10263332979921852,0.013691699859997849,nm,0.0
7.517731666564941,15.142062039938983,-12.952799873711218,87.23243205064068,0.011050224573670425,-0.35010446569135273,0.26873823135736663,0.5291529921049876,0.020769620836640933,-0.03485415291552779,nm,0.0
7.542071104049683,16.559345341026194,-17.43666080221714,85.78128968975328,-0.46998478984782543,-0.5357225017749612,-0.2369281337134294,0.43092055557583736,0.2127259265943561,-0.14279939380953782,nm,0.0
7.548022747039795,17.914000094429685,-18.6901040053876,84.39591751391575,-0.6630592741714669,-0.380977136565727,-0.522390784550424,0.28220474129797146,0.24424860030999848,-0.20589873080521245,nm,0.0
7.569831848144531,21.36814777411509,-19.77721191341065,81.28240755920686,-0.6222220230170513,0.2565794850933559,-0.4430496437024936,0.13848641756608948,0.3586658922555357,-0.19028044400776176,nm,0.0
7.575281381607056,22.82494545790609,-19.823943117329907,80.11156177150507,-0.5325752162305754,0.5819375603381417,-0.43146569296304876,0.06379230449600734,0.277729631302941,-0.1340656995880111,nm,0.0
7.582907676696777,23.869234322019445,-19.823519132754036,79.5699622045187,-0.5191475758717623,0.7927534429132053,-0.57816095172235,0.04463847465087313,0.2020459399176538,-0.04365862888433793,nm,0.0
7.607588529586792,24.82086657285902,-20.469883477545558,80.05977632748323,-0.695010485600654,0.7475845352322888,-0.4060924949750806,0.08943517722121531,0.027612004124321046,0.07474380079893642,nm,0.0
7.612607717514038,24.623950496503394,-20.73922926835106,80.72610922885212,-0.8487699765020745,0.5433345677965653,-0.5370454083689178,0.05682779130204952,-0.036558530244123075,0.0827648091888661,nm,0.0
7.620953559875488,24.185474255979035,-20.871671459010795,81.2921938958224,-0.9664741171999396,0.3338300528567649,-0.48167838277901903,0.02323517768589477,-0.07634196083538895,0.04022317164932273,nm,0.0
7.63076639175415,23.434249665327854,-20.711247263475617,81.594344308923,-0.9688048005970977,0.2780990549890523,-0.5348804672786912,-0.04271386894127334,-0.1255257794622899,-0.02876392188902143,nm,0.0
7.6551477909088135,21.53441397282712,-19.2893687717776,81.95828810492485,-0.8123517533686345,0.3801679627152578,-0.3955267136425693,-0.18399297160870468,-0.1595041244880002,-0.07089227015970348,nm,0.0
7.660134315490723,20.276144506668135,-18.36952331313793,82.32016638860452,-0.7150503194328052,0.6671040068714962,-0.539992553524975,-0.204625164820095,-0.20287311749725948,-0.04906141765483635,nm,0.0
7.673756837844849,18.819068154447166,-17.43590536297491,83.0881377876558,-0.6056185625230607,0.7250900165480266,-0.39712745986573667,-0.20994529723020752,-0.24367801586634644,0.009866126674440027,nm,0.0
7.68361496925354,17.098235617185548,-16.608524983416714,84.19878934614252,-0.48112652095024233,0.7081736962014844,-0.37437241846794356,-0.19018401983673483,-0.30110380663292025,0.06614023020328519,nm,0.0
7.702500820159912,13.772988226840786,-15.443375454483741,86.7822980833851,-0.36417829452182604,0.45955869504407953,-0.5142667834427661,-0.11341760564826336,-0.2859982854782314,0.1205398897226665,nm,0.0
7.707631587982178,12.313353918814792,-15.083283263081054,87.58340310924184,-0.34476750248486004,0.009853926042735283,-0.5663445336678498,-0.07528861496769515,-0.2694983692537571,0.06162724416699256,nm,0.0
7.735637903213501,10.168901157221915,-14.416252035096544,87.6181419045824,0.2231380973098571,-0.6745344613442021,0.078300468422041,-0.09033371743609016,-0.14685848514684954,-0.0968910007028747,nm,0.0
7.73743200302124,9.840889685666873,-13.554187589655548,87.22929183807317,0.5488600240700892,-1.0388553058937648,0.10504356733425296,-0.1645469078409222,-0.04768719256284171,-0.10994881518505906,nm,0.0
7.762773275375366,11.136749136684866,-11.75769646408906,86.54475136348114,1.0883113851860793,-1.3815326351450827,1.3887167139931544,-0.17008812434248885,0.15995920832436972,0.0019887414439488152,nm,0.0
7.7662622928619385,11.785342426961181,-10.68409558239953,86.7137239045691,1.5268932620666384,-1.2344690686541573,1.1687696532169258,-0.19641913430627347,0.1480389838924499,0.0754299322386463,nm,0.0
7.790116310119629,13.679612194032767,-9.589722021690758,87.754611727382,1.5023765951003119,-0.7773739888560128,1.5545207952689999,-0.04242235957464193,0.16061057264092782,0.15079770874142806,nm,0.0
7.792801380157471,14.032133631689522,-9.730832316800461,88.32399328039548,1.3964936780426844,-0.40866705264560216,1.039867830132147,0.04064671837133533,0.07688170619616524,0.11957588806014303,nm,0.0
7.81818413734436,14.494815139351616,-10.958964224824106,88.81651710099887,0.7225022884880066,-0.024985213717940765,0.6793358262944817,0.16746708111131955,0.028526371464359556,0.03949126463290187,nm,0.0
7.823553800582886,14.561142446963867,-12.11945292460602,88.76894961247932,0.4512237116052632,0.10780916492944854,0.28211281139853983,0.2424896545750302,0.016767911954064924,-0.01285250210033329,nm,0.0
7.831000804901123,14.865646356351384,-13.530975608324507,88.51345188889171,0.14872306322693019,0.09599642576243561,0.03157636660555647,0.29386459367804596,0.06149955944201121,-0.043430009881561676,nm,0.0
7.85505485534668,15.254308509275244,-16.482646686788794,87.42480085572217,-0.015753655559012033,-0.02144725519700056,-0.5563351982085933,0.30244743568151444,0.01320023645041424,-0.12853093353301104,nm,0.0
7.859418153762817,16.061160996563224,-17.800518012325114,86.71327926163022,-0.24000142201219643,-0.11886303104913287,-0.3856901818934146,0.2814639049460586,0.14961741677942,-0.10014778137342863,nm,0.0
7.883851051330566,17.24260686618316,-19.71980750512748,85.1162866085765,-0.41088230945832216,0.17367636445344029,-0.5861962937347394,0.1832027464175187,0.06522396654871616,-0.14505708208852755,nm,0.0
7.888032913208008,17.91248143239412,-20.387646369556144,84.34914313248767,-0.5457264403276045,0.2963486945717981,-0.418385839392776,0.15489417835961966,0.12205626867640805,-0.11276952712775776,nm,0.0
7.9123125076293945,18.62037384271063,-21.582893462825886,82.95476824923004,-0.6883552262325346,0.6838072596710926,-0.5102536261586826,0.1334073233194391,0.02914388018489907,-0.12643314220948237,nm,0.0
7.919569253921509,18.882679123668893,-22.180097187538646,82.3748282013608,-0.8266591825456018,0.7321527845298532,-0.4175600115057124,0.13518128275617697,0.04181492658530712,-0.10154322658172316,nm,0.0
7.940378427505493,18.775850612072734,-23.272826597057847,81.4727662440446,-0.9825874832702524,0.6814994006636755,-0.5670935742031472,0.11030914394504882,-0.038293932531036946,-0.10947552812094655,nm,0.0
7.946043252944946,18.5548606514173,-23.674090438552415,81.11112504846103,-1.0442958917045781,0.5397955279340219,-0.5127819248181361,0.08388512366889744,-0.04367368943053867,-0.09472701381552133,nm,0.0
7.969101428985596,17.319382800539117,-23.78052653614117,80.86933941577713,-1.0119886810950016,0.34761141715105404,-0.6599371680653611,-0.024542615557789017,-0.12790526941210384,-0.07066283874259094,nm,0.0
7.973210096359253,16.315220592936726,-23.450444590294435,81.05853928418311,-0.9325444504391617,0.2866148671102202,-0.6055703964831123,-0.08339886813627295,-0.1631097395170574,-0.03356287028500433,nm,0.0
7.997748613357544,13.426944940611488,-21.90524480803387,82.66220593904153,-0.6882877092707874,0.32438304152540803,-0.5814895975833757,-0.20834949823952575,-0.254717721394731,0.057709592295232655,nm,0.0
8.006455659866333,11.647942866957438,-20.803975540801915,83.87245872990943,-0.5466475979033957,0.38207928904197086,-0.5720044511723956,-0.24660300929874546,-0.29544615855751716,0.09183283450498718,nm,0.0
8.011271715164185,9.800211869481974,-19.570272720651964,85.10242405150254,-0.41792781411766317,0.37244862955589747,-0.515817999755591,-0.2680927969945942,-0.3135900316912786,0.11038682898381189,nm,0.0
8.035956144332886,6.252644027674497,-16.94010202757601,87.1506364849262,-0.12974849767234836,0.12794182596659168,-0.39835400459265435,-0.2732978007099022,-0.3052259007443522,0.07516396985566605,nm,0.0
8.040057897567749,4.750760807736903,-15.563643744274358,87.7864836185092,0.11405461542280701,-0.10947341184513726,-0.3603148090780702,-0.276864460963989,-0.2679501595495649,0.03937554647857522,nm,0.0
8.063531398773193,3.4161138895384893,-12.605169444162993,88.29685298085569,0.4577854802356104,-0.9362458219143839,0.6854496632954533,-0.2961519483885542,-0.07791247809567585,-5.0616883751677285e-05,nm,0.0
8.068896055221558,3.0054050772837337,-10.963711921093786,88.2369345441519,1.114689282280008,-1.0567065633760364,0.5891343800570648,-0.3196422029859073,-0.06253136657342802,-0.03290647105662123,nm,0.0
8.096510410308838,4.139881868274723,-7.816470876184753,87.63543142194989,1.3373114122467153,-1.0097516207044668,1.741978408854158,-0.2816316435907886,0.13401483461688052,-0.02966774031855745,nm,0.0
8.099437952041626,4.387629444373665,-6.7653740691035535,87.21528086485296,1.5515683936605051,-0.6511443881239539,1.4691088596551638,-0.19666224990931222,0.06638949452202954,-0.053193758538550975,nm,0.0
8.121044158935547,4.955384612784708,-6.810592794407853,86.51862762625386,1.0902430246231438,-0.180611026809297,1.2225271505258821,0.0962364393247269,0.04104815601466009,-0.02911119232838188,nm,0.0
8.136438846588135,5.586223518885017,-9.629498422014585,86.45368314375766,0.33105324176440853,-0.2876731842682961,0.8165596403077335,0.34936752850605823,0.06056182601583148,0.042838651264884994,nm,0.0
8.146631956100464,6.013107717026875,-11.513927190543438,86.54661462447719,0.08111271379051387,-0.4558309441954931,0.33188515751535125,0.3930468661209526,0.06831769230077007,0.05094665845963373,nm,0.0
8.168403387069702,7.781196458615333,-15.021306665562255,86.15958891953491,-0.19762495108942915,-0.41751420927007,-0.3991197535380222,0.3533477565018628,0.19626529477380647,-0.00624563474524277,nm,0.0
8.175658464431763,9.67093771126088,-16.38875747045043,85.40604130785985,-0.4252429478859802,-0.25108368878422527,-0.30136264940288365,0.3113044997293987,0.3509407383565311,-0.02288776192616612,nm,0.0
8.195064067840576,13.962731178409488,-18.49169847726699,83.19619767598435,-0.32804024825155265,0.43619883858328223,-0.4449475757236148,0.25084776438631057,0.40440486650517105,-0.05877147863827521,nm,0.0
8.201510906219482,16.362910280034633,-19.40785174201791,82.20281425568766,-0.3484665082099022,0.6070565908737031,-0.2607302832003026,0.25110573167198763,0.435421915022379,-0.008872271586440234,nm,0.0
8.223640441894531,20.33136199570074,-21.47107199832933,81.05105094025184,-0.3218961302339333,0.7269015095250149,-0.39588687058191013,0.27822304755893906,0.3190250990943989,0.0664207483267169,nm,0.0
8.253410339355469,23.086346377761352,-23.58443949591044,80.57856560666633,-0.5081215720618938,0.42534690976324646,-0.518691139551459,0.24204912207710588,0.1873977601807988,0.04087927196048927,nm,0.0
8.254992485046387,23.957419302472182,-24.333272167726083,80.16444498413085,-0.6055320410949334,0.28866957548321004,-0.563563733082622,0.18448731015234268,0.14102839092318745,-0.017408094377123866,nm,0.0
8.272578477859497,24.45331432596915,-24.68579022159806,79.0449875701627,-0.7058400294563836,0.23529412978190517,-0.6195779813550852,0.004952369933041225,0.008479798373522958,-0.15860944627014917,nm,0.0
8.282130479812622,23.929362810115247,-24.346563441713286,78.47810176358996,-0.6994426951353813,0.27696111976840093,-0.5790475402329163,-0.07487714016054892,-0.0718109830653909,-0.1856846015743789,nm,0.0
8.286972045898438,22.796950126532376,-23.78710007315662,78.22664210696071,-0.6732384509804705,0.3642548909544875,-0.4973498548558583,-0.14088191417268472,-0.17183872471501987,-0.1705073678351708,nm,0.0
8.308838844299316,18.848759819992278,-22.189909944467434,79.67128212773558,-0.6756398034274687,0.43542213510617156,-0.486379109394863,-0.23517622170766483,-0.35933851239829057,-0.03036339710274465,nm,0.0
8.316454887390137,16.3649944428263,-21.186965686353183,81.06744461218247,-0.6852791260736669,0.3905498237307991,-0.4780062915942964,-0.26357048898674773,-0.414333019282679,0.04567899134694843,nm,0.0
8.325467109680176,13.806395987918462,-19.99883387094197,82.66660500960589,-0.6539128817213167,0.30046084856698624,-0.5029623392578082,-0.2915520492682705,-0.43343168926408543,0.09292300046539058,nm,0.0
8.35001802444458,9.179200033212869,-17.00541417126193,85.34221505081803,-0.3553407537717465,-0.04162530929360272,-0.46054572316515613,-0.3435579353696029,-0.37914212553731386,0.07406155910430205,nm,0.0
8.353927850723267,7.368675632801309,-15.26178054572165,86.12008262234619,-0.08331461878400458,-0.2541977321863704,-0.2779447947101715,-0.3626688765963883,-0.31344605137394305,0.03551653028104722,nm,0.0
8.376222133636475,5.521541666834134,-11.40089197268162,86.72326328110447,0.5022650946696731,-0.7355734865388044,0.4280763015195292,-0.3888593829000227,-0.06648218843044787,0.017448939487433472,nm,0.0
8.38243055343628,5.383872240717054,-9.43781891910747,86.74147703143028,0.6731219338551913,-0.9854417981339915,1.3329844226224232,-0.3827063930709364,0.0033710422925916977,0.014744461768532635,nm,0.0
8.401018857955933,5.925308226531666,-6.259736431594535,86.53798024217275,1.2716337547072538,-0.7886548203173542,1.6813018286254529,-0.25571193590002966,0.17015520848383467,0.025659341203157018,nm,0.0
8.411980390548706,6.610974734969281,-5.502327589937737,86.39271808999214,1.2080118122707966,-0.48686355232396406,1.7282171500330266,-0.13163664402230468,0.15309145254442758,0.0019074920378083142,nm,0.0
8.436031103134155,8.379712974219082,-6.4858257271132285,85.83768702757345,0.8767786917564827,-0.1748883280971952,1.3482763214036344,0.21419746837007012,0.23063809332061747,-0.03000544629640462,nm,0.0
8.439491987228394,9.57093776883155,-8.023457267226709,85.5227197128487,0.6633917656852514,-0.25690443926673695,0.9390031255957773,0.3357825843377423,0.22021431191580387,-0.03867406633127597,nm,0.0
8.461671352386475,13.093274700094845,-11.656613299506704,84.88560859816492,0.15616311301465136,-0.5658582823196617,0.35169869467379844,0.4089419006325951,0.3700216067713344,0.005829789039371411,nm,0.0
8.46882939338684,15.057355081914897,-13.239972172699014,84.238725898886,0.04848085608462189,-0.5465751123379866,0.14102633024381586,0.3633969401745745,0.359326135033719,0.009547545239624873,nm,0.0
