timestamp,roll,pitch,yaw,acc_x,acc_y,acc_z,gyro_x,gyro_y,gyro_z,markers,motor_input
7.018191814422607,10.341190779448514,-19.575076312291568,91.60796938772472,-0.500941033617464,-0.16347000647707344,-0.6295976003925163,-0.12599260569598644,-0.05267854815964338,0.14649252660974088,nm,0.0
7.022955417633057,9.68454635024773,-18.523314093972697,92.63895131444518,-0.3989363660130696,-0.07720004756208945,-0.5781829639815012,-0.19606389392336984,-0.12214935739664146,0.1787197570934718,nm,0.0
7.046984672546387,7.74658414782959,-15.78615078725848,94.81361863895293,-0.1751266809028933,0.15802985300780828,-0.3453307172049316,-0.263423717983556,-0.2141104852622152,0.16177649159626983,nm,0.0
7.05109977722168,6.6030686852095295,-14.352870982824863,95.7441883880079,0.009139938716021688,0.13389216539622195,-0.23558120824079215,-0.255715473943766,-0.23674269613555943,0.1272258206927004,nm,0.0
7.074954032897949,5.254490353629221,-11.737177039381034,96.96765501225254,0.4609535018271907,-0.5552122966745294,0.5758048783453307,-0.23678137063663138,-0.09344222306991522,0.10645044314205099,nm,0.0
7.079490900039673,4.778500612417205,-10.353271766724987,97.321675986117,1.0145571506061628,-0.9612133143297303,0.8938114867768508,-0.25372068584259305,-0.11732659932625307,0.07226725172024502,nm,0.0
7.106987714767456,5.71088493617656,-7.4494449924171215,97.47391502872608,1.52394898575041,-1.1735424108219623,1.6197028897665908,-0.29504441545941923,0.13816738810602014,0.04913699494287951,nm,0.0
7.122148036956787,6.132821901383692,-6.229392629681678,97.12441362021781,1.6121565914349048,-0.7641759828368936,1.540800861073219,-0.24322438685130932,0.06189472556394506,-0.027425982071511465,nm,0.0
7.123727560043335,6.2428666366303975,-5.386171838066871,96.5557184303542,1.6307667140587838,-0.4145317060131721,1.3992142748260223,-0.1604979241766772,0.011020139382654566,-0.08620877189372841,nm,0.0
7.130435943603516,6.216677908782405,-5.09826876372388,96.0076865374153,1.2911565199749153,-0.21463875265370147,1.0592895550544956,-0.04688865849832441,-0.002485987602788453,-0.11575111499926279,nm,0.0
7.152762174606323,5.169265099823514,-5.741730090220394,94.91371042660937,0.8231856744713024,-0.534513529852118,0.7051065658651674,0.11515601991804444,-0.10151117999727079,-0.09192630866796522,nm,0.0
7.159226655960083,4.660245453351184,-6.499740789808935,94.67266848886742,0.42540848901915046,-0.6833640139906271,0.5250257229460522,0.16991849954254923,-0.07941087279785837,-0.06418485626978125,nm,0.0
7.204871892929077,2.480475380091334,-8.060746776596359,93.5478949640847,-0.24955569676263337,0.26971039366434857,-0.2623090733472147,0.1015549293238249,-0.13851980405870395,-0.10817012470509219,nm,0.0
7.206867218017578,2.4299296960755705,-8.7009250899651,93.02755995663647,-0.6485540327971238,0.5032140076569969,-0.050929162651300916,0.13921656351645464,0.00597242665499393,-0.089564760535518,nm,0.0
7.20851993560791,2.499710522138947,-9.620996135912549,92.47581090538536,-0.7156746385742528,0.5879679376411685,-0.39348935748486463,0.1941317739817055,0.031050601426585032,-0.07852723368394889,nm,0.0
7.2240283489227295,3.1079200087241925,-10.80181635432648,91.8043255050293,-0.6752726680019127,0.5042785033521758,-0.6207970664760307,0.2429999252365754,0.13651706512425338,-0.041657096201913296,nm,0.0
7.225607633590698,4.532515619939668,-12.06858883536729,91.02258971645344,-0.8664992518890114,0.2730807232215215,-0.23947853969858332,0.2587977789748471,0.2932392387713529,0.006951778220556224,nm,0.0
7.233603239059448,6.125675325131602,-13.165193649729412,90.33172616089304,-0.7986584632081152,0.19905316297210163,-0.36242155257070546,0.22770561008150336,0.3217719895229238,0.011120968231124231,nm,0.0
7.257472038269043,10.316608894305842,-14.863509188114634,88.76642613133093,-0.6456061149620538,0.34677992036447447,-0.27268858872057544,0.175675658842635,0.44322118025539764,-0.0010829084811356457,nm,0.0
7.261475086212158,12.452809333640944,-15.515205353552117,87.78995660619692,-0.46934213984537004,0.5506096343337861,-0.3390006613846432,0.1541367240640598,0.4170535135863692,-0.03335745354425992,nm,0.0
7.28650164604187,16.2688231937243,-16.734682828110333,85.80726707426226,-0.3191033357443303,0.7853041552209674,-0.25041302445632824,0.15914709913764202,0.33760555384141944,-0.06422515593182104,nm,0.0
7.291379690170288,17.4881503363616,-17.435440640538413,84.84928612135576,-0.27311693452397506,0.8212042014132969,-0.366620202302051,0.169403700849937,0.22951402575242066,-0.08128010049005825,nm,0.0
7.314528703689575,18.38548982351692,-18.975760591426305,83.50456077570315,-0.43399657957903204,0.42895104476217744,-0.4219140088524875,0.1700704812389558,0.019489041489210112,-0.11185582602758778,nm,0.0
7.317525625228882,17.929378711687672,-19.701690901958976,82.96775853834207,-0.5405495419512356,0.19744630405841607,-0.5243818254682528,0.1445636669938687,-0.09413739195520544,-0.14300722635264948,nm,0.0
7.341050624847412,15.549604614694728,-20.351531451072958,82.31614509298085,-0.7441095414557876,-0.12768285439208538,-0.6026048684608197,0.007704524012377176,-0.2602544475808759,-0.16481692304551665,nm,0.0
7.367202043533325,11.773796925479015,-19.573600771189156,82.90349122690495,-0.7587058447323815,0.0998026145605808,-0.6100529020617401,-0.15189625612491137,-0.350401158343677,-0.0855957981501696,nm,0.0
7.368807554244995,9.70245307344298,-18.670724266792565,83.66484428457217,-0.7247064352513028,0.27885913839432225,-0.5835518778829888,-0.21367275501466498,-0.3602534670653894,-0.01220108958647584,nm,0.0
7.376916170120239,7.665823865290936,-17.598491053707185,84.59281328928898,-0.6445870035930027,0.44393678533319936,-0.5402753260758031,-0.24181891884545356,-0.35555835801779934,0.05488097171086559,nm,0.0
7.398375988006592,4.129119801836604,-15.316715241114233,86.22109949894369,-0.3535223973546461,0.32832351226751527,-0.47898979659965596,-0.2414341071168713,-0.29064869589692205,0.11936566316225422,nm,0.0
7.40336799621582,2.8416366952289303,-14.183597577710925,87.08737127685829,-0.1268465312532693,0.008761548770100673,-0.4226688693885142,-0.22965475282285838,-0.22754250492522957,0.11504978780932407,nm,0.0
7.427813768386841,2.2503934117086715,-11.732149139816167,88.04917290105814,0.5079681069946368,-1.0111091370239849,0.23420017017078354,-0.2475082143459096,0.054630981560433785,0.11641514844264915,nm,0.0
7.433281183242798,3.2879458337536973,-10.16411147894338,88.1759149395428,0.6887451653679021,-1.6753491162770313,1.4605032841820191,-0.2952255206465356,0.222943920901802,0.12016519367540109,nm,0.0
7.4567999839782715,6.711280109725724,-6.636727096714388,88.02240637677528,1.4845525982452836,-1.3266292679858107,1.8369673379949951,-0.33043153312085427,0.4459373152066119,0.08107425963347556,nm,0.0
7.462001800537109,8.720762791780375,-5.0540680719461735,87.83838935756614,1.6530160616632514,-0.8622278760349982,1.669768251375706,-0.29069508905803526,0.41959725738550474,0.04092886658022179,nm,0.0
7.484311103820801,12.366256733611193,-4.664944568907326,87.5219267815127,1.5074830858234791,0.062104699829790305,1.5119993775066558,0.08059522650623548,0.3605622101486544,0.003489419275056582,nm,0.0
7.491460084915161,13.495266550822857,-5.78665317319993,87.40615802646732,1.262277360161695,0.17323404076783003,1.2008112281640746,0.24475948220686677,0.22241399322998823,0.013359150820000358,nm,0.0
7.512997388839722,14.955946467498482,-10.366010030084654,87.41449085989755,0.27724483277834616,0.08729131932838803,0.4224475762724332,0.5239691769794012,0.10263332979921852,0.013691699859997849,nm,0.0
7.517731666564941,15.142062039938983,-12.952799873711218,87.23243205064068,0.011050224573670425,-0.35010446569135273,0.26873823135736663,0.5291529921049876,0.020769620836640933,-0.03485415291552779,nm,0.0
7.542071104049683,16.559345341026194,-17.43666080221714,85.78128968975328,-0.46998478984782543,-0.5357225017749612,-0.2369281337134294,0.43092055557583736,0.2127259265943561,-0.14279939380953782,nm,0.0
7.548022747039795,17.914000094429685,-18.6901040053876,84.39591751391575,-0.6630592741714669,-0.380977136565727,-0.522390784550424,0.28220474129797146,0.24424860030999848,-0.20589873080521245,nm,0.0
7.569831848144531,21.36814777411509,-19.77721191341065,81.28240755920686,-0.6222220230170513,0.2565794850933559,-0.4430496437024936,0.13848641756608948,0.3586658922555357,-0.19028044400776176,nm,0.0
7.575281381607056,22.82494545790609,-19.823943117329907,80.11156177150507,-0.5325752162305754,0.5819375603381417,-0.43146569296304876,0.06379230449600734,0.277729631302941,-0.1340656995880111,nm,0.0
7.582907676696777,23.869234322019445,-19.823519132754036,79.5699622045187,-0.5191475758717623,0.7927534429132053,-0.57816095172235,0.04463847465087313,0.2020459399176538,-0.04365862888433793,nm,0.0
7.607588529586792,24.82086657285902,-20.469883477545558,80.05977632748323,-0.695010485600654,0.7475845352322888,-0.4060924949750806,0.08943517722121531,0.027612004124321046,0.07474380079893642,nm,0.0
7.612607717514038,24.623950496503394,-20.73922926835106,80.72610922885212,-0.8487699765020745,0.5433345677965653,-0.5370454083689178,0.05682779130204952,-0.036558530244123075,0.0827648091888661,nm,0.0
7.620953559875488,24.185474255979035,-20.871671459010795,81.2921938958224,-0.9664741171999396,0.3338300528567649,-0.48167838277901903,0.02323517768589477,-0.07634196083538895,0.04022317164932273,nm,0.0
7.63076639175415,23.434249665327854,-20.711247263475617,81.594344308923,-0.9688048005970977,0.2780990549890523,-0.5348804672786912,-0.04271386894127334,-0.1255257794622899,-0.02876392188902143,nm,0.0
7.6551477909088135,21.53441397282712,-19.2893687717776,81.95828810492485,-0.8123517533686345,0.3801679627152578,-0.3955267136425693,-0.18399297160870468,-0.1595041244880002,-0.07089227015970348,nm,0.0
7.660134315490723,20.276144506668135,-18.36952331313793,82.32016638860452,-0.7150503194328052,0.6671040068714962,-0.539992553524975,-0.204625164820095,-0.20287311749725948,-0.04906141765483635,nm,0.0
7.673756837844849,18.819068154447166,-17.43590536297491,83.0881377876558,-0.6056185625230607,0.7250900165480266,-0.39712745986573667,-0.20994529723020752,-0.24367801586634644,0.009866126674440027,nm,0.0
7.68361496925354,17.098235617185548,-16.608524983416714,84.19878934614252,-0.48112652095024233,0.7081736962014844,-0.37437241846794356,-0.19018401983673483,-0.30110380663292025,0.06614023020328519,nm,0.0
7.702500820159912,13.772988226840786,-15.443375454483741,86.7822980833851,-0.36417829452182604,0.45955869504407953,-0.5142667834427661,-0.11341760564826336,-0.2859982854782314,0.1205398897226665,nm,0.0
7.707631587982178,12.313353918814792,-15.083283263081054,87.58340310924184,-0.34476750248486004,0.009853926042735283,-0.5663445336678498,-0.07528861496769515,-0.2694983692537571,0.06162724416699256,nm,0.0
7.735637903213501,10.168901157221915,-14.416252035096544,87.6181419045824,0.2231380973098571,-0.6745344613442021,0.078300468422041,-0.09033371743609016,-0.14685848514684954,-0.0968910007028747,nm,0.0
7.73743200302124,9.840889685666873,-13.554187589655548,87.22929183807317,0.5488600240700892,-1.0388553058937648,0.10504356733425296,-0.1645469078409222,-0.04768719256284171,-0.10994881518505906,nm,0.0
7.762773275375366,11.136749136684866,-11.75769646408906,86.54475136348114,1.0883113851860793,-1.3815326351450827,1.3887167139931544,-0.17008812434248885,0.15995920832436972,0.0019887414439488152,nm,0.0
7.7662622928619385,11.785342426961181,-10.68409558239953,86.7137239045691,1.5268932620666384,-1.2344690686541573,1.1687696532169258,-0.19641913430627347,0.1480389838924499,0.0754299322386463,nm,0.0
7.790116310119629,13.679612194032767,-9.589722021690758,87.754611727382,1.5023765951003119,-0.7773739888560128,1.5545207952689999,-0.04242235957464193,0.16061057264092782,0.15079770874142806,nm,0.0
7.792801380157471,14.032133631689522,-9.730832316800461,88.32399328039548,1.3964936780426844,-0.40866705264560216,1.039867830132147,0.04064671837133533,0.07688170619616524,0.11957588806014303,nm,0.0
7.81818413734436,14.494815139351616,-10.958964224824106,88.81651710099887,0.7225022884880066,-0.024985213717940765,0.6793358262944817,0.16746708111131955,0.028526371464359556,0.03949126463290187,nm,0.0
7.823553800582886,14.561142446963867,-12.11945292460602,88.76894961247932,0.4512237116052632,0.10780916492944854,0.28211281139853983,0.2424896545750302,0.016767911954064924,-0.01285250210033329,nm,0.0
7.831000804901123,14.865646356351384,-13.530975608324507,88.51345188889171,0.14872306322693019,0.09599642576243561,0.03157636660555647,0.29386459367804596,0.06149955944201121,-0.043430009881561676,nm,0.0
7.85505485534668,15.254308509275244,-16.482646686788794,87.42480085572217,-0.015753655559012033,-0.02144725519700056,-0.5563351982085933,0.30244743568151444,0.01320023645041424,-0.12853093353301104,nm,0.0
7.859418153762817,16.061160996563224,-17.800518012325114,86.71327926163022,-0.24000142201219643,-0.11886303104913287,-0.3856901818934146,0.2814639049460586,0.14961741677942,-0.10014778137342863,nm,0.0
7.883851051330566,17.24260686618316,-19.71980750512748,85.1162866085765,-0.41088230945832216,0.17367636445344029,-0.5861962937347394,0.1832027464175187,0.06522396654871616,-0.14505708208852755,nm,0.0
7.888032913208008,17.91248143239412,-20.387646369556144,84.34914313248767,-0.5457264403276045,0.2963486945717981,-0.418385839392776,0.15489417835961966,0.12205626867640805,-0.11276952712775776,nm,0.0
7.9123125076293945,18.62037384271063,-21.582893462825886,82.95476824923004,-0.6883552262325346,0.6838072596710926,-0.5102536261586826,0.1334073233194391,0.02914388018489907,-0.12643314220948237,nm,0.0
7.919569253921509,18.882679123668893,-22.180097187538646,82.3748282013608,-0.8266591825456018,0.7321527845298532,-0.4175600115057124,0.13518128275617697,0.04181492658530712,-0.10154322658172316,nm,0.0
7.940378427505493,18.775850612072734,-23.272826597057847,81.4727662440446,-0.9825874832702524,0.6814994006636755,-0.5670935742031472,0.11030914394504882,-0.038293932531036946,-0.10947552812094655,nm,0.0
7.946043252944946,18.5548606514173,-23.674090438552415,81.11112504846103,-1.0442958917045781,0.5397955279340219,-0.5127819248181361,0.08388512366889744,-0.04367368943053867,-0.09472701381552133,nm,0.0
7.969101428985596,17.319382800539117,-23.78052653614117,80.86933941577713,-1.0119886810950016,0.34761141715105404,-0.6599371680653611,-0.024542615557789017,-0.12790526941210384,-0.07066283874259094,nm,0.0
7.973210096359253,16.315220592936726,-23.450444590294435,81.05853928418311,-0.9325444504391617,0.2866148671102202,-0.6055703964831123,-0.08339886813627295,-0.1631097395170574,-0.03356287028500433,nm,0.0
7.997748613357544,13.426944940611488,-21.90524480803387,82.66220593904153,-0.6882877092707874,0.32438304152540803,-0.5814895975833757,-0.20834949823952575,-0.254717721394731,0.057709592295232655,nm,0.0
