timestamp,roll,pitch,yaw,acc_x,acc_y,acc_z,gyro_x,gyro_y,gyro_z,markers,motor_input
33.002333879470825,17.224615241794737,-23.21639202566318,55.19836938583056,-0.7474871902468193,0.8023863006363928,-0.3314528670039329,-0.03305660485724436,-0.1529504049620356,-0.12353891299042379,nm,0.0
33.0282986164093,15.372100185707438,-23.364007904185716,54.932629156022,-0.8527754342198095,0.5789810208206366,-0.12242432860509563,-0.10178197253224482,-0.1682824357974915,-0.12263543368711659,nm,0.0
33.03220891952515,14.013194239344076,-23.245424906686157,55.107878737634266,-0.7412020829800473,0.5341210110879767,-0.11052867970219343,-0.14885933355509268,-0.1888746248681996,-0.10274018354193971,nm,0.0
33.04245901107788,12.499809861514606,-22.96248465391148,55.49259383149096,-0.7127449816055502,0.49109364584776805,-0.0021431295489537346,-0.19143240152777782,-0.19466712629433858,-0.05698910585032727,nm,0.0
33.062668800354004,8.760053925037308,-22.190278796658333,56.89473561568974,-0.4449503390429923,0.5072599366622371,-0.117755985244206,-0.2476232288446822,-0.2481112421675588,0.02023393529846142,nm,0.0
33.071791887283325,6.874406688726146,-21.750205610280236,57.79415368434765,-0.4186256552090605,0.46712645001793945,-0.08698323899819875,-0.2493536202452896,-0.24493266380975384,0.05187223321819305,nm,0.0
33.094693183898926,3.2928116173041646,-20.866335174431605,59.45847958866844,-0.26044395575378043,0.2687179921961503,-0.25994526899318937,-0.221824527010252,-0.22476267222499602,0.05021323365209739,nm,0.0
33.09855628013611,1.830212379305122,-20.448131781906664,60.06959918658847,-0.1988093869277542,0.13650964459463305,-0.25723239502206874,-0.19643084403904718,-0.19231348144435903,0.038287612649673064,nm,0.0
33.12138557434082,-0.24861975090243785,-19.61052129492909,60.801053192755376,0.08759457946988236,-0.20892832115088464,-0.39876443584295446,-0.1365518094485554,-0.09744005599362804,0.0402506249755715,nm,0.0
33.12880778312683,-0.3300385863263079,-19.205432569647154,61.16944121204219,0.09102430157041815,-0.4125957999041216,-0.17820857365729334,-0.06423471224177846,0.02807614444160339,0.0952653659578656,nm,0.0
33.15061044692993,0.7210915454970084,-18.14821363648594,61.80625528494143,0.6124988869540622,-0.8348403530672013,0.04926733145359164,-0.029484516132431145,0.16917166955398394,0.14582413169989614,nm,0.0
33.17163848876953,4.818547728051046,-16.95329044395777,62.14200671761664,0.770293107734483,-0.8640543571911777,0.8296943220531605,0.11592879566216002,0.4335891196262061,0.2000617634916538,nm,0.0
33.17824411392212,6.9349716491633515,-16.588014626478834,61.826217247458665,1.1386799829321994,-0.7126406448970111,0.5851546681055192,0.14087167330660438,0.39499405237540786,0.12780264535141067,nm,0.0
33.20495581626892,10.911423871006406,-16.775412369771875,60.6463403488712,1.1333244350423097,-0.6268210804251074,0.7404681115408168,0.2237936654113013,0.2743657236892067,-0.02026659103243113,nm,0.0
33.2186233997345,13.11220102530525,-18.043038015023843,58.78655017129678,0.6728271048241741,-0.6459174947665097,0.42888929650534136,0.22447565592271124,0.08176369024803298,-0.11495891069828851,nm,0.0
33.222867250442505,13.438669300749144,-18.732267795224875,57.95437092447177,0.37449743035453764,-0.6375013426979047,0.18520999757156364,0.1633908974736908,-0.01690858608771064,-0.13373558004850464,nm,0.0
33.24612736701965,12.926529180300614,-19.600833593353173,57.02507320701121,-0.12040464666670578,-0.40596006073514024,-0.022616969922273515,0.024519545613571305,-0.09596569410493128,-0.11522071664657173,nm,0.0
33.25079131126404,12.231789150749103,-19.725918645988024,56.80484061294428,-0.2888823291931799,-0.21390324389785323,-0.04821951088026623,-0.03682574616618444,-0.12107489874260838,-0.12225642281477106,nm,0.0
33.27388596534729,10.413741910501534,-19.6833525453179,56.04280548486524,-0.2568827816386564,0.29018838593997115,-0.27174676215364013,-0.07691741493259965,-0.11165243992506331,-0.15698354538033063,nm,0.0
33.28973746299744,9.088627699008661,-19.664817733332576,54.49257079199657,-0.41344925108188313,0.655307170392145,-0.23802712763282607,-0.06610296139075977,-0.1255167630708675,-0.20922396513580355,nm,0.0
33.299333810806274,8.566662389726915,-19.77407624172901,53.66585937144108,-0.4379630633319605,0.7157215806109135,-0.2427086338765164,-0.02616670666788108,-0.09125909109289917,-0.18991149847728733,nm,0.0
33.32665252685547,7.853755969608642,-19.985491313790966,52.51852950012992,-0.5887837948897563,0.7257356041038893,-0.22708306886930668,-0.020010481438096254,-0.07512770988815817,-0.12379802190208486,nm,0.0
33.32881164550781,7.471655880162511,-20.003800413597144,52.21430905648016,-0.6052278244557828,0.7111484027535654,-0.24210438523455183,-0.027059954185538995,-0.05838251811217066,-0.07074355285528128,nm,0.0
33.3492476940155,6.4956924190316,-19.803024906359486,52.23555738066269,-0.5828300666779953,0.6655219815917056,-0.29238619443754643,-0.07270705141024494,-0.06882781264720385,0.006562254751556471,nm,0.0
33.35507369041443,5.890742541219214,-19.606789263580346,52.43347216366321,-0.54847126320077,0.6180303661787153,-0.21644825062689477,-0.0868561593568703,-0.0654673199601924,0.03705395342186179,nm,0.0
33.37591028213501,4.276891850386137,-18.997651549404143,53.116922097883986,-0.37921505280560636,0.5081875259444606,-0.19521569256006208,-0.1404725082881369,-0.09454664753822661,0.054039385704900904,nm,0.0
33.384735345840454,3.295548512856816,-18.643406084747202,53.72192250031659,-0.30351078362225775,0.4558947318998546,-0.15652483860883612,-0.15371938657378761,-0.10642510988983041,0.06336486822448055,nm,0.0
33.407294034957886,0.909838309963725,-17.81178843694113,55.25416082642269,-0.15890470618721192,0.2947871094873337,-0.2014268410982394,-0.19527382216341052,-0.1458354035458125,0.08084380162326098,nm,0.0
33.41326546669006,-0.4098654938273917,-17.3556181234544,56.080640440210274,-0.1293603977452178,0.16852392612446285,-0.21648687553955656,-0.2033675476596357,-0.15563964560310087,0.095250033410614,nm,0.0
33.43280291557312,-3.007498656760949,-16.279085347445985,57.64152673959745,0.04846745983110676,-0.12963788887694536,-0.4214568582454689,-0.21122287554703478,-0.13808605212992928,0.10594112933062359,nm,0.0
33.441707372665405,-3.655087937855779,-15.676403875282858,58.24336121432731,-0.1044412470681508,-0.2978153764490617,-0.14391245972944794,-0.15425426393489336,-0.040362179615916226,0.12460408870564399,nm,0.0
33.49408292770386,-3.1515000305818868,-13.664924950342671,59.00246731598569,0.3915389519539593,-0.848642595243798,0.5305059810025813,0.01577378730747011,0.2678109448319185,0.10346986387695623,nm,0.0
33.49626445770264,0.21399193727351623,-12.868419677052211,58.40952620776863,1.0069520075895595,-0.7174163382233297,0.6225697525458295,0.14885472588402607,0.3221829054778685,0.041447843712729866,nm,0.0
33.49923801422119,2.5322000526092903,-12.91961085535472,57.81254140816964,1.0319272394074022,-0.6454908476372515,0.9133820109701051,0.26258236477072067,0.37939713911614914,0.037372692852129984,nm,0.0
33.52109885215759,7.124385106358498,-14.157662406332959,56.61660699820774,1.0809002927682838,-0.573640942060249,0.6788324748323165,0.3903737103766942,0.282493796404627,-0.009242834442208296,nm,0.0
33.53776931762695,11.368767399602984,-16.537609747848588,55.08906667589844,0.5829883964852713,-0.6275647820485454,0.4426408767408495,0.43876717831489004,0.17400311468503077,-0.060133877512909356,nm,0.0
33.547531604766846,13.137983872955886,-17.76938425046105,54.13831833179915,0.3119207091029219,-0.6223981908782937,0.3026850034405659,0.4105848437317271,0.1349161932522527,-0.0907082620810222,nm,0.0
33.56475234031677,16.011945956936735,-19.764728897335036,51.95682664008876,-0.027866047732871022,-0.34728596770585685,-0.21567534626229634,0.3160890818174875,0.09314002755330486,-0.13673555090263856,nm,0.0
33.591553926467896,18.02046687739278,-21.214460876110856,49.82341607844484,-0.157989544998757,-0.04725799473088103,-0.1421331579570353,0.2089505467008806,0.034060618863888815,-0.15439040602235082,nm,0.0
33.59555006027222,18.502790138633404,-21.78903229202449,49.0751573095194,-0.00958839359491297,0.20136138324767205,-0.645178790024746,0.15930927978410772,-0.004752805016141693,-0.15552428154731335,nm,0.0
33.61650061607361,19.834506017981237,-22.989127174643162,47.71850156469048,-0.4135961163664175,0.3872114552628858,-0.15294011858347273,0.15910352855478355,-0.010396327440531474,-0.11887244798002305,nm,0.0
33.62601113319397,19.877882793602975,-23.465475971170235,47.08060478734754,-0.372918664499644,0.5298724014287386,-0.48909863558748845,0.08917413477561927,-0.057250825750170896,-0.1476978642322898,nm,0.0
33.63251972198486,20.028987205779444,-23.86546414835079,46.45759446858505,-0.5624678304085396,0.5499201308847658,-0.2617678783323514,0.09090481174661676,-0.033332244920746164,-0.13501389519453502,nm,0.0
33.6522912979126,19.08194895136156,-24.20094175157361,45.12121446554865,-0.5532649502209454,0.6629862554278365,-0.28632652945043846,-0.06652705518014085,-0.10073780854497977,-0.18328106923222956,nm,0.0
33.65972661972046,18.130072643420732,-24.13804127271998,44.791032370786,-0.612598118878219,0.665449324162408,-0.07604056516300524,-0.11817574430897002,-0.11342673296576453,-0.16426882547542038,nm,0.0
33.6827130317688,14.662260298915118,-23.85990059955362,45.044412362842266,-0.5177660467841574,0.7154701344993605,-0.06843592136500012,-0.2621394705537071,-0.23078152495556856,-0.12996572031721998,nm,0.0
33.691789627075195,12.469549750812918,-23.66289542083343,45.57764403244307,-0.5973584612247912,0.6953956803510394,0.02380254265544161,-0.2966018230475419,-0.2580702784516414,-0.08122544796177371,nm,0.0
33.71033978462219,7.347346704511423,-23.198056109417546,47.34980740160747,-0.560168473469265,0.6035926096048354,-0.15031494707983342,-0.3486001687679682,-0.3139152465193181,-0.02493891693606853,nm,0.0
33.7238233089447,4.785168498330949,-22.8401898456969,48.32749869685344,-0.5892659568337548,0.4908318544831367,-0.16781001609656165,-0.35591557190837825,-0.30222405444880845,-0.0015667158409368666,nm,0.0
33.738816261291504,-0.08606852334124097,-21.791078038507113,50.188299877607925,-0.3565190476988247,0.2794909532820265,-0.3449976242575334,-0.3538167429582323,-0.25507669126927524,0.03495752896936365,nm,0.0
33.745909452438354,-2.1540950276141846,-21.09356994785526,51.20588743847051,-0.23232249489563186,0.15869545651835196,-0.39084440852197405,-0.3379930979741135,-0.21008605605104336,0.06647767510905472,nm,0.0
33.76598644256592,-5.110792786853043,-19.404613879044092,53.360809111763444,0.15746765471241914,-0.1424760293168473,-0.4928515729973091,-0.26695396510755226,-0.07507758011540853,0.1501026760139127,nm,0.0
33.78991436958313,-5.006524458285482,-17.394571934051168,55.20680763468217,0.16835848415801472,-0.5580168647009751,0.21234415565586387,-0.1192511229959767,0.16841107355225773,0.2392300816647643,nm,0.0
33.79449009895325,-3.9852776582537834,-16.424779654922524,55.869201457199864,0.6221003752073635,-0.869704962336734,0.15181845032335498,-0.03439941944671516,0.2716539597864392,0.24740134334147293,nm,0.0
33.820119857788086,0.7035137974839535,-15.241642420712525,56.32894066446111,0.7328747707444451,-0.9691348081595649,1.0005839318913416,0.19828022307007734,0.4342066179034636,0.18144228092090706,nm,0.0
33.823660135269165,3.2617391483642644,-15.182327022776922,55.87080372727236,1.0800735350391726,-0.9458545033304374,0.6521427290686801,0.28075921965475503,0.4172474629259434,0.09107916929891952,nm,0.0
33.842138051986694,8.739120190874731,-16.19235089386654,53.783607942506315,1.0343419884471903,-0.8815260241868847,0.8022811136022872,0.4033063067113119,0.31935135960795674,-0.05767667609500475,nm,0.0
33.848960638046265,11.00432824508992,-17.043180675689882,52.51429546790891,0.9581544768581882,-0.8166982341779482,0.48969262309529443,0.4110257242374269,0.2460552692547536,-0.09142000920383377,nm,0.0
33.85935974121094,13.060095811372047,-17.987193780590115,51.51284829992841,0.6453995785824325,-0.7254792661109343,0.5119305986273992,0.40411662292751094,0.19428121919266442,-0.08544908884548678,nm,0.0
33.88133955001831,15.738512831699158,-19.6826771076794,50.22135496539283,0.24162805083409206,-0.44577375345585035,-0.06742326043956788,0.28751484686988854,0.0755572424150676,-0.0547654863404264,nm,0.0
33.887391090393066,16.61856063070302,-20.473883992944746,49.84530985031309,-0.02447490019395543,-0.275067381255211,-0.024320030511980152,0.24119765859298842,0.026789554097841114,-0.052813209570285326,nm,0.0
33.90672969818115,16.954661218059947,-21.6155504496869,48.706240677259025,-0.16564791180061494,0.12255774628579272,-0.3975646325762174,0.08899452190857268,-0.06473433647238407,-0.1278222098865865,nm,0.0
33.9169340133667,17.07124499264653,-22.12668413449191,47.91889548861254,-0.2055161053963017,0.32092572957819027,-0.48209606149108525,0.10444395385073675,-0.05080396831152863,-0.15369582913090524,nm,0.0
33.936436891555786,17.336071172844875,-23.04102338294702,46.24712009520202,-0.4531325221184415,0.6037084800425343,-0.3559736958914123,0.0696019265295512,-0.05982335057230131,-0.21479207089480026,nm,0.0
33.96763515472412,17.419628996139743,-23.78856562583364,44.69495743928801,-0.6641692500708065,0.7752342560414895,-0.16586331865263731,0.06898052869516144,-0.04400212076464791,-0.16786771748297039,nm,0.0
33.999415159225464,16.332417661821832,-23.962413108235573,43.97258580497232,-0.6693084263269589,0.8732720151392422,-0.280446598627529,-0.0752186693029115,-0.08714043636865028,-0.10718288678048363,nm,0.0
