timestamp,roll,pitch,yaw,acc_x,acc_y,acc_z,gyro_x,gyro_y,gyro_z,markers,motor_input
74.00635361671448,-19.26121084367881,27.630046095789307,-87.41338642224582,-0.01226063801484801,0.21135024514695067,-0.3369869735525106,-0.2528898472987967,-0.17935637019670442,0.1371999086979362,nm,0.0
74.01058864593506,-18.433641049587386,26.138380176972436,-86.3779646416604,0.10055391868827254,0.1461868216608467,-0.35563371638341296,-0.30214095544805086,-0.1707458849906507,0.12054700306420191,nm,0.0
74.03553104400635,-16.93055396363126,22.393315329379934,-84.7174067884921,0.3428310176643836,-0.08338132913240677,-0.29030996055673125,-0.3958514914551238,-0.17941114185184948,0.0705943472872728,nm,0.0
74.03755927085876,-16.183038548265383,20.25364542642272,-83.96999083395289,0.5415950034449423,-0.2252645268256848,-0.08867760104890515,-0.4239416149605684,-0.18914586571094072,0.0615525387971947,nm,0.0
74.06651401519775,-15.19278616482005,15.840113061708685,-82.58598743004292,0.4447426869913614,-0.3858520526960668,0.1529326400752257,-0.43597369992787566,-0.16057621929026333,0.08618339891567069,nm,0.0
74.07203102111816,-14.213336326735952,13.766410749667013,-81.90554814822211,0.9142197734628305,-0.42551629433698207,0.8090096861400885,-0.39685306373464035,-0.252516853320641,0.06728429533280297,nm,0.0
74.07631039619446,-13.514933165321867,11.94480887409575,-81.37221527356249,0.7800593304555636,-0.272845260345175,0.7751489817804326,-0.3519793393850086,-0.1966889174232518,0.05745191472315183,nm,0.0
74.0866322517395,-12.686702565589254,10.472627810579747,-81.07388863096993,0.6052916063089098,-0.090583729332851,0.8015585105692739,-0.2773818715501666,-0.21451949688212182,0.014275292880898597,nm,0.0
74.11006259918213,-10.870220775113616,9.209092798226967,-81.34176985496816,0.2724329118477924,0.16547683483588346,1.058313028167239,-0.046010467515903486,-0.16902647388487196,-0.08597336369468801,nm,0.0
74.11328864097595,-9.94329369200913,9.635688367930884,-81.76563560552127,0.027314928795639817,0.18654123076719895,0.8407959480104733,0.10044766039247047,-0.1770286757325779,-0.11944404965715726,nm,0.0
74.13766741752625,-9.503919652894195,12.293827857528283,-82.83229327580669,-0.07049368458687715,-0.15556159927876534,0.6678988522761485,0.29379627873044784,0.12290296133199027,-0.08099541019967263,nm,0.0
74.15818047523499,-10.887115451644494,16.259988779000484,-83.87958414535383,0.24328561804373924,-0.449218121791111,0.6542331004222968,0.37462086880945433,0.19654471526967365,-0.029661599430647317,nm,0.0
74.16104888916016,-12.622004922681352,18.201141808236436,-84.53234428234295,-0.06464856394154009,-0.3801097564130779,0.042098803962399865,0.34234415933338364,0.361299666935771,0.00945519709166312,nm,0.0
74.17544722557068,-14.29675120933044,19.984912029126786,-85.36355232003667,0.16575559388765737,-0.28095332011564134,0.0780456996610827,0.3169370540021495,0.3391868897111983,-0.010917825887935812,nm,0.0
74.18200421333313,-16.341301860386405,21.55156930917317,-86.3569752469008,0.2561089417928359,-0.08954014727650791,-0.06575428838429795,0.2741086676516588,0.3968506206288158,-0.014953504960969586,nm,0.0
74.20558714866638,-20.57818147012771,24.18386241987377,-88.49013605373798,0.2300386127992654,0.22343630811319562,-0.2397561722067706,0.23045616164043842,0.362754811727177,-0.026455302045312042,nm,0.0
74.20857524871826,-22.534128952621554,25.480945174177332,-89.46628321666141,0.11549889075613047,0.36637724834939256,-0.38158518160371846,0.24161565742398028,0.3528983436711767,0.005647863004089647,nm,0.0
74.21934795379639,-24.135920473539038,26.839727006423875,-90.10448954980197,0.03249473648966251,0.4296030045552293,-0.4592540654072684,0.2588690202349054,0.2820125431111042,0.033980581966308425,nm,0.0
74.22841906547546,-25.284071102141812,28.270993810833232,-90.39376362564133,0.11070543911790762,0.4284974646120961,-0.4635033867648799,0.27510508686127827,0.19589006721548008,0.05389894533382255,nm,0.0
74.2613935470581,-26.69854542483524,30.87993358269358,-90.36614214296984,-0.08202182358510941,0.5133549592345067,-0.6467774228721955,0.22880220406525134,0.07900162491788898,0.06325687420431744,nm,0.0
74.2630045413971,-26.96435873282926,31.722141522685778,-90.23015448128281,-0.10765609253044471,0.4797024567194727,-0.6236507463065809,0.15645474163596182,0.03804742106297838,0.045882830501798456,nm,0.0
74.2653980255127,-27.10771048386207,32.15890559187109,-90.1161682563134,-0.20311984323270024,0.43961418367451616,-0.6007540024176624,0.07512348274697273,0.01750947296447956,0.02722701984190702,nm,0.0
74.29079747200012,-26.939670374965228,31.949105986892018,-89.76335566911115,-0.2795065272653146,0.42327809236996716,-0.4559888726209073,-0.06710188530447499,-0.03015005911070943,0.010889799241420332,nm,0.0
74.29443955421448,-26.63006578113199,31.44463736875326,-89.41205561504503,-0.32315346343071766,0.4334624380220252,-0.3907141929933007,-0.11294948940559645,-0.06024716597491054,0.028693220788573302,nm,0.0
74.30394959449768,-26.11947530622795,30.838478379443153,-88.80637508321585,-0.2784010950052413,0.44649352316154955,-0.2905249150412103,-0.13222557106525282,-0.09629689932399603,0.05398306364142692,nm,0.0
74.32706689834595,-24.691582672741237,29.454446274331254,-86.9985762690636,-0.19603910883922285,0.5091958460927902,-0.25345159643910536,-0.15080206637640614,-0.15014666482556288,0.10820045052710853,nm,0.0
74.33340287208557,-23.838029708576595,28.651627103808153,-85.90296966752803,-0.11506831352037036,0.5129222136878556,-0.2701605303826897,-0.16297783048783565,-0.16656310263507657,0.11214558932205275,nm,0.0
74.35185980796814,-22.067740611235326,26.60729567114303,-83.94053407840612,0.0028032077618233577,0.4450540441271573,-0.3477820161572975,-0.21773289866616932,-0.18943583019505025,0.06780457832789889,nm,0.0
74.36586284637451,-21.144957503217803,25.308052629524962,-83.22853069317199,0.046330884997513776,0.35588949926369556,-0.3654758914418505,-0.25133720077341076,-0.20224211204875756,0.036660673197493124,nm,0.0
74.37022757530212,-20.15442855176296,23.863728970206832,-82.49576431541412,0.08814052924999594,0.24025700383034926,-0.3485099576630977,-0.27554010916117727,-0.22345861374935214,0.012413662120083995,nm,0.0
74.38415312767029,-19.061929056010662,22.31432366195323,-81.8077971190819,0.13950724107469317,0.11766069085436352,-0.31774584537879963,-0.29072553603768064,-0.25039515746590063,0.0050064644800412806,nm,0.0
74.3894829750061,-17.883213486008874,20.698588693464135,-81.14763992187777,0.20719943111582545,-0.023507947559773073,-0.2577919126483174,-0.29831091209499055,-0.2737253487121922,0.016089087527592024,nm,0.0
74.41840767860413,-15.421174931793626,17.361197842076535,-79.60661568818635,0.45572825217437296,-0.33159144102150345,-0.034073806065117535,-0.3033137850864148,-0.2972099125715728,0.05769570445090558,nm,0.0
74.4209475517273,-14.300655114017305,15.600113591814004,-78.82288147953416,0.65143784343121,-0.5179487211979648,0.20865843322446778,-0.3166288776177034,-0.2864291209591396,0.06970129691041924,nm,0.0
74.4400486946106,-12.9820566971332,11.910924964358482,-77.85727787924469,0.9780984691447762,-0.798182487060629,0.9934083923022199,-0.3572029097169476,-0.16420585187385436,0.053679083423671996,nm,0.0
74.44810581207275,-12.803722884579011,10.1690941454565,-77.75687678322443,0.6648359373914784,-0.7136579226741087,0.749715619188292,-0.34398027920689694,-0.11712962751435937,0.0156593485962237,nm,0.0
74.4620521068573,-12.150489050044282,8.692666639339855,-77.82951437901269,0.8014714034415701,-0.40367005983334225,0.9859366125379245,-0.2720165483439257,-0.1980565239957718,-0.04674619650371188,nm,0.0
74.4668447971344,-11.705690177392842,7.626148657399982,-78.16065848222652,0.6489157072074254,-0.1120756192838479,1.1205413391916261,-0.20095176286079403,-0.14003187339111542,-0.08747356413791033,nm,0.0
74.4886679649353,-10.951356357809765,7.640911274231978,-79.22522140266256,0.1997829766276978,0.12453897603391642,1.0217069536379288,0.09052075828938838,-0.08228655478570948,-0.10798048041679854,nm,0.0
74.5147123336792,-10.831048711159683,10.501711356474706,-79.84743969027342,0.298091615315965,-0.14427022136137224,0.898191046702615,0.3174684682074956,0.10267705470510385,-0.017475500028253967,nm,0.0
74.516841173172,-11.609590845388675,12.630144999263878,-80.0064963561879,0.027427864381840052,-0.29242220526434815,0.4212698926227385,0.3824302511924728,0.21572885411610393,0.02682118195955959,nm,0.0
74.52399730682373,-12.362169220490443,14.863462391305418,-80.14022955229346,0.2770296184825386,-0.34306457190866063,0.4664611085298769,0.40467431166531953,0.21226553332461182,0.03300845577319785,nm,0.0
74.53152322769165,-13.662864721230681,16.940129232989673,-80.51493587176049,0.23199014282442604,-0.3234955678922711,0.1511888170891778,0.3573603423673182,0.30781810320223757,0.030129206561734102,nm,0.0
74.5551643371582,-16.940820992913952,20.49016804704217,-82.15365064630383,0.2802337229465644,-0.028462314828690303,-0.07364574956750025,0.27351420789504766,0.3572150763088049,-0.04738321698786071,nm,0.0
74.56092619895935,-18.925594146730315,21.93785541200954,-83.30815788651708,0.13186814026417162,0.11944578698291611,-0.25639144907567935,0.2298102056437598,0.39592347137065287,-0.05252688190150193,nm,0.0
74.57005739212036,-20.759388850469083,23.326735418534486,-84.39336506727618,0.12363605543647205,0.2205073884186365,-0.28310677324843925,0.22900282379870987,0.35871329100676996,-0.04788213892553402,nm,0.0
74.57938170433044,-22.406604506765525,24.81933292339855,-85.22203829253115,0.12826589027224175,0.3259313056346667,-0.33421275896547675,0.25883474471708867,0.3191463143872023,-0.016425558711674008,nm,0.0
74.59007263183594,-23.812614964911532,26.41940946801427,-85.73523915321269,0.01031072104020202,0.41776541689044827,-0.46886755334498986,0.28767111762963987,0.27061194797791777,0.029890323081111298,nm,0.0
74.61754941940308,-25.906977308506267,31.06194949208219,-86.25982501724118,-0.08604579196436322,0.5682003184175068,-0.6375015942857186,0.25433783978332375,0.08870175479520895,0.02287256587442758,nm,0.0
74.64265823364258,-26.383910919634125,32.45578686279416,-86.81137448661075,-0.2148715022497371,0.5280655442772383,-0.6030257659055074,0.07868785782455014,0.03441167189005454,-0.06402383643100122,nm,0.0
74.6494517326355,-26.474939300043328,32.515663979569254,-87.20694674040632,-0.29581050489727856,0.4959987028073291,-0.5447746095776046,-0.0008988360707065892,0.008840593962846205,-0.09150042497290799,nm,0.0
74.65537786483765,-26.393654000650134,32.274470745555824,-87.52273373561923,-0.3374865158923409,0.4536519600784447,-0.4613867162945524,-0.059704506624520995,-0.023059060079963018,-0.08762181599952736,nm,0.0
74.66502666473389,-26.114769252607488,31.863692675763073,-87.52470414424101,-0.4020008897802802,0.42537200474680653,-0.40555233840877447,-0.09219672245374094,-0.057970372762902116,-0.05228933977343066,nm,0.0
74.688547372818,-24.834834522358605,30.821629658608877,-86.37295404219861,-0.3368837791414058,0.3774695913245566,-0.32332979569138415,-0.11560456095351651,-0.14027726528204076,0.052586673747621035,nm,0.0
74.69407224655151,-23.975771579129468,30.14450331334334,-85.42999213249028,-0.24474392651561877,0.358957464067364,-0.34088827015961615,-0.13647732646181962,-0.16495158462993315,0.09276737445332853,nm,0.0
74.72320318222046,-22.223812623504678,28.09692229360489,-83.41507427541008,-0.033424494754014475,0.24662806001429163,-0.382872139594851,-0.2278893231007203,-0.1813260886849814,0.09410151232934512,nm,0.0
74.72577333450317,-21.428808972010383,26.607435058014083,-82.65188811486044,0.09223831927074855,0.14283858348344702,-0.39967574372822107,-0.2903023304971347,-0.18456878523038092,0.06493141293560437,nm,0.0
74.73432779312134,-20.65999694850919,24.817273704873266,-82.07902617724046,0.21808840247671793,0.014601474788229854,-0.4007511047631278,-0.3481569342372183,-0.1933259555209061,0.0335289051368674,nm,0.0
74.75625896453857,-18.929361258124853,20.588304324790126,-81.09691314228925,0.5217576382597727,-0.28131200441151016,-0.2208314300908139,-0.42015623187430035,-0.2444277217303324,0.012827626431617115,nm,0.0
74.7653558254242,-18.111888597907893,18.30677599850853,-80.5295442300092,0.734183155492308,-0.4262655584239282,0.10529627069590013,-0.4372749229733589,-0.23418250046237712,0.040003561230757774,nm,0.0
74.76985311508179,-17.450804449013468,16.02216839887044,-79.91153108094602,0.5691412424878012,-0.4891048344933323,0.15849424078760305,-0.44017852892325393,-0.21138588646371298,0.06813176657671544,nm,0.0
74.78164792060852,-16.34809323681618,13.80369319241426,-79.25398468441269,1.0088378920929189,-0.47003076617789685,0.7747698522410134,-0.4088849330319868,-0.2994886764402243,0.052477836404779314,nm,0.0
74.80347442626953,-14.54104298046796,10.027621693001947,-78.6055063156121,0.6494615551199194,0.07803678074559008,0.5933187992778649,-0.3161093769143397,-0.24860117459383801,-0.03700844409561077,nm,0.0
74.80907320976257,-13.302096254510957,8.784266316045441,-78.92783858751734,0.6446036618404007,0.3463150825551478,0.9952188203886686,-0.2069386056583802,-0.2978828329620223,-0.12415679127953073,nm,0.0
74.81944727897644,-12.259106443182453,8.2915983747673,-79.6399710288353,0.3241762379290124,0.4367836019936025,1.1265604726540994,-0.06909112313539414,-0.23035210695576214,-0.19057779947564618,nm,0.0
74.83026313781738,-11.132010286821476,8.697340696557804,-80.57907511137361,-0.0787531351283072,0.38526948700306013,0.8232790074108072,0.10757578760208861,-0.21474020712904213,-0.22519402048491205,nm,0.0
74.85020709037781,-9.885136248925262,11.663217127428164,-82.19538818568346,-0.06494425889339547,-0.1778578553192957,0.8109229454965896,0.3390009792248771,0.05888690476258426,-0.13804558348706364,nm,0.0
74.85926580429077,-10.196573743623375,13.81406338100826,-82.75492205644328,-0.25908480217829566,-0.34615811050968953,0.4567208227777741,0.4080062995849979,0.10825904818357157,-0.07628959091683427,nm,0.0
74.87963461875916,-12.157339351005232,18.070571047710278,-83.47824788899416,-0.052625079389032235,-0.29342854337650837,0.05598905906930124,0.36141796423552625,0.3306149723417262,-0.002548130500147623,nm,0.0
74.88599705696106,-13.75034613181813,19.93689730496664,-84.40281053616951,0.1524174062691082,-0.11001583095715876,0.08407329655808458,0.328757715077195,0.33144420933766877,-0.049326803649404935,nm,0.0
74.89718794822693,-15.752977693161434,21.6115883013254,-85.77067626789727,0.3421095445794219,0.1198149909193544,0.04320377971707454,0.29089962712678463,0.3946072016324234,-0.09492223743133411,nm,0.0
74.9166510105133,-20.199725812803006,24.554692448532684,-89.16775093171061,0.24318867804461344,0.2922333221538261,-0.2415462835372265,0.2696490194862474,0.3751380811557361,-0.1436457405827535,nm,0.0
74.92281222343445,-22.076294902891192,26.12467341785582,-90.59401081999248,0.21354047483205527,0.26432994818537897,-0.39318195112490184,0.30152385842816276,0.3335933513375475,-0.10529954487490795,nm,0.0
74.93498635292053,-23.632115292920247,27.78121379123308,-91.50128637648949,-0.04927385645551742,0.24843935735547795,-0.6775467644847505,0.32428063757436715,0.2652141063750509,-0.0322979791025337,nm,0.0
74.94110155105591,-24.30949467552465,29.455880377789136,-91.74856322617902,-0.11006949722324869,0.22914495591315945,-0.8474566845244184,0.32595720831023833,0.10347531202474583,0.006786235733784073,nm,0.0
74.96649312973022,-23.86720705772581,31.975921696561638,-90.99985698079806,-0.14968267508645355,0.3171546217529398,-0.962020802546629,0.1910963949510832,-0.07406680868251424,0.04409654501798331,nm,0.0
74.97221636772156,-22.94061881802454,32.362688581487426,-90.4353859866085,-0.1907998914640311,0.3644568437431018,-0.9320102783679529,0.06317142514399264,-0.163983346597676,-0.012054428211946754,nm,0.0
74.99440217018127,-21.09756950279774,31.303752796117276,-89.83481424396874,-0.40735468145295484,0.41567580744562976,-0.6854941840466526,-0.17371123459064663,-0.12481898147190448,-0.06301322755192316,nm,0.0
74.99881911277771,-19.93399570823723,30.12341606983699,-89.61281645082938,-0.3499453059660649,0.29786683521016677,-0.4134007751354243,-0.24752134034218343,-0.2077361000088795,-0.10121215346179517,nm,0.0
