timestamp,roll,pitch,yaw,acc_x,acc_y,acc_z,gyro_x,gyro_y,gyro_z,markers,motor_input
37.508644819259644,21.010500526051754,-20.04952856614643,47.90626766264471,-0.4127896253488049,0.6717097779470242,-0.2610863118925674,0.1484244222839231,0.06780664141948999,-0.016439338305025267,nm,0.0
37.511963844299316,21.301934246956485,-20.329864198918916,47.982374583302956,-0.4678298421450017,0.6543051868475107,-0.27018640382490194,0.09155322812493666,0.004749018352507423,0.0007104962071239487,nm,0.0
37.53464984893799,20.86088363779693,-20.57997759546578,48.73569959687828,-0.6103713752619015,0.5918277480274746,-0.19440892951126695,-0.026660275183931634,-0.05472604820354571,0.023350536775741892,nm,0.0
37.53952407836914,20.0973324306759,-20.441709449955685,49.24287356289499,-0.6074204621417278,0.6078266435238873,-0.279977160122947,-0.10144478068464675,-0.08836888323853506,0.002507631746547464,nm,0.0
37.56325387954712,17.891017016826012,-19.765727641831226,50.25333891439115,-0.5091124908722925,0.5733509679890078,-0.16151004069112204,-0.19555689688285569,-0.12119399894979227,-0.024262900996092077,nm,0.0
37.57133650779724,16.43587744991176,-19.265389058929486,50.7233903786731,-0.4060885196217955,0.5496728082042729,-0.20998738765861322,-0.23850541017902013,-0.14680565711645677,-0.022197891661835882,nm,0.0
37.59221339225769,13.063596185207468,-18.22142261713914,52.378733965581866,-0.245364915373983,0.41677866316821205,-0.20495395880208547,-0.2774464834337201,-0.19797862668892552,0.03341698930365285,nm,0.0
37.61632299423218,9.249959527856287,-16.95025743276531,54.590603016006106,-0.1551843046890226,0.1673873201131298,-0.3383609064786025,-0.31024048042253444,-0.21762823923901561,0.09646840289573515,nm,0.0
37.617937088012695,7.352706969678742,-16.22417757854681,55.909389989068885,-0.06346477358295827,-0.0069300201460709525,-0.4048739881919681,-0.3127358272125147,-0.2155456603927552,0.10239785896203764,nm,0.0
37.624921798706055,5.58516024485747,-15.398473648614331,57.11710673287693,0.01583930273701463,-0.1785168501310649,-0.45759150821439104,-0.3115533200054607,-0.191950674575855,0.09507700241875125,nm,0.0
37.63439989089966,4.214571615509993,-14.461566680938107,58.07102255388704,0.15932804938598988,-0.3669502530560924,-0.5687044101017078,-0.28651742076832204,-0.12210160545564455,0.0936133614048525,nm,0.0
37.661447048187256,1.9119849875206376,-12.224853981826332,59.39545271908987,0.651322970185371,-0.8545356209378437,-0.03813081753911967,-0.3213526117531933,-0.09177698635857895,0.05636142777367751,nm,0.0
37.66412687301636,1.489579647771079,-10.876064088574989,60.0341068290711,0.8992446924380836,-1.1647338631261406,0.5857872135683028,-0.26116404594561754,0.06621852372691997,0.10709661602392569,nm,0.0
37.68866324424744,1.11607996340815,-8.282593050027623,61.45017716303304,1.0804876870330142,-0.9831599390706911,1.0175320416852995,-0.2455510499450649,0.04070337073286756,0.12215972559437575,nm,0.0
37.69338130950928,0.5110664109293859,-7.365127671051552,62.08384316320422,1.0822897053051634,-0.7400584658187505,1.1390761333602297,-0.20489864686775475,-0.01704890087326535,0.1062393640827594,nm,0.0
37.71572470664978,-0.06187149952495478,-7.550616369250472,62.787404627183335,0.6899488009745882,-0.09764232428348277,0.9272485996532153,0.08970325472322514,-0.05769556917007211,0.02388400827430066,nm,0.0
37.71971249580383,-0.038196933956306994,-8.68516738870225,62.6602718656679,0.4116414695743926,-0.030859352482914427,0.9892267047263256,0.21791956433967843,-0.09784293003317773,-0.04297768069775722,nm,0.0
37.72944450378418,0.33234382459379136,-10.250088540403514,62.14872968789239,0.246340138191709,-0.1343444435611057,0.4889206979359774,0.32543870335622277,-0.07833002101456084,-0.0939039223006762,nm,0.0
37.75453996658325,3.0290380235042282,-13.919215454536726,60.505469982840644,-0.2643217012687744,-0.39159494703481473,0.26028126268163104,0.48610531216262526,0.0914827352917995,-0.11393094140649287,nm,0.0
37.75736594200134,4.8660592239783815,-15.493330542429101,59.51931029483124,-0.17018231051987825,-0.42184507868417753,-0.10426519863326239,0.46461150152192277,0.15265152554326683,-0.10781272298468829,nm,0.0
37.77111315727234,7.360802342774384,-16.706384125302975,58.47460551775717,-0.15637831803922747,-0.2960358787080049,-0.288375896300454,0.4693322119638449,0.2879932084353821,-0.05560648849009444,nm,0.0
37.79080247879028,12.817524442323649,-18.4558373590594,56.5323242328616,-0.028345619214305416,0.11407644941663642,-0.23830211566984127,0.41239589291242224,0.3275097109770966,-0.0152946663574927,nm,0.0
37.795456409454346,15.402465218437051,-19.18765656727435,55.64773577596957,0.052621499316071664,0.31019730429054365,-0.40631466124839866,0.40848539189387906,0.3270472007139896,0.002039339272715436,nm,0.0
37.80567288398743,17.953437041684033,-20.08750198747455,54.77528009893934,-0.01924785512533966,0.35878172012509774,-0.20255065990493518,0.43576931204652025,0.2947943461437214,0.002200174746885427,nm,0.0
37.81696891784668,20.03084642509684,-21.101465369697316,53.88879248638189,-0.016417376427351735,0.35768829396087637,-0.27822239711674146,0.40509305780365734,0.20078803725651098,-0.03651234626406965,nm,0.0
37.84553813934326,24.151010135202466,-23.55297301662307,51.33607009309968,-0.4120571806635502,0.19896990785251858,-0.44413977393604764,0.22041113907957374,0.05205646267260274,-0.11906952778984575,nm,0.0
37.85524368286133,24.58711606634525,-23.92090936056595,50.61607765930608,-0.4702668586768908,0.23178676192048014,-0.42919271265621256,0.12060477434083704,0.018686518526857276,-0.12523472607265815,nm,0.0
37.86559200286865,24.49301937512242,-23.97733452444272,50.150803529310586,-0.5433639850677576,0.2822539753686233,-0.31480181633908966,0.010810436648487739,-0.01765935246714346,-0.11656032825748672,nm,0.0
37.887741565704346,22.51880279572676,-23.59664261317166,50.452972645934686,-0.4711748806612523,0.5589972991353336,-0.12730994503506615,-0.17131880057465515,-0.14011412052249908,-0.08739946751292611,nm,0.0
37.89430832862854,20.852659726792456,-23.242403766620203,51.15979366096335,-0.47716126545607934,0.6682916856140431,-0.06476039231047002,-0.2346399107444943,-0.190609177805401,-0.05544597124656168,nm,0.0
37.90064358711243,18.89558856994616,-22.885411376946838,52.101835490873285,-0.4927829497513507,0.7332089721597091,-0.07818870661234996,-0.2658631949141095,-0.2366150371374521,-0.026591013531111953,nm,0.0
37.91195869445801,16.82190765455597,-22.54488045527971,53.16743206732297,-0.5221437219860062,0.730055020428975,-0.08811535384955763,-0.27262690242168997,-0.261271899476657,0.002640629413161983,nm,0.0
37.919159173965454,14.734840035919579,-22.15284026752101,54.27755599108773,-0.5529681008867058,0.6541184000023398,-0.1758860990796508,-0.2780628962142171,-0.2632196377996529,0.03008582801800707,nm,0.0
37.94133234024048,10.79381833186505,-21.15388022825332,56.68804483341635,-0.4627679327685695,0.33124531417906095,-0.37983504279968594,-0.2754353440007246,-0.23422862093748897,0.07423303786073875,nm,0.0
37.95370125770569,9.033642835620752,-20.45719701999053,57.876617076294124,-0.35309600190326507,0.13202268517672489,-0.4271943924370224,-0.28159562887744344,-0.1995672720749302,0.10009578644275162,nm,0.0
37.95807695388794,7.421694640143909,-19.562999605668608,59.14910407910203,-0.21346298118790022,-0.05040025766472209,-0.46244091663732556,-0.2971789877575152,-0.16292416844463567,0.12376178591696066,nm,0.0
37.96768593788147,5.95165043896635,-18.488182239122732,60.39119690787355,-0.03723790828594612,-0.22378648622539002,-0.47397980037249987,-0.3122133960134474,-0.12968120805763025,0.1422751914878454,nm,0.0
37.98569464683533,4.77143349131371,-17.258292913715326,61.616997701982505,0.20610015676627513,-0.350385450447476,-0.5929436760890245,-0.3106300712214839,-0.0748047397178397,0.1648759134852009,nm,0.0
37.98735332489014,4.098450324858168,-15.899076471779201,62.79107175965327,0.04875790681460773,-0.550678650464817,0.13954046033694179,-0.2872624181381755,0.01536422160091196,0.18894866931184487,nm,0.0
37.995262145996094,2.9984966064198186,-14.407791711614067,63.761861793724194,0.5003910243772935,-0.6934241446658789,0.17152691582907273,-0.34859594361176865,-0.05280903478388341,0.1331763961397862,nm,0.0
38.0179500579834,2.248656187064281,-11.42139036442029,65.1268374020857,0.7283190703144441,-0.8541528528729605,1.2540479940117444,-0.25228114207436436,0.11287087016157224,0.1078528143542576,nm,0.0
38.026097536087036,1.7067089733400975,-10.308536631382292,65.33464665444637,0.954642061282931,-0.5500830465288704,0.9992187964709538,-0.23337387508826218,-0.0005807672904240268,0.017191361644098836,nm,0.0
38.05063223838806,0.9476671772461971,-9.768632141577806,64.73163138842428,0.7155585727714195,0.03589066463436315,1.0322772530982527,0.007817824158166484,-0.04548611598560667,-0.12282676784735534,nm,0.0
38.053431272506714,0.7948005227540387,-10.595626947682893,63.903228830372825,0.5990097183027546,0.17381931059344885,0.691358843136493,0.14998037001831555,-0.09640213345054208,-0.18840375493586822,nm,0.0
38.062337160110474,1.222471473174598,-11.995733366739701,62.88223939386131,0.3644814023912718,0.10864178655527486,0.4395914445151805,0.30211652270599065,-0.047929246291402154,-0.2108008574658771,nm,0.0
38.08623123168945,3.8988087599903736,-15.633516615906718,60.243427535738476,-0.17559119026564,-0.2401535025375656,0.33343345223681387,0.48903042638787964,0.08399047817814492,-0.21278364589170282,nm,0.0
38.0956711769104,5.858048274227568,-17.31225296964513,58.62724804521362,-0.07937244357088022,-0.2605358472101212,-0.14403365844237448,0.4945573240008978,0.15502187721244892,-0.21597013693063202,nm,0.0
38.116132736206055,11.957166616741143,-19.833319041513658,54.479168506920274,-0.27365593415567063,-0.2098119155437502,0.131369923499621,0.557318039639621,0.3749843023250912,-0.1798851712462813,nm,0.0
38.11950945854187,14.913173382563668,-20.859218279162455,52.3283660532697,0.037066775201910894,0.00547289095691208,-0.16295035891651935,0.5094872653991293,0.3246247900938594,-0.21778433811911352,nm,0.0
38.14734244346619,20.45660172222019,-22.5234252193655,48.287970568641114,0.09283886988839382,0.09786266079781009,-0.1512777735373504,0.45262689328517475,0.2568741103068797,-0.19706222419855493,nm,0.0
38.15171146392822,22.470566371851397,-23.477580617490652,46.468699042576056,0.10669877812397087,0.10301615965654684,-0.3411450571308854,0.4053337904434822,0.14528772391638267,-0.20536935854758612,nm,0.0
38.171717405319214,24.69489227566055,-24.991600854345993,43.82999364876484,-0.38752427534412454,-0.1192087290719495,-0.48717406022493537,0.19271156176382045,-0.0012117792154057784,-0.19206559039593699,nm,0.0
38.180346965789795,24.641499302130775,-25.364783406872593,42.96384997901342,-0.49531411216734217,-0.10093587263377951,-0.6406530709412782,0.057771238390583526,-0.05964824479363948,-0.20278335150093182,nm,0.0
38.18614435195923,24.017814832459795,-25.352426587627708,42.51847849568785,-0.6255538757168886,-0.07672052016428896,-0.438407178502562,-0.07096283602636959,-0.07387409718488794,-0.19060841159920341,nm,0.0
38.19664549827576,22.592585210613393,-24.88721395016157,42.345217441546254,-0.6090975307973415,0.08995820167291982,-0.4078816876014115,-0.23990482713853606,-0.10516449385334016,-0.19166165128095813,nm,0.0
38.219950437545776,18.083025664655263,-23.336481521873758,43.00092212099468,-0.40187310691851574,0.4964755380145744,-0.10359755125306494,-0.42840954048678936,-0.1863287315368562,-0.14157330576428936,nm,0.0
38.22378635406494,15.211335865490893,-22.473367739096314,43.806471877613944,-0.32222072034282767,0.6811026907438515,-0.08913276262688527,-0.4894846339490399,-0.2391939750866565,-0.0963862424659722,nm,0.0
38.24885535240173,9.117524085597893,-20.96739722844582,46.24765615953499,-0.32088108899273204,0.7880525560076946,-0.18132976995251388,-0.48176171970342707,-0.30867863508875204,0.02820856147778614,nm,0.0
38.25557327270508,6.233955223925908,-20.305630902038,47.67048620839325,-0.36252132137163345,0.6926152628644741,-0.25183687375162156,-0.45163703339921774,-0.304844084811642,0.08457041917105794,nm,0.0
38.276336669921875,1.2309155728332166,-18.79432115276866,50.56130428429176,-0.3421644583310314,0.26228175875277177,-0.4226678325548208,-0.3958637774225157,-0.24013456027169935,0.1495490895900774,nm,0.0
38.298343896865845,-0.71561923904161,-17.861747826940565,51.946640848245345,-0.2294275115800862,0.036985909506265464,-0.4455922216539372,-0.3631072108769577,-0.17163849445875018,0.17439341468594496,nm,0.0
38.30217266082764,-3.2120291118457844,-15.383738784770667,54.48822506732377,0.1492212020421953,-0.374080751775106,-0.49170791226435046,-0.3139272443892107,0.0012000078103022215,0.22679067411414025,nm,0.0
38.356539249420166,-2.264051365281627,-9.864860561544626,59.132018058047656,0.4889241355124676,-0.8061666837396334,1.2275815800375345,-0.07594732977678822,0.3031821321716888,0.2867591021417775,nm,0.0
38.35942053794861,-0.6189783093422225,-8.86162676216498,60.07840326752974,0.9929510315262461,-0.4906546255897412,0.8203993658736575,0.061012417985342716,0.18047211031207228,0.1135455287125001,nm,0.0
38.37372970581055,0.6590427062132763,-9.19821949141955,59.85230704325439,0.7880330369980919,-0.3083918121641982,1.0693054837947238,0.19907152568449518,0.1860530911572458,0.03849119453520081,nm,0.0
38.377951860427856,1.8482118656239874,-10.03913461783222,59.34874196559485,0.7672244661700264,-0.2577335293538015,0.7191904865360711,0.2779933726929709,0.11832309946410338,-0.034227524419668316,nm,0.0
38.401939392089844,4.979770557570327,-12.599138936005737,58.3430240531278,0.2670090468919699,-0.3782712704623493,0.5305476597930373,0.4161947302651935,0.1337119654472362,-0.05113941730672834,nm,0.0
38.40627408027649,6.652754825053551,-13.9722617070956,57.784720876214905,0.1366000409539374,-0.4273373785131614,0.21691343345689257,0.4194601733475435,0.13292859980120653,-0.0391177751841321,nm,0.0
38.42831778526306,10.517794323024544,-16.15316236268599,56.58544391384732,-0.13055977392633825,-0.297151886350244,-0.15862021428971163,0.386054581715068,0.214632374919761,-0.017391078192385768,nm,0.0
38.43382287025452,12.598717672578328,-17.004926041458962,55.848647070468985,-0.13681530589318772,-0.147006121316819,-0.20431445206683607,0.37724182527594263,0.2391459187058656,-0.03350234264474335,nm,0.0
38.45790481567383,16.25712763715192,-18.35267744604326,54.04443352936439,0.09792501090799269,0.23369972210535864,-0.48206971440832347,0.3031086073858477,0.19844444529846855,-0.09657476709716845,nm,0.0
38.46160936355591,18.13420697845687,-18.963123375970635,53.204211444738235,0.010507021094692766,0.3510328277320187,-0.33776609903231836,0.3225183707505618,0.21687906678965335,-0.08324332237098753,nm,0.0
38.485515117645264,20.89073819174896,-20.297567952897968,51.745570504225014,-0.12196189539771395,0.4233305417872199,-0.40260466362124575,0.2519433492515501,0.09381610402940982,-0.09630467235074877,nm,0.0
