timestamp,roll,pitch,yaw,acc_x,acc_y,acc_z,gyro_x,gyro_y,gyro_z,markers,motor_input
76.52033519744873,-17.21569293258266,15.850410910633325,-81.37420316360044,0.8989193668153971,-0.2908245280278076,0.5455384963386868,-0.37473822395401496,-0.31917338585325544,-0.006013610498501906,nm,0.0
76.52227687835693,-16.159891300231486,13.913058464839182,-81.03269419440089,0.8994226608144689,-0.28874129240467983,0.7831615641995787,-0.36267392295450074,-0.2705752158962672,-0.03527411981972486,nm,0.0
76.54867815971375,-13.904995429318745,10.936504173078438,-81.71290950629766,0.650498560419276,-0.09068247602877949,0.8060488855904658,-0.23189733338364482,-0.28258121915123013,-0.14789284237617709,nm,0.0
76.55074048042297,-12.91125276092498,10.14558015200677,-82.37084748823764,0.3268773221820915,-0.02367788616733745,0.8279924645506279,-0.14091523534588454,-0.22410547402586828,-0.17176874260123537,nm,0.0
76.55821871757507,-11.753486912006545,10.01044920690998,-83.01481291821705,0.015314635952662877,0.020042747078979895,0.7239397601611265,-0.009009935079913907,-0.23810843477463212,-0.17336334819203839,nm,0.0
76.5849859714508,-10.544548000146273,11.742763882441343,-83.86274546184646,-0.11368059354197303,-0.10660687867996708,0.7857317041493396,0.21974991396201266,0.030598146147284646,-0.06148401343517071,nm,0.0
76.58808732032776,-10.750466770107437,13.376874527588305,-84.08676491024708,-0.22346507340375885,-0.17324657826244227,0.6278317173941175,0.3099325037186982,0.06620100248577826,-0.011332470141978242,nm,0.0
76.61310386657715,-12.802483824795846,17.220099318209478,-84.5640645325376,-0.08089049303656216,-0.2697497399075621,0.281720526841853,0.34765623526786094,0.32812957457123165,0.04736099569092961,nm,0.0
76.61542749404907,-14.496093831041154,19.118143105983734,-85.14262726069524,0.18162684077982008,-0.2516280509126398,0.3009890043692693,0.3383547433670753,0.34726340251949556,0.01233176767616089,nm,0.0
76.63996982574463,-19.380899053550618,22.46939588378475,-87.43003279649812,0.16654654692905937,0.01106546194643915,-0.15903232808523518,0.27709777941343755,0.5018877232917589,-0.014426223139807442,nm,0.0
76.64307689666748,-21.82246690597154,23.948103177408427,-88.68656944950004,0.3658200753069021,0.06810037727507733,-0.13440978759789068,0.2692340963717354,0.4517326258381748,-0.021518691799155738,nm,0.0
76.66748309135437,-26.45092794276163,27.102223702639847,-90.51267772866794,0.2436856609066468,0.2395360196532721,-0.38516643158137714,0.31541668416705426,0.38378485594531253,0.06695678275725217,nm,0.0
76.67647123336792,-28.169871102754858,28.840161210375378,-90.91171145656044,0.11643078326904951,0.3392252471554921,-0.5384413798726482,0.33952237502171834,0.29260048057279087,0.0991385921233942,nm,0.0
76.7019670009613,-30.396929484261282,33.23434186222359,-91.01176343518725,-0.020760790493474745,0.5350098956235264,-0.7505606654576163,0.2119572961769441,0.06266608413325121,0.03212294028018103,nm,0.0
76.70926213264465,-30.514469426156616,33.839030121407745,-91.12686601380379,-0.06279545006398514,0.49412514681751984,-0.7350441793629697,0.10896484128813336,0.010713759423474899,-0.025155076234424097,nm,0.0
76.71902823448181,-30.31789793316932,33.94584019955767,-91.28571947979727,-0.2135689751347292,0.5119195035784014,-0.7531910078367647,0.008238349998768024,-0.039744507142874114,-0.07175467218949372,nm,0.0
76.74338841438293,-29.225858451512355,33.09299992445518,-91.21332841436653,-0.30886799917485774,0.37565553684806374,-0.5662436678312273,-0.12535898589455552,-0.08914795272409502,-0.04535066540644418,nm,0.0
76.74984669685364,-28.191529063129877,32.42241074432596,-90.65608145119103,-0.2849070307770657,0.3564759453865908,-0.41434132307899796,-0.14936905433221967,-0.1787109408752088,-0.028569760291089496,nm,0.0
76.77228450775146,-25.568391524092526,30.840923854857504,-88.58966154618192,-0.26783347410426145,0.39195562309082144,-0.2842744516722765,-0.17723079240475403,-0.22792352290477016,0.07127889688342626,nm,0.0
76.77660274505615,-24.111577793390385,29.868282689893135,-87.34081261762178,-0.08538014522630227,0.35741258831230976,-0.18872007993786538,-0.19750136712308516,-0.2656945631497349,0.07245857899562252,nm,0.0
76.79140186309814,-22.8530771551195,28.69850865240121,-86.26891504353449,-0.01689264830732732,0.3339509492798747,-0.20435346017380143,-0.2334292467511089,-0.23983475609423302,0.07204054708353977,nm,0.0
76.80508661270142,-20.772565212624738,25.621847588792363,-84.87263621112244,0.17387718537158128,0.12527841407364135,-0.22777376066545701,-0.32684472663848646,-0.2164918452359956,0.011277015986695003,nm,0.0
76.8198664188385,-19.93919419782255,23.77705531753746,-84.50445518137975,0.2013179038598218,0.011003936371605266,-0.25074156420463173,-0.36544536133763095,-0.19281596378155744,-0.004655671983807558,nm,0.0
76.82506370544434,-19.062961231078955,21.80543606764099,-84.18431119259448,0.3074561966146956,-0.12613851661614772,-0.17175527213488562,-0.3885207305791934,-0.20768393201126395,-0.013452219247115125,nm,0.0
76.83501172065735,-18.12179161731105,19.796333846982385,-83.82058975657485,0.4978533483199929,-0.2610072728549363,0.07068915851285351,-0.3931853713720826,-0.22520683016927617,-0.004990228796324754,nm,0.0
76.85616397857666,-16.34884589001045,16.004570356863248,-83.02678990190593,0.7734656887086585,-0.37006912538520437,0.763681661925263,-0.3566692629848947,-0.212549122002088,0.02838839143040657,nm,0.0
76.86498141288757,-15.554229713541833,14.43111950060565,-82.69781893574267,0.5207933872883075,-0.27016373667777427,0.5872849130679427,-0.3048646900756634,-0.19972427383236277,0.02049799764337144,nm,0.0
76.8729338645935,-14.465215317217362,13.263817441604662,-82.60426512656281,0.6406231028029403,-0.155783610747483,0.8654537517433305,-0.21615424410704795,-0.2480153269853641,-0.02233274971007177,nm,0.0
76.88068127632141,-13.602463246314727,12.597069188030721,-82.73302085721984,0.5185917844534256,-0.06178946732893946,0.9818568646523754,-0.12225762827379402,-0.19222682651208833,-0.05896070137298897,nm,0.0
76.90681958198547,-11.990965176924428,13.022125160849773,-83.37259307053527,0.48472467342174774,-0.1306719032394264,1.2735523251930985,0.11217301265017382,-0.17411600976247854,-0.11504786432021064,nm,0.0
76.92879128456116,-12.78639461033473,15.60758935962945,-84.15457565256634,-0.06082667483511457,-0.3466446180358438,0.5422857046678821,0.2761200007021594,0.15462301075602447,-0.023108886626395535,nm,0.0
76.93042087554932,-13.547209009197452,17.37186184583876,-84.4793804591628,0.36658224888674146,-0.433775793481019,0.7501846597376165,0.32583221844484145,0.17224882129252952,0.011327115775717178,nm,0.0
76.95666909217834,-17.06903506946114,21.09906658888307,-85.4253112494664,0.2938622879427514,-0.2853773771974174,0.14764218305610813,0.3353610364231952,0.36954485737674764,0.0661707666585555,nm,0.0
76.96866703033447,-19.216999391216994,22.92383348034048,-86.22193330697283,0.5155268089434631,-0.14202707121314295,0.07620939687686838,0.32441343384018884,0.4163011598873013,0.05135907688311223,nm,0.0
76.98365879058838,-24.12814454883983,26.109902692654,-88.44231191723556,0.40485478568146377,0.11739359019710828,-0.21698194503482407,0.2799160623968375,0.4281320244671622,0.0123596952044602,nm,0.0
76.98523306846619,-26.400138114868113,27.62599408304375,-89.49056745166172,0.3466411467603485,0.2021790144803988,-0.32231002049043744,0.28417599889203105,0.4040739962819373,0.01114804610180662,nm,0.0
77.010244846344,-29.84659500837772,30.74698887309149,-91.00754634103382,0.15775872523379042,0.34123224272063857,-0.44098916552962314,0.3084098536347134,0.2404126707566009,0.028777975018605257,nm,0.0
77.01419353485107,-30.971930643113854,32.35837680529684,-91.25738425391674,0.01913046595376048,0.4236037985762317,-0.5139396922016388,0.3137827417670879,0.17906723043697478,0.046871124604314696,nm,0.0
77.02346444129944,-31.70824239085374,33.86362919551076,-91.30191369320382,-0.07754740313879978,0.47869114049087985,-0.5471681680033733,0.29152347778124904,0.11025838001683391,0.043924745201295336,nm,0.0
77.03338575363159,-32.15227746024681,35.10453598875168,-91.40146839516107,-0.07295056152347898,0.4815549347989397,-0.5300416527632077,0.23769905900682323,0.060627235920947445,0.027600426430329388,nm,0.0
77.05547785758972,-32.73216006515414,36.38893819400021,-91.68425025558847,-0.22299241505023945,0.4971159556025606,-0.5331988850520739,0.07320175355757773,0.026486278409613057,-0.016835325917523524,nm,0.0
77.06188917160034,-32.85201047292372,36.385706941773975,-91.84374100385841,-0.2617631218228126,0.479560694197085,-0.5010283719406441,0.0,0.0,0.0,nm,0.0
77.08593964576721,-32.54322504897925,35.498657479139915,-91.69312556620169,-0.28338223867299256,0.45086297940847675,-0.37517303123509455,-0.12346736513701691,-0.04878084843171885,-0.002926695004213489,nm,0.0
77.09028482437134,-32.04549892094694,34.85099622710398,-91.17426896494887,-0.26935130332910345,0.47346806160918925,-0.32696142383650423,-0.1440876678023205,-0.08507110849027902,0.034057269238802285,nm,0.0
77.102783203125,-31.309354702565567,34.15378329138953,-90.33455100168612,-0.21773415472362043,0.5021221264286927,-0.2867372837290136,-0.15347801559741595,-0.126663055504163,0.06699100754932344,nm,0.0
77.12269759178162,-29.393764001815132,32.54145664945815,-88.21067006504511,-0.04763083935482102,0.4989062542926549,-0.27069649982945626,-0.18035894387165322,-0.17840603220621123,0.0870992901347424,nm,0.0
77.12832546234131,-28.355251237261218,31.512624224438525,-87.22469536647881,0.04511571406191641,0.42938694736664995,-0.2928121597646167,-0.21070657407988416,-0.19193072994736285,0.06459357904812994,nm,0.0
77.14036464691162,-27.318866847327673,30.26593112473959,-86.38652608039045,0.11609371224904896,0.318961628903817,-0.3242324184775475,-0.2510419495448197,-0.19953429673819748,0.03129166832200612,nm,0.0
77.14935779571533,-26.253620650183453,28.782652277327937,-85.71434076673658,0.18500170419863138,0.1886164338877818,-0.3172125421655601,-0.295124020288103,-0.21362290742016118,-0.002686546603323617,nm,0.0
77.17230033874512,-23.908454375566073,25.270235059854713,-84.68903965566037,0.3739604331111194,-0.1349007477167007,-0.21012459698493302,-0.35606016052058964,-0.25614569447015034,-0.03045362790588209,nm,0.0
77.17547798156738,-22.61703525514285,23.382681124666906,-84.12862668891898,0.471517055818495,-0.2347363304586314,-0.09151393608469112,-0.36454700281301206,-0.27965755726374614,-0.023286629776000756,nm,0.0
77.1857054233551,-21.24581491413773,21.47793370302667,-83.55388897584253,0.616094860646376,-0.314397467374759,0.13028595937933612,-0.363277323435616,-0.3015896107359943,-0.012632107213348039,nm,0.0
77.21136403083801,-18.517153174518818,17.85732313339998,-82.53156341840128,0.8245723058284922,-0.36036235675494555,0.6262356353181315,-0.32639328115609373,-0.30585794340656947,-0.01934785527721834,nm,0.0
77.21359896659851,-17.24465994271074,16.37725024316617,-82.38814202447105,0.7907308091576034,-0.28998064987425,0.6873899220314365,-0.2731142751030751,-0.28862649528333,-0.05404392610770718,nm,0.0
77.22369742393494,-16.090749713520438,15.268810446405245,-82.48860386575797,0.6929684650732102,-0.17683735424527755,0.7856113405427647,-0.20190077757777675,-0.2579602063578944,-0.10234483900504485,nm,0.0
77.23336052894592,-15.10836276687617,14.577686677342935,-82.92230721447362,0.5208701354200548,-0.06845430569288134,0.8777048411619633,-0.124411716306071,-0.2142974136447644,-0.14796950622445748,nm,0.0
77.25159168243408,-13.85573579586693,14.787500731675516,-84.5152249908178,0.1923311646281118,-0.0580189669398621,1.039674337768356,0.07655588340045087,-0.09192345744747166,-0.1789654420157167,nm,0.0
77.26473951339722,-14.037025529081037,15.685030719084702,-85.35013887616223,0.13460705622409122,-0.15708872599734347,1.113500799617813,0.1643370504129541,0.04302672393801463,-0.134847705533189,nm,0.0
77.27115511894226,-14.889198874719364,17.046480421578224,-86.08736493341196,-0.06393900030327349,-0.1282384157919513,0.7246911038398216,0.24806332611420573,0.17598475661826188,-0.07701584887860193,nm,0.0
77.28146719932556,-16.122436804248125,18.750554773181534,-86.7550070871044,0.0571946452065792,-0.12408721965241637,0.6670690106774401,0.314241715256964,0.248331649321133,-0.037607485961182324,nm,0.0
77.2896499633789,-17.944659677619,20.651566797847384,-87.56501607781229,0.13252359077099068,-0.14134965135048752,0.518602845244046,0.3516399063306307,0.35441633500741815,-0.007951420063176578,nm,0.0
77.31405901908875,-22.638985518976178,24.647253642430336,-90.08978937899066,0.2910381900109029,-0.028507829558471087,0.12179812012193514,0.38097356634548185,0.44732970515402454,-0.033134554409263224,nm,0.0
77.3199098110199,-25.341950312332422,26.505197685408717,-91.72339656832317,0.26386383095449883,0.008969389248396234,-0.09797130380296847,0.36817871294338406,0.47497381144058104,-0.04276778148309219,nm,0.0
77.33011388778687,-28.01658214386394,28.279232189739652,-93.34967382844448,0.24379879197782295,0.05006410043456181,-0.2588885527583625,0.36373112342820824,0.45261014457623683,-0.05120611596852257,nm,0.0
77.33872413635254,-30.51733224544169,30.006806385142255,-94.84209233544667,0.20897157679678577,0.11309754409926746,-0.4129462496554769,0.36365025769284864,0.4051943685619932,-0.04123054599625019,nm,0.0
77.34679079055786,-32.70825977218847,31.677200622263634,-96.10625806570295,0.09817960841393027,0.17626523585578238,-0.5580951128346632,0.3561545924312918,0.3367990682817469,-0.012965846643011217,nm,0.0
77.3584508895874,-34.38646639993816,33.28897867289131,-97.00901116315862,0.04456408191567082,0.24643183029106513,-0.6669389705166079,0.3400786524602181,0.23872208496877684,0.0068084400411559595,nm,0.0
77.37946486473083,-36.333927782502684,35.9518393236213,-97.84517680668517,-0.09388275014261928,0.44725606577476645,-0.7783598325852633,0.23891298517050907,0.08367541284843612,0.02682419303325413,nm,0.0
77.38551950454712,-36.68814675403664,36.715027932153376,-97.9661836810906,-0.11168012060152559,0.5105635130404231,-0.7557646984673646,0.14620089917294868,0.029745566922487348,0.015565478695073139,nm,0.0
77.395099401474,-36.78388906498667,36.97999821550334,-98.00089372796741,-0.16767023768284964,0.5684256298416823,-0.7165336269854006,0.0,0.0,0.0,nm,0.0
77.40787100791931,-36.63656794683932,36.76061098932268,-97.91286199076683,-0.19003343279592175,0.5622394503098808,-0.6574570892688845,-0.05979693161386668,-0.023144785346078098,-0.013947197453818947,nm,0.0
77.41381239891052,-36.256542471153416,36.1353872319534,-97.69900345485415,-0.21326556900115898,0.5559277149467672,-0.5908556240395962,-0.1453498273554521,-0.049574555049160855,-0.01901399652644472,nm,0.0
77.4395079612732,-34.61324969536244,34.1738335386985,-96.59050036328674,-0.1883808884579269,0.4699896989876386,-0.41227112934493143,-0.24129060012504158,-0.14163048141469448,0.007507912436757838,nm,0.0
77.44238209724426,-33.347238899364335,33.07793520218247,-95.60587374494875,-0.15169933070467503,0.4384993782437781,-0.3517565215025323,-0.25336006148681584,-0.19286884778037267,0.03389781031201424,nm,0.0
77.4516830444336,-31.841915588199345,31.942076981019643,-94.36949508644871,-0.10795749926887904,0.39929834813655424,-0.32677935250508766,-0.26123766484266625,-0.2399387931210346,0.058563912064520024,nm,0.0
77.47683763504028,-28.427027818183863,29.291865347249868,-91.62404691063274,0.017093481336086208,0.24352952026371003,-0.33623641049226266,-0.307819983264267,-0.2968678645595382,0.07397089836387327,nm,0.0
77.47987413406372,-26.690257366738027,27.617102323867044,-90.27512943238563,0.08910421145978356,0.12722544344507772,-0.33981539458466525,-0.35228698110384354,-0.30750364192285407,0.06303010438560504,nm,0.0
