timestamp,roll,pitch,yaw,acc_x,acc_y,acc_z,gyro_x,gyro_y,gyro_z,markers,motor_input
15.00294303894043,-3.4457432599872493,-5.757301130299788,82.60166718859881,-0.35619433990221117,-0.0549276161491503,0.03887778853931704,0.37515742148494274,0.7053590599192308,-0.017857483774957043,nm,0.0
15.01090955734253,0.3568006197917332,-6.719115374279113,81.90836951965899,-0.023705834809564338,0.015898825617087328,-0.1052852601096227,0.3070473306417236,0.7295216078364712,0.002255295165115814,nm,0.0
15.033672571182251,7.55823932006083,-8.701070001266183,81.48853865063076,0.10459634376251915,0.27231182001733906,0.16484509964834598,0.31558501262073413,0.6440361220377833,0.12923246926483417,nm,0.0
15.056903600692749,11.274405530413246,-10.451910486311478,82.33212084487523,0.20905860356335615,0.22604796122874832,-0.49479571242003834,0.21938746223220093,0.25231474078138316,0.14482423858203872,nm,0.0
15.059640407562256,12.24666597466698,-11.381645430377656,82.69478667637108,0.02624662700143074,0.1818602699312523,-0.16443535131051185,0.2205188708641555,0.17263699924164191,0.10376713060972202,nm,0.0
15.081293821334839,11.795797713348986,-12.609028618662537,82.83420953104394,-0.22555437765527447,0.22342278578084554,-0.20655871118726138,0.09537451795369435,-0.11488242116257592,-0.08924919017876323,nm,0.0
15.0868079662323,10.47259959690826,-13.07048302757551,82.44871527076593,-0.22380013479467914,0.4052222627310941,-0.5342771740663048,0.07040296895120786,-0.26053162724773293,-0.18813229449126392,nm,0.0
15.110526084899902,7.621343381142659,-13.986484588996976,81.62254463613648,-0.671440806729545,0.44497129387551787,-0.14263624823167784,0.05801323412302745,-0.2909268143884195,-0.19970565518710787,nm,0.0
15.115879535675049,5.455948961798994,-14.434675408878677,81.43578465609251,-0.6391888512772989,0.49525957794709224,-0.6271036442271603,0.039740691085409896,-0.4219080573001088,-0.19692330849540104,nm,0.0
15.137775659561157,1.7773760085503487,-15.18167381441965,81.89450416984364,-0.9474098384336102,0.2401321542960956,-0.5714394151688575,0.023147918556936216,-0.3295460520466742,-0.07647718150500983,nm,0.0
15.144413948059082,0.06514659676816442,-15.252638438192141,82.20434094981724,-0.8211907890676307,0.1371703689599522,-0.9230318590919779,-0.018880080445820846,-0.32278737914911143,-0.06058936985474748,nm,0.0
15.167766332626343,-2.0000158210616488,-14.759779837064022,82.63959823723788,-0.588926685761261,-0.10210965534530174,-0.7306168177134336,-0.08433868384727507,-0.1496427586147343,-0.031591727894901486,nm,0.0
15.174795627593994,-2.632465647907759,-14.07338749660846,82.74120133456327,-0.19821184242971454,-0.17550887671724755,-0.7696068735984717,-0.13932688096560433,-0.09753229078092061,-0.03202206235443781,nm,0.0
15.196449756622314,-2.5267488556673525,-11.922782425775255,83.03420192166078,0.3743801284255217,-0.4411296118709698,-0.4074347786115397,-0.22150235572019464,0.09307360423987104,0.045663114220194014,nm,0.0
15.219677925109863,-2.153715286135326,-6.169831867897934,83.92032703721686,1.2088609440192377,-1.3822151066188149,0.7358821454854327,-0.4347350367188253,0.08430265698993497,0.06946555157911741,nm,0.0
15.24154019355774,-3.7866888157954164,-0.9350642820609969,83.81929039468496,1.336852888343686,-1.1213609912823046,1.7004091708768687,-0.5535358273083418,-0.21225493969148762,-0.08233271959751505,nm,0.0
15.250631093978882,-5.969945309581706,1.673416189217751,83.28126981169038,0.9832046551089877,-0.3970451705296782,1.9148544052836391,-0.5548754427522629,-0.37078938565229586,-0.1451240485556548,nm,0.0
15.271043062210083,-13.394184778676031,5.154432776185637,81.91866747703334,0.35920729751816577,0.9531321349667538,1.1399818822119028,-0.3531104802255888,-0.761496844564433,-0.09496629918170345,nm,0.0
15.279104232788086,-17.331381889059376,5.301203232527151,81.69579101692511,-0.08579926475119559,1.3057199252466039,0.7613920822713597,-0.12771009547591433,-0.7674793307650454,0.025121975509877235,nm,0.0
15.299923419952393,-24.39104139593056,3.339425779351409,83.27721124439033,-0.4214791259929227,0.5138517730034696,-0.12443048636020224,0.18187318443732337,-0.6928563286552913,0.255380802815832,nm,0.0
15.306311130523682,-26.333633964688246,1.6181315931672462,84.58913170462347,-0.8583096690169992,-0.12867615820026754,-0.29476734853424985,0.3142127320417318,-0.41699001610763947,0.30511841844427257,nm,0.0
15.315110445022583,-27.230817938444225,-0.333451539614988,85.78993739616448,-1.4183093270467346,-0.7239208970449087,-0.305829647325744,0.3868808228927539,-0.20593106411490655,0.28142792403174266,nm,0.0
15.337422370910645,-25.900004883765956,-3.988070563630091,86.67156339085065,-1.1719788673818583,-1.0787897666604642,-0.8270449474335008,0.37126783210519604,0.27860630790590796,0.07094570231382075,nm,0.0
15.343644380569458,-23.14741049760057,-5.301583099039547,86.05265383573109,-1.1163820446581774,-0.77949402793987,-0.6936079636902233,0.3112367004688196,0.5374829993813953,-0.03251604882273147,nm,0.0
15.36611294746399,-15.215507474611957,-6.712792968938204,83.80285639629058,-0.43604985818538666,0.4076702272963295,0.058157507375149214,0.19793029315971022,0.8604900595877808,-0.04574305241461121,nm,0.0
15.373441219329834,-10.44376659768866,-6.870915759560121,83.06965415956351,-0.13360728069953454,0.8848245206154876,0.21676671521033772,0.15640185814507604,0.9445508089701669,0.05251334225786767,nm,0.0
15.395437955856323,-0.9603069636339618,-7.863571722195175,83.41869506992835,0.023030151638484462,1.0452884644275382,0.3955757793507011,0.2731716637849964,0.9153329910198804,0.29643226527660305,nm,0.0
15.400296449661255,2.6505575110308155,-9.100229753388316,84.09808334110228,0.21582839435512538,0.6784315264206556,0.1712895518201435,0.3375725679737886,0.6901046221703351,0.3009812927138683,nm,0.0
15.410434246063232,5.5102740645509405,-10.667236445454495,84.5718329113868,0.32843310875714177,0.21535998184851624,-0.20734061116994498,0.3803546660062189,0.5371060879331838,0.22935610246016996,nm,0.0
15.433419227600098,9.242052624402014,-13.458779309822445,83.84950662889122,0.16335373828107652,-0.5450523780833465,-0.4316441718768543,0.27764214572554846,0.24321443162036913,-0.08259828236067811,nm,0.0
15.439266443252563,10.004901013639104,-14.090826804062667,82.8336526311854,0.15129168720609246,-0.56969168574784,-0.6554750459244282,0.15405394697661162,0.14038118771311414,-0.20186969278539765,nm,0.0
15.461401462554932,9.445877739799013,-13.867617447411485,81.16997859266012,0.11285571079865954,-0.06017330774864719,-0.4405088803329626,-0.07597522516417471,-0.1301090069571258,-0.21187215912447546,nm,0.0
15.467423439025879,8.085275722429719,-13.252414919836077,81.29616512960439,0.029648770334863416,0.22627636003379287,-0.2530591629317861,-0.14973933330165956,-0.23637786140580447,-0.10426129177753331,nm,0.0
15.490102767944336,3.5744460565455043,-11.786838293517967,83.19741408568943,0.019990605160812552,0.4989452056788141,-0.537983289259899,-0.19574267434252027,-0.44621020032880804,0.04878448515109992,nm,0.0
15.512296915054321,-0.7338800435904961,-10.27446913004396,84.61243059715376,-0.31872420638102816,-0.0676477301562105,-0.33348788295540127,-0.18154024741355046,-0.4202699919683211,-0.054504747570972296,nm,0.0
15.514964818954468,-2.8713981729991938,-9.491883831363024,84.2820218818717,-0.07037393306908588,-0.35016229348494354,-0.48258929338904655,-0.1836578731656851,-0.39803883863820544,-0.18624374487164935,nm,0.0
15.538392305374146,-5.5941687108153655,-7.41642711665729,81.9961578235904,-0.03356381188411313,-0.8008908010686316,0.35936814455261745,-0.24638387743367893,-0.19961450464669722,-0.3100716254042133,nm,0.0
15.54367470741272,-7.274395143320731,-5.949886479849383,80.87836036617792,0.6167066303940999,-0.8137359058547531,0.2770107810149918,-0.3267670159275207,-0.28142781723081545,-0.2967712338492408,nm,0.0
15.56983494758606,-9.241076722353501,-2.2474093088902722,79.82758912934726,0.3190928709310541,-0.6603635587219325,1.7254208849513128,-0.39275795175719497,-0.09927433142780326,-0.0812374134478712,nm,0.0
15.571535110473633,-10.952150426088943,-0.5934731447802118,79.76739216477188,0.45789224019656566,-0.28507658290040594,1.1518601268982651,-0.37335911040403863,-0.27327465408652285,-0.023248239884100602,nm,0.0
15.594468832015991,-14.439588740077813,1.3717173747047662,80.11253777092448,0.11443453785963946,0.29290340634758677,0.8729828095069831,-0.1837322259205551,-0.2958257637716857,0.0416293619003117,nm,0.0
15.602969646453857,-15.523773291215694,1.2675281273020265,80.43168420886738,-0.0035058640243863987,0.36112293051915195,0.22073806851224453,-0.0027349607104065793,-0.21221358227118878,0.062099955515248294,nm,0.0
15.626172065734863,-15.972292791578196,-1.3971705046215797,80.90512892652727,-0.392947990959074,0.034765442387206476,-0.06102960670596587,0.35047058011892646,-0.055763729121222676,0.05725345719297983,nm,0.0
15.62893271446228,-15.172196430200874,-3.514302280462839,80.91605909766247,-0.2932359503821365,-0.17989466177789104,-0.19185736328510866,0.45727147091691966,0.09606497423338235,0.0336614708300308,nm,0.0
15.651946067810059,-10.236722798197265,-7.307141465783981,80.31847021498821,-0.6426337225703717,-0.3859984869230845,-0.2804958517408537,0.44632837237817596,0.4807746652328119,0.020852115820110723,nm,0.0
15.65931749343872,-6.838910612082229,-8.685500253252881,79.89618531178769,-0.4662870628371236,-0.27118876625092325,-0.38922294279475805,0.40193790223521525,0.621166657071951,0.05685391367019995,nm,0.0
15.666916847229004,-2.7980991323311795,-9.668334972283805,79.57995999735965,-0.48759736641238055,-0.10712289569350934,-0.05578849815024407,0.35059950267527923,0.7559069985186704,0.12057847225013858,nm,0.0
15.692192792892456,5.247922792237915,-11.017729204838783,79.34404145738911,0.05077456530880801,0.23413551886579226,-0.18987423952694912,0.2937594684997163,0.7696628669951253,0.2232058825458625,nm,0.0
15.695609092712402,9.257278828837674,-11.783150245133058,79.69583066341443,0.09053817805258653,0.34723535083539503,-0.16918506285701185,0.3065689565427504,0.7522251223264302,0.2552192792693118,nm,0.0
15.717162370681763,14.902469703373303,-13.356490104772387,80.46320402481513,0.20422059099614975,0.24646521826675216,-0.3083648652518443,0.2365024518126646,0.40581596243807955,0.1714316196209773,nm,0.0
15.72397494316101,16.453694594169562,-14.094489459846594,80.7828120085829,0.20474079476671567,0.20879812358267144,-0.5147340540676496,0.2056035613521118,0.2812419539227624,0.11998354646039484,nm,0.0
15.733822107315063,17.343520605901272,-14.670284024603468,80.96435106275368,0.054317194394752015,0.09572837279990273,-0.2318669306454766,0.15183873905348627,0.15980330448790964,0.07044668724682794,nm,0.0
15.757998943328857,16.211779975286024,-14.976438880317643,81.65852353477737,-0.20518731523901965,0.163979460170001,-0.11111585714726552,-0.01078870173965356,-0.1769605766821625,-0.02893350653477368,nm,0.0
15.761979579925537,14.265987239046744,-14.828630654429672,82.25007831217435,-0.1999634538692881,0.44902836407229463,-0.592891146507218,-0.06981563422142636,-0.3612122697148861,-0.06754744459642041,nm,0.0
15.771435976028442,12.369564090962163,-14.580031558148894,82.97800262707354,-0.4803082293268512,0.48493102131755633,-0.2518806852937943,-0.0843430841286012,-0.35043290626123164,-0.03315049160459162,nm,0.0
15.782288551330566,10.059848809310216,-14.24189607244504,83.77060478058199,-0.8375279206507757,0.5001717491772094,-0.0074175415704512675,-0.10643170575130866,-0.4297547196348576,-0.029758035696592623,nm,0.0
15.792457818984985,7.190692044075222,-13.826499334821186,84.66613950396966,-0.7969289471325736,0.6125406486615205,-0.5930029672616627,-0.12559731030197066,-0.5389099158050786,-0.04415269702743671,nm,0.0
15.815573692321777,2.7830657132812666,-12.7525072016218,86.35318984708945,-1.0915612176796314,0.2906123721240027,-0.49135302845668655,-0.13477857322340567,-0.38525169796874553,0.0020040190906149146,nm,0.0
15.819883108139038,0.953554990026388,-11.996347097690519,86.99480456570859,-0.8867034650401127,0.1483225692821029,-0.8045305798338722,-0.15943047133551924,-0.34108889848676394,-0.005680531552498228,nm,0.0
15.82805061340332,-0.18576095395746375,-11.061159071161965,87.39338115762197,-0.7716048062285107,-0.08548201494608039,-0.6330160371934219,-0.18600316202774606,-0.2066120658766884,0.004657440205445307,nm,0.0
15.83780574798584,-0.9538596775391133,-9.884679321797572,87.61660325200674,-0.48098241616235643,-0.28414720352404005,-0.5793254263914557,-0.2300604354439686,-0.13338664026197714,-0.005281411776670028,nm,0.0
15.86263632774353,-0.951894476884678,-6.763359175674461,87.70599178754178,0.337554881364731,-0.7109425708098204,-0.4280053232450997,-0.3228214873579947,0.08800953345040524,-0.0058179841336804886,nm,0.0
15.86653733253479,0.07463574291020973,-4.829216799837237,87.54884685339304,0.3615499321030511,-1.0511399041847442,0.5377391054329845,-0.3667385254993743,0.22779695704646993,-0.007678044864746462,nm,0.0
15.88975214958191,1.26817619809483,-0.39807226013552344,86.59187720227976,1.4981217262375721,-1.2956745963019414,1.1643946515059642,-0.4352042012876329,0.15969414607077742,-0.12064587701219039,nm,0.0
15.898397445678711,1.8783631840879875,1.8754503123887136,85.63765715965431,1.2343221439958207,-0.9126899471750465,1.9887295043107722,-0.4342189446281805,0.1591008797754293,-0.19824006582258763,nm,0.0
15.918293714523315,-1.4535362526174598,5.615240248376506,83.0603800444791,1.288432105763969,0.23892997111090702,1.0605077470926465,-0.3510726460696915,-0.3954355717651662,-0.2505472096637741,nm,0.0
15.940356731414795,-6.448286551310483,4.895301892883439,82.04616300370732,0.3947409788238936,0.5152587356885445,0.857957265348844,0.1418160708185331,-0.5468680531807759,-0.029013563882668663,nm,0.0
15.949202537536621,-8.643316844560337,3.34979195634068,82.54211178638961,-0.07165245502884633,0.1967994568664655,0.6256350041757417,0.2612503198175507,-0.4700183433914986,0.09819046780269802,nm,0.0
15.96762490272522,-11.826623542228454,0.1695363579405511,84.41280335995307,-0.5157196028855098,-0.6063359428125424,-0.33607540358283405,0.3005681245799028,-0.2727257904978927,0.19659746311720136,nm,0.0
15.974767208099365,-11.467358600171005,-1.0994765133327058,85.06995318736,-1.0184511223071286,-0.6498427531858146,-0.3694637419195683,0.27238546158190796,0.05446140027906127,0.15377288020751223,nm,0.0
15.995498418807983,-7.876703822516751,-2.7021614164161214,84.7640749635032,-0.7634123493549622,-0.17965150112408015,-0.8055175208401661,0.19870656402396822,0.46308879714226364,-0.015341244577802768,nm,0.0
15.999670028686523,-4.362320165981957,-3.317836606744544,84.03403741484226,-0.7721009523012354,0.24634576264966324,-0.1784564481543287,0.20596241322587316,0.6930743074410459,-0.03591476797975103,nm,0.0
