timestamp,roll,pitch,yaw,acc_x,acc_y,acc_z,gyro_x,gyro_y,gyro_z,markers,motor_input
100.509690284729,-41.33760847276179,-20.52394913036971,172.34921822859116,-0.6332729287739594,0.30857511110412855,-0.3784093946543982,-0.12934995495068058,-0.09740310655505648,0.1155253724813236,nm,0.0
100.51367092132568,-40.49982420445075,-19.555715709802488,172.64306848398013,-0.6528620228233678,0.2860113368505046,-0.266054347970394,-0.18564234436694282,-0.1592605209541742,0.10151365039558488,nm,0.0
100.53750729560852,-38.25801660180613,-16.853351436418563,172.90382469642654,-0.6402708805082669,0.3207301633360216,-0.15811532025752442,-0.26484567577253393,-0.24502582524448063,0.06457584167981122,nm,0.0
100.55377125740051,-37.04638392245483,-15.287899860349427,173.04474114567157,-0.5662207734758066,0.303187762184178,-0.08871357358215623,-0.2741572934284094,-0.27025818459351436,0.06246244465218165,nm,0.0
100.55543351173401,-35.857765932249535,-13.533601439798439,173.20523978991665,-0.38677565314063217,0.2845238049471602,-0.1028358233096472,-0.27557037795617073,-0.30870499090753156,0.062467549836151305,nm,0.0
100.56312441825867,-34.749504071175224,-11.56975308961136,173.41557381710294,-0.11956681195674208,0.20974592643037565,-0.13690873901399203,-0.26582724278926395,-0.3527726912014635,0.06420452752043514,nm,0.0
100.58638167381287,-32.947194318759195,-6.999086555734619,173.8403174321484,0.45378408777327395,-0.07874472796978355,-0.07575320784491196,-0.22164154527994315,-0.44744919411938294,0.039381962805481625,nm,0.0
100.59003329277039,-32.25813495410922,-4.421315232018846,174.002320267093,0.7545887834215136,-0.25522465857380866,0.004708085294306644,-0.19617530202678635,-0.48611715127779614,0.005330276845506563,nm,0.0
100.61654782295227,-31.121875242402993,0.4367625478110792,173.93474166540005,1.2865462076338001,-0.6694590082602377,0.5377529045436577,-0.16518986160441623,-0.4360492769486798,-0.050838572856546645,nm,0.0
100.61820864677429,-30.576206304137695,2.3410788353794407,173.61595212948873,1.4388123746139632,-0.7583950153606146,0.6387860265966802,-0.15573974454015896,-0.3542511867856445,-0.08049574336349648,nm,0.0
100.6434555053711,-30.083360692933844,4.319030907855928,172.24358329079612,1.0811622554331046,-0.7329031776774436,0.7811475116572072,-0.04194501341715723,-0.11250280610803877,-0.16731885590415266,nm,0.0
100.65531921386719,-30.402604370230733,2.7713684273485484,170.14174371280893,0.47589154539750733,-0.5682941287506876,0.8437316630757697,0.08099984758858945,0.2598066929503907,-0.18960127075755032,nm,0.0
100.66963338851929,-31.018985141807352,0.6814398276868827,169.24424921198957,0.27659562429407103,-0.4087686674045501,0.7803183681993874,0.191258709147241,0.40313014562341587,-0.17451326931528532,nm,0.0
100.67413520812988,-31.910045763563623,-2.048292351334997,168.59230638870505,0.17551030175736757,-0.25671022573307817,0.6902060420650402,0.2753908701700794,0.5155935208542849,-0.13066122331014654,nm,0.0
100.70253705978394,-34.50153539868584,-8.42998067598597,168.19380735189657,0.22797844283733557,-0.09346844494146433,0.36338501368570864,0.4136041761565784,0.5875214536947381,0.01399712430166861,nm,0.0
100.7043387889862,-36.170113112666556,-11.488926343854416,168.71834986359048,0.28485026570187605,-0.07424035287806337,0.10395001299940904,0.4415074853964636,0.5468471174800886,0.08215034111285062,nm,0.0
100.73017001152039,-40.1554677115661,-16.53779658091741,170.51083161701015,0.15462933501139278,-0.02140608622115233,-0.3820186683504014,0.47279656446489254,0.4018710263605121,0.13228897048013458,nm,0.0
100.73187184333801,-42.18893764441214,-18.534614743437263,171.53540831098474,-0.08049058099900003,0.013027577383028175,-0.5294372567303611,0.44235660416338735,0.34623680488087605,0.11987873983966238,nm,0.0
100.75619840621948,-45.61690931800339,-21.932947275195637,173.1396439443507,-0.6365137069640283,0.2546638635527905,-0.6847106292904012,0.328266949119075,0.3007135668218248,0.061028979667958436,nm,0.0
100.76402544975281,-46.81529279903449,-23.507742127702187,173.76709902479953,-0.8676070343777066,0.32816945675508663,-0.6191866183165364,0.2524496593282864,0.29976072702547646,0.05654668666117741,nm,0.0
100.78803086280823,-47.99643537646273,-25.99082678981324,174.89565569247344,-1.0280244651981756,0.4713356578863799,-0.4854023433788541,0.08491850102926059,0.22007200271618338,0.10535784023642751,nm,0.0
100.79011654853821,-47.98758952531832,-26.61236382603739,175.55268284191848,-0.9736882174431344,0.4691409226678416,-0.44251050725645164,0.005375597160562213,0.13580151935383522,0.1529646172857716,nm,0.0
100.81410908699036,-46.95756903716965,-26.176602279991187,176.94129336452062,-0.7205328334545311,0.40728420833488227,-0.4084462613072521,-0.1328357636114454,-0.08138887720920585,0.20559847841783235,nm,0.0
100.81921887397766,-45.957099515275125,-25.223428895274242,177.55893390132343,-0.6124195853640253,0.3537417059645439,-0.378533881144124,-0.19354144348639613,-0.17044276499001806,0.19862635691208333,nm,0.0
100.84147262573242,-43.133619871817515,-22.484756317823432,178.13595470563496,-0.5192354784614025,0.2979324291084698,-0.2274189669280205,-0.2963634707731061,-0.2741998873066586,0.1165702306080503,nm,0.0
100.8453643321991,-41.46740461473982,-20.865782596226428,178.040236004886,-0.48767473611605155,0.2975685946914394,-0.15029055226271298,-0.3252059147628913,-0.3023118419309016,0.06134904714954619,nm,0.0
100.87043833732605,-38.19275340623303,-17.18371657832212,177.2954333989322,-0.3138123039127098,0.3216791604665296,-0.04601272607229427,-0.32388441080648783,-0.36254649577620685,-0.010923852103592277,nm,0.0
100.8775007724762,-36.78520149368149,-14.966295088238308,176.9223988641442,-0.10728725092651915,0.29076170335288215,-0.04488441159329507,-0.29796178725910893,-0.4178350573014517,-0.029809327805361555,nm,0.0
100.90015530586243,-34.6235505532115,-9.580413789995127,176.3297567033883,0.44743483427267805,0.0881125330984992,-0.11948918423442464,-0.22975812671601456,-0.5452109049945144,-0.05816663335234594,nm,0.0
100.90451765060425,-33.833940379000786,-6.465959191555868,176.114578396034,0.7194723418842054,-0.10920959285876192,-0.059104726778636194,-0.20174909964049467,-0.5998834140707993,-0.08758051744268817,nm,0.0
100.93121767044067,-32.701569456492784,0.06419571755735108,175.1939760529861,1.1882540825762076,-0.6144491856019211,0.3603813365828579,-0.15394239945727237,-0.6278814423036377,-0.17292006575861635,nm,0.0
100.93452310562134,-32.2623232884293,3.0050626873707276,174.50947571208684,1.2976521417961653,-0.8122750533028428,0.6165641918682527,-0.14534553664326835,-0.56601816350024,-0.19188452652391955,nm,0.0
100.95748519897461,-31.428684891246355,7.305897026378371,172.93237385037054,0.7462714780504223,-0.8962018752434906,0.7404480951898483,-0.12457245242910264,-0.3481720373181078,-0.18497949067263397,nm,0.0
100.95933604240417,-31.187822858221537,8.29076977894973,172.21091169878017,0.3878163781715079,-0.7654763934885306,0.6446038247652484,-0.07866904269012889,-0.176181941009001,-0.15470379251440497,nm,0.0
100.9849762916565,-31.144156033623627,6.384346047934861,171.22482749619155,0.07381070874354523,-0.5179136569963156,0.6128735587174199,0.053997721067883954,0.3286499452312227,-0.02644961403828912,nm,0.0
100.9894437789917,-31.290384577371917,3.7813024547862994,170.87950027608966,0.29237651697016104,-0.4212740843796711,0.6329396466386756,0.10599699107479764,0.5233495164296503,0.005009092956907588,nm,0.0
101.01437163352966,-32.08421865303448,-3.1613198069509534,170.49540527359775,0.8510363104739352,-0.2412979388126109,0.6404409656425826,0.21461325288794328,0.7139217021431915,0.030959156115983242,nm,0.0
101.01613545417786,-32.783064188053594,-6.602746217280122,170.41396859929722,0.9288492617541833,-0.08835869034326557,0.4632569845975419,0.2483920580406803,0.6690983863382485,0.03055429875269102,nm,0.0
101.02651071548462,-33.80669624141905,-9.54919621582177,170.50577501567005,0.8170688779761996,0.035357372975016566,0.2551363302901235,0.2941355464888225,0.5608212506243936,0.03660993982305124,nm,0.0
101.03586626052856,-35.261605286995604,-11.945453058745027,170.86726176545176,0.4867662974368571,0.17447570968945877,0.03723579484230345,0.35602432542702267,0.4396988452563931,0.056475816333331895,nm,0.0
101.06464409828186,-39.163822771077,-15.375266738293478,172.36139010896676,-0.2894907458382057,0.2099693506589425,-0.30725682749615957,0.4389207330830038,0.26294511953245475,0.08511356659459302,nm,0.0
101.06812453269958,-41.309867295420624,-16.846959617317623,173.22926066184084,-0.5940482086233794,0.2005171389081697,-0.4247614493582913,0.4421458495955763,0.2526867335808323,0.07817283067731932,nm,0.0
101.08679270744324,-44.972796864036304,-20.196684011297112,174.4864041817055,-0.8014792049465115,0.21859603374925485,-0.6045505571008115,0.3476837317084853,0.33505129320644955,0.01584753953618881,nm,0.0
101.09308195114136,-46.23380667093373,-22.170979998875865,174.77376554183903,-0.7750805653993268,0.22373868591774265,-0.5945873784106441,0.2678245485171324,0.3831338252810752,0.0004504427689626233,nm,0.0
101.12008547782898,-47.33991012474308,-25.532781138703886,174.83929568122048,-0.6275371944526965,0.3294401233655308,-0.5500050617315867,0.08103960271602957,0.2996075636087703,-0.0027472403775737455,nm,0.0
101.12174558639526,-47.26915872664189,-26.340530426994448,174.81478743390554,-0.6114099608433446,0.3709142503732223,-0.4961389574356935,-0.0014702501685104395,0.17398494513392387,0.015429169547864536,nm,0.0
101.14801669120789,-46.22501060693639,-25.638365529479856,174.8203381575816,-0.7368625579791629,0.4063038727079684,-0.3595107556087062,-0.13554559728687715,-0.12115699286605539,0.0466662614540514,nm,0.0
101.14967560768127,-45.29905310706556,-24.41576448834763,174.80620154944046,-0.8251596422457675,0.384054178092097,-0.29617137946126504,-0.19301972282949734,-0.2168725183229475,0.059112541245841956,nm,0.0
101.18000411987305,-42.815386270204456,-21.405451653769507,174.64415761027564,-0.8319237626728,0.30809559561374583,-0.16656467368200256,-0.27888599631423566,-0.27300008401475295,0.04260871848104287,nm,0.0
101.1817979812622,-41.36300434124119,-19.86858059537491,174.4175545012564,-0.6965800841745532,0.2823700211986008,-0.143648000978162,-0.30424824350530655,-0.2686242877198458,0.019980011549378913,nm,0.0
101.18742752075195,-39.89187083512321,-18.29110238406494,174.12995860712155,-0.4936592121207913,0.2672757790500619,-0.10002875465154241,-0.3126862270016709,-0.2746245178192646,0.0006286570508148727,nm,0.0
101.21159029006958,-37.216585431597274,-14.325495050671883,173.5486872923508,0.028681785961172327,0.10310694875690822,-0.1479252069872016,-0.2954620960118404,-0.3932323265897513,-0.010653465041513101,nm,0.0
101.21700167655945,-36.14596718493593,-11.68997400179719,173.47109104115066,0.300939626897638,-0.01064426085503666,-0.14774468181521222,-0.2717916768448266,-0.48829978067740093,0.004181242722902933,nm,0.0
101.24318218231201,-34.48325001723229,-4.968073913489366,173.89683522518948,0.778641121300107,-0.427699379926799,-0.008886993426023691,-0.2360849311165562,-0.684421963792132,0.02890512597582449,nm,0.0
101.24485182762146,-33.69524551442508,-1.1454201328891584,174.19731203130502,1.0140801900881342,-0.69992050531766,0.2315160222073061,-0.24103591310833403,-0.7324249849774392,0.034439415960715335,nm,0.0
101.2653157711029,-31.674302613808464,5.666254504215866,174.94785794058956,1.3486291214915669,-0.8315408130963434,0.47169126689742036,-0.28649356055037845,-0.5895241324092758,0.06716266856226207,nm,0.0
101.27318978309631,-30.3029439532298,8.081704256088283,175.25284160852212,1.1852164737496365,-0.8493004027063551,0.6662276395762409,-0.3196687793704813,-0.4455173418357555,0.04016607005573968,nm,0.0
101.29727125167847,-27.868490215321803,9.522877430146787,175.00279978869355,0.6418336764265721,-0.46991720075317434,0.6814967033131769,-0.21953621431991366,0.03827348819921497,-0.09536634808908492,nm,0.0
101.30186414718628,-27.26719048392125,7.863317038410211,174.36121153734345,0.21297899877475018,-0.2932550521101305,0.7772164171749805,-0.0939005060946209,0.354960930137784,-0.14694585836704135,nm,0.0
101.3251211643219,-27.64799888460733,1.54334116518812,171.79502912050438,0.3476512270060545,0.10351431363698986,0.7829639132901759,0.1714608284074717,0.7078037903220723,-0.18498404604635546,nm,0.0
101.33167695999146,-28.518416180578875,-2.5020578652216505,170.9033368007534,0.5007738737792293,0.13899436937228699,0.8646348396350253,0.2911344561022124,0.7871036843602724,-0.11137782937816701,nm,0.0
101.35126113891602,-31.85512483312439,-9.58811132634942,170.70792232280388,0.8137337183224564,0.07884565189819812,0.44543520969419176,0.48140184212597475,0.5892046971753176,0.031157478695994993,nm,0.0
101.36103105545044,-34.3232942228836,-12.261824936467747,171.30421020575716,0.6788412328059628,-0.014064999001204979,0.12571967655698948,0.5589275767059662,0.46501218970154673,0.06755921748292157,nm,0.0
101.38422274589539,-40.1051262167371,-16.21300448684624,172.44452088833938,0.03298182886000789,-0.054445882776492024,-0.5108695435363506,0.610135043255976,0.29238409771311397,-0.0452663188908033,nm,0.0
101.39785933494568,-45.254803716561014,-19.99564896197381,172.23040134260222,-0.757366028783726,0.10588065874979967,-0.724821740058238,0.494173967171969,0.3418786768179276,-0.2004373542990153,nm,0.0
101.41187596321106,-47.19236605776626,-22.019403148342167,171.66660986682368,-0.9694949181666213,0.25152276787428185,-0.7483325236190764,0.4121587979555789,0.3623676972697395,-0.23837995811983081,nm,0.0
101.41932702064514,-48.6627822485043,-23.961940526256036,171.1628915656468,-1.1084378153304577,0.39973961615027503,-0.6816764926963914,0.3233277123807657,0.35587316865116625,-0.20032333527261031,nm,0.0
101.43946504592896,-50.32901271450506,-26.11217905910697,170.79145492444582,-1.08993222645714,0.47508729295863894,-0.5228497664276669,0.14022243121158243,0.12265633584035206,-0.06702476523661578,nm,0.0
101.44488573074341,-50.45360469052389,-25.890866342357285,170.94418706685644,-0.9794043813412107,0.44954971185611625,-0.5860139016772881,0.0,0.0,0.0,nm,0.0
101.46816301345825,-49.31463633567208,-23.482555107602362,171.6096431889438,-0.8677684264906336,0.27743419224043553,-0.6193269752211545,-0.18108063582973094,-0.25809595780860684,0.11101290274091502,nm,0.0
101.47357892990112,-47.85226582208293,-21.79766257379913,171.6914880393852,-0.8158752182256239,0.36676896171971,-0.6517006923742266,-0.3195459473528785,-0.2827737475664934,0.12421359085409461,nm,0.0
