timestamp,roll,pitch,yaw,acc_x,acc_y,acc_z,gyro_x,gyro_y,gyro_z,markers,motor_input
108.00507402420044,-39.23240626656017,-22.795144192918826,163.90811046556112,-0.6160201956761377,0.43367425127620574,-0.148310457341128,-0.24897000267819525,-0.1772678107209662,0.09963428064641784,nm,0.0
108.00699591636658,-38.0931169005754,-21.308991663191556,163.92574072808137,-0.7214060742063557,0.4481406350441733,0.002662488746683662,-0.28757789957767277,-0.21453388518485067,0.0674834877784044,nm,0.0
108.02674174308777,-35.76764942627342,-17.313330710267984,163.78206131843066,-0.6346460114169392,0.46272030242646395,-0.15807205543308603,-0.3275950277667133,-0.3423167000636039,0.04031776596605186,nm,0.0
108.03735089302063,-34.77591858077651,-14.815907530335737,163.99195380937738,-0.48889963968455996,0.36471955518819493,-0.22670540456387342,-0.32446916079333865,-0.4144011020363501,0.06831842618149561,nm,0.0
108.05585813522339,-33.04162963701181,-8.255882029583736,165.10397204945414,0.031315216289439875,0.030244550852442476,-0.5154766144262704,-0.3470223710804293,-0.6298756770814553,0.09434949638301159,nm,0.0
108.06384205818176,-32.21509945735934,-4.285941109241499,165.74712467958568,0.2619088393533314,-0.14110391807850214,-0.5808135273204577,-0.36147517379636906,-0.7151452392405359,0.09193434788043844,nm,0.0
108.08549737930298,-30.310909512048614,4.860361748197991,166.7048682038233,0.5255483671140719,-0.42653786019209305,-0.5571481952036786,-0.41916765810479056,-0.8689309472882691,0.02419693895138261,nm,0.0
108.0919737815857,-29.252982883549105,9.840606145074888,167.0972900134206,0.6147627420917977,-0.49681047112953247,-0.5086163176165255,-0.4331922565947605,-0.9108717871309348,0.00042108565320163793,nm,0.0
108.1028687953949,-28.10490406401092,14.876895594338063,167.59161075268784,0.701488493173293,-0.6180878199905361,-0.3137110094974779,-0.4428679016856007,-0.9218888129978111,0.00445408427647313,nm,0.0
108.12088394165039,-25.521825029469223,24.397960457910727,169.12625041171324,1.1755845706710366,-0.743690267855801,0.5454052204349411,-0.43539885055949157,-0.833431681976828,0.09064139464372617,nm,0.0
108.13274383544922,-23.524080985107485,28.337965692829904,170.5577671783122,1.0702634180650952,-0.8249976886930707,1.0017690347348474,-0.4963249660721162,-0.6999800888455395,0.1052029744193569,nm,0.0
108.15521430969238,-19.071895071013934,33.88491767412628,173.18381388931255,0.5782454926240204,-0.5313171459362479,0.7741094656315771,-0.4265589671979661,-0.395409181531902,-0.016566409206069548,nm,0.0
108.15941500663757,-17.67799361343003,34.53363705860076,173.62593283174002,0.07169218601140219,-0.45857596110720417,0.7192221351406948,-0.24814775897609503,-0.08967630448148746,-0.07372611422386809,nm,0.0
108.18138360977173,-18.308387712987923,31.75704740987676,172.143536430253,-0.351811494105989,0.024081679556066934,0.23581577584457977,0.16386025193510234,0.36244247562841375,-0.1427096293901563,nm,0.0
108.18846607208252,-19.735092194122213,29.14565076800501,170.96045414226424,-0.14690502621267615,0.09092918074008605,0.28578977429776403,0.3164180792600245,0.4941988898310602,-0.0964239879526761,nm,0.0
108.21543550491333,-22.97170960980663,23.211586554778584,170.063525769691,0.27779931607988856,-0.18749381704704565,0.6215701103060453,0.37546123574273355,0.5128610453399198,0.09475849659607893,nm,0.0
108.2173855304718,-24.697350244909256,21.30192961221422,170.3329878598857,0.8056435819619563,-0.29020145981126366,0.4220285283009159,0.3754595630460441,0.3357438153760933,0.18225895644109963,nm,0.0
108.24151158332825,-27.57283845072758,20.109289065568802,171.3161607632133,0.6947915735525666,-0.6661350400989559,-0.019553936580949848,0.2472805563965119,-0.0009257934325104981,0.175587489261988,nm,0.0
108.24604296684265,-29.07656876601999,20.69859086237114,171.2810437863665,0.582942398325621,-0.41042884446185507,-0.42685628438765,0.255746426412152,-0.14600884386949492,0.09637794610924597,nm,0.0
108.26794505119324,-30.063976515884228,21.727438037733577,170.38289152412645,-0.35844525291481777,-0.4280543338676585,-0.664469293231853,-0.006053454879482872,-0.06911894235621557,-0.10649329468631667,nm,0.0
108.27270579338074,-30.105070370840362,22.00642658181543,169.69296013765404,-0.4777659545834553,-0.011835225500833707,-0.8652848145378561,-0.0071947368346026545,-0.04289607780691326,-0.13658775402209442,nm,0.0
108.29358720779419,-27.950725628950657,21.883830075846582,169.34377189685736,-0.502728733353636,-0.0033450858878451457,-0.4721007326193749,-0.27583762802200185,0.09870653382446452,-0.09966664334656115,nm,0.0
108.30555367469788,-26.291884655335803,21.780094724062256,169.81568666557084,-0.3435728202784796,-0.2788438055326605,0.034509571029368816,-0.3042584497683145,0.08965134287077306,-0.031333128104782774,nm,0.0
108.31440949440002,-25.01053148306095,21.782698033255087,170.52652528186624,0.2328706289225286,0.2149081605993843,-0.07138213936342315,-0.2396723983386843,0.05354582640096279,0.04456193408257752,nm,0.0
108.3315052986145,-22.266158749646788,22.085680811318042,171.93162589193636,0.3949322476406519,-0.05183631344094834,0.4842981281700257,-0.22152658033294664,-0.0037004408882234606,0.02900419607686208,nm,0.0
108.34438347816467,-21.826594936285222,22.532465415729494,172.11609875752845,0.47454236466296656,0.24585492775565507,0.26077964746723525,-0.09796008409624805,-0.06410201916700246,0.00026386482938157735,nm,0.0
108.34983086585999,-21.623985885290764,23.015355425022236,171.98562517340483,0.19343801245411113,0.11650072660357642,0.3021613375480134,-0.05525316729517327,-0.07739426796461392,-0.04517393467635988,nm,0.0
108.35781669616699,-22.002997423140958,23.458599680709746,171.65498633523413,-0.05389999301340905,0.18938310719855975,0.10551585084450708,0.05163440774534597,-0.08454673956572797,-0.03957445862504563,nm,0.0
108.37962198257446,-23.30447789420659,24.060382537144076,171.19730431922397,-0.25806535163090527,0.039963059839025046,-0.11659751142093337,0.10648888835923703,-0.04776179728020994,0.02407396232137069,nm,0.0
108.38688397407532,-24.05804816694569,24.082174086263553,171.3132021976732,-0.1561567232953728,0.042888208565923264,-0.21209607545550843,0.13068423004201002,-0.011969572437298232,0.08175054549389353,nm,0.0
108.40614867210388,-25.153230006031023,23.858690953503473,171.87340720108006,0.19714165403953773,-0.2390582310704089,-0.07242378752340206,0.08847471936403514,0.02937956445205748,0.09462817821954682,nm,0.0
108.41720914840698,-25.597840227325246,23.653078742290127,172.04420005201658,0.3376089388391618,-0.2321389914916471,-0.07010110554073383,0.08129668864490806,0.04261210729696607,0.06741229247656128,nm,0.0
108.43709373474121,-26.087591071412703,23.404858039960597,171.80374392701654,0.2391213033440737,-0.22692183248308095,-0.04730992538555019,0.034947582243104264,0.022752099059115804,-0.02881916985643727,nm,0.0
108.44540977478027,-26.194000305203804,23.414444756053452,171.53021130540915,0.03241453620558367,-0.11927965829464672,-0.11460763934655291,0.013973514556801306,0.00855723822609834,-0.048787297474385774,nm,0.0
108.46334505081177,-25.998956888931332,23.61299310491634,171.37024917600843,-0.204334996906173,0.025572438424765878,-0.18382247494703371,0.0,0.0,0.0,nm,0.0
108.47424221038818,-25.697452817389475,23.65460960487887,171.63542380533417,-0.21232818666140163,0.05363167959337393,-0.14573802864197852,-0.06099308577834296,0.013212108559098105,0.026262215303858052,nm,0.0
108.49760460853577,-25.063156542194356,23.556873338665902,172.4136598392691,0.03560939714448726,0.007762776942837185,-0.013974028946063092,-0.058504265655855564,0.04287643770697051,0.05031984825154124,nm,0.0
108.50147414207458,-24.814586497945626,23.501928458175836,172.36107639052233,0.15401560656465726,-0.02065657158988173,0.0675737412918306,-0.04427813987070258,0.05946798106716816,0.02855814145887009,nm,0.0
108.51298785209656,-24.70912634401999,23.29505167570006,172.1137010059652,0.18111798481103863,-0.016555481328913,0.15250591784774717,-0.018606480834830314,0.05692898782710097,-0.005084944060433789,nm,0.0
108.53377318382263,-24.804418257427983,23.143371011572818,171.70144323325115,0.0911515758272832,0.03854346003854959,0.09565459621459531,0.0,0.0,0.0,nm,0.0
108.55240440368652,-25.0720231217534,23.100981050844755,171.5235166933568,-0.09529436908696305,0.04104000416014902,0.03913585764878138,0.0,0.0,0.0,nm,0.0
108.5617163181305,-25.085104916140345,23.15702959081788,171.68087133001194,-0.0745569677263978,0.010902107760169415,-0.032228109928276134,0.0,0.0,0.0,nm,0.0
108.5811219215393,-24.88245535671711,23.24968758476552,172.230661959399,-0.011696854443992214,-0.08101279963949776,0.0014843960723379054,0.0,0.0,0.0,nm,0.0
108.5893816947937,-24.781916001964156,23.300743658890237,172.39781480844613,0.06641578493708303,-0.09310504395362246,-0.008316306033217856,0.0,0.0,0.0,nm,0.0
108.61049127578735,-24.64559422285103,23.33486897392768,172.3238113464032,0.09390264111455152,-0.0969326424153407,0.037275518176049634,0.0,0.0,0.0,nm,0.0
108.62526512145996,-24.490209438005397,23.4466521084511,172.10989235474767,-0.019008971091035894,-0.0165084065035243,0.038189144560668256,0.0,0.0,0.0,nm,0.0
108.63901424407959,-24.32472122096344,23.557403288723666,172.1778987729123,-0.05631930948186951,0.007736919135844097,-0.024786078925366294,0.0,0.0,0.0,nm,0.0
108.64728856086731,-24.08427177602095,23.69224189573013,172.4218094025254,-0.07729879257540122,0.010283915195498894,-0.034218182985180354,-0.05319820384322679,-0.025523968115267272,0.02662797279441196,nm,0.0
108.65320372581482,-23.781749446937603,23.79228645335283,172.80728688942264,-0.05638586606902013,0.007115905918773987,-0.025057247614941082,-0.058311996183855706,-0.013408260055002208,0.049801277993241744,nm,0.0
108.67733550071716,-23.194870873916887,23.890123493334603,173.55768645357333,0.031666382991386986,-0.09232191536856427,0.05320808073780021,-0.03436202874664794,0.016541651083696242,0.041472376661979594,nm,0.0
108.70147347450256,-22.652507242734963,23.884610368896432,173.22350351230736,-0.010181541553936333,-0.06126437371214719,0.006507019985289346,0.0,0.0,0.0,nm,0.0
108.71213698387146,-22.436242393763678,23.900756051119192,173.04857247171793,0.0019517389259358403,-0.04389758886120354,-0.01636047652575673,0.0,0.0,0.0,nm,0.0
108.71909403800964,-22.141940859320787,23.94846195102345,173.01093114084452,0.0016413133947284252,-0.039326900820836314,-0.014441956813670661,-0.05045260858729511,0.010923598593496509,0.026792968473014767,nm,0.0
108.74253511428833,-21.35272414854586,24.311480619657136,173.1690929017473,0.1330517793286082,-0.07637102087620137,0.03804337318272133,-0.06720575496883702,0.006929544803136063,0.038856907195101674,nm,0.0
108.76269721984863,-20.761704035570872,24.43613463493277,172.9614216707077,0.16561319556054424,-0.0977378527850438,0.1777929896290157,-0.05703576468015395,0.002953757237074669,-0.01536744627307344,nm,0.0
108.76952862739563,-20.59494349393676,24.604722360168985,172.55089045160355,0.15407810224492455,-0.051570577888463975,0.16422662054588757,-0.03924424695571985,-0.01645973368733321,-0.04416252255748779,nm,0.0
108.78681015968323,-20.371431883026794,25.199543691585067,171.53697352285135,-0.0595992397818746,0.02053631001894689,0.13170124084674303,-0.03331438505098971,-0.052920808806618494,-0.05041273205651849,nm,0.0
108.7995867729187,-20.31443650694731,25.550821886345553,171.184787640435,-0.08985225669610225,0.051507209666783876,0.06088589135289159,-0.036076061599515284,-0.0734966149943897,-0.024359818113016976,nm,0.0
108.80996584892273,-20.184617179895035,25.911189055474782,171.042041826382,-0.11575907392356002,0.05165100224374576,0.016796344189944676,-0.04996323693704595,-0.07957460596816292,0.007179322835664613,nm,0.0
108.82878088951111,-19.614199370419932,26.691729281206765,171.1708930355497,-0.06233860339732886,-0.007806184855932148,0.023911406469721612,-0.0686551855584446,-0.07315986063636266,0.03934092271929143,nm,0.0
108.83411955833435,-19.27512906818924,27.082747872346452,171.24333691825322,-0.029925320748721885,-0.05143123516905653,0.04252835141595631,-0.06469174880148643,-0.05725188587316378,0.03190710607123254,nm,0.0
108.85248708724976,-18.795927624637258,27.715221452636364,170.96167899327602,0.015533266934620489,-0.064683649574766,0.10346362037008801,-0.04485440793177343,-0.04098325406191979,-0.005569056890615538,nm,0.0
108.86284184455872,-18.63655099875512,28.005349574280718,170.6809152091578,0.012737497456712677,-0.059351110486312836,0.10087534375337757,-0.04119140188370569,-0.03958453359854294,-0.011948754947163886,nm,0.0
108.88476514816284,-18.099858388032754,28.61729294584967,170.45842321009633,-0.004907667860612392,-0.04939090349331592,0.07886108988016609,-0.05756301830108636,-0.042788069401151076,0.013990141369799605,nm,0.0
108.89163851737976,-17.70567223093658,29.005111697139306,170.54888159126187,0.018792441216223088,-0.06119210231052754,0.06394430876351721,-0.07212898130283671,-0.047931244520116836,0.02840749112541284,nm,0.0
108.91240930557251,-16.710784775615846,29.793838280309654,170.83012293991055,0.03206756803976026,-0.09019185336396145,0.0671091670007343,-0.08659452093833127,-0.04135802376634014,0.0192804032080188,nm,0.0
108.91949558258057,-16.23596712910037,30.124203937321386,170.793253751122,0.03630646822952463,-0.08325915839238594,0.05913618244363185,-0.07810965641568372,-0.031287363685574075,-0.0023737365980310635,nm,0.0
108.94282865524292,-15.484249917780838,30.48968038540516,170.30724794915443,-0.02826622973735618,-0.04046352680233445,0.0357506909633944,-0.057373538143914646,-0.00976858481084137,-0.0401364084200482,nm,0.0
108.94843602180481,-15.199712463027042,30.609324377707747,170.03681412830974,-0.5008806816614898,-0.10048048032506031,0.9654662381313037,-0.05568551722916804,-0.0020985841104902243,-0.03769129258127149,nm,0.0
108.97190856933594,-13.361634643948943,29.378830309947652,169.98533123160726,0.9696146417189981,-0.05057269373654355,-0.2900804389186941,-0.15296901086491768,0.24343617412714752,-0.04206006992517799,nm,0.0
108.97620940208435,-13.504311709936328,28.46962239911674,169.70525099079768,0.5656878389230902,-0.005328283324280189,0.2674323103489385,0.05405549496741572,0.18761474549030863,0.0199295000015981,nm,0.0
108.99768424034119,-14.726757767958418,28.784921982722977,168.08829200100178,0.17200087998964514,-0.09846925648359386,0.5471651756910122,0.06564886202773221,-0.03468840083311086,-0.09231867803945884,nm,0.0
