timestamp,roll,pitch,yaw,acc_x,acc_y,acc_z,gyro_x,gyro_y,gyro_z,markers,motor_input
79.50951170921326,-28.455091031274335,29.75632519655163,-95.8422671225659,-0.09250156622398839,0.21404024737650493,-0.12554977570249423,-0.16681196332450376,-0.160901868508346,0.15291648305146935,nm,0.0
79.518319606781,-27.560546430127633,28.929355110723023,-94.491647868312,0.003349444869563727,0.14847143331597226,-0.16019210566859224,-0.19184156380749584,-0.14649772142277553,0.17409699229747821,nm,0.0
79.54072308540344,-26.14812068260179,26.5470633278003,-92.15258184279696,0.2759784857250365,-0.008156977708366655,-0.18835477480553284,-0.2821835963855248,-0.10779439401501532,0.15663133512544464,nm,0.0
79.5469913482666,-25.557475044424528,24.985283387766014,-91.2384529702685,0.4193240214221687,-0.08637097419737932,-0.15259945497033753,-0.32830492762368013,-0.10380109846703937,0.12878936784013784,nm,0.0
79.56488084793091,-24.472012086471235,21.464512470517725,-89.82357400666285,0.908004340745695,-0.3167194951792637,0.2605938902420766,-0.3704062769242929,-0.09993283180230328,0.08850360084323881,nm,0.0
79.58055472373962,-24.342962968795145,19.734788108189104,-89.22868094867329,0.6708161888774951,-0.27836375517842293,0.144910649471623,-0.35845265699674156,-0.034408726928357926,0.09508268776866427,nm,0.0
79.58220505714417,-23.776005858273706,18.14978581769362,-88.6416662872318,0.6867143874721809,-0.26165028951800995,0.12948645381511076,-0.3274420789198106,-0.12093350565518766,0.05257803451415863,nm,0.0
79.61180472373962,-22.192306701662304,15.612185335534127,-88.01110321396725,0.7597328163249363,-0.11425745632529026,0.2962066460453133,-0.23816954345248567,-0.14115240416126823,-0.024753281837227206,nm,0.0
79.61499977111816,-21.134179814056903,14.808245612887607,-88.14535677810906,0.7626854475651016,-0.08062426705594364,0.548455712657621,-0.16613466379021935,-0.21718387624008645,-0.09062799845509742,nm,0.0
79.6441113948822,-18.95964217354974,14.570922773215392,-89.02539758928839,0.16868276134887916,-0.0268345456185156,0.4981645732926332,0.0152335278336504,-0.21199198362144836,-0.15535745925063996,nm,0.0
79.64563608169556,-17.367894013821154,15.141040696124103,-89.46690388527219,0.5414332497134831,-0.1628203770390826,0.9569980584666078,0.10593701154806073,-0.31344779610832424,-0.17341132352930735,nm,0.0
79.6480667591095,-16.793441778838993,16.10470666999771,-89.88951330434705,0.31245625321177,-0.21081133996426546,0.8870627365423963,0.18128697824542037,-0.11641099134778238,-0.11912241187699345,nm,0.0
79.6609296798706,-16.859135877925116,17.342445644892706,-90.24356289896282,-0.3722776811417525,-0.09692448026624166,0.31544355896455556,0.23552066676490083,0.0057428704917275065,-0.0707619269357407,nm,0.0
79.67068552970886,-16.723986455380967,18.73543690589797,-90.58106812465243,0.15391231490138244,-0.21519940336038298,0.7760631127356812,0.26635273814083915,-0.034283090947143366,-0.06741532973213092,nm,0.0
79.69313549995422,-19.236568944994023,21.64901879686133,-91.84892556223113,-0.16602117533193375,0.03771284260295832,0.22003955566768638,0.2869102606214234,0.26119792052959484,-0.010410098817937542,nm,0.0
79.69816541671753,-21.010796344552002,23.092460583774205,-92.825469829551,0.20796946887029652,0.020719828040375088,0.33202954980885996,0.29009216642844515,0.30993211252622754,-0.0190238725559967,nm,0.0
79.71931076049805,-25.852683525230194,25.94733944457128,-95.18551199436241,0.18212686456164837,0.15668110225086376,-0.046348842009413006,0.3089913760958387,0.40015624593675314,0.008483125513704155,nm,0.0
79.72477746009827,-28.273682248504752,27.45380109810982,-96.22596725986548,0.2697568547992065,0.17769388792076676,-0.18179940209181872,0.33067036640335956,0.39485114718404657,0.03836675570858414,nm,0.0
79.7475938796997,-32.40409707100336,30.697223108709924,-97.72386391439508,0.23259231113043569,0.30584505459548367,-0.4572428042457588,0.3555160620729618,0.26227888300426905,0.07600438226723265,nm,0.0
79.75337767601013,-33.910955243442935,32.30342296382121,-98.1366578579218,0.18002359498366302,0.40594972999684337,-0.5742689938870414,0.3410007686541862,0.20464505254821166,0.08466456142553988,nm,0.0
79.7766182422638,-35.72068887962721,34.83200737278597,-98.63254763389159,0.10525502356238924,0.5661272023171681,-0.6344553244923675,0.22345303600284677,0.075423331843396,0.029145630576106255,nm,0.0
79.78142833709717,-36.21284958722061,35.54719496593077,-98.89471451707712,-0.03432335712652444,0.6409034378013097,-0.6315071879997336,0.1406699003396489,0.052177004777710784,0.002145350755612052,nm,0.0
79.80509638786316,-36.244193375583045,35.85592672949595,-99.32032443693763,-0.1337362764198086,0.5739155993333689,-0.4849292325079057,-0.0188419666778632,-0.02699927081851307,-0.052623578211479886,nm,0.0
79.81022429466248,-35.84354772201618,35.618958581736784,-99.3149058701434,-0.22697512855609653,0.512296042026875,-0.44869396492863634,-0.07056622852481205,-0.06202715850175659,-0.048004717018201644,nm,0.0
79.83422565460205,-34.05377732344452,34.6884861850321,-98.30763297723368,-0.20928482067655335,0.2849702054945506,-0.36371593487594306,-0.14496814407665137,-0.15782496897957374,0.006108734129559951,nm,0.0
79.84234595298767,-32.786216971522805,33.98765831215696,-97.29141297874828,-0.17503903184576744,0.22198375799206513,-0.34178306195912767,-0.1804506272980107,-0.194278855833148,0.04429106992099608,nm,0.0
79.86389708518982,-29.978979787182386,31.884271973898993,-94.76961818077183,-0.006057835141675839,0.13967399847484188,-0.30286539888247965,-0.2718709920490248,-0.2195349689209278,0.08762113080413682,nm,0.0
79.87165832519531,-28.630434807780645,30.405102392943803,-93.64625784067427,0.10488265157629396,0.09589163145875661,-0.2754215116302374,-0.3251328745841193,-0.21484923072988138,0.08235850140588744,nm,0.0
79.87580394744873,-27.389350152176174,28.66426483099,-92.69376294960149,0.21982787205896379,0.03174629110582839,-0.2422756718839129,-0.3727048553637206,-0.2028805451143668,0.06528054926034237,nm,0.0
79.88639545440674,-26.245137883010837,26.731093569729413,-91.83522832046692,0.31707588780167123,-0.045625032782249546,-0.19360682987806493,-0.40727155814477534,-0.19417079039143365,0.04395832555496927,nm,0.0
79.90899777412415,-24.01037520910827,22.59905430008516,-90.60579793383427,0.578825150813463,-0.27131250200669066,0.09413710067211223,-0.4323473114149522,-0.20546835417272025,0.017118408879198993,nm,0.0
79.91390371322632,-22.87185000010203,20.583801726798008,-90.10215602575617,0.6933880579227959,-0.3324935438272666,0.27406325903713286,-0.4172461783070693,-0.21632160677090065,0.014106279471696015,nm,0.0
79.93806505203247,-20.5896831756658,17.066156150533384,-89.30698767038507,0.7601771644664652,-0.2091068180960089,0.502443484733024,-0.3401629544146584,-0.2255349092817976,-0.0038005155923766212,nm,0.0
79.94658088684082,-19.530688289261853,15.738425377619075,-89.23750681494397,0.6674359248337025,-0.07763899206025576,0.5806524642227616,-0.2756696742681294,-0.21364476669724863,-0.03349529807515826,nm,0.0
79.95217967033386,-18.496414026131784,14.830514176415997,-89.40065168583958,0.6298505043601665,0.017362251944108016,0.7456384436515203,-0.1917825718327608,-0.20882944059074207,-0.07934357653674255,nm,0.0
79.96793222427368,-17.674046903284644,14.424345955789317,-89.8024631315435,0.4761578113039369,0.07133728368127445,0.8221617189864086,-0.09256426061796819,-0.16675918566135797,-0.11987537096681534,nm,0.0
79.97564387321472,-17.056527177275903,14.551146893383155,-90.44477588794939,0.3303554102046077,0.035864001047372945,0.8621661485036496,0.012684138554791063,-0.12649683633017697,-0.14728409094744932,nm,0.0
79.99551892280579,-16.98536383004021,16.23863857925837,-91.8133461954365,0.055944345313796606,-0.2094127500090996,0.7125551664661165,0.19930865629264674,0.026749707046868975,-0.11297320615848136,nm,0.0
80.00188565254211,-17.52886245535026,17.56787750153082,-92.36849123795568,0.06203998498999616,-0.33439351242146576,0.6048760807127312,0.25726387163469616,0.08801874729746886,-0.06637525690916297,nm,0.0
80.0133764743805,-18.53470138567331,19.02522977793831,-92.8666802118474,0.06912156137350106,-0.35558101914709667,0.4134962403319153,0.2877994793505043,0.17132432569189443,-0.01115154130206217,nm,0.0
80.01899003982544,-19.923804450222043,20.500391592928914,-93.3386328754832,0.09796462878450816,-0.2767867407418133,0.23435577857814213,0.29670428819429384,0.23907336727527692,0.027615200270005802,nm,0.0
80.03027844429016,-21.58969260852345,21.916495312352428,-93.90697815603508,0.2356914103218262,-0.14579976443430911,0.12362264781642918,0.2902740723021766,0.286136441336404,0.04049700216325013,nm,0.0
80.03898072242737,-23.521861954749458,23.234146508360382,-94.6187511430446,0.27948489345282257,0.021100556963256745,-0.020346833673961312,0.27725143553390974,0.33045614782773075,0.03791126261247873,nm,0.0
80.05140233039856,-25.53391613821443,24.472015774898313,-95.45487262081582,0.3141936206130724,0.15235912093244902,-0.12256763928141542,0.26667604459996797,0.3392651993150607,0.021432058471353377,nm,0.0
80.05716896057129,-27.494090697399493,25.688989633224413,-96.3525214559454,0.3209971869539758,0.23517788606317272,-0.21062369390584262,0.2662051035677489,0.3226485847514088,0.008242188198609456,nm,0.0
80.06905007362366,-29.272796713257293,26.947301164101674,-97.19118433711357,0.26692875921339326,0.277238416442625,-0.30659216354796925,0.27493069975811646,0.28154043583201666,0.0067078405649718086,nm,0.0
80.08378386497498,-30.707400204364298,28.28557153699639,-97.84665343543318,0.2263982461564561,0.2870501198473893,-0.3821158396682238,0.2859038403272577,0.21164362548075843,0.01244021676347052,nm,0.0
80.0854172706604,-31.756266209071832,29.673592012423956,-98.14448230161936,0.16369321627213124,0.31354486485566474,-0.4573672311077466,0.2874986480103924,0.13802066690477177,0.024588927898911376,nm,0.0
80.1224455833435,-32.41029425111228,31.00484911691557,-98.21322497626109,0.0927319759071635,0.3436463539418705,-0.5005196336788157,0.26670561709840274,0.068683972515176,0.03402420816764468,nm,0.0
80.12561368942261,-32.70482007216796,33.47070650729029,-97.62400890565789,-0.08319442258112462,0.47751997136788027,-0.4339595265601889,0.07926619753463905,-0.03183292089386854,0.0037932376371961726,nm,0.0
80.14829874038696,-32.33577766513405,33.40850633586813,-97.366762346807,-0.1773629637593316,0.4962139319469377,-0.3087140598584788,-0.05234475319927097,-0.03651693966294409,-0.017431197134654453,nm,0.0
80.15324020385742,-32.0318550539024,33.04522264021065,-97.17754334166855,-0.17715746273438782,0.4605474674023595,-0.2455695933766914,-0.09166914767526509,-0.04689929428863373,-0.009083639354819015,nm,0.0
80.17564058303833,-31.07559397969115,32.10191128875673,-96.22823008100325,-0.10715201162746246,0.40882103320284874,-0.21478464370731434,-0.12073560601393467,-0.0868451530310436,0.04091442137345971,nm,0.0
80.18117785453796,-30.379512892691224,31.568935806150705,-95.45593031170426,-0.014296793733038379,0.38891377757590717,-0.2330124033196059,-0.1310928389583391,-0.11285262918773564,0.06136490455555193,nm,0.0
80.21042680740356,-27.74036397129826,29.14344875697187,-93.30936223776781,0.29883770873358123,0.23205912368031967,-0.3417683252108377,-0.22692415488474718,-0.15801597534534545,0.016696027323914855,nm,0.0
80.23355412483215,-25.67034940734768,26.37776209150062,-92.58635510049409,0.5019083117594181,-0.04743306884695708,-0.28240846078508136,-0.3192713728456869,-0.1823234757361419,-0.05798913439183518,nm,0.0
80.23842167854309,-24.530450284984106,24.74303784204195,-92.35477887463247,0.5970968239837527,-0.20455772063974015,-0.1603870075068685,-0.34836774825234823,-0.19825262736056826,-0.0802627877727887,nm,0.0
80.24829173088074,-23.41151439872859,23.024192283684226,-92.14887731698605,0.7067261676128488,-0.38821975588462126,0.10930775951188962,-0.3643966793671514,-0.1978929457774266,-0.07819873542319315,nm,0.0
80.2726616859436,-20.82988289018009,19.712572028990145,-91.69321355293182,0.66317272437599,-0.4795717376740793,0.38001842727059276,-0.34164199899054415,-0.2732949219104148,-0.07561877616448696,nm,0.0
80.29641532897949,-18.17478195778142,17.13756245811483,-91.39929710315042,0.3202973892133116,-0.2547040070035653,0.47100540248559886,-0.25036332330810135,-0.24431534306645586,-0.06751433554444218,nm,0.0
80.29803442955017,-16.609735035180925,16.312634424326202,-91.14933033209782,0.29563395081170263,-0.17013840451446335,0.560973004918629,-0.18363805759169752,-0.30314892937224946,-0.09066697514736287,nm,0.0
80.30640268325806,-15.35696575520696,15.835039549127082,-91.00188263414418,0.4169401192916925,-0.2692499755737789,0.9234444614635197,-0.1121690112805701,-0.24576319209630068,-0.07737678334721565,nm,0.0
80.32733058929443,-14.5807725036581,15.994743449939016,-91.04012254011907,0.13446014833370457,-0.2580481922434069,0.8915693458633562,0.03994016123518072,-0.074898031265059,0.0029409048426365524,nm,0.0
80.35113143920898,-15.896322528472577,17.411546323959733,-91.23296983433956,-0.01637255254111927,0.08657908093221696,0.41536164784167295,0.16301277532247882,0.16649702973849048,0.06176876888677241,nm,0.0
80.35277104377747,-16.97036727920822,18.497008606653772,-91.5917699112666,0.2937845091204298,0.14822312594019435,0.5260995138361046,0.21018210101727694,0.1925766152748776,0.031164540497514763,nm,0.0
80.37542223930359,-20.42294228896168,20.985737252190926,-93.07803004754895,0.2527442021985209,0.15536208941267618,0.144780673792151,0.2621931929797912,0.31524757609679527,0.001229685256455013,nm,0.0
80.3991470336914,-24.029540401296774,23.830585276671858,-94.62010705134443,0.22990391265869653,0.14050995560224713,-0.2098784385639907,0.3032785373975374,0.3068392037367199,0.03673895562294627,nm,0.0
80.4019684791565,-25.504198066685817,25.362475841953405,-95.17344125680782,0.28834361135940756,0.14623917911345527,-0.2662200559805182,0.31605106462566956,0.23497162296291213,0.055537238500128365,nm,0.0
80.4235486984253,-27.713340606629025,28.407405896362004,-95.7687747860451,0.1796020472074364,0.38169245498381743,-0.4364745902933047,0.29941040075044806,0.13705653616076577,0.07142866594147211,nm,0.0
80.4283938407898,-28.37299347166101,29.715234647352613,-95.97066155124801,0.1982961864769578,0.44051587380181983,-0.4024733530885581,0.2593598138140962,0.08228963424131425,0.03725824997157377,nm,0.0
80.45307469367981,-29.355629176280377,31.617180994688237,-96.66200848609293,-0.009574165806868819,0.5411348177458332,-0.4122425324824697,0.15844197546880293,0.047638499583989684,-0.043691922072702075,nm,0.0
80.45618391036987,-29.659055596114968,32.19743995846018,-97.16984917504915,-0.054823336489103314,0.5067240208055814,-0.3818628826808855,0.10845157300833483,0.03186866326793757,-0.072462834625406,nm,0.0
80.46595406532288,-29.885853563743208,32.595231510499524,-97.55970811804256,-0.15879922240231997,0.48765829994305343,-0.38367433152608055,0.07075005925386,0.022629345730561214,-0.07585619711323092,nm,0.0
80.47623348236084,-29.926536919989502,32.85397375834963,-97.8450823942162,-0.18210458404244756,0.4389536932393988,-0.3630234440321923,0.039097487553339604,-0.00531771062809424,-0.06395912523058861,nm,0.0
80.48584222793579,-29.79438846175309,32.97984958159724,-97.89281343376618,-0.18669983669721907,0.397613323069295,-0.35951425037394047,0.0,0.0,0.0,nm,0.0
