timestamp,roll,pitch,yaw,acc_x,acc_y,acc_z,gyro_x,gyro_y,gyro_z,markers,motor_input
115.00074000000001,-34.181563827717014,-17.94112149739929,96.93076905599101,-0.639375632959667,0.27749869067784017,-1.4618750981770778,0.12174093373596992,-0.14595818565777313,-0.21818621064740962,nm,0.0
115.01968199999999,-33.39224323849217,-18.532734040818017,95.49380702720468,-0.023397387023476404,0.6249309202039962,-1.2004530967430456,0.023085706830533147,0.1615848533415758,-0.07038270779187579,nm,0.0
115.03870900000001,-29.840001103832947,-17.172530790552425,95.25131504773199,0.35236825450098136,0.7329139403591085,-0.9179319882231257,-0.22199781978823746,0.3924957834579891,0.1437074137050595,nm,0.0
115.04822999999999,-26.649183606844918,-15.655422366626935,95.62952353934278,0.2828577068739614,0.7972869181470149,-0.7096077978041634,-0.34844683734964066,0.588491383009569,0.2588444357128337,nm,0.0
115.076922,-12.503964599636452,-10.937664397990998,97.46242581331074,0.47592108724506127,1.818618234612771,0.22118735559036945,-0.3853803456738972,1.0448255112079077,0.34380433462318394,nm,0.0
115.08626000000001,-6.477310577881213,-10.102601436303877,98.10482775125834,0.7693077339375637,2.275239009148079,0.31177266801022296,-0.3151350632498029,1.1615659345278502,0.34648834770066755,nm,0.0
115.095944,-0.4668473263120906,-9.98963665781489,99.0376008010608,0.8227409856023891,2.2666072229316354,0.7984062202010948,-0.18849643648479092,1.1774385427526668,0.39293304167943494,nm,0.0
115.10546099999999,4.304142266629286,-10.499260367863778,100.22194313232141,1.1117141610747798,1.7840049122227162,0.8397176906592289,-0.04688616487851146,0.953223090856469,0.4024149825295434,nm,0.0
115.114801,8.06179184770486,-11.361546716317601,101.33288966557048,1.4852562286802027,1.3719000182845187,-0.20392417154609435,0.04062526449946337,0.7676214490046135,0.3599398625435197,nm,0.0
115.12448499999999,11.649077021702738,-12.499273185519966,102.1589238156013,1.3691246466413545,0.6088338797943385,0.10515519648938648,0.08851491991616754,0.7443168643009579,0.3082441455413722,nm,0.0
115.143318,14.067115637605232,-14.541521196807,102.69746274095128,1.3815106398734636,-0.10595110259785916,-0.34838696603416675,0.15601505718284503,0.122486769579925,0.04086128533785784,nm,0.0
115.162519,10.2066357591671,-15.331993346394777,102.58218760264342,0.5118578717628707,-1.3357772655033104,1.0923827015782224,0.1997222017292093,-0.551852254556225,-0.1916512909886167,nm,0.0
115.18154200000001,-2.252967973094781,-15.485562142183046,102.1128243184376,-0.8228465182715834,-2.494940014130549,1.9184234668559494,0.2986940039944124,-1.3286363302199475,-0.43124439541079185,nm,0.0
115.19105099999999,-10.018866591505436,-15.40279205737353,101.88616930726698,-1.6457323932194319,-2.9881338678215696,1.6852177195921065,0.30615003557207365,-1.460365177138347,-0.4604114523164659,nm,0.0
115.20038400000001,-17.670492519243062,-15.277144535754905,101.6861878594004,-2.285836820986975,-2.7595131190158924,0.7271011747822029,0.28830129990177616,-1.4427498385623743,-0.44469772367546684,nm,0.0
115.209893,-24.75973856287817,-14.94574693487642,101.42109468069768,-2.118638712310713,-1.9188466568121287,-0.5172524232245077,0.22078944903452125,-1.3475938529865892,-0.420989528461109,nm,0.0
115.21939699999999,-30.355992270376497,-14.501233589260469,101.06529128268669,-1.6806920391887399,-0.9971816574492924,-1.3926920330268233,0.13531363292971857,-1.0723256813522855,-0.35273785940933333,nm,0.0
115.238507,-36.13951368347821,-14.653989941084982,100.24028344568431,-0.880262055609953,0.3954428083488225,-1.8271724389731956,0.14846350943489964,-0.36504701450967547,-0.1826111182237085,nm,0.0
115.25745699999999,-34.784095383936936,-16.543187726219017,99.1378994369714,-0.3494700338272491,0.8162474060209348,-1.4090289545242156,0.17454666124712298,0.32914729633286677,-0.031223204923745976,nm,0.0
115.276463,-27.705881094438123,-17.867222723945442,98.0268966312139,0.009711336580330859,0.584008519366226,-0.6927224153554461,-0.02769423896886193,0.8078278579885481,0.1563264622556552,nm,0.0
115.28615500000001,-22.38960983554603,-17.424340413905934,97.77853948511691,0.15294224332790324,0.5101620976995749,-0.4090574632920035,-0.2155176699325478,1.0004047951787198,0.27487492587493245,nm,0.0
115.29567700000001,-16.20389327723422,-16.34229257719133,97.9463841433771,0.022599441159432094,0.478795886699034,0.1370302018233669,-0.36499231038559615,1.1527543029934977,0.3937545789778098,nm,0.0
115.30516700000001,-9.859126147216255,-15.035937112145003,98.48859999082444,0.3847254965779685,0.9020510215497155,0.3838867321965148,-0.4222681675436766,1.1819782507175896,0.45097749849721214,nm,0.0
115.31467699999999,-3.137909760004517,-13.787468558304434,99.28692956285792,0.6257359761158797,1.4253146677573494,0.713892504870242,-0.43749771188844466,1.2584462959348117,0.49204752740843216,nm,0.0
115.324199,3.7393735955665774,-12.792883895654517,100.21595518381052,1.0112956685821346,2.1421545572093836,0.6694914955383854,-0.4132219192423741,1.2966714760031364,0.49828489352116256,nm,0.0
115.33371399999999,10.628332170221983,-12.567960856864692,101.38390984290577,1.1673971838679804,2.5095812944043905,0.7440911536071023,-0.287527024083825,1.3233528588828745,0.5309808341455414,nm,0.0
115.371564,26.026644175556093,-18.19786405425513,102.73878872865943,1.573585534758635,0.025814390142872706,-0.16031699144506503,0.2050365775398725,0.590639836762215,-0.03985511412630332,nm,0.0
115.39058800000001,25.58827889275114,-19.76381026480875,99.03752318398047,1.2988555455011412,-0.9983309775540053,-0.5501517311389492,0.11958237351272649,-0.15860270628793977,-0.45937971482425427,nm,0.0
115.400285,22.735052343356337,-19.705290730786864,97.15995831442879,0.9209871584521085,-2.0036521046767812,0.6630971216851739,0.07191238259931061,-0.5240499214939093,-0.5751120046956585,nm,0.0
115.409787,16.939551728427627,-19.430393843873862,95.43392079648775,0.3213024858833948,-2.633102945937241,1.4508850691663386,0.07420586385868656,-1.0834967758875023,-0.7395033147755286,nm,0.0
115.41930400000001,8.841333904170467,-18.938295716389213,94.12239757286027,-0.45790397306940106,-2.9326680411851838,2.030024625421414,0.03975914369552278,-1.5257080852111755,-0.799282742346889,nm,0.0
115.428811,0.00015450365844290307,-18.164464903664506,93.41380359553538,-1.6267287298285453,-3.0357750840737574,2.2883104120199844,-0.03277447695792432,-1.6768165907483794,-0.7075484621229869,nm,0.0
115.438323,-8.857972487455848,-17.24899377662633,93.22714385031199,-2.533424685768293,-2.333540909608474,1.5341695056800355,-0.07286560817267611,-1.6899172944814749,-0.577805139555075,nm,0.0
115.45715799999999,-23.310575739859843,-15.49201822722203,93.26472763147675,-1.9733697709532623,-0.19262804343919532,-1.2151032889289108,-0.07846656645571981,-1.2171736921561067,-0.3510231044353673,nm,0.0
115.466667,-27.16125550023629,-15.201873888007032,92.85639972393395,-1.5883065113358428,0.34042573276550925,-1.7377943008116916,-0.005962065661265992,-0.7391176170522442,-0.283155747894787,nm,0.0
115.47627,-28.81325793015425,-15.872074656732469,92.07141943029477,-1.0773602882865063,0.7191211608202437,-1.9516609591330358,0.16016460202162908,-0.3064492221200809,-0.24270511195022992,nm,0.0
115.50492,-21.54854813414374,-20.08788199584286,88.89549911561089,-0.2924723771482466,0.6675682784714945,-0.3041724604270152,0.19579780808310324,0.8105940674673874,0.0828020837170432,nm,0.0
115.514423,-16.2858621590989,-19.65090303691277,88.4518162342385,0.10208245298602589,0.42463551306394715,-0.17662963513839808,-0.05170037909052734,0.9989770285534532,0.27022626902006874,nm,0.0
115.523932,-10.31913024088692,-18.299602966015993,89.0770528886506,0.29611410256474785,0.3719033066982231,0.024476068079650512,-0.23342490816030767,1.1422416458279483,0.5130265507688249,nm,0.0
115.53343100000001,-3.9711925686831697,-16.564478380068334,90.68587587130006,0.3640320622198157,0.42066567837215135,0.6497257754732515,-0.3326938265574011,1.2211065998940571,0.7005302568690466,nm,0.0
115.542934,2.3157347402407136,-14.794164304128829,92.78471666338994,0.8829037559100994,0.850593847847581,0.7709576299873335,-0.37962679079391626,1.2091423486494257,0.756486221316216,nm,0.0
115.55245,8.920065264773903,-13.291490989786178,94.85040780660965,1.2302708851062998,1.3957081301188339,0.7414086881610311,-0.3752744726133539,1.2689642622601214,0.7290273523214353,nm,0.0
115.561769,15.771358194730494,-12.364950146378677,96.52718338851251,1.515940310445591,2.1520575632071948,0.37105683301182196,-0.3080729434998936,1.3219017312048167,0.6335980450130759,nm,0.0
115.57146,21.993580922295582,-12.329692047118568,97.71722138923896,1.6827113723606608,2.1902790995565713,0.8562487120983451,-0.15007465585831395,1.2162386222212562,0.4971304613008135,nm,0.0
115.590315,27.94129999538066,-13.286248127943264,97.79720044732848,1.783192838403668,1.040972236829592,-0.8533778465829454,0.035809373702208006,0.41308977206236897,-0.002418215601862463,nm,0.0
115.61901800000001,25.98674784442627,-12.042455798354196,92.17281665255642,1.4982801417303833,-0.6834489385615442,0.16945994299109965,-0.15595256615418523,-0.5805816513178749,-0.5642926714683635,nm,0.0
115.62853000000001,21.495466393388817,-10.838140664896722,90.36706368587471,0.9466867810092622,-1.1676362282564272,1.1971915981963228,-0.21238077846979672,-0.8787238819831478,-0.5472314704332859,nm,0.0
115.638038,14.771254897740102,-9.975540724873207,88.93373734188236,0.17247655307807885,-1.2130413212098834,2.1247442444507563,-0.17039248266782048,-1.3159479440379502,-0.5363757859985449,nm,0.0
115.65706499999999,-2.7898505305447054,-8.293426651084102,87.69706694664258,-1.5086207815599686,-0.7999914526979083,2.015275064269707,-0.25064945817481366,-1.7403068452199335,-0.3453857026647114,nm,0.0
115.66656699999999,-11.295600130383527,-7.086277479721327,87.44221516429282,-2.6732101555467747,-0.8358457811716659,1.395535088342967,-0.29992352193491895,-1.6701463277629562,-0.28053388440557847,nm,0.0
115.68540899999999,-25.974576002789828,-5.506119968441623,85.74562946696483,-2.0736522807282736,-0.5153091518407676,-0.9697873572419505,-0.1878022747218989,-1.2565994756746905,-0.3465486880702856,nm,0.0
115.69492299999999,-30.160448842112636,-5.37932575782774,84.19522059881942,-2.0576760645402823,-0.40609050694772814,-1.401900696572401,-0.085321385750022,-0.824121609232211,-0.387530194344543,nm,0.0
115.704433,-32.99102718972388,-5.976102495264187,82.5276736709463,-1.311854156138852,-0.16973615714426796,-1.758590108832484,0.06661770405263469,-0.5696484922858163,-0.38695135013247295,nm,0.0
115.723467,-33.14851674350807,-7.963040000899582,79.8164826806973,-0.9034686465415042,0.15992084409704788,-1.0732964730118344,0.22441316732853206,0.11927970312241304,-0.22467122182063473,nm,0.0
115.732954,-31.480422823050755,-8.585928340724768,78.92466894143982,-0.4357835587971274,0.005716452573253976,-0.9175970640272317,0.19700001523436672,0.3053679549253123,-0.1275979310464907,nm,0.0
115.742663,-28.830285468648295,-8.99872726479628,78.5636399198423,-0.3804272133188476,-0.12254974944093219,-0.638921271046655,0.1969869246349415,0.501681602897395,0.011191149788679595,nm,0.0
115.75217,-25.724306031816294,-9.218229545171347,78.55897602739039,-0.32971265930737714,-0.2060154522470212,-0.41916560847208134,0.17850677877873716,0.5967503252632879,0.09922439934849796,nm,0.0
115.76168200000001,-22.45031219982458,-9.216474378334034,78.59778076866274,-0.1714087460474977,-0.299176239278689,-0.377824463077737,0.14149075369849545,0.6380605521519537,0.11376588651642415,nm,0.0
115.790234,-13.747915898799157,-9.035983030443326,77.30615364421394,0.31028048723580215,-0.2222724436124024,0.03407166774686335,0.09537108572014898,0.5079890078177656,-0.06856794668536689,nm,0.0
115.82823400000001,-8.944218067874715,-5.77810110875499,74.47769841415497,0.7801967308654134,0.2129793622112373,-0.03339462173229304,-0.20551287081364955,0.14106692291573675,-0.052017247243840756,nm,0.0
115.837751,-8.936405144923668,-4.458302568195358,74.59220599746303,0.6766514385136326,0.33735289354484493,-0.06297202528289109,-0.24066258717942285,0.07505707551576807,0.020574514167074027,nm,0.0
115.84726900000001,-9.1385956307632,-3.2307937341329818,75.00871955948776,0.5081278361850339,0.47166761116915373,-0.01360017497136554,-0.2341852838585725,0.028585303724025138,0.07808810198245769,nm,0.0
115.856796,-9.44185610704496,-2.072914881043409,75.53901103975194,0.3628653580588002,0.5162508136448193,-0.17406700660987268,-0.22608126181121574,0.0034605401084942286,0.10070800899666543,nm,0.0
115.866309,-9.772636496486857,-1.018240535651072,76.01364060456321,0.17016575004396942,0.5195009773072243,-0.22004061819665524,-0.20742908476266467,-0.009042053563371705,0.090540551561286,nm,0.0
115.88533799999999,-10.176610468361222,0.20889398138140836,76.55463815546014,0.03955408937092135,0.3795113939548593,-0.23536866241070267,-0.07164274427207007,0.010014365666817708,0.039213493874029656,nm,0.0
115.90439,-9.661013092198115,0.5197520205944133,76.82494784151869,0.04297531619746702,0.2529796271222156,-0.06913711985911845,0.00658767613189238,0.07956487700303301,0.025265034514910002,nm,0.0
115.91386399999999,-8.928228092126474,0.5693188174586015,77.12406243842963,-0.01542822808991552,0.152789184942861,0.11274173629988728,0.03683560478757013,0.14863710455550821,0.05542781375447969,nm,0.0
115.92336700000001,-8.043103302015357,0.5071150561921822,77.63635870229672,-0.015320922409317948,0.08143984412517406,0.22864238485285776,0.06423545219829188,0.17380864426652287,0.09765561449132747,nm,0.0
115.942363,-6.090498310682717,0.41701184097055943,79.03945545670747,-0.056442957367827326,-0.07170091660165077,0.3921666236036791,0.05552773561979647,0.19479869689184864,0.13988080316381069,nm,0.0
115.95187999999999,-5.3217631789497135,0.3504215146465002,79.66512026489201,0.05588283416242769,-0.10529438042184078,0.2989251195643504,0.05460781862103617,0.15290128243931736,0.12042672624275931,nm,0.0
115.96139500000001,-4.557823299573091,0.1941532453711652,80.09849769627387,0.0751022457960643,-0.09707577678087749,0.36821650450134913,0.07065943126367276,0.14929751884338247,0.08208637124597094,nm,0.0
115.9709,-3.9141035688449217,-0.021983224049737318,80.2797335779979,0.0662231526079229,-0.06957780727089746,0.4227789412903838,0.07753574868897932,0.12390525557712666,0.03202691938816883,nm,0.0
115.98041699999999,-3.5373123184021416,-0.2743730467750273,80.22390419381112,0.1621516970021899,-0.029229067940695467,0.2655253528412585,0.0754896384726594,0.07007681172785415,-0.015100313447183983,nm,0.0
115.989922,-3.2598430435186287,-0.5707342159233597,80.04927805312272,0.198409257960828,0.050632307286306265,0.20295866618832795,0.08088633924106745,0.048831946435621575,-0.03869683837873812,nm,0.0
115.99942999999999,-3.0882511318588177,-0.9006975943942619,79.90404693501698,0.18105831369193484,0.029685953896646265,0.29087420597601416,0.08394885630789357,0.026585050745338356,-0.03277946550897344,nm,0.0
