timestamp,roll,pitch,yaw,acc_x,acc_y,acc_z,gyro_x,gyro_y,gyro_z,markers,motor_input
138.006424,17.29522745305927,-32.844485831384404,82.93781452926513,-0.24520818665608818,-1.5671451240092682,0.4799266683098346,-0.1793429619514068,-0.8457884101120648,-0.6015848936259024,nm,0.0
138.015911,11.289324961681189,-32.253101819430455,82.90954587353481,-0.945913405437508,-2.2864334199826155,1.0915483597287687,-0.23072674115556144,-0.9836877907034652,-0.6553239222226905,nm,0.0
138.025404,4.479148761129649,-31.4478697470076,82.59171539714035,-2.2176631982404786,-3.2202018614042065,1.6627423536785821,-0.2936699147486675,-1.1219343753785844,-0.7848633613447202,nm,0.0
138.034741,-3.1779077522714667,-30.615564436609795,81.76912440907222,-3.0089115728106033,-3.6757767542009434,1.1359668829804603,-0.33073819741413313,-1.2733149778836292,-0.9553789253248323,nm,0.0
138.053754,-16.80852304032307,-30.60606177105045,80.68183266785161,-4.44009562689047,-3.763791864530617,0.3557358946140171,-0.11209931858039408,-1.1094090691390834,-0.7042967606444964,nm,0.0
138.06326,-22.72552780336752,-30.311062756616113,81.02756101415125,-3.803210346706899,-2.598122345960303,-0.304656086903918,-0.20720483589691302,-0.9955102998335956,-0.5282142691163901,nm,0.0
138.082281,-28.532428057910646,-27.459427377263673,82.43879879096056,-3.176723757747983,-1.2052985706272712,-0.8465579467726284,-0.32695169041471883,-0.2851618351680178,-0.01466793857548581,nm,0.0
138.091794,-29.380637588669483,-27.186985958644076,83.39534500053286,-2.294473415525913,-0.6349042904693284,-1.1767444004896246,-0.05964064980476524,-0.13949763273405127,0.11779973682958136,nm,0.0
138.129834,-19.873108119666163,-35.395810976820215,80.82140562978286,-0.7936941759170111,-1.4219180810608703,-0.826769618658205,0.627665043818354,0.5293221133792219,0.10885557772619672,nm,0.0
138.139348,-16.09600956569738,-37.27139215974556,79.43978007860207,-0.49407173560690687,-1.667534858750657,-0.935012633537653,0.4878005907456954,0.5394505795509515,0.17435676607990322,nm,0.0
138.14887,-13.007899967305626,-37.842563541310476,78.69164399514443,-0.2036412980092813,-1.7073419671954504,-1.1450259021861524,0.21876775783738706,0.4633806764800034,0.22943026092177635,nm,0.0
138.158366,-11.006646501582427,-37.344313136018606,78.84779584793068,-0.1136346160621932,-1.528196434217425,-1.165153168520213,-0.022541977895095284,0.3349937706731237,0.27757896479374683,nm,0.0
138.206106,-6.975275700625629,-32.801159683546096,79.99050994208572,0.37773105022102843,0.8282816416877037,-0.1466541575623696,-0.06922083409920553,0.15938351359271372,-0.08247284787440841,nm,0.0
138.215616,-6.141131171485317,-32.47631196751004,78.74634228315018,0.36598261558602324,0.9144764401790204,-0.0280964698061216,-0.024632061730743778,0.1550284346952452,-0.1586317440470556,nm,0.0
138.22512,-5.4883670652172505,-32.35065021652808,77.43937657124384,0.48431369449896816,0.9399074704118948,-0.08541805945570652,0.011578795189300094,0.11772449256994715,-0.19136055426835383,nm,0.0
138.234638,-4.81643731721433,-32.272786693262205,76.34927931877003,0.4848465733494449,0.8502096942649957,-0.04071666194997449,0.02409399238070649,0.11867943093876741,-0.1462129299034763,nm,0.0
138.244158,-4.160425135487449,-32.0030579778866,75.60903607778039,0.4939492959003849,0.791189981987791,-0.05546279816035766,-0.011928573118538404,0.12531096474224637,-0.07836274100806852,nm,0.0
138.253659,-3.445126227575843,-31.420323594445815,75.25594791933277,0.7166494355302364,0.8878602074866095,-0.16834873781511542,-0.0687674727998246,0.15159999540912322,0.004357993255141847,nm,0.0
138.263161,-2.2734541653381397,-30.448786282642217,75.29625614018336,0.8641172776004612,1.054351317576901,0.16451881077040978,-0.12353807777769961,0.24855934349867845,0.1280983788393249,nm,0.0
138.272674,-0.6363976582510155,-28.909466138665532,75.69237612956995,1.2199994284690556,1.5995624048642336,0.4578559026436475,-0.2137208267973471,0.35768969285875074,0.24052796755920405,nm,0.0
138.282182,1.703656966418159,-26.994688063695428,76.56588516039501,1.65298605569642,2.36604254306452,0.8504298813616451,-0.2598607777355868,0.4989695288046974,0.3927248784745776,nm,0.0
138.320229,14.995614143949759,-26.184522079773323,84.24361286837106,1.776525473595138,1.7803106124093473,1.2211454125954908,0.35712941951588556,0.6055367327728962,0.6741272234480864,nm,0.0
138.329738,17.544555175078916,-27.649404009269333,85.22263135018996,1.7467153397906239,1.0324987279911286,0.8404360145393057,0.3442975278236782,0.43493371262896396,0.42280850676012344,nm,0.0
138.339058,19.90737613991562,-28.397691940753084,85.08205191651244,1.8359145749623467,1.0312713111124923,-0.041091721530747916,0.19473584246261813,0.4123742968863435,0.18967401156300284,nm,0.0
138.348759,22.58735958328479,-28.366751192033547,84.22143275342398,1.73144763404271,0.959670750190809,0.26788820995793744,0.04773969348511785,0.47959360642524385,0.0779227655080973,nm,0.0
138.35809,24.080028404915005,-27.98445439940029,83.3797895335191,1.9441253673395111,1.6775605152525717,0.12510371666793657,-0.03784871223110843,0.27909376301420885,-0.032543266136565066,nm,0.0
138.367592,24.330611030802793,-27.791656661915585,83.4800661963172,1.9299428369904437,2.1822297045343952,0.40481434103843517,-0.023543931531398582,0.05739912337727786,0.03831531296828645,nm,0.0
138.377274,23.112524911861946,-28.03164659051684,84.80726966625758,1.5174674409583233,2.328106836389911,0.6787327906710874,0.03551713784678957,-0.2102392912683724,0.14653052431766556,nm,0.0
138.386795,20.8695117094858,-28.681954236943024,86.82859199722697,1.0692919945085582,2.26554735248637,0.44980258337214196,0.11075278829194919,-0.39440633349975895,0.1867530567970987,nm,0.0
138.405825,18.034472501557868,-30.16189258143035,89.54986954100197,0.5848741112922053,1.2921860037079926,0.25811991218017577,0.14346792507188594,-0.14566988200263445,0.09572130926919821,nm,0.0
138.434356,16.151790476889037,-31.56749062717543,87.06405072403439,0.377552790731001,-0.07950039904934843,-0.34588684704095546,0.08723467398512524,-0.0935963524755718,-0.3623576105888271,nm,0.0
138.443863,15.488483958283945,-31.811476660615693,85.46567029377802,0.183144882162925,-0.5161733039260931,-0.43697861469783345,0.05211247552467582,-0.10727051740781643,-0.39308143029353104,nm,0.0
138.453383,13.967643001253089,-31.85547913485814,84.12843945360929,0.023397121524980243,-1.0535045258874525,-0.029398005027320217,-0.003584894448182041,-0.2501906915997562,-0.4314168399268648,nm,0.0
138.462915,10.902259987184097,-31.546728597386625,83.2376220742245,-0.2969467383107957,-1.9128617178478986,0.7229175873077774,-0.10732847849788074,-0.504531686277396,-0.5035382186656985,nm,0.0
138.472414,6.360396709912803,-30.787229096271393,82.66759730699619,-0.7239539935134272,-2.3918628855400725,0.7816169901234875,-0.2342471720949485,-0.7466066324113851,-0.5868263333414797,nm,0.0
138.481927,1.1219962886346226,-29.743779480366204,82.12821951737392,-1.6255070264495843,-2.868914121409669,0.9965066072996311,-0.31423852492528426,-0.8640739843015603,-0.6379352468318494,nm,0.0
138.491259,-4.876639411647984,-28.695192307965577,81.36351690581307,-2.317824398067569,-2.938988390059446,0.8913840007941752,-0.3450895708250223,-1.0019358661884132,-0.7397388307887858,nm,0.0
138.519772,-21.2575893034883,-27.90924119823183,79.45584281365838,-3.068894742442641,-2.523894527598408,0.009211029809447322,-0.11263483141305922,-0.8226700919663363,-0.49523029719019834,nm,0.0
138.529267,-24.709741273117196,-27.946346193071445,79.72531051560634,-2.744428445287294,-2.331715054093184,-0.6311507936078552,-0.08960102790614369,-0.5989834464075874,-0.2664296480038736,nm,0.0
138.538781,-26.765934839213102,-27.738457946126026,80.49387856947486,-2.8034568883848956,-2.2139315147887775,-0.6981986015115293,-0.09018648038326799,-0.3484452701371733,-0.03465018694575019,nm,0.0
138.548295,-27.871341587919307,-27.379080003535055,81.46524635908692,-2.477276657335482,-2.03235752798843,-0.7972606512101896,-0.08857036272478233,-0.17931412502914187,0.09603904236968475,nm,0.0
138.557809,-28.013820011862258,-27.33568932175057,82.47036553089204,-1.7666301333256793,-1.5423100286517688,-1.0700270982962552,0.0010649389615646182,-0.020441897826988967,0.19212576939323014,nm,0.0
138.576821,-26.01146343572314,-29.061884156879792,83.64065259209649,-1.0882879274298785,-0.7492799143843422,-0.7100611737434411,0.26230849055070815,0.19722614379203707,0.19210233186073053,nm,0.0
138.595863,-22.74436444135021,-32.11133419938483,83.1953316957176,-0.5786090210579203,-0.7357660050055064,-0.5672361244191113,0.36570392598203677,0.24780777319089295,0.11433867829812419,nm,0.0
138.605374,-21.35908445519953,-33.59246307486144,83.03843349349624,-0.3378996049625252,-0.7921197959448121,-0.6618498950764409,0.3356366046620107,0.19970891587376255,0.12238345815373715,nm,0.0
138.614892,-20.299340892286168,-34.54574118113584,83.16228700262243,-0.3609696606836871,-0.9344185645911717,-0.735964748557904,0.22388295230563215,0.15558764938646588,0.14688215412978087,nm,0.0
138.624398,-19.799536626222103,-34.91041194784357,83.54286576212584,-0.31782622470698657,-0.944136621130496,-0.931034765747988,0.09528574164926781,0.07738841072398729,0.13635984527246633,nm,0.0
138.652922,-18.84901455581286,-34.34437940061668,84.44269539279348,-0.02517023396846741,0.07911921515002238,-0.9691028724954163,-0.05677411643522466,0.10749023690135037,0.06401355011632671,nm,0.0
138.671948,-16.054249738393963,-33.54659329070582,83.19252244538045,0.25670771651711116,1.0608914192802885,-0.4398808083369095,-0.0241162982233871,0.2898399602425267,0.03605577366276588,nm,0.0
138.681628,-14.032115244539774,-33.247033919395406,82.39092971156194,0.466170167809859,1.5412916650502857,-0.051677511611223546,-0.0038160618990188094,0.3475638872363968,0.06431715314690818,nm,0.0
138.691137,-11.660450429600841,-32.85313534866474,81.8388677121428,0.6717882222611741,1.848883592385311,0.1763153380109112,-0.010238822424205327,0.40995602617488336,0.14992087483631214,nm,0.0
138.700636,-9.208490718604967,-32.41935730373006,81.83612317946533,0.7528977722552728,1.9305136927823459,0.4567008578893155,-0.014061267549786843,0.42676789831089595,0.2651822384942893,nm,0.0
138.729167,0.1599188078851087,-30.770582661472584,84.87871047691,1.2569939704092035,1.6585400612284007,0.5869952039101888,-0.036953444656669186,0.694178411933705,0.6680583850173982,nm,0.0
138.748187,10.024198575283577,-29.854761252125208,87.43025628397105,1.9298446120343948,1.8544714183320294,1.342992644987464,-0.015488521520385544,0.9080693236409011,0.7697930002687167,nm,0.0
138.767208,19.567649058779082,-29.809978674125077,90.04881943207819,2.459523738732744,1.8998666920269542,1.2745255674319456,0.04784490965397408,0.7906280840994842,0.7019653879884601,nm,0.0
138.77671899999999,23.28595678086748,-30.39652668964536,91.066959558865,2.373455518945567,1.8622171202906797,0.8532617947052483,0.1197752911375943,0.6556073931628402,0.5726379863360606,nm,0.0
138.786223,25.946843996872616,-31.168703689856375,91.63602990812029,2.292853894984343,1.5900345189019105,0.7158950272587017,0.15185946927130375,0.47193083314618267,0.38181148131549913,nm,0.0
138.795564,27.355241640303195,-31.850394128764822,91.72412197369644,2.099646196913172,1.6201647856981993,0.18227670691543751,0.13723643686502976,0.2551343410401249,0.1601763397066902,nm,0.0
138.805068,27.84634626098269,-32.45602012641491,91.42141457952397,1.898492372587348,1.3975128291943646,0.26040610782077245,0.12676470046426766,0.09738507927288502,-0.01307636758033502,nm,0.0
138.814583,27.298681460152086,-32.999993376417244,90.90472949488928,1.7665590264116646,1.4371890037306994,0.20078033449348684,0.11879308488656118,-0.07927132102170403,-0.1673842427703245,nm,0.0
138.824277,26.102106557146715,-33.39092720053956,90.49212190912976,1.38781806259319,1.3795335919516722,0.29994196284006064,0.08901002937558422,-0.18890107981677398,-0.21822655818853184,nm,0.0
138.862324,20.75923914032471,-33.927402165072245,88.48093582451627,0.5251677647457715,0.7462109219076676,-0.03839018386051128,0.014745014344352566,-0.16350281227503433,-0.25697054331543173,nm,0.0
138.871826,19.74109400751552,-33.98535290379029,87.58086946844976,0.3708842464669619,0.46286385965947263,-0.4024522946016644,0.015587267001913797,-0.15976931291680352,-0.2976085736711943,nm,0.0
138.881333,18.965396516607175,-34.13898341122726,86.40003392552853,0.18380741697084502,0.03818240686770634,-0.4659807627537106,0.0340772072803202,-0.12075654806211425,-0.32680724542274747,nm,0.0
138.890847,18.028338626341743,-34.23025584731924,85.04117933861846,0.04499233767987764,-0.22830933648257526,-0.5613773367169285,0.017102649267154855,-0.14713629819634108,-0.3807360582079391,nm,0.0
138.900362,16.654262101848484,-34.07527857349976,83.72371656748966,-0.055387676694232876,-0.4368229401397867,-0.6798216365537599,-0.04233471634726282,-0.21495878738941093,-0.4213298732933842,nm,0.0
138.909683,14.84874233349672,-33.69137523499003,82.60053957600749,-0.17827151993936793,-0.62113164883728,-0.709088031430529,-0.10084112051265658,-0.28068928996579934,-0.4293348303405422,nm,0.0
138.919378,12.612371442162383,-33.08082049192344,81.72570670450945,-0.5522389401141466,-1.1356811389714208,-0.24230429007487966,-0.16050036209740184,-0.34604984558157686,-0.42424735469804176,nm,0.0
138.928885,9.34620756583781,-32.189068859667024,80.98698653767401,-1.077891353243345,-1.9138200759039963,0.5963926127387618,-0.24725340995936929,-0.5105641925521347,-0.5029127666292063,nm,0.0
138.966752,-11.425713804283204,-27.946500626738846,77.7660791197566,-3.4674225184399186,-3.2214363483382997,0.6983515711330236,-0.3301850719087486,-0.864957753367272,-0.6016265018600317,nm,0.0
138.97625,-15.885740925727298,-27.59716010198325,77.95538196507479,-3.406655082214941,-2.6069956124312497,0.4021256138543034,-0.22088391979858654,-0.7542790301504398,-0.37662589672407915,nm,0.0
138.985771,-19.121906009505274,-27.1923174171168,78.60178629446216,-2.960416477825757,-1.9227456667137688,0.02539887533747482,-0.18262788448696746,-0.5434744583721224,-0.1665500811135147,nm,0.0
138.995281,-20.72952152610147,-26.894662687822024,79.3441594987011,-2.5015475100083786,-1.3997006249241628,-0.3601516271179379,-0.09978291841567175,-0.26658405179674466,0.004779855048919424,nm,0.0
