timestamp,roll,pitch,yaw,acc_x,acc_y,acc_z,gyro_x,gyro_y,gyro_z,markers,motor_input
136.009308,3.67163106726374,-30.812987499626892,80.45521531644373,0.13683976241017679,-0.13166990594783443,0.0016838681358669924,0.04213533106381624,0.12776556662137803,-0.0453212242067033,nm,0.0
136.018745,4.337734801590091,-30.763929691010226,79.89361937196772,0.1960337778193904,-0.11549000055104792,0.07710503658656022,0.022487656632465818,0.12088474264788142,-0.045844282007353694,nm,0.0
136.047263,5.073170963863924,-30.44616042911289,78.93239822130347,0.14768289368370321,-0.05963363820186994,0.1740956270715629,0.0,0.0,0.0,nm,0.0
136.085377,4.378098944228327,-30.004999037443245,77.94636597402807,0.03222125460620485,-0.062130946468535786,-0.10198732079041233,0.0019199262457850802,-0.007619346982934772,-0.08476845077903562,nm,0.0
136.094895,4.6103632943943005,-29.84441034268647,77.5316511215303,-0.07250203791799766,-0.14505089788291298,0.02514511334851421,0.021129143920916343,0.036327380620076885,-0.06174337028554921,nm,0.0
136.104393,4.772905896524946,-29.73964245717843,77.19478110463695,-0.021756280958510493,-0.09572027035710695,-0.05608045538144241,0.02312180554564185,0.03473266309973679,-0.05321265943285116,nm,0.0
136.113902,5.054771788547915,-29.619059273287053,77.00608628436967,-0.024745158898371113,-0.10723502768997858,-0.06256726651363645,0.02770125443858543,0.05699755371626713,-0.011868143525436532,nm,0.0
136.123415,5.4225028171651015,-29.53529740924769,76.94748530945719,-0.056901604777500274,-0.1426250946390204,0.012687755364138768,0.042006769739402795,0.0595540352858053,0.02248177755899876,nm,0.0
136.142361,5.917345238972963,-29.707125485987582,77.22990576766078,-0.04466045828581083,-0.10062060595692711,0.18929552840016142,0.04750155115203044,0.05031096680281537,0.062015262791836,nm,0.0
136.151871,6.037900489274963,-29.84480796603988,77.39722028186478,-0.03297173973370478,-0.07605672284899453,0.14190700002780784,0.04423516204986754,0.020317778759318835,0.04339102489265941,nm,0.0
136.180412,6.366364163820707,-30.450923168533173,77.36071976496876,0.005062616193976585,0.1768315088483892,0.10645835135206817,0.056748445091745786,0.014614856331654935,-0.013306777723844672,nm,0.0
136.189915,6.55008610374805,-30.76202036429097,77.23387260253433,0.04586084496419074,0.2339691084582261,0.071175433654707,0.08045384196181293,0.023173391374654607,-0.008707779452138412,nm,0.0
136.199428,6.763424594418657,-31.163344601853883,77.20077891530433,0.08162921382247916,0.19722746043162837,0.08627488943397013,0.09918593708768146,0.023960977030042813,0.013337958214749718,nm,0.0
136.208935,7.014114808213257,-31.5986316119311,77.35315735635382,0.14203045469023878,0.18057965892487965,0.060852955266826485,0.10713919805976901,0.02870653662480011,0.05466222998443303,nm,0.0
136.218448,7.331370300600752,-32.0117584317141,77.69805357618452,0.17701978300806864,0.1816789573824954,0.06731006887052006,0.10505130378252814,0.04107850625065268,0.10056184441234724,nm,0.0
136.227951,7.671737722801292,-32.31934925322272,78.15730746261885,0.23194796108777546,0.21605455087946482,0.13477462331848722,0.0848350258683434,0.04992622483826889,0.12625105356106836,nm,0.0
136.237446,8.036925014637609,-32.45965687403638,78.62330930129355,0.28810791552763704,0.32332324768470383,0.1588601464725396,0.05239785905660774,0.06137370347977861,0.13044742537319814,nm,0.0
136.246972,8.457460148881049,-32.48838513343146,79.00622323391775,0.35396538878469275,0.4796811589778871,0.1368112451714454,0.03179064775486453,0.07525207603912322,0.1197882198452778,nm,0.0
136.256473,9.01417542369856,-32.50207663943714,79.28280637337004,0.3567137511018595,0.6028308123613725,0.29467156206219625,0.03268197557499471,0.0986277626672839,0.11308793511567276,nm,0.0
136.294506,10.820398542463568,-32.62353963440244,80.42708319763136,0.6460195141330501,0.9135757470649503,0.5353281270941901,0.04458863989642874,0.06455473073627162,0.11879958057715777,nm,0.0
136.304026,10.933654534786466,-32.885313496761796,80.87695598295826,0.6807003091059038,0.8943671087627346,0.3450559368556663,0.06671793025042355,0.017688468163555276,0.09992928425891943,nm,0.0
136.313522,10.91094209151888,-33.29684424717741,81.27201041704593,0.6859359302411896,0.8022326483081548,0.2746497575494526,0.09267026880462174,-0.009071993487584999,0.07427164362042574,nm,0.0
136.323038,10.743421914445177,-33.76071593061353,81.55125852789116,0.7216027670670044,0.7907539245502662,0.1465678952577901,0.09950732055833335,-0.03399071952524696,0.03513945196814074,nm,0.0
136.35158,8.921789585396736,-35.22647936363383,82.2326460440562,0.8307797783520628,0.9286480629525575,0.14226841377072608,0.09061402088855629,-0.15061982527080767,-0.04343973881187336,nm,0.0
136.380106,5.405574035155429,-36.7463494522481,83.64797030149849,0.6726122468910792,0.8194345074944762,0.00808824653151449,0.08983137981782616,-0.18458522075752493,-0.04530451544913679,nm,0.0
136.389611,4.419361303329056,-37.225168430814534,83.91045388520527,0.5335113020219551,0.6048635244666888,-0.008920348518976799,0.09037485381031135,-0.15988555645680622,-0.06697914827654619,nm,0.0
136.427663,1.2851217762977856,-38.957210558294896,82.5705419013077,0.14701851368527827,0.12355954433625886,-0.38390084311194783,0.08383104818945934,-0.1378277474419941,-0.21244815778892354,nm,0.0
136.437189,0.26240853804879694,-39.3506092879704,82.20198008096473,-0.029760664980644006,-0.21612110652280261,-0.22458565127871608,0.06972048668159117,-0.16146090191973894,-0.20286170562127037,nm,0.0
136.45622,-3.504200116627684,-39.44901684944166,81.95043326602968,-0.48832109963930326,-1.0740295306185073,-0.13921903320182524,-0.06052104097557205,-0.3368536109820974,-0.3052491039484389,nm,0.0
136.465552,-5.6538962353957105,-39.01291876436184,81.69822786343379,-0.9534330748479362,-1.6766519824055097,-0.051026283759054034,-0.12079860918543361,-0.3121975565375783,-0.3216247811784536,nm,0.0
136.475064,-7.637440947254805,-38.21818912013293,80.99729205617483,-1.5916359288396016,-2.0194005964851405,0.42292123536688436,-0.19082199479013123,-0.27787718093172853,-0.38687920299827905,nm,0.0
136.484565,-9.711417967937672,-36.87559965338973,79.79127598305405,-1.6455820971731923,-1.829387499257437,0.23423511587476142,-0.30667235856625075,-0.2753532441464934,-0.49301632460009215,nm,0.0
136.513245,-13.784286752305118,-34.97231304203646,77.27437637400966,-1.887348982551747,-1.27778126269683,0.5996167543844503,-0.02862062342884052,-0.16123843388304865,-0.1843028544254964,nm,0.0
136.522765,-14.216228030901387,-35.169055189529715,77.48315305030818,-1.81027563050929,-1.1201693727876914,0.4160254075817637,0.03659851581956165,-0.07427323337902017,-0.005733181719733572,nm,0.0
136.53227,-14.261797903089029,-35.667857247195535,78.17143744285079,-1.7928260848125288,-1.1874896191644255,0.3403860339838356,0.10965586822787379,-0.024765933703836868,0.13475317968813627,nm,0.0
136.541612,-14.159427645996955,-36.619904052867156,79.18119180485948,-1.4416893838489215,-1.1329527457786133,-0.023489178936312513,0.20370899222169525,-0.01741473913170726,0.21658560227065424,nm,0.0
136.551117,-13.7455992756006,-37.90418910834953,80.2580876996651,-1.1824855027804348,-1.146939331795974,-0.26478509859960747,0.2782646750651477,0.023045849432024302,0.26818501898346425,nm,0.0
136.560626,-13.112368000051632,-39.27358908000581,81.15221855262051,-0.9329255847033552,-1.1988406180750948,-0.48767936876786977,0.2999919425144513,0.05781328759344559,0.26055353750865373,nm,0.0
136.579648,-11.63710584757204,-41.966098136735546,82.34579275665172,-0.4446574883383363,-1.1824013092655619,-0.7474577027244008,0.28941004362814476,0.08084212645045113,0.2093486279232314,nm,0.0
136.589159,-11.131948937397762,-42.93025181092965,82.85416282963669,-0.3408254013183589,-1.1667232136738976,-0.7178259290309555,0.21423467076444472,0.05396659106366799,0.17258048121865868,nm,0.0
136.617687,-12.713942478500377,-43.66704857139523,85.19211581169482,-0.18103706171060738,-0.6831859462505404,-0.7519874524648714,0.009897694747489121,-0.14551478179608535,0.05109004356148799,nm,0.0
136.627199,-14.020480552896684,-43.57988042522601,86.15253042503409,-0.24123927388724803,-0.5357869833133166,-0.6801141658577862,-0.0187736858150207,-0.18243953048127465,0.014801593020657682,nm,0.0
136.655915,-17.14399399055433,-43.421780109801375,87.64351194519178,-0.3274215927921385,-0.0519593534300065,-0.7954616729740055,0.03559649619968048,-0.1116349484195728,-0.05813191551798916,nm,0.0
136.665427,-17.576965567204013,-43.65476961906699,87.7013178763519,-0.2835250122383208,0.08177553866895515,-0.7624659092171264,0.05691729544979366,-0.059819704418604146,-0.044546258135880895,nm,0.0
136.674924,-17.60409321357965,-43.77427698436518,87.68867121750611,-0.2348983414027581,0.18486597897745605,-0.7182018666017347,0.0,0.0,0.0,nm,0.0
136.684436,-17.316955677564554,-43.7554409695657,87.7718921160439,-0.15872386464847957,0.2754888184160737,-0.6510821481311714,0.010711484283715083,0.046571064631057334,0.06000060678940671,nm,0.0
136.703469,-15.832316338529038,-43.27995402600031,88.4611306985652,0.0756797223567699,0.5435076850589102,-0.4186299743615953,-0.05225936626023184,0.14255115797698825,0.21260805348544198,nm,0.0
136.712992,-14.417397071343334,-42.70081321366354,88.8499304543006,0.1984469673011623,0.6543846392734265,-0.37322547626317265,-0.09840720488900494,0.2155998998655311,0.2740345037512535,nm,0.0
136.722503,-12.244741175226148,-42.04371891259939,89.16739321188285,0.38749456004066735,0.8295636222354723,-0.38721721809210247,-0.1134278654853933,0.3297627860567287,0.35934493520147937,nm,0.0
136.741533,-6.357586909462123,-40.44510368848524,89.29935672637278,0.5797397576290045,0.8049466911369599,0.14345422561974344,-0.16439444821050136,0.4490600023513737,0.37185483708651773,nm,0.0
136.751008,-2.7472569241508844,-39.109848407379,89.17038825292985,0.9063254896218352,0.968477632959198,0.24797990718246413,-0.2478306302587339,0.5666633100638232,0.43740954029328494,nm,0.0
136.760522,1.6603493534587084,-37.372577937582,89.16712502319716,1.06304918938506,1.0369907168150834,0.6908062834186215,-0.325963924217056,0.7063027803379044,0.5453769604541867,nm,0.0
136.770034,6.125221777379199,-35.51476115712136,89.55804109280884,1.4321237773491247,1.4658529387553971,1.0585474609958416,-0.3526580890491817,0.7320585025213441,0.6080702176331714,nm,0.0
136.77955,10.233317296774059,-33.7545688558439,90.57215244655235,1.7489244362131704,1.6911909131004292,1.5662063806148376,-0.3425801801900931,0.6858028257241582,0.6683026894373948,nm,0.0
136.79856,16.488975433164445,-31.265608827384902,93.60907458604957,1.8943797469239148,1.9783870807870594,1.277107253942437,-0.20931854163474506,0.48320784602738887,0.5997903863320405,nm,0.0
136.808071,18.661692991595103,-30.88812190296955,94.48115151499499,1.9022020679516038,1.8787455965469053,1.100754072090803,-0.09295473037952015,0.3768962081758705,0.39525074455027204,nm,0.0
136.817581,20.176388209299162,-30.737657822629195,94.41037370753877,1.7816929400167676,1.5890663502696223,0.9665050197701017,-0.04170833521410944,0.2679582068739072,0.13704665116812342,nm,0.0
136.836601,20.46824296430704,-30.209419359510992,91.57761295413202,1.3210814750041189,1.2048598412589793,0.42026974699574793,-0.04526663712261678,-0.04000597677338022,-0.3941863537304808,nm,0.0
136.855631,17.8250229685572,-30.390118769216134,87.66375580758589,1.0219890621800254,1.1391921121676638,0.557631212386054,0.05326788544746666,-0.29141682294824917,-0.5372227951903646,nm,0.0
136.884158,10.631958171441395,-32.89223983379584,88.22632530560129,0.47270287122874444,1.047393558860255,0.544075646921825,0.21016861988416569,-0.4244358686391934,-0.033184240251516936,nm,0.0
136.893668,8.521086000205283,-33.934547428040034,89.91107540140375,0.37792279735801954,1.011606412968064,0.29503460595675235,0.21380961994274644,-0.3472113361091882,0.10265581260806489,nm,0.0
136.9127,7.159648755008334,-35.766084761895,92.44901777734215,0.1745527918520243,0.6610563032124857,-0.03266665473110207,0.1964132081111045,-0.017137868643196497,0.16466890144753843,nm,0.0
136.922219,7.8021246597396505,-36.68173020016898,92.47752267681255,0.21470019207365063,0.5271089356667048,-0.004061968862920742,0.1892807831722426,0.12099710369911272,0.08042622018450933,nm,0.0
136.941228,10.554079092014547,-38.01247850433878,90.47435148297023,0.5546723172691305,0.4710754826288449,-0.0683466329170685,0.12083244388800238,0.2626171074101485,-0.04976850479314722,nm,0.0
136.969783,12.38262178325824,-39.5118216017627,88.0545477165832,0.4828507226031021,-0.39701953394902517,-0.4130905559362796,0.09405357937061135,-0.019414873625082516,-0.09635337501172435,nm,0.0
136.979102,11.380191142544566,-39.69514349599828,87.95203175609299,0.21418886855045113,-0.8498793173652863,-0.6203214097465425,0.042151058172697396,-0.14679373294169018,-0.14986826359845185,nm,0.0
136.988594,9.732224648860337,-39.52111284560302,87.7434257936053,-0.06645161544182182,-1.3127215840925472,-0.6312349817962467,-0.03329763347078176,-0.24395317686025675,-0.25334056004991196,nm,0.0
136.998116,7.473268429378157,-38.86853953047824,87.08910450798031,-0.5500138161078706,-2.0122979088356345,-0.16030906992674093,-0.1349249667757916,-0.33597162072165077,-0.41784735294935815,nm,0.0
