timestamp,roll,pitch,yaw,acc_x,acc_y,acc_z,gyro_x,gyro_y,gyro_z,markers,motor_input
141.506188,24.779024207475064,-31.706773482934278,89.92253424075668,1.284727238182098,1.4278827462004262,0.18713251993273483,-0.06348494710218502,-0.16599247606495685,-0.15831090710948487,nm,0.0
141.525025,21.608298229340363,-31.49569070835992,91.52284215118159,0.7022120442086897,1.5969499062336778,-0.01678453385237286,0.002749731816954785,-0.25462780030816434,0.045523399978357464,nm,0.0
141.582283,17.98456373832896,-30.318293436248737,90.54999707340963,0.0865170022160919,-0.9020512303792874,-0.4519683828851591,-0.09408835532696347,-0.10141962450574547,-0.3000222755558977,nm,0.0
141.591591,16.31798921013236,-29.683869958316752,89.59061647522365,0.09881167164475091,-1.629175557547667,-0.15362318623102508,-0.1167425998808286,-0.2797761788101197,-0.3627299707664564,nm,0.0
141.601293,13.686019161186898,-28.90766079276907,89.03041631220796,-0.2641510594436856,-2.566870533138543,0.7270810371220612,-0.15055203542315537,-0.4487191181363031,-0.3735552063693988,nm,0.0
141.610825,9.397465790693847,-27.659906759221336,88.76607167260681,-1.1452158299287225,-3.54478613556327,1.509689380334059,-0.25330355049201286,-0.7427978544683136,-0.46286481172388017,nm,0.0
141.620326,3.1907208201840045,-25.886956898990015,88.43868381589226,-1.8645878826293811,-3.6494780609148734,1.6088634168063622,-0.37002003566349817,-1.0929083916813516,-0.6276158510457739,nm,0.0
141.65818,-23.46178696857865,-19.21837084397044,86.72932587645792,-3.4970778810528733,-1.9113502845632566,0.7106325140395333,-0.2033649088792095,-1.0122994238596899,-0.36298907968635385,nm,0.0
141.667678,-27.509549819065242,-19.227438293848593,87.29875951542132,-3.0427545856595266,-1.380939448718388,-0.15188685535874039,-0.025151697093396926,-0.7593218990684177,-0.14977578348530646,nm,0.0
141.686706,-31.713451880157486,-21.97280914151942,89.79355115999627,-1.9685475374942738,-1.0849102214139106,-0.969949156720895,0.3737953108275871,-0.26405061868016044,0.18677840937025803,nm,0.0
141.696223,-32.053559461872005,-24.258212729153605,91.07338220174202,-1.6632220953535883,-1.294450336687916,-0.9684148164976427,0.47056400247845326,-0.05396301848724967,0.23397825347012227,nm,0.0
141.705725,-31.446571447417234,-26.474531243076022,91.87154091859624,-1.1163228436010353,-1.5436651733391993,-1.1351824654271734,0.453241856261543,0.12646777323186895,0.21643752149104759,nm,0.0
141.715233,-29.899195989139574,-28.35091971691725,92.25540764598578,-0.922684167623516,-1.8177476985108338,-1.093571159196769,0.3779771714831183,0.29377810470217003,0.22394996141338086,nm,0.0
141.724741,-27.970755016364677,-29.718615353599258,92.38261507145671,-0.6582881986232408,-1.8037788810597413,-1.0295593115563302,0.27239487721295386,0.3539248686857644,0.21708284905242534,nm,0.0
141.743794,-23.951141016741655,-30.51331388782165,92.45972830641057,-0.09407957783521784,-1.046254205339193,-0.883160508912379,0.017855969408750737,0.36072782997945785,0.2265927822328902,nm,0.0
141.76297,-20.388807526090904,-30.544053820558137,93.28453078415417,0.10954895764098206,0.04862687977448497,-0.6790402985272729,0.017305677343643557,0.28120560805045636,0.26546982810946845,nm,0.0
141.772303,-18.824825087061388,-30.891357104766723,93.7995733734809,0.36217979371344927,0.518619280335562,-0.6715365120772876,0.06502429457824455,0.2797734562887536,0.26565034514696606,nm,0.0
141.791339,-14.681949384707037,-32.45068006201915,94.2615115576659,0.5596648148947507,0.8352458470092459,-0.5080366954144252,0.16989121927476508,0.3928752660962427,0.2541265027383028,nm,0.0
141.800836,-11.978275166463183,-33.47373723881944,94.06762163279613,0.7306089664000055,0.9478737756656999,-0.4095942013500176,0.18327549249166797,0.47541977815434977,0.2573455369491398,nm,0.0
141.810532,-8.714782678619017,-34.278448102494416,93.6796625001649,0.826959542763893,0.9288911033252308,-0.259541707807081,0.13592445054462854,0.5599800976960504,0.28770354698234024,nm,0.0
141.819852,-5.117488176106785,-34.68475953086175,93.27564994588573,1.0229287662563562,0.9917477968500643,-0.23598706026690255,0.05682741042929957,0.6057243181346961,0.3274595176670997,nm,0.0
141.838871,2.5621524298050686,-34.33766799877231,92.9425316980535,1.1645967592580126,1.2949580067169797,-0.03820122852235093,-0.08964494543391124,0.6331387586580369,0.4149141839761829,nm,0.0
141.858069,9.951062046527179,-33.16312012569409,93.27867112463115,1.318563713948346,2.3244877742254197,0.6435052290051881,-0.14017406538937668,0.6112470747993055,0.44993024587103836,nm,0.0
141.886421,18.982197888566507,-32.909285932690075,93.54730605903306,1.6020869233544097,2.833837701939259,0.6531397345748307,0.03905533235674523,0.48390365453122375,0.2520482121168902,nm,0.0
141.895924,21.70497761430244,-33.465780960720416,92.77022711842272,1.7116099926942894,2.3537696387736315,0.5918426565913594,0.0946903146442031,0.4723611226254837,0.13903614657549004,nm,0.0
141.92446,26.69274332031619,-33.56319722710885,88.65058199961138,1.591975487013358,1.476672880922364,0.06500525480344682,-0.03605425625376733,0.2431399424825685,-0.16145008376390277,nm,0.0
141.933976,27.525335981103254,-33.18028897895301,87.3246854023172,1.552406663794294,1.489239948788115,0.09784741430880625,-0.06310464945684696,0.15209825603133334,-0.17842778334973722,nm,0.0
141.943486,27.674995342894448,-32.863226460769994,86.59607603487413,1.461656562725169,1.5910023385630516,0.11315493469192926,-0.05333854397346466,0.03860269650393643,-0.13429754724216275,nm,0.0
141.962505,26.300369803947792,-32.808623673529425,86.91470047151009,0.9794977100203682,1.6111009543266672,-0.012217217443331716,0.010385929365913798,-0.1403238127705376,-0.025715380052224516,nm,0.0
141.972194,25.68907678801787,-32.90553127954746,87.45655238831515,0.7877483719413524,1.4618082007375997,0.00899291839205221,0.023225555735122354,-0.09352493663717307,0.03759116825940032,nm,0.0
141.99121,25.085442970017105,-33.04139931611184,88.11494361917951,0.5623185058829353,0.9640065741572751,-0.16271220262687536,0.0,0.0,0.0,nm,0.0
142.000749,24.975750578246842,-33.04035939338954,88.0258207003167,0.453858392176138,0.5740429543570531,-0.29026245866595324,0.0,0.0,0.0,nm,0.0
142.01975,24.677106188073466,-32.293218701555915,86.9710429678499,0.31630764972532766,-0.45286108300059774,-0.4599396417160978,-0.1039977731668569,-0.021212339301001557,-0.1575409750206952,nm,0.0
142.029092,24.17311858008675,-31.424437915163928,86.10344990030104,0.16514073043795088,-0.9409834958211567,-0.5326216465320686,-0.16946667515324929,-0.0654188483545818,-0.23157192099260618,nm,0.0
142.048095,20.597699995099976,-29.041584527465197,83.98474105169193,-0.03551833707307026,-1.8699481835302967,-0.19011056049685013,-0.28446998445846844,-0.3769074856687562,-0.4560630042589528,nm,0.0
142.057799,17.420853190759143,-27.62207990840525,83.11806184372068,-0.39548616206569437,-2.762655334685367,0.8311221701316069,-0.33451512911640136,-0.5163393229943198,-0.47971340829381276,nm,0.0
142.067305,12.620780429820853,-26.33373225424321,82.54526696462595,-1.0898542496748285,-3.665455900545717,2.1351153785177117,-0.35129400194482713,-0.810249093947971,-0.5544476618534275,nm,0.0
142.07681,5.870431591957368,-25.37632132032117,82.4015825426603,-1.8591417761419884,-3.827156338806506,2.528951771325905,-0.33703430388972405,-1.174093189619752,-0.6209933763692971,nm,0.0
142.086323,-1.7249736858690377,-24.481603502115277,82.93019290523807,-2.892512962168655,-3.5992710587686862,2.5318953168257425,-0.3407896554849595,-1.3389313737641888,-0.5368669156942422,nm,0.0
142.09583,-9.786861513724363,-23.323708888394968,84.00992751370663,-3.854327612471408,-3.09211334721825,2.0123599127441274,-0.3847653636311046,-1.4342820914866874,-0.4383277583768038,nm,0.0
142.114676,-23.96545068698712,-21.182649280533607,86.58687571805113,-3.700455270973252,-2.0172930448566913,0.05204080449770901,-0.2466452405168375,-1.145998422140024,-0.20392158487362036,nm,0.0
142.143196,-32.28196583436608,-24.5721955797773,88.15767316431312,-1.9124764273421966,-0.9079836319260407,-1.4668270200473934,0.42469715056596785,-0.17745269556042764,-0.08603520100053612,nm,0.0
142.152714,-31.545394448175454,-27.2502768331828,87.62219869634573,-1.4595377743813556,-0.9206291239525464,-1.3209188755781107,0.5535207978306655,0.11708392319685552,-0.038069237930170925,nm,0.0
142.171727,-26.739504726614697,-31.81120500439246,86.38100589092055,-0.6514540265118955,-1.066872057136616,-0.9527263325287811,0.41825911658324766,0.4676047132509886,0.18173575327549168,nm,0.0
142.181251,-23.82212771773822,-32.68847092148937,86.31033145964024,-0.3827232678827885,-1.098755086375088,-0.882686691504094,0.21977002510364982,0.48627700834358417,0.30126636166588816,nm,0.0
142.190762,-21.265988627616004,-32.82757115113487,86.95612671446183,0.0330861876202409,-0.821839037400969,-1.0063279642025684,0.06605196096691594,0.43294872797964085,0.40945839925504707,nm,0.0
142.20996399999999,-16.469975567748826,-32.22383187182564,89.3441539435491,-0.052712838975580004,-0.3018413586772041,-0.5532941993565285,-0.04772891776109841,0.38637773664785513,0.4827920830990697,nm,0.0
142.21946999999997,-14.462739686678464,-32.06581176941937,90.08970528494011,0.40121572037286957,0.281119778841158,-0.6421983554806134,-0.017405456068875867,0.3468919256019646,0.3649834130070445,nm,0.0
142.23848999999998,-9.318947926700305,-32.62275041503988,89.76186432300028,0.5257314635822954,0.9902331296900916,-0.022345351990033197,0.08886518936581081,0.45100915968890926,0.1909301538983082,nm,0.0
142.276336,-0.808980808230961,-34.16184874501797,89.15455217748362,1.2238266010244219,1.3315462928368893,-0.08690459310268682,0.040886659029813234,0.2712712406246015,0.28961859631130915,nm,0.0
142.286038,0.9715261289395443,-33.992646163235364,90.04392780795655,1.0647222738299116,1.1098502782395416,-0.01839978526132922,-0.020195359975360757,0.3037208722235915,0.3771894450591254,nm,0.0
142.29536,2.744218932335204,-33.61232550266093,90.92144870847916,1.1487410283002306,1.258380345368865,-0.11612963944941286,-0.06731300647398096,0.3028608072156671,0.37217074012765344,nm,0.0
142.314558,7.540799902473924,-32.13154460051597,91.97640472216797,1.268190847910138,1.8661852589196266,0.30404454488067706,-0.17289728660342052,0.4456317055957747,0.35854095290831933,nm,0.0
142.32409800000002,10.3105619709111,-31.304673509131366,92.21839652929756,1.395064531955768,2.3029008642879063,0.574454642965319,-0.17242200246496772,0.4748874357623953,0.3374472473123504,nm,0.0
142.333589,12.909932874584923,-30.76052266072199,92.5104196694252,1.4991770637146862,2.589850469657902,0.8099426177912514,-0.11735208197948854,0.45086011307549856,0.32371615498149264,nm,0.0
142.35260200000002,16.716718429120437,-30.965394612783616,93.46239861292304,1.5151872098514219,2.265383046363903,0.6525273654622981,0.06109724815626336,0.2945269853580475,0.26454311062235314,nm,0.0
142.36211,17.809074888737698,-31.62603833574826,93.78029451489019,1.366840643929677,1.6768203498380758,0.605477553604337,0.12921725947033633,0.2052715120679955,0.17363640638122835,nm,0.0
142.37144099999998,18.392449730504065,-32.21497326627851,93.59178701582788,1.27634163464853,1.4269710652193248,0.08417051484877389,0.12026126422314332,0.11694824111567952,0.02040579481439308,nm,0.0
142.38096800000002,19.25548312892049,-32.52328006654519,92.77268965334706,1.19123447663898,1.226729173665032,-0.029864466735297683,0.06250716844742088,0.15953630695691637,-0.07516727835553308,nm,0.0
142.39064800000003,20.20728286783388,-32.50066883793891,91.54786722094141,1.1043389336190053,1.0852935889885782,0.034399557922585734,-0.001538048890133149,0.17068403859496536,-0.14662839507798245,nm,0.0
142.419179,20.90165476023207,-31.850761797123475,89.73756050146629,0.9193148939476552,1.4368755646024292,0.10089427639578491,0.0,0.0,0.0,nm,0.0
142.42851299999998,20.4814659071961,-31.72169769206066,90.37878684586815,0.7743044506851348,1.5141173924091738,-0.07872224214425526,-0.01658110933335581,-0.061489185053926004,0.08003799434449216,nm,0.0
142.43802100000002,20.378033598175033,-31.62593810654269,91.20313175768969,0.6076929375540654,1.3843204118483183,-0.12780776522345436,-0.00987096222861765,-0.007710843687548413,0.15014612501766156,nm,0.0
142.447705,20.687060982862953,-31.47606753092805,91.77740753413403,0.4570627126410502,1.0132996766757705,-0.2031827057057272,-0.022460085333861696,0.06221596482878321,0.14326534899069546,nm,0.0
142.46674199999998,21.821502805872633,-31.13302684403848,90.88605675352689,0.27501573411114105,0.15959507519975497,-0.4196205974423994,-0.032820920841125645,0.11087090748946564,-0.11015787823835035,nm,0.0
142.476239,22.194065390077604,-30.664878199639094,89.40156499022778,0.24440000759693653,-0.3614637844891591,-0.400601881043047,-0.08479004891657958,0.07371137040557556,-0.2633588205708268,nm,0.0
142.495261,20.94460630837115,-28.77244513625994,85.61352186179472,0.048920287067236154,-1.8350375055381631,0.1908163074730052,-0.211745474561502,-0.174222431127948,-0.5042094289699014,nm,0.0
