timestamp,roll,pitch,yaw,acc_x,acc_y,acc_z,gyro_x,gyro_y,gyro_z,markers,motor_input
130.017523,-11.551594093418332,-33.338940522910576,78.42249694257036,0.8579354412322349,1.6010686822531728,-1.2487290581267199,-0.07320973945127199,0.07653117892500877,-0.0962398165069094,nm,0.0
130.027026,-10.927328098291584,-32.600074837805714,77.9479758162995,1.0920169498937855,2.1007858548309977,-0.9587973423754723,-0.10979506438989556,0.13696211235557448,-0.0257160359469587,nm,0.0
130.036552,-9.919733187114758,-31.724353281499187,77.79016387032297,1.2409924672034554,2.5312409147931,-0.6596825253107934,-0.12199883918854472,0.2079659355382307,0.07678276620289272,nm,0.0
130.055558,-7.948930848477456,-30.09470548206592,78.6046483849833,1.1533996221979772,2.200981205445983,-0.0014586490754110156,-0.10334113161594141,0.18815903931520064,0.20798728209592027,nm,0.0
130.065069,-7.283357172715051,-29.654961239219134,79.27752030081798,0.8372832224761304,1.5728631520679994,0.008918635225823148,-0.050888847180741506,0.13513139768166652,0.2013460779919841,nm,0.0
130.093783,-5.488186160935878,-29.61311643071232,78.11207063493845,0.2057416081121476,-0.5387743442175394,0.35850389224162316,0.046171922368482096,0.14261058160864515,-0.126908743349997,nm,0.0
130.112803,-5.508985706382724,-29.08231878506117,75.77885470360677,-0.07875843818140785,-1.369913767502058,1.0411890299444642,-0.05790247661420627,-0.00825628865509756,-0.21851285935098436,nm,0.0
130.12231,-6.494297850663361,-28.90822519433413,75.49755870313236,-0.5972960338366693,-1.708177658477024,1.7667728873699986,-0.06295557443576799,-0.1545365703351228,-0.15196621195531604,nm,0.0
130.131822,-8.593809989692502,-28.852525806135894,76.14042332531461,-1.137453423720587,-2.036823781953667,2.0481524654534717,-0.08734868765582228,-0.3502553087892294,-0.07396564823621647,nm,0.0
130.141332,-11.698654177529441,-28.924632663667257,77.55690131822928,-1.4816471397044204,-2.3736567565609583,1.9943795944974996,-0.09616347545283024,-0.5294395050814563,-0.01582524875728501,nm,0.0
130.150843,-14.782033754003756,-29.151213049907565,79.35958126272754,-2.0400630875240653,-2.7346699783256914,1.684228295441327,-0.050005694345321726,-0.5339649507452009,0.06277231622610996,nm,0.0
130.160175,-17.750833786739115,-29.66950801514944,80.99621327973064,-2.556860535609031,-2.917277507070725,1.0985145016345497,0.02735753626353033,-0.5239316463378796,0.03792482653561995,nm,0.0
130.169675,-20.675947950276598,-30.57599816078066,82.01620240801182,-1.8790601861809568,-2.4258222388621937,-0.12931961702631478,0.11802812413048218,-0.5239741454129284,-0.08689683141225896,nm,0.0
130.179202,-22.377387852452248,-31.681117580182462,82.26365956624889,-1.4385637111636556,-1.760902991584792,-0.8115737768468289,0.19263627612916104,-0.31547090801928607,-0.1232826862780013,nm,0.0
130.198296,-23.31311581191035,-33.263750368840185,80.64233506642512,-0.2822795764048554,-0.12375063153937259,-1.1968958617377035,0.12594791324383547,-0.049920284236677395,-0.23449812230556913,nm,0.0
130.217244,-22.341127807879275,-33.04833596661344,78.8113291989888,0.3612936646673679,1.1109988344177615,-0.9195624935233389,-0.030620171658478617,0.1036940864458593,-0.08394361827297556,nm,0.0
130.226735,-21.668103300523235,-32.51421050818682,78.58836983328136,0.7675582649662642,1.583040591289865,-0.935068154469969,-0.06916404343503894,0.13494291091507218,0.03157988594314995,nm,0.0
130.236261,-20.42307802236675,-31.965031251160394,78.74281525080339,0.9238263043669298,1.9912886462873074,-0.9067727290535489,-0.05283857969789265,0.2314682886974272,0.16688494482126792,nm,0.0
130.245768,-18.52318829015458,-31.5496310666206,78.97232103120146,1.3102590841448323,2.478097237921139,-0.9891683306899798,-0.005540020860388558,0.33685662908873587,0.2487538671595345,nm,0.0
130.255281,-15.656386896578095,-31.42198012192859,79.10639740049459,1.0999933178615864,2.701956086166536,-0.6334043881548592,0.08154046918426062,0.4892417189310463,0.32868594398845796,nm,0.0
130.264776,-12.46822586921573,-31.628013540639117,78.98961645964971,1.4002499139921825,2.797861993626243,-0.46320956598755203,0.1574095069331764,0.5305505346977515,0.31188146583819143,nm,0.0
130.274302,-9.275121690789943,-32.015718466782154,78.82656824861547,1.3837056081494261,2.564365440408411,-0.2499706963222163,0.19415329308768978,0.5226613157011719,0.3054193408208676,nm,0.0
130.283817,-6.515375092528763,-32.41327369164442,78.62701924421089,1.2532408581369316,2.032486570266613,-0.17625352887017567,0.18284860476730874,0.4477066892130552,0.25511570136192935,nm,0.0
130.293317,-4.180583432508556,-32.713979596053335,78.19540903043602,1.2637354377056302,1.5204971263592926,-0.4063059609636975,0.15146201286716413,0.37881961006709747,0.16531814295978445,nm,0.0
130.302824,-1.8935307831934953,-32.80696063022679,77.41174913839168,1.1966591298788416,0.889866161655296,-0.3989379428533808,0.11283938847314044,0.3775141726534713,0.09062025319611375,nm,0.0
130.331541,0.9268903808154039,-31.419858795599325,75.16177448913976,0.8186805557986135,-0.7264529496902996,0.3655140300699494,-0.15319122993648893,-0.0015219951970831538,-0.11559426908160723,nm,0.0
130.341052,-0.5469512397318504,-30.40297534049176,75.26324099833735,0.30320480954573487,-1.2708426742335899,0.7971472048488201,-0.24812520525881504,-0.1881936200552201,-0.13220594011490747,nm,0.0
130.350556,-3.258952529293562,-29.46833742179208,75.7542120037252,-0.4032661971890817,-1.8148897647273778,1.3904144163784289,-0.28545794903488947,-0.40437266294322977,-0.17326468386139446,nm,0.0
130.360063,-7.0673223985095435,-28.806357032921056,76.40747894478132,-1.087414293911771,-2.389001919615397,1.8041189473632246,-0.27526823201195527,-0.6105044565154554,-0.24048091689458473,nm,0.0
130.379093,-16.365373762755496,-28.827348920046912,77.60897927713017,-2.3814977313892545,-3.050459846738174,1.4821551347267654,-0.12589846072359262,-0.8410381049280001,-0.35640245861335124,nm,0.0
130.388419,-20.573692114093873,-29.386736626188735,78.08106169676635,-2.753877641271723,-2.8635746477610806,0.8458454398381986,-0.03196189858823627,-0.7402955263870304,-0.31270061518226056,nm,0.0
130.407448,-26.63890755075442,-30.768111652738927,78.49243451026277,-1.692766824776502,-1.3565561176730245,-0.9747253010478218,0.060388111394799215,-0.4615629049479947,-0.23850662112841287,nm,0.0
130.416952,-27.79242037621936,-31.28432015517053,78.27017230594758,-1.263794623043091,-0.5726856928170934,-1.1881915088134747,0.07474394442205726,-0.21251794543956237,-0.15926538110144411,nm,0.0
130.426458,-27.864296961277432,-31.495184336877642,77.60867032507366,-0.7669634095902638,0.11441438778028167,-1.2160975144666226,0.05209555573224761,-0.018836322540679407,-0.1356220043695814,nm,0.0
130.43597,-27.007796558749913,-31.4162281087559,76.62416406772103,-0.13627097705942084,0.6226328351958517,-1.174448544374507,0.030643259244422415,0.14801421529812817,-0.10346224575900963,nm,0.0
130.445493,-25.16515546748921,-31.133779999704654,75.62284365595465,0.12184589736548627,0.934468185898382,-0.8829323811965522,0.034274055845609885,0.32156888722715105,-0.0051377069509409914,nm,0.0
130.464504,-19.849473145325963,-30.098326105183865,74.37254872841237,0.7320664388544028,1.4301931164103172,-0.40601669885054864,0.02977270898534003,0.5142746866717638,0.20265965979429199,nm,0.0
130.474009,-16.36701622657745,-29.3331323204958,74.27996562046968,1.118377753730081,1.7823302651874706,-0.32600920853081833,0.029963844443798918,0.6271050852275195,0.3290633497117399,nm,0.0
130.493026,-8.831305294882494,-28.135751624834835,75.47498851551346,1.5718992437072576,2.4619538154023934,0.3125296831527217,0.08328203582596705,0.6183323576152937,0.4997790067190209,nm,0.0
130.512056,-3.2676620888233945,-27.870698442567477,78.17714767407193,1.6515254989038617,2.3980732017009347,0.41133272929271497,0.10639224514228157,0.4406266736474866,0.5123671067456161,nm,0.0
130.52156,-1.2942635831138591,-28.206249528014702,79.10714907536851,1.5362672444823133,1.9616810165988854,0.3080909434083121,0.14765273052534458,0.33418491208216605,0.3709069418555075,nm,0.0
130.531252,0.16254981830366044,-28.77081109050629,79.07151556681167,1.3105350643436169,1.33747084327084,0.39033014582608166,0.17253342478342698,0.23596605726711614,0.13079062897151839,nm,0.0
130.540776,1.2526507371647593,-29.22586592482819,77.76593330550621,1.2587151200310844,0.8021300809905303,0.0973945951853751,0.14064706617824815,0.1741594104055199,-0.15693184066408372,nm,0.0
130.550279,2.3630257949382063,-29.59365836633981,75.40213499387157,1.2120704065114687,0.389006408985826,-0.0303702892726835,0.12977506817726991,0.17632459194778474,-0.3655897116753631,nm,0.0
130.559783,3.1461015970174153,-30.07958026792058,72.75744094968447,1.0559134823029137,-0.05010318884027624,0.2713060885861258,0.1442550740772748,0.10860708824443814,-0.45307395482463697,nm,0.0
130.56930499999999,2.688271239498898,-30.63072705694099,70.85133941099404,0.8740435001180176,-0.5191816868837346,0.6350677231998044,0.09368725935504973,-0.10562354643154583,-0.42938524992100974,nm,0.0
130.578818,0.6131880811052586,-31.00364424249221,70.48116706939605,0.38612765410841515,-1.083643148020421,0.9172599311849188,-0.034011739866339805,-0.3577825186811623,-0.28798623200733037,nm,0.0
130.616662,-19.904909563690907,-30.997845081428494,79.97498110370331,-2.9736775014167725,-3.1819404717703663,0.5098985811979236,-0.21420836940443927,-0.8411164125039052,-0.01451743905394342,nm,0.0
130.626171,-24.31246519485817,-30.861244984227643,81.35415743210764,-3.09625366658581,-2.9564251857920505,-0.41590787576768873,-0.13642910606752504,-0.7392547636089276,-0.17400596839325602,nm,0.0
130.635688,-27.747670069583453,-31.287748344420137,81.46913633889045,-2.2412729103774836,-2.228241927884725,-1.2617714523240793,0.009664165597174434,-0.5923805816885594,-0.32775596612114455,nm,0.0
130.654704,-29.76638982346314,-32.839874793820904,78.90406831040542,-1.1173982418390964,-0.4555030159383733,-1.429098823091952,0.14755205432054116,-0.09302124987411887,-0.36862694991121997,nm,0.0
130.664291,-29.43554768065028,-33.14992826581194,77.11162303291589,-0.24891099695797625,0.29683624711660284,-1.2658050862658028,0.08553922545586198,0.04302121399032059,-0.3180599894248835,nm,0.0
130.673744,-28.35614990937839,-32.78533550792239,75.77874385191119,0.1661373799583797,0.8860531135842171,-0.9600310022409133,-0.015111200772256476,0.19481702332388343,-0.1447282272218705,nm,0.0
130.683236,-26.933550866148583,-31.709872919820807,75.17528082173962,0.5423338688527743,1.3078459650570309,-0.7828487169844672,-0.13457571472915444,0.28875501545500315,0.03534783476904516,nm,0.0
130.692754,-25.032437841387946,-30.195281619092707,75.27733720831715,0.8032656008363406,1.5580477238888895,-0.7206889044724935,-0.19640171039830603,0.3948872418276185,0.21990664728713716,nm,0.0
130.711779,-18.6331596225153,-27.746768600597974,76.4526906710799,0.9215978750720356,2.04535483869865,-0.33996239897924607,-0.024414013193786985,0.682239312311643,0.477098102128631,nm,0.0
130.730796,-10.432353990248725,-27.184201635472423,76.72624220119008,1.51318355296765,2.4963755678497344,0.4945369565942925,0.15319288013430826,0.7023205124208218,0.3573213552801989,nm,0.0
130.749994,-3.698636245178777,-27.664384298555674,76.61627210843665,1.682238339184461,2.2278201327106335,0.8006145088960579,0.20562741755419148,0.48352723951265325,0.26214518245676655,nm,0.0
130.759505,-1.7318203525987874,-28.18256522785544,76.6332069464966,1.607182000964939,1.7049171190488164,0.6389537806210736,0.19477372750943825,0.3193699322061356,0.1868656830632013,nm,0.0
130.769021,-0.4154349945766171,-28.69265604955191,76.37128185513352,1.3272633628349348,1.010122178351335,0.4042598879441798,0.1667025780975503,0.20646038826005453,0.07195492802444835,nm,0.0
130.778525,0.4603073545026246,-29.13419669935302,75.53302699176011,1.3277683009016545,0.44838294967605585,-0.020700958582963103,0.13633391205215692,0.13226815669589284,-0.08427726560513353,nm,0.0
130.788032,1.259101837132354,-29.561110542584036,74.28618942756644,1.075696392707849,-0.11877509466945183,0.30802106512378197,0.13219670081834328,0.11698646673165355,-0.1725577216803876,nm,0.0
130.797544,1.0746228688108728,-29.824746953498664,73.12352548466217,0.7982169696734803,-0.5381980268080065,0.6096379596052153,0.05512811964413271,-0.04128397389463329,-0.2523364663719989,nm,0.0
130.80705,-0.4901933478647738,-29.866342900387025,72.58750304841585,0.6306045682835804,-0.7587473295877206,0.6184472105240096,-0.05858120963161599,-0.25815089626045906,-0.264230853349431,nm,0.0
130.81656,-3.1274050367358965,-29.902599201018695,73.04000710751865,-0.05044636214611423,-1.1131703243950333,1.0394116369482256,-0.11468389489411268,-0.43574809924624097,-0.17302485023629346,nm,0.0
130.826079,-7.087055147788979,-30.042352935392596,74.47069749274438,-0.7323893636702291,-1.4892312520456,1.2604153115937395,-0.15155663249117832,-0.6635415507352538,-0.10949822529870806,nm,0.0
130.863935,-25.659624810544898,-31.461991808628973,82.0346572694407,-2.9747065302248195,-3.137976554708988,-0.6391961990609757,0.04744137010611552,-0.6987986374325957,-0.1698365730452586,nm,0.0
130.873454,-28.67052918112607,-32.470758534480694,82.33169459450855,-2.1955113069586085,-2.6317545663919,-1.5258665984680995,0.1436529840642237,-0.531268568159761,-0.2551851470440634,nm,0.0
130.88296,-29.871368847096583,-33.38068872259842,81.67672976315592,-1.8508267657744661,-1.8702236017956733,-1.7563200057684194,0.1654554601664951,-0.22266198509827306,-0.25698705243713893,nm,0.0
130.892466,-29.960354107126665,-33.80326826838267,80.14332944187736,-1.1765938414617352,-0.9701006360472336,-1.6352607640238945,0.09434491464990781,-0.02587218591588212,-0.3119777969317839,nm,0.0
130.902059,-29.10266902035584,-33.55775618051541,78.2082898103395,-0.34672404059840484,-0.06612183120118999,-1.320587101059486,-0.008219482666925949,0.15143654900133133,-0.28746736877475826,nm,0.0
130.911486,-27.316517044070338,-32.64155565366451,76.42315050674469,0.08732866639224783,0.7199869654360608,-0.86173991233321,-0.09979956842091586,0.3342859909171981,-0.15775782286214898,nm,0.0
130.921001,-25.058807432276083,-31.23183168068812,75.10765769755645,0.5429228514197446,1.3442333774563568,-0.5288522479611896,-0.16569800120455305,0.44302382375680693,-0.0204291872961021,nm,0.0
130.930509,-22.290852778089935,-29.705132676844748,74.39803540869708,1.0709714795036347,1.8589296522939023,-0.3954460337982894,-0.15555758441250883,0.5432600440270406,0.14210196889471857,nm,0.0
130.940008,-18.660632483392384,-28.49354811361297,74.34887575992235,1.235311284431914,2.267309367245825,-0.15534238121785457,-0.04866426248669146,0.6794401162338718,0.3459677163794726,nm,0.0
130.959033,-11.058626666846582,-27.698258659200846,75.21206171847076,1.5229412181882416,2.2994010181507165,0.39826087971003205,0.14573636567994075,0.6327324838619052,0.434580266999968,nm,0.0
130.978238,-4.223270877428794,-28.295839048120392,75.61951753333996,1.6557219747718666,1.9229350386543058,0.5051013028733676,0.23692936440242368,0.5331201719142764,0.30387651072912386,nm,0.0
130.997262,0.9238715255990286,-28.787446896190374,74.34578993743423,1.716432207211282,1.6191531885318453,0.5844623859251848,0.14514945557319767,0.3711943037078603,0.05039979146505345,nm,0.0
