timestamp,roll,pitch,yaw,acc_x,acc_y,acc_z,gyro_x,gyro_y,gyro_z,markers,motor_input
125.01504399999999,-17.964654920417956,-31.57769967246159,71.56664613497256,1.622559693342454,2.1948918816277634,0.02372084622497547,-0.02235131826567714,0.22540102467461198,-0.07102471868891791,nm,0.0
125.03406000000001,-16.42342667603141,-30.98005995982817,71.47651410734673,2.3844024651893783,3.507933900473107,0.8499818991543269,-0.01874293296638096,0.06601896243646001,0.1417087913110895,nm,0.0
125.043563,-17.25674987242021,-30.86335879421674,73.43606910697606,2.060685142905105,3.339031283823599,0.5661440503835427,-0.05156617254435523,-0.1271949630994339,0.3088542650470256,nm,0.0
125.053079,-18.84218672749945,-31.13844407676274,76.14185345589041,1.4686641418166573,2.5525179252240164,0.013756534715575931,-0.004507141664452069,-0.2743313292033642,0.38080935650900094,nm,0.0
125.062601,-20.24156250760893,-31.561287680051556,78.32243699554058,0.9180406696580551,1.6473359815218644,-0.32118353309120384,0.043292177526166015,-0.24905022474364755,0.2936917775472433,nm,0.0
125.081794,-20.155095523011035,-32.28826361445726,78.2595146315765,0.06274254752717304,0.13937915958255676,-0.6077888406199629,0.1199751300229494,0.05720737519971933,-0.10133535876743889,nm,0.0
125.110332,-19.102485893966936,-32.24355484801146,73.48118721380796,-0.777727579145774,-0.9103890883191885,0.5781315907519635,-0.08972466118742754,-0.0022694718709126453,-0.234297169713355,nm,0.0
125.129345,-21.690497167803066,-30.02366950434431,75.73937229350247,-1.1921967919422094,-1.512100765620095,0.8652912147687477,-0.29027614684585806,-0.13340970668942279,0.25320971447150875,nm,0.0
125.148188,-22.574361856284323,-27.947425854419066,80.98645307248307,-2.7512345260677806,-3.558283483937228,1.0047237263680753,-0.14726035735846385,-0.040101048854577104,0.4717843358676843,nm,0.0
125.157691,-22.207807160952918,-28.280871550156892,82.50873415886629,-2.916394045482024,-4.302039880965324,0.7670625902691205,0.0887150088693047,0.058471178485138615,0.3423234107371914,nm,0.0
125.167216,-21.379506901323712,-29.615160166146133,82.33442849513823,-2.451222354449895,-3.9299616867303455,0.14743143222691202,0.29732870000486034,0.11257715338125632,0.048306967816148204,nm,0.0
125.17670999999999,-20.341209143526186,-31.31112726790529,80.39058879678174,-1.333686550334646,-2.741710295068388,-0.31472426017004496,0.37612001482099927,0.12967369478264168,-0.28085198054893773,nm,0.0
125.19592499999999,-17.916044849075075,-33.88673666498975,75.0072290686042,-0.28207681928039274,-0.37943235816013837,0.01350040414993441,0.26773949556124554,0.09700294350765991,-0.4022610692663414,nm,0.0
125.20543699999999,-18.67755124424319,-34.67171681910111,73.76289830176113,0.7465104794936487,0.6517517017371219,-0.2386985730755812,0.13122526225648834,-0.16171888414011545,-0.3321075501498178,nm,0.0
125.21474599999999,-20.067425848514382,-34.877249675652465,74.07214339062227,0.9534744734901943,1.1436922861744916,-0.18490191878420523,-0.010064764722527465,-0.2291960609511281,-0.0936376312915415,nm,0.0
125.233765,-23.255963637928527,-33.666246109521865,76.83887062744331,0.9070724597460319,1.3571183313319684,-0.5877235436998082,-0.19735605826863567,-0.21592057886452296,0.11755159467683313,nm,0.0
125.243278,-23.945365048350457,-33.121511001296966,77.77117975636975,0.9012968408444008,1.3413415851805228,-0.7317183564015336,-0.11824016055285597,-0.0860752410421931,0.11441451113338183,nm,0.0
125.252791,-23.71436410507413,-33.009306928833716,77.7247205533382,1.0281944744106544,1.5073832159520244,-0.6415860931774627,0.0,0.0,0.0,nm,0.0
125.26231000000001,-22.6736831180809,-33.23169353825676,76.74814030315144,1.4867238933190745,1.933011121589292,-0.43312199546918795,0.09555065180015372,0.1626493530321769,-0.07815515435263345,nm,0.0
125.27181300000001,-21.156276728160776,-33.63721754726059,75.50619176020753,1.778903108319161,2.462421822353332,-0.05744214644817688,0.1532716044209293,0.2288300144308237,-0.0779669445743841,nm,0.0
125.28132199999999,-20.100141900588007,-34.07420039314926,74.86574578131857,1.9656027146928063,2.847323549880166,0.3570048807661577,0.14319212652003357,0.14950330372721765,-0.007292370205534755,nm,0.0
125.29083499999999,-20.04858300678964,-34.322216614092376,75.36479262833903,1.8073005607528616,2.8975335922864347,0.5019722160783782,0.06388007487428533,-0.0022898399946419423,0.10885484379261223,nm,0.0
125.309856,-21.623113696013856,-34.078402165570715,78.38584690987969,0.998450800150958,1.9304502210789793,-0.275184894385155,-0.05485317950407508,-0.12235936165504693,0.2274930684557186,nm,0.0
125.31937099999999,-21.495801123417042,-33.74996775377276,79.36811913069768,0.6504080196799183,1.2133359795956362,-0.5651633096050395,-0.046968728050333114,0.03647577393133303,0.21423444448209808,nm,0.0
125.34810100000001,-18.24018306741084,-32.83968397612821,78.18371152895406,-0.14415372419873793,-0.2148622060475867,0.03824524461005763,-0.020919935949332977,0.2553209672624352,-0.017931429420459003,nm,0.0
125.3671,-16.6851199472377,-31.43479007159925,76.98932817630073,-0.582418901100092,-0.9562433273176854,0.619816012911588,-0.11550146934196877,0.09883359723861747,-0.030954254396350845,nm,0.0
125.37661700000001,-16.991906127547768,-30.778958709456063,77.24845548306361,-1.0520891134889965,-1.581078541016785,0.7614518095928452,-0.12608538279402903,-0.018812835319711067,0.022335060893353673,nm,0.0
125.38611700000001,-18.116916014250798,-30.395925583907154,78.01462776219334,-1.7426801403009058,-2.410272436709769,0.9601385974349322,-0.10283050196715775,-0.1697423939412366,0.04113469723551088,nm,0.0
125.395456,-20.076763943210523,-30.35015299629873,78.90114149063389,-2.1310179820973594,-3.3693239400213892,0.9634313214148973,-0.06316192784109288,-0.32665110518981005,-0.018210117671259227,nm,0.0
125.40496999999999,-21.880120936482168,-30.54681073637481,79.47689010219739,-2.120766534032717,-3.8133346102959633,0.4651349944306944,-0.006213229448500064,-0.30999635333159603,-0.06462647900171549,nm,0.0
125.423994,-23.757864197224468,-31.368437931383642,78.42719858870744,-1.755452428945979,-2.8502887369085896,-0.30748450114087783,0.08100353088244779,-0.16116943929885327,-0.2754661739129484,nm,0.0
125.43349699999999,-24.203838931949885,-32.105543866943165,76.98324757454893,-0.9791177506596931,-1.664080092403394,-0.4808281274714264,0.1415661960765108,-0.1034395559282922,-0.33239279808942673,nm,0.0
125.44321099999999,-24.417344713363164,-33.01372882756412,75.49355513122696,-0.5023555154078033,-0.5598945514347159,-0.3327508586981604,0.18162283163132334,-0.07649569112883048,-0.31746019294226097,nm,0.0
125.462032,-25.344290459705224,-34.369217046708826,73.47028041286882,0.799327789761695,0.7925088499619289,-0.708167172742177,0.09622000615704183,-0.10057442950093928,-0.20326261047162753,nm,0.0
125.47154,-25.574975821633142,-34.77130909315205,73.21914324494075,0.7329140509258235,0.9159238772905722,-0.8502068171499706,0.07977599441593904,-0.05852181387122029,-0.07231669427495943,nm,0.0
125.49055899999999,-26.318338609392526,-35.244881552441235,73.3021791787197,0.6315090842134911,1.0199902208248612,-0.5821334276104345,0.009634983926068036,-0.06408389030513578,-0.04287491694927901,nm,0.0
125.50007199999999,-26.366320365252573,-34.81431271695621,72.94892444593721,0.8287942476539155,1.2687044320647176,-0.6872963543507312,-0.07130171131223015,0.018339129413883038,-0.07192390298484214,nm,0.0
125.528592,-25.004905407505518,-32.84143404412721,72.16429683694426,1.7181209548034229,2.960704438390297,0.17245817574523076,-0.08414923229472736,0.1613579032821799,0.09529410291928772,nm,0.0
125.547618,-23.874851254450405,-31.34282620159792,73.97394487672973,1.588985353215758,2.9648192484581783,0.23031805393858548,-0.09039285190907838,0.11146577532001145,0.2961445399504097,nm,0.0
125.557129,-23.68068016962326,-31.076805731127653,75.62545804148178,1.1996900725096982,2.224795995564531,0.09824969571731507,-0.029048698669294118,0.04811175439187728,0.3543176362932351,nm,0.0
125.566823,-23.471912561694342,-30.784997450238176,77.03158313089965,0.604365224927344,1.3088547617254904,-0.06017601736244207,-0.034713976611052834,0.05107975323389954,0.30645349511298847,nm,0.0
125.576169,-22.997993912210983,-30.49653161696835,77.72059622747285,0.6283787705448483,0.5281177097362398,-0.5396683166554974,-0.02495651766274908,0.09494543389552054,0.189633298186568,nm,0.0
125.58584300000001,-21.889934396944668,-30.32489423682374,77.68731402547748,0.09184259072070348,-0.15981689883253603,-0.22157288069235145,0.020758262815184066,0.19704421275070025,0.1087371648363003,nm,0.0
125.595351,-20.82005329077642,-30.012010426797385,77.02811651756134,-0.12782830805812928,-0.5263438198838453,0.12481256184122505,-0.006962378084693087,0.19716760563163785,-0.02147097005863171,nm,0.0
125.60486,-20.010984287716905,-29.15402456348429,76.05798209010581,-0.11806209539261572,-0.6937389260358159,0.37655675784072806,-0.12060869420317641,0.17962635604246519,-0.11165327732612962,nm,0.0
125.614364,-19.436160446150243,-27.991991576545477,75.41420305641803,-0.40732564126624526,-0.7123278272701297,0.684223861022983,-0.18686462465792988,0.1578829824412512,-0.07147366687260089,nm,0.0
125.652422,-21.546837513012825,-25.939811856637238,79.39928893467922,-1.8287495185579723,-2.738818551229093,1.0327465929612742,0.019382636805889534,-0.1447405498031427,0.2254487847607747,nm,0.0
125.661741,-21.489425101135676,-27.092300476107862,80.5256032440447,-2.7563475525610555,-3.823211386472732,1.0597443194834018,0.24253533191401624,-0.02645261728537839,0.23332532649579077,nm,0.0
125.671254,-21.575288032510425,-28.92398541520709,80.66744411611857,-2.55958428869081,-3.9588479077530376,0.49665071506674313,0.37283778192910616,-0.07134056102788065,0.023213763387238306,nm,0.0
125.690271,-20.59304687167673,-32.1559033617528,77.58756821682118,-1.1614166307730787,-2.1217096040922576,-0.48494922259956397,0.327000854528479,0.0709689859400682,-0.307168599568563,nm,0.0
125.69979799999999,-20.363575727226554,-33.27955572961618,75.58268563753867,-0.18818672553752527,-0.8138086019634121,-0.6137150739949475,0.24150634992338385,-0.012355014656609495,-0.3734840366364451,nm,0.0
125.709461,-20.5896955929037,-33.96051306532119,74.23801160319883,0.3553383651922311,0.2114838785152493,-0.4455140687451907,0.13554200716787748,-0.07003962122351398,-0.29110879631295666,nm,0.0
125.71879899999999,-21.197893340843226,-34.045028706497455,73.77311781525425,0.6051135296837447,0.894720961844928,-0.44687920361615574,0.0021469674156399587,-0.10002684192489028,-0.1578806192781654,nm,0.0
125.72832,-22.160782026057714,-33.7071556115949,73.98360418104257,0.8004037383404069,1.2145179190473894,-0.6184727023914942,-0.09577244399148946,-0.13334328723535727,-0.06187784017997592,nm,0.0
125.737829,-23.04323742540478,-33.27275529315148,74.44834447363405,0.7793231995104117,1.2338306745919838,-0.681659059259266,-0.11014971908020982,-0.11645851627346723,-0.0008789646445862653,nm,0.0
125.74732800000001,-23.598265428391986,-32.939684059873265,74.66068108519643,0.6235980836755829,1.162891678290555,-0.6010893035384749,-0.07546208682977221,-0.07027613150280754,-0.014540556953132973,nm,0.0
125.75684100000001,-23.766088209756912,-32.668855514002644,74.2190137317775,0.8849676901615791,1.236463778401315,-0.7128216634889548,-0.046201213305543616,-0.011082096846827934,-0.10298193570148563,nm,0.0
125.76635200000001,-23.299668058556133,-32.421367785891654,73.14194111158714,1.1680847422909573,1.4523054650534668,-0.6939994833771198,-0.01177804874004062,0.09087131809343409,-0.16186318013310924,nm,0.0
125.785379,-21.759062621267734,-32.026170617423816,71.13073574148027,1.7490398793214856,2.346996359471908,0.18505763198402583,0.011615470558817367,0.12484670649913104,-0.07176800847185184,nm,0.0
125.794884,-22.034878871350166,-31.5006968796804,71.42857218995377,1.9183692587379155,2.726067772332221,0.48114321063088944,-0.1009483275276118,-0.009516673597133346,0.03378159164136057,nm,0.0
125.80439899999999,-23.324855101320317,-30.502666674337597,72.84404002443932,1.623562859063304,2.637528601288646,0.24717866279535874,-0.24439557997211184,-0.1479837121899491,0.15371987586555783,nm,0.0
125.813905,-25.268795142843473,-29.387541945629383,74.87729114489073,1.2108718581126727,2.1424861661538777,-0.24828449389518706,-0.29460702817810974,-0.26013760065915226,0.21639271579743805,nm,0.0
125.833123,-27.209897230113025,-27.118865073818355,77.67064410835592,0.12633593743505572,0.8294752076692206,-0.2830760267608544,-0.22829328228986726,-0.02410831923397511,0.16835371782515662,nm,0.0
125.842614,-27.6859065996166,-26.223040290835694,77.95006231007982,0.19454772930708994,0.44802865730349917,-0.37794144539196667,-0.17987463824296,-0.04289963496087249,0.016985493554878623,nm,0.0
125.871159,-26.656398727498186,-24.127047428525607,76.77270181659365,-0.5700754859637588,-0.18831530332458787,0.5999546080774759,-0.11092104538554144,0.07400647111071504,-0.042907304612178676,nm,0.0
125.88065700000001,-26.61861258189677,-23.545006298408754,77.19136597142527,-0.7348532823961703,-0.14788434888932728,0.995304977532517,-0.09843256054591235,0.03555644711507177,0.09024518309712758,nm,0.0
125.890177,-26.511138398600245,-22.86489371600364,78.35740402191463,-1.0519865477510317,-0.2863411611596253,1.1684927207471474,-0.11538197523182443,0.051060680301723935,0.24522052872372724,nm,0.0
125.89968300000001,-25.95771435702425,-22.152340252355188,79.92911358817041,-1.200042669618652,-0.8607128589441142,0.8416988744045378,-0.10737532772316755,0.13077227154462626,0.36020271863481274,nm,0.0
125.90919,-24.56952200888582,-22.121835537779116,81.57428003392079,-1.9132981734095422,-1.9445987904488236,0.7970411913529762,0.04876461085303397,0.2589819201676312,0.4369358588095655,nm,0.0
125.91854799999999,-22.844654366793986,-23.294591560932414,82.74760288928799,-2.3076663964611357,-3.1667794931044755,0.9310054871126654,0.2894406854194677,0.2878400337998376,0.3708074493612633,nm,0.0
125.928064,-20.69606228135351,-25.34116065135723,82.72838492074469,-2.398123578137726,-4.049853118935738,0.9206391108678315,0.46938943614795153,0.3414472495914464,0.1756865568318064,nm,0.0
125.937559,-18.081342906358756,-27.604905256752325,81.06414903227319,-1.7451789811837604,-3.870934766658584,0.006352055003790989,0.5282107955504508,0.4042001407000968,-0.09762954654187903,nm,0.0
125.94707299999999,-14.93446143182396,-29.730974670524848,78.10697710651797,-1.2182114020274033,-3.006229271617571,-0.23823241866065287,0.5321770338600509,0.4704991454623007,-0.2878790900413009,nm,0.0
125.956594,-12.321320534212976,-31.36948821243807,74.69809705662674,-0.6718316512179183,-1.8608439991719123,-0.013833271889737053,0.4385868314884944,0.36395637262278324,-0.41501713889045627,nm,0.0
125.96627799999999,-11.118652408411963,-32.43841852911159,71.90562361520703,0.5148254481664258,-0.5778963190637014,-0.40016181495208103,0.2776687166761036,0.1368415188019052,-0.4305140243521609,nm,0.0
125.975799,-10.858882665894965,-33.20550289603553,70.59428912342231,0.6934664135322496,0.19892647604706049,-0.17789070754521355,0.17346278781296665,-0.005759028792257764,-0.2330233566383642,nm,0.0
125.994633,-13.956341664217328,-33.66724066609388,71.82133071347195,0.8573479497474781,0.8815266456488818,-0.48523133711546984,-0.093047636705133,-0.30733391778416896,-0.006398790817299849,nm,0.0
