timestamp,roll,pitch,yaw,acc_x,acc_y,acc_z,gyro_x,gyro_y,gyro_z,markers,motor_input
130.512056,-3.2676620888233945,-27.870698442567477,78.17714767407193,1.6515254989038617,2.3980732017009347,0.41133272929271497,0.10639224514228157,0.4406266736474866,0.5123671067456161,nm,0.0
130.52156,-1.2942635831138591,-28.206249528014702,79.10714907536851,1.5362672444823133,1.9616810165988854,0.3080909434083121,0.14765273052534458,0.33418491208216605,0.3709069418555075,nm,0.0
130.531252,0.16254981830366044,-28.77081109050629,79.07151556681167,1.3105350643436169,1.33747084327084,0.39033014582608166,0.17253342478342698,0.23596605726711614,0.13079062897151839,nm,0.0
130.540776,1.2526507371647593,-29.22586592482819,77.76593330550621,1.2587151200310844,0.8021300809905303,0.0973945951853751,0.14064706617824815,0.1741594104055199,-0.15693184066408372,nm,0.0
130.550279,2.3630257949382063,-29.59365836633981,75.40213499387157,1.2120704065114687,0.389006408985826,-0.0303702892726835,0.12977506817726991,0.17632459194778474,-0.3655897116753631,nm,0.0
130.559783,3.1461015970174153,-30.07958026792058,72.75744094968447,1.0559134823029137,-0.05010318884027624,0.2713060885861258,0.1442550740772748,0.10860708824443814,-0.45307395482463697,nm,0.0
130.56930499999999,2.688271239498898,-30.63072705694099,70.85133941099404,0.8740435001180176,-0.5191816868837346,0.6350677231998044,0.09368725935504973,-0.10562354643154583,-0.42938524992100974,nm,0.0
130.578818,0.6131880811052586,-31.00364424249221,70.48116706939605,0.38612765410841515,-1.083643148020421,0.9172599311849188,-0.034011739866339805,-0.3577825186811623,-0.28798623200733037,nm,0.0
130.616662,-19.904909563690907,-30.997845081428494,79.97498110370331,-2.9736775014167725,-3.1819404717703663,0.5098985811979236,-0.21420836940443927,-0.8411164125039052,-0.01451743905394342,nm,0.0
130.626171,-24.31246519485817,-30.861244984227643,81.35415743210764,-3.09625366658581,-2.9564251857920505,-0.41590787576768873,-0.13642910606752504,-0.7392547636089276,-0.17400596839325602,nm,0.0
130.635688,-27.747670069583453,-31.287748344420137,81.46913633889045,-2.2412729103774836,-2.228241927884725,-1.2617714523240793,0.009664165597174434,-0.5923805816885594,-0.32775596612114455,nm,0.0
130.654704,-29.76638982346314,-32.839874793820904,78.90406831040542,-1.1173982418390964,-0.4555030159383733,-1.429098823091952,0.14755205432054116,-0.09302124987411887,-0.36862694991121997,nm,0.0
130.664291,-29.43554768065028,-33.14992826581194,77.11162303291589,-0.24891099695797625,0.29683624711660284,-1.2658050862658028,0.08553922545586198,0.04302121399032059,-0.3180599894248835,nm,0.0
130.673744,-28.35614990937839,-32.78533550792239,75.77874385191119,0.1661373799583797,0.8860531135842171,-0.9600310022409133,-0.015111200772256476,0.19481702332388343,-0.1447282272218705,nm,0.0
130.683236,-26.933550866148583,-31.709872919820807,75.17528082173962,0.5423338688527743,1.3078459650570309,-0.7828487169844672,-0.13457571472915444,0.28875501545500315,0.03534783476904516,nm,0.0
130.692754,-25.032437841387946,-30.195281619092707,75.27733720831715,0.8032656008363406,1.5580477238888895,-0.7206889044724935,-0.19640171039830603,0.3948872418276185,0.21990664728713716,nm,0.0
130.711779,-18.6331596225153,-27.746768600597974,76.4526906710799,0.9215978750720356,2.04535483869865,-0.33996239897924607,-0.024414013193786985,0.682239312311643,0.477098102128631,nm,0.0
130.730796,-10.432353990248725,-27.184201635472423,76.72624220119008,1.51318355296765,2.4963755678497344,0.4945369565942925,0.15319288013430826,0.7023205124208218,0.3573213552801989,nm,0.0
130.749994,-3.698636245178777,-27.664384298555674,76.61627210843665,1.682238339184461,2.2278201327106335,0.8006145088960579,0.20562741755419148,0.48352723951265325,0.26214518245676655,nm,0.0
130.759505,-1.7318203525987874,-28.18256522785544,76.6332069464966,1.607182000964939,1.7049171190488164,0.6389537806210736,0.19477372750943825,0.3193699322061356,0.1868656830632013,nm,0.0
130.769021,-0.4154349945766171,-28.69265604955191,76.37128185513352,1.3272633628349348,1.010122178351335,0.4042598879441798,0.1667025780975503,0.20646038826005453,0.07195492802444835,nm,0.0
130.778525,0.4603073545026246,-29.13419669935302,75.53302699176011,1.3277683009016545,0.44838294967605585,-0.020700958582963103,0.13633391205215692,0.13226815669589284,-0.08427726560513353,nm,0.0
130.788032,1.259101837132354,-29.561110542584036,74.28618942756644,1.075696392707849,-0.11877509466945183,0.30802106512378197,0.13219670081834328,0.11698646673165355,-0.1725577216803876,nm,0.0
130.797544,1.0746228688108728,-29.824746953498664,73.12352548466217,0.7982169696734803,-0.5381980268080065,0.6096379596052153,0.05512811964413271,-0.04128397389463329,-0.2523364663719989,nm,0.0
130.80705,-0.4901933478647738,-29.866342900387025,72.58750304841585,0.6306045682835804,-0.7587473295877206,0.6184472105240096,-0.05858120963161599,-0.25815089626045906,-0.264230853349431,nm,0.0
130.81656,-3.1274050367358965,-29.902599201018695,73.04000710751865,-0.05044636214611423,-1.1131703243950333,1.0394116369482256,-0.11468389489411268,-0.43574809924624097,-0.17302485023629346,nm,0.0
130.826079,-7.087055147788979,-30.042352935392596,74.47069749274438,-0.7323893636702291,-1.4892312520456,1.2604153115937395,-0.15155663249117832,-0.6635415507352538,-0.10949822529870806,nm,0.0
130.863935,-25.659624810544898,-31.461991808628973,82.0346572694407,-2.9747065302248195,-3.137976554708988,-0.6391961990609757,0.04744137010611552,-0.6987986374325957,-0.1698365730452586,nm,0.0
130.873454,-28.67052918112607,-32.470758534480694,82.33169459450855,-2.1955113069586085,-2.6317545663919,-1.5258665984680995,0.1436529840642237,-0.531268568159761,-0.2551851470440634,nm,0.0
130.88296,-29.871368847096583,-33.38068872259842,81.67672976315592,-1.8508267657744661,-1.8702236017956733,-1.7563200057684194,0.1654554601664951,-0.22266198509827306,-0.25698705243713893,nm,0.0
130.892466,-29.960354107126665,-33.80326826838267,80.14332944187736,-1.1765938414617352,-0.9701006360472336,-1.6352607640238945,0.09434491464990781,-0.02587218591588212,-0.3119777969317839,nm,0.0
130.902059,-29.10266902035584,-33.55775618051541,78.2082898103395,-0.34672404059840484,-0.06612183120118999,-1.320587101059486,-0.008219482666925949,0.15143654900133133,-0.28746736877475826,nm,0.0
130.911486,-27.316517044070338,-32.64155565366451,76.42315050674469,0.08732866639224783,0.7199869654360608,-0.86173991233321,-0.09979956842091586,0.3342859909171981,-0.15775782286214898,nm,0.0
130.921001,-25.058807432276083,-31.23183168068812,75.10765769755645,0.5429228514197446,1.3442333774563568,-0.5288522479611896,-0.16569800120455305,0.44302382375680693,-0.0204291872961021,nm,0.0
130.930509,-22.290852778089935,-29.705132676844748,74.39803540869708,1.0709714795036347,1.8589296522939023,-0.3954460337982894,-0.15555758441250883,0.5432600440270406,0.14210196889471857,nm,0.0
130.940008,-18.660632483392384,-28.49354811361297,74.34887575992235,1.235311284431914,2.267309367245825,-0.15534238121785457,-0.04866426248669146,0.6794401162338718,0.3459677163794726,nm,0.0
130.959033,-11.058626666846582,-27.698258659200846,75.21206171847076,1.5229412181882416,2.2994010181507165,0.39826087971003205,0.14573636567994075,0.6327324838619052,0.434580266999968,nm,0.0
130.978238,-4.223270877428794,-28.295839048120392,75.61951753333996,1.6557219747718666,1.9229350386543058,0.5051013028733676,0.23692936440242368,0.5331201719142764,0.30387651072912386,nm,0.0
130.997262,0.9238715255990286,-28.787446896190374,74.34578993743423,1.716432207211282,1.6191531885318453,0.5844623859251848,0.14514945557319767,0.3711943037078603,0.05039979146505345,nm,0.0
131.006763,1.8149161712007942,-28.96520166735514,73.42391839503833,1.7105726629324203,1.356193850478944,0.49088566409850504,0.0909524934624502,0.1447043337552813,-0.09991025294505372,nm,0.0
131.016271,1.5493623538902164,-29.240294508277668,72.52140571922652,1.4644067000062042,0.9702005560762593,0.4637881679329637,0.052541248878581144,-0.05631853099668784,-0.20798122794099844,nm,0.0
131.025806,0.4979794546193383,-29.47597387517045,71.67097919479954,1.2301878084048636,0.6077063925188252,0.2407865705312921,0.0020885577973581318,-0.18520877847334347,-0.27468757393742377,nm,0.0
131.03529699999999,-1.0129419856863608,-29.835685005525132,71.0591897785665,0.7396207370989868,0.15173263509358764,0.49533541834426237,-0.0020570160256617094,-0.2685713169424775,-0.27306718773246064,nm,0.0
131.063817,-10.96650743989242,-31.4892420108229,73.03253431639442,-1.0686147876025238,-1.0934545151377493,0.9290836049458249,-0.10855777229637717,-0.7058913598184744,-0.14127774116327177,nm,0.0
131.101692,-26.304944251990356,-32.48175627556066,82.31644879621325,-2.8014472841583906,-3.3477171086678497,-0.8112166082739026,-0.04347440115335355,-0.4110600780293749,0.11513529779088381,nm,0.0
131.1112,-27.21069710264321,-32.84479291717495,83.2834488287378,-3.2536634996810765,-3.62759569707859,-1.3325523338809544,0.06612751550979516,-0.1572845129807187,0.10003862860768661,nm,0.0
131.120716,-28.078791759870775,-33.84211827105022,83.22874901982775,-2.2154512572576994,-2.7048018474776225,-1.6380308667829002,0.19437109491714374,-0.1645637939325605,-0.10194267405089784,nm,0.0
131.13022899999999,-27.673792923006545,-34.44821103996393,81.88386012550721,-0.9674363333970462,-1.5156647688550606,-1.6843879173326943,0.14219373668443974,0.05360749632098322,-0.2192179569584842,nm,0.0
131.139727,-25.528178889410533,-34.14675668859045,79.63402749896971,-0.6092523858209038,-0.5246125617274836,-1.1895960292245493,0.01073777472088643,0.3625533690889622,-0.20420765965150772,nm,0.0
131.158762,-20.033869209715533,-32.082157273312625,75.4641951207433,0.6772809021806808,1.244773216665244,-0.4403211749013148,-0.09127881434190972,0.5281024955731646,-0.04472147260121851,nm,0.0
131.177776,-13.189112511247446,-29.43326247396062,74.13472040052017,1.1389626546838263,2.460859606097413,0.36356288621665767,-0.07624068070771625,0.6844122794720949,0.31224695372767797,nm,0.0
131.235029,3.117443529998743,-30.06454661779863,75.49143658504369,1.6669130268967418,1.5533962811374233,0.3940952945278369,0.09987487938369957,0.394095217954662,-0.014604143922895356,nm,0.0
131.244348,4.550289566112434,-29.696779186133327,74.10740234953225,1.8808015112693126,1.5163754995066532,0.38304255372435114,0.007321704363244837,0.2643684191080963,-0.13603985691283077,nm,0.0
131.254039,4.7226267534222375,-29.44567103994088,73.13957486246028,1.678095593765392,1.196791953854467,0.6279773224461613,-0.026555732011173665,0.047751044405141156,-0.1786946614113435,nm,0.0
131.273071,1.396805748359797,-29.386098365303663,73.04898691832435,1.076619611315573,0.4576351830841774,0.32794941093606156,-0.08387514261664177,-0.3393854106920983,-0.14985528769625658,nm,0.0
131.28257,-1.4751321057588942,-29.79348927907608,73.85012029780674,0.31352098794949934,-0.15841216499541252,0.728426049833792,-0.05072745909255177,-0.49838290992003814,-0.12439131549650417,nm,0.0
131.301595,-10.292695391463504,-30.68385059242539,76.40421912952694,-1.2811154539391783,-1.645491366871719,1.0963363702414766,-0.1262938849664956,-0.8099514243881069,-0.2103558847513409,nm,0.0
131.310928,-15.767748970186336,-30.906782535350622,77.77640253205699,-1.810404395700175,-2.4513109625715295,0.7034718560051568,-0.15326358090573342,-0.9244196671575805,-0.28474304527541217,nm,0.0
131.320433,-20.738107098779633,-31.379014722478303,79.2947358582508,-2.7299921550231048,-3.434087858201629,0.5007463864909808,-0.06315501570014126,-0.8503629096156373,-0.20791155190733593,nm,0.0
131.329939,-25.03181833711244,-32.032491969965214,80.91158255169523,-3.5896112927504,-3.8582749327610615,0.18388150795586988,0.01648262859163489,-0.7399595520261634,-0.12442194441634877,nm,0.0
131.368066,-30.62829469246253,-32.51089562765649,82.0349651222261,-0.6539405528637782,-0.7913992859667938,-1.7946479549453003,0.013366098120166528,0.13889893756617544,-0.10099175059488336,nm,0.0
131.377578,-28.2729392762555,-32.17557227609883,80.2121041641448,-0.16345325521073328,0.17020247126733787,-1.2541904974324867,0.008368314176672317,0.40655225819668334,-0.10815186431761922,nm,0.0
131.387022,-24.94007228435827,-31.59554826425796,77.94910421554955,0.3809844002580717,1.02729839376952,-0.8845486329782741,0.006770434408841362,0.5807802143326668,-0.09669084385221892,nm,0.0
131.396521,-21.202560689069472,-30.845132765168255,75.84038583057271,0.9578755336465663,1.8443247960817015,-0.354789190089045,0.012462677957083881,0.6597423471898599,-0.03116364308676233,nm,0.0
131.406022,-16.884666891585326,-29.676549994024025,74.38783140521628,1.643508840201869,2.648325019143005,-0.004732387462563203,-0.020390208272193452,0.7843570374242809,0.1470653637094585,nm,0.0
131.415543,-12.58499524191332,-28.378757462853557,74.18755900581736,1.3814630803707069,3.0270039093565537,0.88429306535603,-0.032343349281351075,0.7980792821574637,0.3787910249339937,nm,0.0
131.42504,-9.449891169742836,-27.457513373501047,75.43409731387094,2.1425808982070174,3.408117274495177,0.49080444827028136,-0.018922052097897577,0.5874065611544937,0.5438480896337363,nm,0.0
131.444084,-5.1292130195321795,-27.53118670387048,79.88651252490908,1.7033933830971797,2.559420099186008,0.19964578253330104,0.1427666085798968,0.3091103738784217,0.6020466157764237,nm,0.0
131.472602,-0.659515500075751,-28.676854944586854,78.69447691458225,1.3704148621503263,1.1534346743280877,-0.0761908050855907,0.078332377808365,0.23715962229607537,-0.26751717959583715,nm,0.0
131.482291,0.5812734500937004,-28.496979392316675,75.7960835721857,1.251296911006425,0.8306715393855667,0.17643337999490538,0.026295753188319428,0.22560284173618236,-0.4627719573564494,nm,0.0
131.491804,0.9330804379322266,-28.214872096784198,72.99366354872205,1.4547196349666196,0.7561697333726793,0.07902821544033033,-0.02427902261053624,0.07913999625251757,-0.5291075166997596,nm,0.0
