timestamp,roll,pitch,yaw,acc_x,acc_y,acc_z,gyro_x,gyro_y,gyro_z,markers,motor_input
124.01646199999999,-19.708780788652142,-33.86489216973519,73.93631597224679,1.798229889456761,2.6096621630405066,-0.33390582634529326,-0.07201536837891129,0.06282698136220115,-0.1013949415447858,nm,0.0
124.02597,-19.539764390790392,-33.39049214274081,73.86432853829082,1.9734611463881004,3.2663394134878474,0.23441028529795885,-0.06970684946756965,0.055377716982494274,0.007270341938714376,nm,0.0
124.03548699999999,-19.89131709333926,-32.87581764012475,74.63055509777789,2.0444086244055133,3.5636471825782,0.40883301907723485,-0.10146180264020382,-0.026619917093519838,0.11789088424981523,nm,0.0
124.04499100000001,-20.76780092680808,-32.524336038730894,76.11996349163726,1.7068582586283216,3.1654848700848772,0.11075094310273993,-0.09172130749762358,-0.12272421424744812,0.20647572973060532,nm,0.0
124.06401,-22.497559748555243,-32.61804402845835,78.70774419926553,0.8764439828754146,1.4373227218421623,-0.4202822728061847,-0.0016588052790170703,-0.10315666663989705,0.12446795035313929,nm,0.0
124.08321699999999,-22.41760691987719,-32.51554433057839,77.95299587210309,0.1539830772255222,0.04772507539011115,-0.4542380735647321,0.013045228896976164,0.018829921697280663,-0.13329510296426453,nm,0.0
124.10224099999999,-22.09872598655707,-31.720703442732237,76.05805165441875,-0.4343633318072691,-0.6253206004105697,0.34454427578132907,-0.10336554127954288,0.06042493065052955,-0.15113026251230469,nm,0.0
124.130774,-21.885824042938495,-28.923628820818426,78.00985070515512,-2.084158309271936,-2.4106583577736096,1.727640664966509,-0.12684685630746434,0.13319095941379724,0.3383391144565343,nm,0.0
124.140277,-20.890246235657944,-28.495932201916524,79.46937913578645,-3.1513458834463512,-3.7540854201557683,2.1611706600820852,-0.03630941347895616,0.19161673026898352,0.39069791992471903,nm,0.0
124.14961600000001,-20.235960219133414,-29.13000473052435,80.46982401562664,-3.08504867473853,-4.72074182432588,1.8351430338750578,0.15851263863633622,0.09459828810126794,0.266101393280085,nm,0.0
124.15912700000001,-19.410975425670195,-30.872955455115562,80.57519032767466,-2.758291143036404,-4.518513072157932,1.0021441137667075,0.3812800692411478,0.0873386994684739,0.10637813693722512,nm,0.0
124.16863000000001,-18.83949831171483,-33.01522137439734,79.45260197999531,-1.8517391909726306,-3.3754613042592694,-0.019461842493577027,0.45284113675501964,0.024621842042740857,-0.1613970763246511,nm,0.0
124.187668,-18.60253673446854,-36.858432489807306,75.76322491875106,-0.06348027289909093,-0.6010468663508965,-0.7688539316561862,0.36436146652092527,-0.08075747988284586,-0.3509453371674696,nm,0.0
124.19716700000001,-19.44419831510538,-38.170683145521565,74.82477362998382,0.4264976015379131,0.40393881449577385,-0.7079182482862526,0.23388771516414608,-0.19410207303153318,-0.287124887767908,nm,0.0
124.20667499999999,-21.11059761795493,-38.65792497235746,74.86409376102814,0.8811139146987803,1.0201971572309072,-0.8224360556996947,0.03941960272719431,-0.2761811796391139,-0.19573856364716238,nm,0.0
124.21619000000001,-22.87577158207244,-38.38388190630841,75.62491050008462,0.8481522769863897,1.24059898931754,-1.0202690674570432,-0.1099652517234262,-0.25177802555905093,-0.06381545241976329,nm,0.0
124.225693,-24.542532234342897,-37.76896156549582,76.58423800220211,0.7700218630730443,1.319778082874721,-1.1108200846635394,-0.16916725385395684,-0.22374846498162787,-0.009529489762272542,nm,0.0
124.23520099999999,-25.66337185072127,-36.992944272113704,77.10010967303683,0.8836365226663482,1.4489054180679006,-1.1318920857026575,-0.17851363160860373,-0.13653979725268273,-0.028607328142931075,nm,0.0
124.25422900000001,-24.832235904551602,-35.35295556734351,75.79862949227373,1.610014258001822,2.3907678393900973,-0.8186212625843537,-0.10070045320229845,0.1845176462760176,-0.08653348527028275,nm,0.0
124.26373000000001,-23.25006660272343,-34.90567181534202,74.75242158008896,1.7801797254181868,3.08563564967907,-0.06266864828738752,-0.007185939995682551,0.27499171655973514,-0.023393163507801285,nm,0.0
124.27324300000001,-21.958005976653325,-34.61004737988511,74.27060192267727,2.1687594736557863,3.7412273939400458,0.5883989148430214,0.013366731561688818,0.22234505858051182,0.0545396745426603,nm,0.0
124.28275300000001,-21.465347760733724,-34.14666989754342,74.87462570243258,2.205440671720848,3.7057357010762924,0.5336138521385697,-0.054120987284319785,0.10511152946240448,0.1800137660745024,nm,0.0
124.301774,-23.212942184043094,-33.74242672531803,78.92217547743866,0.8341986010763291,1.9084247317066643,-0.05170821106626676,-0.057812248490540494,-0.1899073821435822,0.3126597127780943,nm,0.0
124.330509,-22.806799784204085,-32.7756249236144,78.92553184275224,-0.2422226857500663,-0.6135957253386022,-0.47760558541103615,0.005601124832269716,0.1542956616140114,-0.13890091393194573,nm,0.0
124.33999399999999,-21.950827567458308,-32.51606291943033,77.15895551007087,-0.041344669459721636,-0.6899588984726707,-0.00943573056091398,-0.007389888093733312,0.15444615173284637,-0.2579360103291382,nm,0.0
124.359015,-20.299858585317306,-30.803023524167738,74.9723078879447,-1.000456899625988,-0.9900560000440297,1.1879362137848866,-0.1464051582762328,0.12601067276580105,-0.0715132717980889,nm,0.0
124.36853500000001,-20.668668689097764,-30.052890479287125,75.64545929567754,-1.1299964248872627,-1.3412113292669101,1.4203997216479052,-0.14774002978096576,-0.021076764028413672,0.10019362141217074,nm,0.0
124.378017,-20.704909905506664,-29.54080344819081,77.35594205394233,-1.8419638008158958,-2.0923457891856514,1.6856734785093372,-0.08753016796730674,0.020684283993354074,0.34164751556333933,nm,0.0
124.387549,-20.32709369995842,-29.39892701058723,79.3659347095924,-2.9007972079633015,-3.494959649893666,1.8574813751387278,-0.000980060697215307,0.0736480660060461,0.44235743408730166,nm,0.0
124.40635900000001,-19.548378128942304,-32.244015318259045,81.51189129191764,-2.7451729787760017,-4.625480076317027,0.3756767362619851,0.41854031562462385,0.027387093637655922,0.16228226535305335,nm,0.0
124.425399,-17.846426684399702,-36.1721048242455,77.99531958234584,-0.9416584683684219,-2.2436916977211863,-0.7204138490731884,0.3782268703902481,0.09342107526862536,-0.3718539771690819,nm,0.0
124.43491,-16.964257981915612,-37.25626831159237,75.35480536190849,0.0024762652634190384,-0.7268422097329177,-0.8450097983362677,0.25757444256126927,0.09017038642444368,-0.42018153200434594,nm,0.0
124.444593,-16.746148809710384,-37.81796265902561,73.61888009513007,0.4297203794201181,0.41222939477069737,-0.4851322608247793,0.13138596561812593,0.005293776293664638,-0.3180702360912323,nm,0.0
124.47294099999999,-20.866480588011367,-35.842838830502124,75.06575171454344,0.8252983325408675,1.5238726447575301,-0.5948153959034267,-0.2556414578706271,-0.18691896384245124,0.05613366991613248,nm,0.0
124.48245499999999,-22.15813238935205,-35.075249246641484,76.12709303599651,0.7489028221212759,1.4794471614498996,-0.6972869807790462,-0.18768509267379152,-0.16372069527561844,0.06602465368752397,nm,0.0
124.50147999999999,-22.240119302961563,-34.333596612866025,75.6759773258436,1.2209961335051929,1.767501954067243,-0.7466845040577822,-0.01900850269495661,0.09525377836129453,-0.0852478824720823,nm,0.0
124.51099099999999,-21.041075896960706,-34.28425814647522,74.39171055252986,1.516762715380509,2.1701668297521657,-0.36068752671107956,0.055341534551575776,0.19598929342554466,-0.11849113964677259,nm,0.0
124.520489,-19.990116419088196,-34.33688412403375,73.36663684170883,1.907580284570692,2.6605506835455333,0.18993989565104552,0.07212289185516614,0.16579079131450003,-0.08349435125640212,nm,0.0
124.558537,-23.449593205726117,-32.443030774295835,77.74736739210597,0.8985998029124067,1.568864267873703,-0.3935052046931396,-0.14871047421470396,-0.19191200221755594,0.15319467322662558,nm,0.0
124.56806800000001,-23.760003953026224,-31.823975585743455,78.09216928461186,0.4537020399790501,0.7804761303483178,-0.6805585569279674,-0.11873097739743724,-0.02296444711197465,0.0395518845539182,nm,0.0
124.57773499999999,-23.47123055967418,-31.485204706260028,77.37345552490633,0.05684533826275103,0.3064125554727807,-0.40328975982005216,-0.04229695368610775,0.0649447112732838,-0.11006350287251483,nm,0.0
124.58726300000001,-22.84085562046308,-31.305890465603532,75.9579868148968,0.07462737380806127,-0.050138103415830616,-0.2535453510181094,0.003512937785903875,0.1152953452928119,-0.21429412377957308,nm,0.0
124.596769,-21.707859581645362,-31.042551397388408,74.4918370333222,-0.1615235269695829,-0.25312296480878355,0.18140136074467955,0.012207436192282756,0.2031056870945535,-0.17299226886444777,nm,0.0
124.606267,-20.642366299791608,-30.57157853077427,73.63015973223811,-0.47771321126467575,-0.4913048368826641,0.5405028287658498,-0.02659630213808862,0.20401076372351915,-0.06038322113261193,nm,0.0
124.61577600000001,-20.04222121703999,-29.909829129585138,73.74917828244017,-1.012006242168528,-1.0421608792580457,1.2666651183133368,-0.08422826402804164,0.13890094389722554,0.08704023336245686,nm,0.0
124.625294,-19.767686152073832,-28.9837114972885,74.73641656068116,-1.4865632197328935,-1.8374474322479823,1.3826638754811234,-0.1517025918469468,0.09879724708514098,0.22722738778536938,nm,0.0
124.634807,-19.395270635018292,-28.112904667818924,76.21264529298767,-2.0987923266785966,-3.0030666621922806,1.2797406852437185,-0.1386393319399154,0.10994877771905996,0.33358577797931077,nm,0.0
124.65364400000001,-18.518804266890122,-28.097072164941864,78.17235606799126,-2.8187223959264354,-4.434812179528443,1.0425842596042696,0.0757913192344335,0.05652999481613497,0.14506288344284515,nm,0.0
124.682358,-17.275229184672416,-30.894355207501288,73.66709976583138,-0.7804218080004083,-1.2146144731134758,0.07387262019599473,0.2569127287718209,-0.03825026832911176,-0.3866023224283152,nm,0.0
124.701382,-20.24507058674016,-33.756639688480405,72.11499929673364,0.6844994461065312,0.8388559617823917,-0.28723670887736347,0.1734356645109556,-0.41225227328208097,-0.25897760534831227,nm,0.0
124.71070800000001,-22.672776532871918,-34.59717286795897,73.01018537850248,0.7393489426422486,1.1256112498033166,-0.4223769381404876,0.05372252206830178,-0.43281286736709784,-0.09023846373077965,nm,0.0
124.72020599999999,-25.216385625363067,-34.775452957364976,74.35821180559856,0.6125787011247854,1.1175439347904386,-0.7112738043014698,-0.06984729464017272,-0.4106475636004318,-0.015870360606793102,nm,0.0
124.72972999999999,-27.501366479213672,-34.508926654513665,75.45298010286564,0.6672325142899576,1.0375608008862105,-0.9763354142636834,-0.13612932632288471,-0.34821368970971645,-0.036417220795446015,nm,0.0
124.73923300000001,-28.836289848748358,-33.999384803635316,75.79279496550043,0.788468191208161,1.0748134813346368,-1.1108587228023072,-0.1403582670749617,-0.18739955868405733,-0.07772025279286453,nm,0.0
124.748739,-29.039497725023885,-33.405145834622125,75.25026818806023,1.0202418448466664,1.3478556787364318,-1.0467492520113606,-0.11034622482664863,-0.0018474500709624443,-0.1265086134335,nm,0.0
124.758264,-28.358411458564458,-32.87657499765585,74.15313469041925,1.58113356848219,1.9092973028826732,-0.7390284590366628,-0.05856848642441742,0.13911240794458277,-0.1405799804813868,nm,0.0
124.78678400000001,-25.835124783309308,-31.60389587257584,74.36780924514385,2.15151944260088,3.5697908695083846,0.6996857436364647,-0.07823382557689523,0.04299918879436257,0.23874192576683126,nm,0.0
124.805812,-27.65153848293141,-31.467364096655153,78.61181742664579,1.059873240666167,2.093969016440583,-0.015393642793804074,0.005050822802113324,-0.1924777559851775,0.3204579284279198,nm,0.0
124.815324,-28.188118538422753,-31.637362622241312,79.72122910386355,0.6557653385430819,1.1729944040884903,-0.4612563256012829,0.02952573215033485,-0.09385705737605911,0.1702991085321343,nm,0.0
124.834517,-27.48648722851461,-32.41740062382719,78.3546296617129,0.07163258399276291,-0.09910143258328784,-0.6165534205662411,0.12416663392445576,0.0710775656788832,-0.17692353675377046,nm,0.0
124.84402600000001,-26.617869436664837,-32.83666543149785,76.73027702309388,-0.10449445421186529,-0.30901359473025686,-0.304352089442583,0.12699765791740497,0.12675402592106927,-0.22724174521757387,nm,0.0
124.85355899999999,-25.763185618560676,-32.74996621447863,75.2544266640905,-0.2597822757368692,-0.3888601694169479,-0.1304883710817669,0.03147586735738102,0.1453781401071736,-0.1987647412946659,nm,0.0
124.863058,-25.401541076046307,-32.262074159992714,74.63238147880051,-0.420377435078794,-0.4184978350571063,0.05923935207426776,-0.06493208529653999,0.08587678311082313,-0.08170505970158659,nm,0.0
124.87257,-25.608918067655573,-31.56819103784036,75.10278430131953,-0.761638488808479,-0.7621457982179101,0.3280006441055,-0.12977747914912066,0.003916425765080143,0.07613451513108925,nm,0.0
124.89139599999999,-24.700855425266848,-29.9221451808853,77.77599647495828,-2.551681858536158,-2.9189588916527205,0.5868374133091215,-0.10332580940751109,0.18110244629986078,0.3784449358942126,nm,0.0
124.900913,-23.45200340764458,-29.960757401917792,78.94117795423237,-2.9643701806233755,-4.29908793486272,0.698272927003557,0.06481314790813467,0.21361187204502186,0.36145582673145316,nm,0.0
124.91041899999999,-21.086344489887114,-30.72206503521137,79.14470011397088,-3.181360789938423,-5.00170938316992,0.5738158111908641,0.24089162963519567,0.37558493903666607,0.2830186544804082,nm,0.0
124.919928,-18.280648254617308,-31.775657596162755,77.83695462022668,-2.7137251002889604,-4.632619267602247,0.21717682906484828,0.3161364375299389,0.43168688109426984,0.03221568232081329,nm,0.0
124.92945499999999,-15.616315635051006,-32.95285116864698,75.3153357017679,-1.323353056684005,-3.0244723211978592,-0.3698479454426003,0.34760058969190827,0.3863875817872967,-0.21701984932915863,nm,0.0
124.939144,-13.230749974750701,-34.056688262393735,72.53976535590631,-0.8858815035099538,-1.4936229359217437,0.07880333644339631,0.3365069173664669,0.32392818568912474,-0.2900935434618974,nm,0.0
124.958159,-13.487722666411713,-35.33449440676606,69.69185404982335,0.9827205142160221,0.9541367247882738,-0.13067374267141793,0.05101240677295249,-0.1489910509212676,-0.2367754749246893,nm,0.0
124.967672,-14.911813900129689,-35.223944710943904,70.29378286161734,0.7308725127173524,1.3698379185347667,0.04490519278412379,-0.08651581803770875,-0.2095756445503461,-0.04189702885119119,nm,0.0
124.9865,-18.603112835326158,-33.587677603513576,72.62546930646288,0.7663068347150913,1.3126882772203334,-0.47811622332293036,-0.2462899344487163,-0.19419439652110848,0.045438120071761755,nm,0.0
124.996013,-19.27226199338589,-32.76259876661617,73.05934443448443,0.6192443588741958,1.2791073703329134,-0.4243098031982434,-0.17715634695642365,-0.05659012746734486,0.01637062578852852,nm,0.0
