timestamp,roll,pitch,yaw,acc_x,acc_y,acc_z,gyro_x,gyro_y,gyro_z,markers,motor_input
103.008299,34.04034749352396,-49.101764831954945,142.46176591695752,1.4780501324389692,3.046189638322378,2.4324457730003095,-0.8363643079212131,0.8658519586956912,2.2107555119227302,nm,0.0
103.036746,43.9896148972133,-57.92941603564007,154.79892509894182,0.38960490266773107,1.3938991683574755,-1.1425161857778277,0.12149195123889078,0.5136347059090849,0.8033387354136833,nm,0.0
103.04628500000001,44.01406852975809,-58.75973202695609,156.07466586448356,0.48997350674798357,0.8895392379489849,-1.2001498541436573,0.05665201013641637,0.16233215705343088,0.25903142157571135,nm,0.0
103.05578,42.32870394282342,-57.78237478265891,155.6795123051408,-0.23834551509089436,0.6676081444604953,-1.1928990426465622,0.07225752512073438,-0.2409203662128427,-0.36699918086883476,nm,0.0
103.06511,39.620977557349285,-55.88756260311523,154.20867559556274,-0.5866487084461022,0.4058412964018591,-0.6718207000111047,0.09907945195933532,-0.45854521815085664,-0.749508892373232,nm,0.0
103.07482099999999,35.63995826306786,-54.51155644217228,151.9371741494705,-0.4864644340460556,-0.21546569571104834,-0.09100958625533459,0.2731992371520411,-0.440057150220745,-1.1104545947620108,nm,0.0
103.084314,29.531160189833876,-54.69047152668742,149.29496755361475,-0.2548873457313205,-0.5178981121991668,0.5000422964147164,0.6292044429661193,-0.3039215266904125,-1.526492925780514,nm,0.0
103.10314299999999,10.86805351097889,-57.42457687888211,147.94959237744624,0.18831705538959026,-2.2529807947321916,0.19695888360625996,1.0992247640758128,-0.3490007887915941,-1.6623771080667973,nm,0.0
103.12216799999999,-12.739932726000935,-59.10278614359901,151.29171154188055,-0.5364116837082348,-2.8150687185647407,-1.7409915680346424,1.120731925720571,-0.4962450743489644,-1.6465403165420807,nm,0.0
103.150767,-35.3339395933107,-57.207771972738996,152.52167553526343,-1.4315210459947916,-0.39752390456320646,-2.7520934968550397,0.34339519533962154,-0.391734732651254,-0.907467871350157,nm,0.0
103.160381,-35.913054201602094,-56.19655396488341,150.61032434864873,-1.4987728060757066,0.11111567488718785,-2.453045258416857,-0.03532720927871042,-0.19721665113045053,-0.4725717184091795,nm,0.0
103.16978800000001,-32.64699426744362,-55.40390013180327,147.50552125214384,-1.4529242858858695,0.1621385765177471,-1.7635135231601586,-0.3916176430970073,0.06427689253558781,-0.07393642058221617,nm,0.0
103.179314,-25.838495179016043,-54.90691914992903,143.36494941491353,-1.1468112334645533,-0.0831537713719765,-0.6826734588517165,-0.6924737090699993,0.37182880535240215,0.29615285181129053,nm,0.0
103.18899099999999,-15.933217510423582,-54.58054564436146,138.61296945557982,-0.849505355434967,-0.13777060637379263,0.781497067916054,-0.9253464773290031,0.6821913148609617,0.6737378840875686,nm,0.0
103.19850299999999,-3.9955368611559727,-53.850604013295616,134.025450246305,-0.3473066159172251,0.4096847818281743,2.6538285893891045,-1.1067572961380265,0.8726760775587654,1.024987991585149,nm,0.0
103.208021,8.174832046093647,-52.641805574537045,131.49175018865174,0.2522543590690029,1.0550392387143712,3.9197985955342376,-1.164372079167681,0.9205049635373739,1.4474220779078693,nm,0.0
103.21753000000001,17.99214468572529,-52.17980834773273,132.19689891538331,1.6816350299855174,0.6189682335357249,5.104697791897187,-0.8688525375049555,0.8461781575839561,1.698895811943686,nm,0.0
103.245981,34.95993843345876,-57.13518298555935,140.9292765507061,2.5844757532796243,1.091012001771582,1.9826738103590948,-0.1767659880128405,0.79307705217579,1.4759467830248278,nm,0.0
103.255683,36.440959435713744,-59.011156538503975,142.71518800362696,1.4955962113034085,1.5007274954344667,0.5668850026913056,0.10280415044790829,0.40525413426558154,0.609282071027376,nm,0.0
103.265004,35.02703529300486,-59.497574848066705,144.53559945116857,0.25066279448919443,1.5338275182032406,-0.5361529212987087,0.1680254930426743,0.005402197430586839,0.12114268221366203,nm,0.0
103.27451300000001,32.3106252957382,-58.940064670503375,146.0124664852544,1.1188702336581762,0.552243581347289,0.08220134339007212,0.1590894260903609,-0.23746881492840274,-0.17172315307931818,nm,0.0
103.284021,26.844468861378747,-57.96157467132037,146.70356823700064,0.481523028303748,0.2414842459743606,0.23693426121286817,0.3631428508474896,-0.4670955331219877,-0.7944021711066791,nm,0.0
103.29353499999999,19.385448951068856,-57.056304392839024,147.27277758049271,0.017060223577637708,0.01649184784893576,0.5114986002189158,0.570336629148171,-0.5752992769520519,-1.1454527641549173,nm,0.0
103.30304899999999,10.24648617347401,-56.516324754678664,148.35262821905906,0.3330214945687555,-1.3069929521528363,0.8302140740994077,0.788482201573358,-0.6113131423683535,-1.3137609222081745,nm,0.0
103.31255999999999,-1.211352816016674,-56.70808763174371,149.98885225915603,-0.27838317072042873,-1.6894191696052399,0.17757931203183755,1.1030183829898532,-0.6000807551376998,-1.5859788573129332,nm,0.0
103.32187200000001,-13.516009837052248,-57.15601375047472,152.29289312749438,-0.3554569097813414,-2.462686806909,-0.4501949595334787,1.2212806155712428,-0.5568274741885828,-1.6001687617783529,nm,0.0
103.35049900000001,-48.03780482025969,-56.38256539320971,157.65727663786208,-1.251244945731803,-1.6632112898281102,-3.1676045945045455,1.0351438674907645,-0.5230349119239565,-1.4637600573035912,nm,0.0
103.359996,-56.55180660007244,-55.79978084404317,158.50925198506238,-1.2987652912577936,-0.7564937635977225,-3.2999170843436496,0.8447219978088316,-0.45405602019509517,-1.2352442699075563,nm,0.0
103.36952500000001,-61.98204643956329,-54.9993241237141,158.01059228414098,-1.0258861523172795,0.5061723773835052,-3.204909874632848,0.5206376909126401,-0.3695777988642462,-0.9849633926988667,nm,0.0
103.37911,-63.557734840962894,-54.26524085849095,156.35633459616884,-0.8471883289751516,1.1188149263875562,-3.1294259985445434,0.11798677258234253,-0.19886800809468846,-0.5783361005484629,nm,0.0
103.38861299999999,-61.944234198632486,-54.06221947594077,154.1753268562064,-0.8984947369307417,1.1957357095546375,-2.8472867625045195,-0.18199607054486602,0.049752032249569145,-0.16473900755979623,nm,0.0
103.42675299999999,-24.87699272979149,-56.185553417248784,137.9529277388504,-0.3532499985950444,-0.2103409025992352,1.7034442047948894,-1.1256336652191956,0.9560385336065008,1.2478913054684888,nm,0.0
103.436274,-11.257252742702853,-55.332094977225424,134.70946990827645,0.2777948073221304,0.11510374459109189,3.0018966190569736,-1.2217326098904278,0.9486068280928894,1.6103750719430887,nm,0.0
103.455287,8.496532817412001,-53.89315104335425,137.0164541166885,1.8674740608538452,0.9986026408241945,3.4297748389040392,-0.7443952520965611,0.6091821283405404,1.8021491641349756,nm,0.0
103.46479400000001,15.161850623841028,-54.259248810547334,140.65947494123765,1.38397596055389,1.7995941739708672,2.221944656092239,-0.5433047393115908,0.5851825196921165,1.8105839991527737,nm,0.0
103.474231,21.026923815625082,-55.524018948151344,144.12292877934578,1.8948423775122298,1.018334028712472,2.339567868484237,-0.38445493394503666,0.6269747709027456,1.6543659530054575,nm,0.0
103.50275500000001,20.6496662555943,-56.412771634226054,148.1767594801975,0.6870379005766908,0.8159670797103872,0.8829205639394788,0.14551766814680303,-0.21028072875652049,-0.34084936693283613,nm,0.0
103.51226299999999,16.340235218094605,-55.53712181127819,147.03741960590182,0.496526664079348,0.1488620985802127,1.111471124856565,0.3107565632051072,-0.3929996691900246,-0.9426295031477946,nm,0.0
103.521781,9.831444578755102,-54.87976435874619,145.3468655753899,0.11424456581006182,-0.41989422124594356,1.0717495888020183,0.5435137828562944,-0.5092482777820045,-1.4075033913521853,nm,0.0
103.531295,1.0871730555935981,-54.92156346255181,144.13818113852346,0.060256049369724354,-1.547374145363147,1.131693440679651,0.8277394141331803,-0.5605923917048417,-1.6722559110984023,nm,0.0
103.540806,-10.456214543971038,-55.79566987610583,144.44087838248754,-0.332016755328376,-2.055414541636498,0.4258917729414762,1.1712935152861896,-0.6118331092782061,-1.837650011240017,nm,0.0
103.55013500000001,-23.963256184484493,-56.8156417874226,146.94338784678303,-0.7628759953504459,-2.8753525343784427,-0.19024478860197958,1.3574862014416336,-0.6649209523551268,-1.7449098516844044,nm,0.0
103.55964599999999,-38.393881445921636,-56.96373545857378,150.7377792511732,-1.4456028226710824,-3.0518185341924107,-1.4599399426764754,1.370172387873659,-0.7796781818758193,-1.6551058482213068,nm,0.0
103.56923599999999,-52.12376837239702,-56.13130701193307,154.23177482341572,-1.6837802389955212,-2.2417775741919086,-2.7437614417983385,1.272636019290754,-0.8372547575780185,-1.586862001911175,nm,0.0
103.597778,-77.38640387180308,-53.6919911225661,156.3134563311926,-0.4610169758665651,1.149533487132836,-3.676249208375604,0.5454913721009818,-0.28389753791048267,-1.001079192448836,nm,0.0
103.60735,-78.40537940250638,-54.22747948634093,154.05394282893448,-0.21983889598993397,1.5735146473989274,-3.3440742146475646,0.16146685495648014,0.051196264297164736,-0.6059749891146764,nm,0.0
103.61686599999999,-75.76873424286997,-55.46080162909814,150.89620374916407,-0.31178589977598936,1.6426636840236368,-2.762471571073184,-0.14750172707384474,0.3637053003057275,-0.18944011930802862,nm,0.0
103.62629100000001,-69.72813801066799,-57.02549707090746,146.80125708683622,-0.4349806964696492,1.5016992206141622,-1.8343156578952677,-0.40463308723072516,0.6201490379684519,0.1965623948596549,nm,0.0
103.635807,-60.10583786277504,-58.30213365737149,141.61403728770955,-0.8110273649980976,0.810134906742678,-0.7848638303900528,-0.677358352489112,0.8147715035574344,0.5998519971637802,nm,0.0
103.65500599999999,-35.50973286549615,-58.11817215818913,131.3167752257049,-0.5810969052759739,0.9916808575046205,1.4513087218750638,-0.9941486758872371,0.887481381658814,1.24964916652055,nm,0.0
103.66452699999999,-23.37616357165896,-56.89682848565253,129.50290880087107,-0.6379708403263683,0.3086090076070058,2.8099517391184694,-1.0236400667215233,0.8461407425825518,1.692323963334076,nm,0.0
103.68354500000001,-6.817532363664679,-56.04560486599691,135.11663064188647,0.7937298725801369,0.2909184049598488,3.8238952233740084,-0.5091442668120914,0.6079773186179843,2.0011737296618173,nm,0.0
103.693049,-2.2330804682251655,-57.571720708048176,140.26638206242347,1.7186961394944207,-0.3732561033245003,3.531759583300563,-0.16427761625763843,0.5786423859710749,1.8020838915290835,nm,0.0
103.71207000000001,3.8864740758054652,-60.41484122150437,144.114520410064,2.0563350760670356,-0.08142743716870864,1.3908677717977407,-0.14213595663773282,0.3689458276056661,0.605752493184803,nm,0.0
103.72158999999999,7.283767153927316,-60.036348818291295,140.721660723475,1.8014953525726172,-0.13658051969911483,1.1889081071636531,-0.3135582063186392,0.15988394506067058,-0.08617292114678331,nm,0.0
103.740598,6.21915127814223,-56.879731775355424,131.8229179957176,0.9094988570215525,-0.5819043240676293,1.838957052091891,-0.044238803842518666,-0.4045069267618572,-1.2196020775095273,nm,0.0
103.750031,-1.1660630896486963,-56.272407227409,130.72539927758422,0.23186846669123218,-1.004911809599379,2.048142979198385,0.4503575717591874,-0.6792951913623692,-1.4513598852641374,nm,0.0
103.759546,-13.737110628205665,-56.403178219831645,133.8508398169393,-0.6199712760963255,-1.5464028311186542,2.04196465685618,0.9629958263692102,-1.0015396861978356,-1.4663370233922566,nm,0.0
103.769057,-29.723853773742285,-55.62036227480213,140.62425869050907,-1.4678364140243632,-1.8386638867411431,1.195789151578336,1.2122700762872027,-1.3158119849200307,-1.2953865213508864,nm,0.0
103.77838,-45.611041217496364,-53.07496569061957,147.9017715388162,-2.291769407071706,-2.5408199197783494,-0.3783984549790223,1.2135913175803006,-1.481662692929068,-1.1239475977064224,nm,0.0
103.78789599999999,-59.75648358634154,-49.7878595685003,153.0340174228712,-2.2935317000757554,-1.8610007856624762,-2.3468750269232244,1.2185581741133547,-1.430469734575501,-1.1800283463903274,nm,0.0
103.797482,-71.33644624354598,-47.39399527389467,155.75894641987148,-1.5089525087930127,-0.8510807116205035,-3.7665453934505533,1.1819383731464892,-1.086518455755816,-1.1833636373320184,nm,0.0
103.816498,-88.65468127906816,-48.60082107084496,158.83682036128465,-0.0901618161920695,0.9716073042143754,-4.5036120701323545,1.1262282976931615,-0.09944440902585029,-0.870786750027683,nm,0.0
103.826021,-95.43550259175231,-51.30498691385857,160.7305650131938,0.5292401609723697,1.7256507885289212,-3.587782232904776,1.0128826957420372,0.20754742295807,-0.6481276473019046,nm,0.0
103.835609,-98.69169670225384,-53.97828560560446,161.7973658399103,0.77512836361386,1.8621172248366444,-2.887257974888264,0.5533950274336873,0.38085708590505096,-0.2925021336573256,nm,0.0
103.84510399999999,-97.92097085866425,-56.109824992049205,161.17454252634383,0.15158088614778947,1.5134458921173506,-2.6962228737698632,0.05906702628369477,0.43381587744576927,0.013820521160833992,nm,0.0
103.854626,-94.68261522597474,-57.635274426003065,158.63000657543714,0.20351881867050037,1.5254663060175295,-2.07525442744932,-0.2199440812217412,0.4096672121276129,0.04546957188565949,nm,0.0
103.864056,-88.45060697044369,-58.50359673133821,154.43447287409188,0.4332457276669217,1.6050223644728685,-1.7965947086021217,-0.5276771884204802,0.4237350482525522,0.23083515119602194,nm,0.0
103.873569,-80.11373526678848,-58.950294106809615,150.04077209175736,-0.3542646795322879,0.970440624065405,-1.5476139184150952,-0.7161347180667174,0.48517954443620415,0.5586136519172228,nm,0.0
103.90227300000001,-48.82452987554828,-60.67830569020215,135.027704039037,-0.5991776938072191,0.2228731585623981,0.8676234691025211,-0.8131667779765042,0.8861692938910255,1.0148584639202223,nm,0.0
103.911778,-36.83912575922872,-60.79185298468897,129.9819052816014,-0.5365446991460109,-0.6138016673310396,2.175775961369269,-0.7659639077671304,0.8873877544410756,1.091806933742446,nm,0.0
103.9213,-26.71494313753707,-60.31688012180488,126.26360176482989,0.06935286753951855,-0.7905236211968044,3.037097199984668,-0.6806496732907307,0.7342802420428617,1.0277824104069184,nm,0.0
103.949828,-9.702139825183966,-56.91475796742373,123.49199956313761,1.0509292001802508,-0.8417383313524507,4.105757958700848,-0.37016541704768796,0.1820297249429599,0.6041057790459489,nm,0.0
103.95933199999999,-9.370948775541391,-55.88503870239898,124.53666364382477,0.9177619211895828,-0.5139257437087957,3.9396223792340446,-0.18475472594533313,-0.07298902056612762,0.26796660931382876,nm,0.0
103.968852,-11.742762631933555,-55.00840238474287,126.2385634580556,0.5616149898825384,-0.6823640722183455,3.4825465912933544,0.019572703686530458,-0.30933198261152645,-0.04672565130508547,nm,0.0
103.978354,-16.37127122626637,-54.369622344535415,128.3654925618161,0.045912525501625195,-0.6606803660467817,2.8306432370436956,0.2297876815867811,-0.4919094885308232,-0.32635193016712916,nm,0.0
103.98786000000001,-22.512906710404597,-53.95240055910723,130.9695203543268,-0.34679182610225107,-0.7250965141075338,2.1266282370384864,0.4023931716725346,-0.5962194471265969,-0.4708395473928938,nm,0.0
103.997377,-30.361794019715955,-53.793203163619985,134.63122863859653,-0.8599418357853696,-1.2452565228565455,1.5132943265577663,0.6132574345837347,-0.690611079670897,-0.530819190132669,nm,0.0
