timestamp,roll,pitch,yaw,acc_x,acc_y,acc_z,gyro_x,gyro_y,gyro_z,markers,motor_input
114.00225699999999,-3.3437054731262106,-9.056898045832416,96.78870967472338,-0.16189346182803194,0.05121701334901221,0.15883250088630815,0.029930763408335833,0.13717836068352307,0.07157261990009892,nm,0.0
114.01178999999999,-2.8128034842490557,-9.371533167619175,97.11345269375069,0.14233361566915778,0.3048605358323994,-0.23593184157383557,0.06082118498252149,0.12021663074069976,0.0788386288616315,nm,0.0
114.04036199999999,0.3704792115146964,-10.642167645876512,98.76512634445464,0.47461061100169516,0.2644175030555452,-0.13908679518902442,0.08869469152386607,0.15877887885835573,0.14293372107018978,nm,0.0
114.049881,1.4525217657513982,-11.070970467651518,99.41794827528857,0.5887327139087879,0.16580875875832224,-0.09725272029440153,0.06140163579107382,0.23275313847825516,0.16765877427363163,nm,0.0
114.05931799999999,2.7414298312228738,-11.37806126629064,100.032821452465,0.47852140206717225,-0.01818754936376442,0.2699270539689494,0.027854246785380992,0.269132447028793,0.16927216879346585,nm,0.0
114.087854,5.478426692872452,-11.243281653876032,101.18732969306635,0.6838326429836611,0.6000537938588941,0.30148545811630467,-0.07765535404644724,0.18957510058561106,0.09635504509199866,nm,0.0
114.09737200000001,6.154925351128329,-10.896333054110814,101.46916022104053,0.7237957890528482,1.0339143176064822,0.12454739727446111,-0.08481324788258503,0.12619569162535982,0.07764121576742693,nm,0.0
114.11638099999999,7.079691967640666,-10.60450936678226,102.10915141970284,0.5703185164718773,1.4752307893981897,0.06639829364342896,-0.0065890527873719365,0.07460760998661205,0.07285154059419625,nm,0.0
114.125892,7.000871891828353,-10.959822923774922,102.38501637205636,0.5912715396283243,1.499855427450839,-0.06857835751420167,0.0819933119072887,0.009592239868726392,0.04733654719217441,nm,0.0
114.135232,6.695382031434024,-11.664008078404395,102.54864096906431,0.5958844859697333,1.2987009644135736,-0.17520262420733487,0.1598035489180633,-0.01839900359531189,0.01597136238421353,nm,0.0
114.14492100000001,6.166347456132948,-12.655308095842368,102.52717632143109,0.6370753011956046,0.9192898241900359,-0.16259662659869017,0.22546757424085911,-0.048203108489789565,-0.031163991465474015,nm,0.0
114.154449,5.386392655997881,-13.779394513956788,102.2952995301752,0.6751060209127924,0.4980646361330096,-0.2705490791003485,0.2618369768878004,-0.09029054535734655,-0.08638816309389184,nm,0.0
114.163949,4.403914104162556,-14.842787214594226,101.88804816666658,0.6167150310584244,0.05573835507665172,-0.3884363126428153,0.25763591859677953,-0.13199472699717515,-0.13408971574196443,nm,0.0
114.173462,3.093672177118014,-15.653068609255026,101.362700421628,0.4906116241389276,-0.4399131470480992,-0.2572526303581834,0.21964071750981373,-0.20552297696557517,-0.17774955304152654,nm,0.0
114.182964,1.256037133006534,-16.084261321274667,100.77148258825206,0.27232697707957026,-0.9176123138673032,-0.017943124561072166,0.1626680171437575,-0.32122218918920586,-0.22213851081993763,nm,0.0
114.201974,-4.914831971144499,-15.752754759095202,99.57299753549044,-0.6975446691969815,-1.6295685567099663,0.97679212941116,0.05976117356354293,-0.6950705300284916,-0.32096949836763966,nm,0.0
114.21148299999999,-9.464115617539727,-15.114427891378716,99.06695946916982,-0.9177284304777822,-1.5340802474929105,0.8261591760935908,0.02725195399323766,-0.8784810052131424,-0.34482432387499673,nm,0.0
114.221001,-13.816198223027465,-14.448762733648804,98.7780351612265,-1.9307359073453616,-1.8111622304541468,1.4147411334245366,0.010445222561265791,-0.8446320762020086,-0.2804589677477083,nm,0.0
114.23051899999999,-18.662262111923457,-13.98360131300528,98.64441039463578,-2.302759641469897,-1.6201677858790335,0.9159686388783943,0.06200454039256415,-0.9357095358308831,-0.26436040997291327,nm,0.0
114.239837,-23.191688317678828,-13.761016217941716,98.59384962509831,-1.8988860627240236,-1.221040887547732,-0.14412792408762412,0.0995403636249412,-0.8692816566852771,-0.22593489651673104,nm,0.0
114.24934400000001,-26.36842784563643,-13.869810781522851,98.55397940671803,-1.994251004255456,-1.158655839427672,-0.4916096625250802,0.12525789336233867,-0.5997589328060692,-0.15754822142498692,nm,0.0
114.25885500000001,-28.794776039718258,-14.456768485234798,98.38220592491926,-1.6824077604644891,-0.9215304260911069,-0.9221596850438278,0.19723909275646745,-0.4410408310912831,-0.15035831439600728,nm,0.0
114.268374,-30.35589110063721,-15.495945294172854,98.0175513250386,-1.0372577122590625,-0.5754287928886557,-1.175494140335027,0.26067823825232583,-0.26183775989572333,-0.15044322935734247,nm,0.0
114.277895,-30.672923370481918,-16.773467352471155,97.50181460660909,-0.8313058853082959,-0.3992199164741556,-1.0557478555172861,0.27343253421165636,-0.018701299628187732,-0.1173599593347505,nm,0.0
114.28739100000001,-30.26588407712584,-17.99903385844698,96.91260020111648,-0.4551861888103473,-0.18836151997481415,-0.9698905705635902,0.2455293153617467,0.11497429366570414,-0.09003820852485504,nm,0.0
114.29708099999999,-29.226740474242582,-18.859971228077498,96.41872663477838,-0.038154047994606546,0.028576657524151977,-0.9561271839867198,0.16021404113259383,0.22302463024586971,-0.029652938490120993,nm,0.0
114.30641299999999,-27.53865228228464,-19.12916917223742,96.18352458959855,0.14490738943511838,0.1690235331406523,-0.9437286804138265,0.0304513559932135,0.330607461554306,0.06605238360202269,nm,0.0
114.31592800000001,-25.38225620319559,-18.763231511763255,96.27588481009809,0.2594676265790931,0.3203582814324756,-0.8538838535102607,-0.10519671828209305,0.40524960195678206,0.16132352044935716,nm,0.0
114.325628,-22.632543631286453,-17.842162621718398,96.63902159929935,0.30070753327714467,0.420236234906196,-0.6535931746499847,-0.2301295334680601,0.5062206961788129,0.24756732624489863,nm,0.0
114.33516900000001,-19.111780660776414,-16.586961040075142,97.12606376548534,0.44199428853995454,0.645734973213416,-0.4466041632369661,-0.318386278784053,0.6463603067986367,0.30721550748036036,nm,0.0
114.344648,-14.538970710577665,-15.239372199101547,97.57139012560032,0.47268379244478015,0.896426081469889,-0.06120514913112082,-0.36855680215978154,0.847128961047662,0.3401386020518691,nm,0.0
114.354149,-9.157301972880017,-13.980326064956047,97.83194938073294,0.562630431563587,1.2620059640755126,0.5085339669614419,-0.37813954226763524,1.008203041682174,0.322632696568766,nm,0.0
114.36365599999999,-3.400565342463173,-12.834470998606504,97.88644549530528,0.9890258828257618,1.8347496627677111,0.6068691899057321,-0.36955808706918786,1.088218214166584,0.27554461629834426,nm,0.0
114.37297899999999,2.8595249115979096,-12.01127198094805,98.02662252563242,1.3654590573230534,2.4097314007208768,0.48563125702636417,-0.3222443387568134,1.1985577383949713,0.2936984891363552,nm,0.0
114.392179,12.957871436190175,-12.29940858969693,99.34975050245129,1.6340922243293783,1.8597421875324016,0.4809151419792266,-0.034372788105768104,0.8188286813548109,0.32207878150904856,nm,0.0
114.420526,20.682633343461323,-14.599560415966097,99.14132688302254,1.612154459217924,0.25704673929579464,-0.12091534444027209,0.10316804900734286,0.28294581252943923,-0.0792828377944465,nm,0.0
114.430048,20.467513021860505,-14.679383083480912,98.194679824357,1.4241322390096656,-0.00810411573162454,-0.4719416627154798,0.030073390226404623,-0.029194469148636763,-0.20718219043307334,nm,0.0
114.43973299999999,19.009316306808252,-14.33920902627588,97.21928838432711,0.9799466738902664,-0.7178338847456499,0.4251310610769049,-0.021210427244411616,-0.2798821727201094,-0.2750233801698898,nm,0.0
114.44923399999999,15.037176152305575,-14.046345952433835,96.23714002793179,0.5094024222744999,-1.182142403450853,1.1424047257684653,0.041245844607262286,-0.7636041650990895,-0.39756066494246467,nm,0.0
114.458751,8.618086664533102,-13.87325762722973,95.49213354336126,-0.20081204640744219,-1.8120108308284744,2.1321586702057695,0.10308087675159053,-1.2357220873928287,-0.4639660522887428,nm,0.0
114.46827300000001,0.214235420462037,-13.731578636657924,95.20239574367942,-1.2503892421996452,-2.4583694939013894,2.865445627972812,0.135082979602125,-1.621412726714073,-0.4626647993097457,nm,0.0
114.51571200000001,-37.11388305736749,-11.77543855631191,96.86134998240685,-1.4509347981672593,-0.4426659277095593,-2.13378793606466,0.09600518146741012,-0.8132045136376891,-0.20386146304172587,nm,0.0
114.544265,-36.98547036586431,-16.209887590929064,94.03768426287475,-0.17696507131848893,0.7748853740088463,-1.466879390500165,0.33304128683885315,0.4558941850671463,-0.1396583206797865,nm,0.0
114.553687,-33.15316751340123,-17.20322784448504,92.58587773738115,0.051072989712011276,0.847803189781352,-1.0007730243617492,0.16824129848760874,0.7512079500458078,-0.06586624774975532,nm,0.0
114.56320500000001,-28.226073326545286,-16.980996926442526,91.50378286322233,0.3703650692746703,0.8823734526962074,-0.6520412448681521,-0.06563528262936003,0.9468937193844538,0.07649837633763382,nm,0.0
114.57288399999999,-22.208908171880196,-15.67295932525098,91.2996759725895,0.3772198479375988,0.9682463589632272,-0.3335209992663818,-0.277356118766679,1.1560384874354552,0.2995432856054189,nm,0.0
114.58239,-15.66925712594992,-13.778332454307904,92.02218244307412,0.2686519849832171,1.1763320018340138,0.2613559159925339,-0.4031903717553458,1.2621226440993616,0.4774181436640648,nm,0.0
114.60123200000001,-1.8533099531598407,-10.55936277830898,94.97777559327588,1.2895877845308423,2.442941689900928,-0.051546623668248796,-0.3612092848942241,1.4166661859450709,0.6056827173892496,nm,0.0
114.62043499999999,11.861123763314765,-10.710281436266744,98.32868496691309,1.4313816883325436,2.000316718665491,0.731208018576822,-0.04113716085896567,1.1838645570319397,0.5212909415261439,nm,0.0
114.629774,16.005336276165714,-11.559552437442413,99.06092211188597,1.69836903393182,1.1975624551580295,-0.32502261651403774,0.053495389711331755,0.8399129002580492,0.3003335589329145,nm,0.0
114.648969,22.513034806396213,-12.356753304859108,97.15088559765566,1.5569631184357322,-0.2454686557294643,0.1149542058964747,-0.0316303467913865,0.5307933210331756,-0.181361453335697,nm,0.0
114.65830199999999,22.272640491406552,-11.995979964895305,95.40454824950385,1.5219574236455722,-0.3617512034778589,-0.30465875290132455,-0.05846134549237784,-0.04576954988596433,-0.367231606549345,nm,0.0
114.66798600000001,20.085450092391515,-11.532503663072145,94.20136553695237,1.2398478403637057,-0.844656788680564,0.25993132468327607,-0.04784566865474267,-0.42642512662089366,-0.3373254143774741,nm,0.0
114.677492,15.471853789150863,-11.784201580977967,93.98169167223564,0.5460274061937381,-1.3608478910795183,1.7652679781133713,0.12422335891446772,-0.890380488308931,-0.23700227692127523,nm,0.0
114.687006,7.593231088613419,-12.704264110848628,95.07676170636854,-0.3442668529959539,-1.6572069400528573,2.4301662274249782,0.315359561801615,-1.5138306912776804,-0.12049537273639566,nm,0.0
114.696516,-1.8431114404896596,-13.319312133022105,97.47000337128644,-1.3515943049152361,-1.9610073926909084,2.5008879518628118,0.3341317989876017,-1.807792443110871,0.04977230982950796,nm,0.0
114.70603,-11.148858953545405,-12.893293733122489,100.21953234933622,-2.7889020148462476,-2.562226616608282,2.0146450950119266,0.20598567397996084,-1.7974218701424098,0.12574814699905434,nm,0.0
114.724854,-27.7573767476183,-11.19715575299111,102.183946829372,-2.4586565960379083,-2.1659245533850173,-1.2684667724179204,0.19251956044779914,-1.47285239519666,-0.26598798825483283,nm,0.0
114.73437100000001,-32.967631409923996,-11.559772175718063,100.77955758433362,-1.822292682476216,-1.446451080220533,-2.0840080425696796,0.28588158375990075,-0.9799457090044092,-0.4833146649842431,nm,0.0
114.75348399999999,-36.67664754615055,-15.021720262305957,95.34179379464736,-0.7413253024065248,0.2215204219724301,-1.8899926712711068,0.4326549975695415,-0.11000251065111477,-0.6204627812425587,nm,0.0
114.762924,-35.63383887727075,-16.72275224904822,92.7684881203555,-0.3539727939056058,0.7998050234783155,-1.32213400737811,0.3376335368050623,0.23031453359616683,-0.4534939656456297,nm,0.0
114.77243200000001,-33.305104730450545,-17.22721952564334,91.0145647367004,-0.11585545061628413,0.9188661231031471,-0.8941725984863113,0.09857230354108441,0.4546929455634405,-0.2108403252483614,nm,0.0
114.78194300000001,-30.260654733016743,-16.374759319909618,90.48851988749892,0.15375743121223046,0.8664039046243306,-0.7340347779931093,-0.16578413559116917,0.5870695461293888,0.07434274952116973,nm,0.0
114.791436,-26.373413894666395,-14.611803178360033,91.22366041102154,0.24530505846453485,0.6650583316706964,-0.7178345750287136,-0.35153165491635,0.7510450772852478,0.35748591240174754,nm,0.0
114.80113399999999,-21.294598634638437,-12.597847722908261,92.75070948549745,0.022621964743659764,0.5146290955816958,-0.392287652386403,-0.4247107258581376,0.9809303299515247,0.5458709855857721,nm,0.0
114.810632,-15.291278801733169,-10.753215526338183,94.25781911463066,-0.08983943314683311,0.48454454758081694,0.29264662716941264,-0.42827635142911324,1.1601426406784456,0.5443462092676657,nm,0.0
114.839168,5.998207995275022,-6.7209624598025375,94.61068701792362,1.4016385009094667,2.3477374630414247,0.9403602528896747,-0.35000403495395205,1.469740862571367,0.08314502146957863,nm,0.0
114.84868599999999,12.947163591911233,-6.0250330050667324,94.35282593364742,1.7172563902566669,2.7288658121019593,1.3621333762915502,-0.23707045585849176,1.3756851354885036,0.09621997758448123,nm,0.0
114.858191,17.846315649847227,-6.021552488630606,94.7379136377732,2.0061106308655723,2.412360351130734,0.9810589256838782,-0.06898980257703562,0.9804852083408218,0.17247767018532503,nm,0.0
114.86751799999999,21.012601124556536,-6.668409999814502,95.60691093420063,1.987767639116485,1.8120310386153988,-0.3661395692413924,0.08057380184411846,0.647491781666354,0.23606332620841838,nm,0.0
114.877209,23.54885577417039,-8.171325567882123,96.5415964251805,1.7740456327593541,0.9646223139230373,0.3391173210668616,0.253778983525718,0.5412289824265284,0.24455420317180862,nm,0.0
114.88664800000001,23.86853559764967,-10.188005713950142,97.26575807075747,1.6779712548952384,0.264352576977633,0.9121589989148442,0.4009692420244409,0.12023349797440576,0.14729043390523924,nm,0.0
114.90566100000001,18.355538752985893,-12.918740762605447,98.4779728855932,0.8058432307659422,-1.1347134311032654,1.6626156762479387,0.3148539778641688,-0.6461643526681795,-0.04402896399030022,nm,0.0
114.92475400000001,5.501647215637831,-14.92166796570619,98.8214816915559,-0.41451403433929096,-1.9147405233068573,1.6049729121833927,0.4411326356556453,-1.3424438361962174,-0.3504179078195632,nm,0.0
114.943783,-9.39207223021063,-16.72063712319562,99.15069448568121,-2.1938307859641886,-2.9056063942990815,1.4357099900047763,0.3862602142232094,-1.408838166617095,-0.39178237666342286,nm,0.0
114.953104,-16.86189976269805,-17.16896384745469,99.30185815088193,-1.963358309013437,-2.417602458520018,-0.18386024059856318,0.3293186129129461,-1.389549044837472,-0.40506126308337,nm,0.0
114.962624,-22.885339152972335,-17.388392928410738,99.38540811366667,-2.007137420008714,-2.0855636444536003,-0.8969078726415373,0.24183700852284915,-1.1212646069065362,-0.33957907346462324,nm,0.0
114.98165,-31.35223494222785,-17.364785334113737,98.59532051923058,-1.2394158540278555,-0.7206719574773846,-1.5890001194343792,0.10249792081727482,-0.6747497527755989,-0.333405660053093,nm,0.0
114.991175,-33.31377872809033,-17.49367905528717,97.77832214647881,-1.0084954887978335,-0.20687126212784973,-1.5126100899491943,0.0905250424388119,-0.3602577850004605,-0.2770456755415363,nm,0.0
