timestamp,roll,pitch,yaw,acc_x,acc_y,acc_z,gyro_x,gyro_y,gyro_z,markers,motor_input
120.041147,-25.07300855429251,-38.50324222454814,75.97535465300584,0.7272616364976356,1.358497008280477,-0.25291338411453096,-0.14180029796805182,-0.18816865666402127,-0.2576280110539631,nm,0.0
120.05066099999999,-26.167449186554148,-37.56869800907725,75.32433938260417,0.9845340931298565,1.8014834680968854,-0.1206857334769564,-0.21069881187519937,-0.11964273331394723,-0.2608785754029968,nm,0.0
120.069661,-27.5939533965879,-35.92587907754297,74.39970127654769,1.2322777375165088,2.7340594864340093,0.5571482827969736,-0.14081777463715006,-0.07466673166547849,-0.13686162475055325,nm,0.0
120.07917599999999,-28.537135195855786,-35.65266387871023,74.56093135432862,1.1927768577349538,2.7873519537206684,0.6722783021562186,-0.08036627070843391,-0.13207486158822587,-0.07338981677576775,nm,0.0
120.088685,-29.8187260945969,-35.84574068960669,75.26164329607442,0.9284377469747764,2.327539955350169,0.4170747034374542,-0.0036201685146128293,-0.21025306593133752,-0.004613434309824314,nm,0.0
120.098388,-31.297960758506377,-36.45686184056025,76.36387231870076,0.6892789764973135,1.7102402624686286,0.20492189059689278,0.07317772130408585,-0.2609356549806592,0.05127596546997641,nm,0.0
120.10788,-32.36056791786458,-36.91386543687363,77.41867025381275,0.29372395809594504,0.8809628747615992,-0.22464722103432924,0.06348959964322064,-0.1859310323958299,0.08961998660839417,nm,0.0
120.11739600000001,-33.23499925097719,-37.2570254223081,78.38336487044091,-0.21071773751714998,0.27166281458824754,-0.2940630956090743,0.05088991126226762,-0.14989112115657124,0.09328845804621431,nm,0.0
120.12673799999999,-33.86500835443559,-37.40020934721389,79.07787419080697,-0.31232415024405474,-0.5480059091570931,-0.7874199036376202,0.021427731283512816,-0.10282940723087201,0.06839945970318971,nm,0.0
120.13623899999999,-33.81524810989007,-37.44626511807752,79.53912641510962,-0.7824489528517758,-1.0998756868812536,-0.6576267250608515,0.023428832821019985,0.007322892619095387,0.10424605572059485,nm,0.0
120.145746,-32.941368772539114,-37.248590698663556,79.56835767489413,-1.4476821438004568,-1.8054684933956302,-0.5091969138082382,-0.0007590635533630885,0.1453690333994932,0.1176834150366209,nm,0.0
120.174271,-26.828506164668127,-36.24171479232488,77.41589526127461,-2.005454430815827,-2.629654404737166,0.320835561492034,0.043062519709229086,0.3942228773422839,0.09849625044124925,nm,0.0
120.18379999999999,-24.56755249760462,-36.325955458311384,76.42418127901927,-1.3400099460698907,-2.2167211610445112,0.1545845033101235,0.11248087165198256,0.35342468448275766,0.07351493018170249,nm,0.0
120.202992,-21.491609646675737,-37.86882094564388,74.82115921317498,-0.4950487143297012,-1.1983659254727594,-0.08306708266649365,0.2425487183411155,0.10027052204044004,-0.029448978398313962,nm,0.0
120.21252100000001,-21.004016651551286,-38.90865087869995,74.18713716998164,0.26447509664661734,-0.6661352654153773,-0.46902778879303214,0.23472659037898097,0.019641233137780868,-0.06256636258636995,nm,0.0
120.22201899999999,-20.605770271666387,-39.78967276413861,73.71020957481662,0.09162767717034033,-0.4051599183745366,-0.4024150137383865,0.2002309073242936,0.011895642545498549,-0.041173000141507925,nm,0.0
120.23153400000001,-21.040738153886494,-40.36865372813823,73.2812117558731,0.4909394102392278,-0.04678932793316947,-0.6558589723334138,0.1058435882318473,-0.09562733507529739,-0.13810284378578444,nm,0.0
120.24104,-21.702101605703735,-40.410016508810465,72.79264761616889,0.5849543650658356,0.1773852829345076,-0.6278127995439785,-0.007921368746307096,-0.09789931023560736,-0.17965831406815064,nm,0.0
120.250554,-22.352687554200187,-39.760379368054025,72.10246574155026,0.3965845532656623,0.4086618517752091,-0.46115229925303763,-0.14052524986625928,-0.05501112206740363,-0.21805553569286787,nm,0.0
120.26006100000001,-23.18088303822986,-38.54780166426274,71.17305925348347,0.639946687110305,0.7883222532946399,-0.3817205544696781,-0.2574155413946271,-0.04502512208734357,-0.28674389974471776,nm,0.0
120.26956899999999,-23.719208172536966,-36.93678089278427,70.09622571989397,0.8657240621439305,1.291673919922168,-0.07358228918137874,-0.31905603934763416,0.026877038651166387,-0.2775696203410136,nm,0.0
120.28841,-23.92339729375581,-33.37435630152684,68.23072220361753,1.5372029511480334,2.7175476627820268,0.7825899573375974,-0.30451512422973304,0.11632336995199231,-0.15578681032510705,nm,0.0
120.298091,-24.121333615150956,-32.112093617899816,68.04820175644771,1.7143599727743024,3.208451411658061,1.120085234394806,-0.233300362110221,0.06328539781592604,-0.05431399950312957,nm,0.0
120.30742699999999,-24.732674358728506,-31.45090817051596,68.5912978148078,1.6608880530080423,3.0666841393126867,0.9158952278113432,-0.1477715069212265,-0.047569308948031026,0.047992004126287575,nm,0.0
120.317117,-25.845019840782886,-31.667967481484357,69.90936080903694,1.1389527428932202,2.333786578239407,0.636335625507764,-0.012937443627037486,-0.19247534068459424,0.1512852682542641,nm,0.0
120.345663,-28.64136825390327,-33.029624151831,73.89936088354644,-0.25739498410452677,0.02681534341031872,-0.10183701760125571,0.05383811615663308,-0.11448581556671851,0.15770914576071057,nm,0.0
120.364666,-28.358687700787797,-33.05981445330515,75.07162256239428,-0.8909415945986209,-0.8547934996091575,-0.04102164642539357,0.01443917218491157,0.08665095957962508,0.14871531539934912,nm,0.0
120.37417500000001,-27.49377028419841,-32.679972305656754,75.29242913892378,-1.3467847180937391,-1.308921695781952,0.17288899038469993,-0.0228834712562507,0.16151206768865597,0.14256445339677598,nm,0.0
120.38368600000001,-26.63818154902572,-32.480771978399154,75.65461529539526,-1.2936644878339916,-1.5213135971094198,0.3778065430291981,0.011080494802525757,0.15138298398126754,0.1689532570129871,nm,0.0
120.39318800000001,-25.443234289705487,-32.62813000460089,76.34339822302793,-1.8931512052846418,-1.9666347651627039,1.000910469766707,0.09094537057838809,0.1904762963609098,0.27063633749987404,nm,0.0
120.40271100000001,-24.33613889448688,-32.91030202525738,77.05280187199858,-2.080764031580679,-2.33913325371378,1.0097834541401836,0.11140859197405575,0.1706045466180489,0.2658178304881844,nm,0.0
120.41203999999999,-23.61503283688052,-33.41471830582976,77.57367778989341,-1.7276196056822044,-2.557088585458044,0.4311814895004686,0.13861410186394818,0.09810894117709895,0.18698144422966745,nm,0.0
120.42156700000001,-23.05455596375751,-34.426545388055686,77.87850593193545,-1.5516381232552772,-2.548130630547351,-0.11260174564238455,0.2312988886600435,0.0503660863450509,0.12735875668169405,nm,0.0
120.431062,-22.995059760863658,-35.762439090057676,77.76004876466921,-1.3677190860459159,-2.1351907272400013,-0.26797739140990456,0.2770487080861097,-0.0445978700998637,-0.013058863910892494,nm,0.0
120.44056499999999,-23.459134910306304,-36.829973956835275,77.05149389834826,-0.1998281577661575,-1.3597392515001638,-0.8393866221160778,0.20578496805381744,-0.11770198089068708,-0.19289450695172125,nm,0.0
120.45009300000001,-23.388838518668603,-37.51548162614668,76.13694807888197,0.2802479565113741,-0.5839137354933225,-0.9085578289913345,0.14963467618036047,-0.019162000947107613,-0.1705802040139924,nm,0.0
120.459597,-23.24950256466095,-37.942913967668225,75.3635632503512,0.5887302198264914,0.1382980675155317,-0.7502659789919325,0.10191155813757485,0.0018838561994726692,-0.13373860599410548,nm,0.0
120.48811900000001,-22.22331247972085,-36.45198638559496,73.94301319470695,1.6144895091608122,1.876744367009277,-0.17366828273239646,-0.16301165821480523,0.1475111113595994,-0.013143612847420223,nm,0.0
120.49764200000001,-21.69929544461011,-35.42096309667527,73.77472994502585,1.6397045257238518,2.2725688043307875,0.2612235038049148,-0.161049645293831,0.1405739971841954,0.03141502084793878,nm,0.0
120.50714099999999,-21.418886684612183,-34.581715065714015,73.86829812693057,1.7487389400482605,2.5987288029567224,0.5904657734071472,-0.1349071025932865,0.09267329274689651,0.054340522041604396,nm,0.0
120.51665700000001,-21.288058089033072,-33.90312100551758,74.08287409420106,1.6105483885283076,2.539239023854482,0.5765360912675952,-0.11093694669050246,0.06010619029425797,0.06101504554287012,nm,0.0
120.52616800000001,-21.471881479319496,-33.824065739499645,74.38780809531089,1.4305597823315084,2.1846015806834926,0.39450064811019886,-0.009852663969968698,-0.023282570302398616,0.04388518950923761,nm,0.0
120.535852,-21.91774178072207,-34.39758638181103,74.64668937403617,1.0481241586726977,1.6467652452178507,0.40934362834902965,0.10460705417802442,-0.10009198618303175,0.005244881261966915,nm,0.0
120.55487500000001,-22.89876290031679,-35.54677083389517,74.26726074639069,0.4991244297652592,0.6158060048339279,0.0932395190342191,0.09600713568856419,-0.10151659987595112,-0.10982789826321522,nm,0.0
120.592916,-27.512355807412305,-35.83841302917483,74.97755192976743,-1.6472288559034962,-1.3823076850026046,0.4876796937694966,-0.13882897100755884,-0.24898596259659425,-0.08369775310059537,nm,0.0
120.621254,-30.470020681899033,-35.966890250112314,78.60230015510798,-2.538432084900746,-2.6908620531945395,-0.13534627295177956,0.0460347279308839,-0.09705552197270254,0.1777807936049929,nm,0.0
120.630774,-30.666365464595344,-36.648366498472114,79.45645386733078,-2.0364337399479475,-2.627415549173494,-0.5481226121886436,0.1410620122438238,-0.05536891748483682,0.15297573995733985,nm,0.0
120.640287,-30.521539144524006,-37.72307350566611,79.87739793572985,-1.791931557608434,-2.192597714242904,-0.6164820817220196,0.22895951775878567,-0.014156711981022429,0.10709829504491072,nm,0.0
120.64979199999999,-30.518619973346564,-38.66791531991239,79.58332996953575,-0.6637135441375808,-1.3622093225470127,-0.9102836506251505,0.1993298768760756,-0.031732768554931894,-0.053161130334498825,nm,0.0
120.659313,-30.03480304534693,-39.19990591671141,78.84108631237176,0.1384424397546661,-0.5656934185645318,-1.0504988684775167,0.13184978929152372,0.055476619670471676,-0.08242316080137779,nm,0.0
120.669006,-29.222624764718752,-39.42514175299106,78.14839552777993,0.04453535807679661,-0.01569286362192166,-0.777053333836333,0.08244321084094489,0.11562270344252103,-0.030470359229047627,nm,0.0
120.67834400000001,-29.080649561424806,-39.318202534174844,77.61739520123822,0.6298145759581893,0.547133922003348,-0.6815444229628932,-0.003157153903830937,0.02720805490012398,-0.08313639755019124,nm,0.0
120.697359,-27.97094968159784,-37.6769256501011,76.76587219639273,0.9335409413109635,1.0724209577119614,-0.6067284510275045,-0.15094147362328042,0.17618209250586048,0.029089525715771766,nm,0.0
120.70686,-27.17382185182388,-36.61078174373646,76.24589267198051,1.2529074142334622,1.3719386904426738,-0.5766629169932365,-0.16456942392901927,0.1749250237102503,-0.003115870811842403,nm,0.0
120.716375,-25.921749995478926,-35.53258179097136,75.50161841421492,1.5284007852576489,1.7281116056963528,-0.2512304746626814,-0.1464789766455235,0.25065908246686114,0.0029127524945300846,nm,0.0
120.725877,-24.232877253396055,-34.49212826742582,74.59811916247367,1.4284556408131177,2.146713837715864,0.34139818736843863,-0.11627908626021467,0.32285725190273973,0.01705560990013319,nm,0.0
120.73539199999999,-22.831191285803826,-33.56365786546695,73.75689127401579,1.7801065133026357,2.620843150965045,0.7133632297779283,-0.10180658451383298,0.2760231198754389,-0.007790434710745215,nm,0.0
120.745081,-21.97570438154937,-32.84628786260093,73.30414252136124,1.7121013295906455,2.7228821804480927,0.9285702974059263,-0.08341803506774123,0.1797436462563317,0.006503354585486118,nm,0.0
120.75458800000001,-21.907878976807062,-32.59896095472035,73.36957053120292,1.5662558045029922,2.3879706074458578,0.7639665788806917,0.0,0.0,0.0,nm,0.0
120.76409799999999,-22.360438312485012,-32.83722476799907,73.7355080093349,0.9662767340879532,1.6195830098283688,0.6576671988463724,0.037870464671908716,-0.0850059789380361,0.027700419081428434,nm,0.0
120.78312500000001,-22.88237830262805,-33.54500153909735,73.64059591162858,0.17152463019399417,0.061244644642052745,0.24293804203164657,0.09198632029113873,-0.019972688775610113,-0.03838212946012533,nm,0.0
120.792629,-22.55844975081445,-34.0463819662727,73.26529073910409,-0.5405440559370007,-0.6270519619184122,0.4684458462397861,0.12526983968013491,0.024489538353085528,-0.03550050304932188,nm,0.0
120.802145,-22.428745954531824,-34.45533940609062,72.92264652081114,-0.9283836876681163,-1.2917050664415939,0.5382163087986666,0.09827720688740946,-0.0019538486000510316,-0.0504081710760239,nm,0.0
120.811654,-22.320570496902715,-34.67557703284638,72.87163820390235,-1.4061083179924176,-1.867491123895847,0.8298002298146334,0.06108186801421556,0.005392579313979484,0.005654941494300289,nm,0.0
120.830498,-22.876627899427653,-34.91898737020931,74.29909750979935,-2.1834364988694497,-2.716846551798406,0.8459613928500057,0.012399691241679278,-0.09549385341622016,0.12990570106835714,nm,0.0
120.840003,-23.675724393777244,-35.074127396590036,75.48478975093214,-2.0124084364561847,-2.823983611366888,0.453085183642327,0.009405047799493972,-0.13288618655371146,0.1494885304797045,nm,0.0
120.84951699999999,-24.506669882898393,-35.399566910207945,76.611383441571,-2.0615046419674905,-2.674974642739369,0.007449546666727257,0.043986209250984946,-0.14570499509855603,0.13360636415684618,nm,0.0
120.85902999999999,-25.917862721133634,-35.97266445002249,77.3608145125767,-1.4170099076600375,-2.090356265018903,-0.44117602876522616,0.07353885364561744,-0.24761147134643788,-0.010457314509866391,nm,0.0
120.86854500000001,-27.32204578824183,-36.53406201518904,77.57748995873136,-0.6734548836933744,-1.3061617968747343,-0.8466014823242686,0.07386919755943457,-0.2440552815848737,-0.11826387509005623,nm,0.0
120.89709500000001,-30.956627252841958,-37.16919094522666,76.52154234954385,0.7390939774858766,0.6574935552223911,-1.0028533790414318,-0.04426797941314464,-0.18210956481545013,-0.22891912573670514,nm,0.0
120.906585,-31.743350913903914,-36.655553741335474,76.11118108671901,0.879722509186053,1.0156192409556646,-0.9334821231728494,-0.11664643616134046,-0.09726628974062605,-0.1713578592334709,nm,0.0
120.916086,-32.17889896285217,-35.708767900935285,75.66347105794662,1.1050854066928266,1.3481067933207955,-0.82883529804849,-0.18795754968868233,-0.021318575257244603,-0.13569641120928516,nm,0.0
120.954128,-28.33589303813488,-30.62447214758518,73.0518252063575,1.6815360956276122,2.968405947467609,0.6830767654814283,-0.08950394990886297,0.263191216952589,0.04012761931891623,nm,0.0
120.96363,-27.364008898854195,-30.404326247602032,72.9487762219286,1.6284139408143703,2.6543680032390577,0.6395958403599599,0.020405685441006224,0.17427145372722985,0.08232020156753603,nm,0.0
120.973334,-26.799223228927573,-30.8325986310694,73.22207742968241,1.0372455584115285,1.8686880807226371,0.678515300461066,0.12393716410656036,0.06930938635906983,0.11639021516271077,nm,0.0
120.982842,-26.730630193162547,-31.361162184228544,73.32513438855261,0.49451449674104,0.9967322308415617,0.3810277944228091,0.11830886523198231,-0.018063018212865017,0.03182731711411902,nm,0.0
