timestamp,roll,pitch,yaw,acc_x,acc_y,acc_z,gyro_x,gyro_y,gyro_z,markers,motor_input
139.508842,-15.659563229995927,-33.84725627786151,83.59218980904562,-0.607141448027223,-1.937340701368425,-0.7054317886422159,0.3653858177325125,0.36285859406470583,0.36573406247823126,nm,0.0
139.518356,-13.688265796878675,-34.78796762995691,84.37484772744294,-0.37155785885414755,-1.8246135342939054,-0.8691113677991265,0.23461630876859707,0.3096320022595428,0.3812839888624429,nm,0.0
139.527857,-12.151979659591726,-34.9722338378065,85.10434477789192,-0.412959114655636,-1.7293763114001073,-0.7996591581499276,0.07288012982801283,0.25341189912221096,0.3237550050089794,nm,0.0
139.537387,-11.349107909836343,-34.8542972455227,85.59301981241885,0.07124639391655645,-0.9462951041632034,-1.194961737564406,7.250476389378214e-05,0.13900998111020918,0.19146798242950638,nm,0.0
139.546875,-10.589453887317415,-34.79725864419461,85.83687935247157,0.24449110588562883,-0.1948387147744503,-0.9487278914128563,0.010809920239502602,0.1312160473622206,0.13716906113059985,nm,0.0
139.565903,-9.413353148460507,-34.416132938848826,85.580587575157,0.42406317736630444,1.053887709016647,-0.4117480199315826,-0.0290143627055929,0.07669731709524752,0.0024405845737880206,nm,0.0
139.584934,-8.373206145613024,-34.470998828221546,85.24228028866894,0.5236444263973635,1.7881885913163906,-0.09343019978582366,0.047010400742762255,0.09901168518507794,0.040562365535429905,nm,0.0
139.594446,-7.634664414675794,-34.66676792376617,85.17664533017152,0.7129988033696194,1.9483558502329401,-0.12175828871782517,0.06204917225246004,0.12414099056180898,0.07170946482450839,nm,0.0
139.603939,-6.34728891137968,-34.733130551733765,85.18379265301228,0.7462599033374722,1.8291178067596578,-0.16415926544890286,0.043798646856349495,0.21630484004256878,0.14890617330455205,nm,0.0
139.613461,-4.476923047891907,-34.55301697316269,85.19768915560245,0.7934462965926934,1.6968987674883627,-0.2760431166596279,0.0025383148294338695,0.31654176502227815,0.21606051814173524,nm,0.0
139.632467,1.6433619439970655,-33.25366865731384,85.03000166650152,1.0810500925762034,1.6666029582349613,-0.2919207379197116,-0.10056232297066894,0.6032674606902554,0.367465684358085,nm,0.0
139.641978,5.8115272042970885,-32.08231092612294,85.07379267668352,1.3607099211158047,1.8656471369526784,0.13397589020253678,-0.16113469029703795,0.727890367149407,0.4575518369044666,nm,0.0
139.661182,14.528323874817122,-29.747934695867546,86.85006673450452,1.9738386038032165,2.6223608712702555,0.9059377756002496,-0.14885678788898918,0.7603526582592429,0.6784909029701197,nm,0.0
139.670505,18.265197475349833,-29.222106795287758,88.77634647483652,2.055719871778644,2.7876458000197144,0.8288477436029112,-0.07056370640058246,0.6644712139038109,0.7497333833182598,nm,0.0
139.699043,25.22826034423025,-30.63714100734371,93.3214160558768,1.8130295477322202,1.432462058886874,0.09279414598223573,0.10684638204536293,0.2961984850654258,0.2970859555432728,nm,0.0
139.718059,28.420567299407853,-29.850665046460243,91.45986445864445,1.6768727444544531,1.1501648796272448,-0.046291196829024855,-0.14966823365659973,0.2693173450427714,-0.12486616723641862,nm,0.0
139.727573,29.267596981092556,-28.751460947780863,89.952555155391,1.6747710840353494,1.483159767544703,0.04679096957867724,-0.21406503314619252,0.15556000290397504,-0.22448801442859645,nm,0.0
139.737079,29.146367642259005,-27.78548648537547,89.06812373522746,1.5655872036934402,1.7883847207101737,0.27605253783627776,-0.18558730444424412,-0.009578785393899333,-0.19444964791424252,nm,0.0
139.746763,27.85826430591863,-27.33989024816077,89.1316148812014,1.2656281794621562,1.8598964199206833,0.41405306736100017,-0.08458258343512332,-0.2171917746786656,-0.11241996296123222,nm,0.0
139.756112,25.923504988741982,-27.461811163157,89.944075211796,0.9628368431061833,1.9031462428996835,0.0832968019864035,0.030037655143229067,-0.3340918840712977,-0.02113307304141042,nm,0.0
139.775313,23.643103663163533,-28.398454635094463,92.28293592530613,0.471645116247414,1.019969212337173,0.1333991892776226,0.10691341959032132,-0.13925860871800627,0.14618620387302556,nm,0.0
139.78483,22.659225612427498,-28.671367521373394,92.9958037182155,0.2726854575467111,0.4180972684090268,-0.012579421637408087,0.07095281147667444,-0.15999617605934255,0.04377078849338176,nm,0.0
139.803843,20.260561887511862,-28.09221820496507,91.62940216157047,0.06855238460351804,-0.7171462310180481,-0.08824506932194393,-0.08921324891630325,-0.21054426272507346,-0.3622235210949207,nm,0.0
139.813369,18.63762130702048,-27.08739512210386,89.54383398584527,-0.03809933263396903,-1.104691155757305,-0.03089586074188937,-0.18863213314201685,-0.28072662204853016,-0.5726243334690335,nm,0.0
139.832404,14.45973699353046,-25.298457541368833,84.83257823614329,-0.15575486155218002,-1.2011745650382122,-0.1792992455396933,-0.1586759929149814,-0.34528746695712914,-0.6193243315483936,nm,0.0
139.841914,11.27773980927592,-24.68809680894323,83.53899399945578,-0.6585992142924242,-1.6870831603587122,0.9220104076001711,-0.16862674082329962,-0.554716309717887,-0.5319424515373506,nm,0.0
139.851441,6.060086618961437,-23.78271951164095,83.31239714017919,-1.123189287812815,-1.9264557716893933,0.9277041820336457,-0.2770500685230204,-0.9188175714327526,-0.47725038547209797,nm,0.0
139.8609,-0.07655714700344313,-22.621190765189706,83.87684634377005,-2.0672454252783026,-2.826617098682148,1.5559969211921927,-0.3444402552170076,-1.0900026271276837,-0.37328059581275735,nm,0.0
139.870226,-6.576804966731217,-21.414240460835952,84.66763435942936,-3.0525794950779246,-3.5576685516663673,1.6420749126281122,-0.3478320707352053,-1.1705183391198106,-0.3307611774954769,nm,0.0
139.879744,-12.778447056861737,-20.214375057097893,85.21216942592046,-3.633460842025434,-3.6592157712700946,0.9476598880703758,-0.32845579895359955,-1.129434785412238,-0.3321996156209156,nm,0.0
139.898758,-22.254725371993235,-18.21940189664516,84.71776966077786,-3.7640854814656524,-2.8541087850455336,0.260649423962357,-0.21979692681592947,-0.7632478751773898,-0.36191042197852835,nm,0.0
139.908262,-24.809054911244846,-18.10823521355306,84.05013379170401,-3.16667321731957,-1.9384757798235142,-0.08944741638245689,-0.056497830581212945,-0.47693834468946295,-0.29065877153446296,nm,0.0
139.936808,-23.861051043548855,-21.51252918616975,82.85092627875768,-1.5016737148018386,-0.9031133384219844,-0.09439792202386015,0.41200590071514487,0.22700753089922604,0.10467725818919242,nm,0.0
139.94649,-21.810787183234453,-23.843175999592994,83.37377003134786,-1.263227112914383,-1.259215745816071,0.053855661541673205,0.5220266387338711,0.32456104095251315,0.2653767364591612,nm,0.0
139.955831,-19.588274823436386,-26.07791285590903,84.16220138125223,-0.9875461369011818,-1.7824553976098756,-0.1885478308412015,0.5018538541986978,0.35727753191287526,0.34785212524203213,nm,0.0
139.965332,-17.550420121353955,-27.97909306448231,85.02081195937409,-0.5702970315314972,-2.1047462524704574,-0.7904495805948009,0.42639497978979846,0.33108736850243853,0.359345940819093,nm,0.0
139.974853,-15.65533078364213,-29.547212877500865,85.81294824783801,-0.37700614142318867,-2.1298528949552744,-1.028557457289464,0.35261252873735105,0.3119184220835109,0.343011806419753,nm,0.0
139.984363,-14.128651663527313,-30.515206604475846,86.2762351070762,-0.26436685098326757,-1.8460566157776472,-1.0204452159479904,0.22457912202854066,0.25630848422200964,0.24739246072853333,nm,0.0
139.993872,-13.096864714218999,-30.714274519184645,86.30012566397315,0.16601050514868976,-1.175875866165674,-1.1086980871560679,0.06420210890927228,0.18059968720359837,0.11146322846822447,nm,0.0
140.00338,-12.124243163839528,-30.506078303368678,86.10704944735242,0.2011684000747817,-0.5126693931381208,-0.8507298533128156,-0.017601615690709234,0.17582492317616571,0.06176483464036289,nm,0.0
140.013073,-11.524313622412638,-30.41992332283228,85.90677883955958,0.31641239299517027,0.37850949267162926,-0.6814609214323494,0.002899682726087534,0.11033220981000086,0.021933924268229033,nm,0.0
140.022399,-11.294205819073456,-30.590148561919047,85.8376175720529,0.554763745683651,1.1314844263034483,-0.509838291407841,0.0497564376141752,0.042983874542365214,0.010648170455322747,nm,0.0
140.050932,-9.369282094538665,-31.688029161814605,86.7519881811909,0.8165124593696853,1.7980122111491375,-0.2869580644675303,0.11554381219939341,0.18295500265869025,0.2038107735691514,nm,0.0
140.060444,-7.606725161592801,-31.667760603041028,87.07622887721305,0.998481963760676,1.816817292560869,-0.1643636051359346,0.024723724974336968,0.3066820722854912,0.2508208615102624,nm,0.0
140.06995,-4.914045675737929,-30.99938417203744,87.2464004667558,0.9445769572259317,1.5596323997575114,-0.1052540235480678,-0.09841726071266282,0.47350931560457854,0.31443628123040995,nm,0.0
140.079646,-1.959470098610919,-30.396669378148292,87.31723916675558,0.9549243550531806,1.4546744597957497,0.04259641179069538,-0.0841852329961352,0.5211082085296783,0.31558848769902825,nm,0.0
140.08897,0.8958141259758613,-29.882096354331715,87.2822419391587,1.2618099727440273,1.7371665772376823,0.12789881014738802,-0.06761230023718216,0.5062723720756689,0.2788646350901971,nm,0.0
140.098469,4.09380844660042,-28.982723947403127,87.30335057455557,1.5969805006633169,2.0890428560048404,0.2610225031914373,-0.14179920369116802,0.5734393670315927,0.31700268122996705,nm,0.0
140.108158,7.61231004907423,-28.0529526107148,87.67807229750302,1.7480949557825574,2.4172764519143417,0.7307144263434074,-0.14754951595704482,0.634856849461184,0.4087437010134177,nm,0.0
140.117487,10.945197811055799,-27.609006052447526,88.59845225111869,2.079472215012438,2.9608572688596833,1.0566906724453433,-0.058876024924375714,0.6014743475295583,0.4925571581822011,nm,0.0
140.155717,20.52816835408572,-30.69920577203239,93.98556467732124,1.753572224730743,1.746756181074247,0.6605805615746888,0.28834875625396655,0.26993487956436263,0.2592517333727929,nm,0.0
140.165058,21.589685474197463,-31.665033295281685,93.72281104763395,1.6563890015419336,1.5802409130003972,-0.10794648393311863,0.18917160099628916,0.20508815069935385,0.053310355139027855,nm,0.0
140.17456,23.0762088477963,-32.03504126772978,92.72778685719412,1.5256356508345958,1.2335581551744887,-0.024775452674865736,0.06812750619177156,0.26723981355387927,-0.04642597629588411,nm,0.0
140.184063,24.182115529475173,-32.078317367463264,91.434052442229,1.5251074668605118,1.366981161320187,-0.14144767835724964,0.010286055491205889,0.19839004769039142,-0.14592752236610904,nm,0.0
140.203091,24.968552692835594,-32.109643874087226,90.75996513360657,1.3257096567840365,1.5752001154905377,-0.02775723850556704,0.01919198432177503,0.03799117897234197,0.047900990641085724,nm,0.0
140.231813,23.22036827337135,-33.467978780228016,95.12913486216955,0.6389016877451537,0.6270364239024785,-0.2682717826901643,0.11802645966131803,-0.05654858351775672,0.2668905620837023,nm,0.0
140.241309,22.506874031093055,-33.669706748899166,95.98882842328204,0.471673519039637,0.22463088948638918,-0.6965347840797406,0.05955758421590799,-0.10338498375200818,0.08918058172635214,nm,0.0
140.260172,22.29613846676885,-32.59389520475379,93.84730894976713,0.19787633817082376,-0.9702813613233063,-0.6918697921479114,-0.156813780773713,0.008573677091647252,-0.34691094817534246,nm,0.0
140.269665,21.925966171692657,-31.322967750140563,91.05246061092618,0.09738723669188142,-1.3882320454651238,-0.7717212768359062,-0.2427303927000708,-0.06352931792073355,-0.6031135657192478,nm,0.0
140.279173,20.57496120879761,-29.987220786126173,87.89904950275309,0.01395258218752404,-2.1294077052302347,-0.1331489518596315,-0.2600094965257548,-0.2208527916170266,-0.7736349366508418,nm,0.0
140.288871,17.158845256433,-28.810446543518694,85.14876723573421,-0.3407744248455291,-2.9945240533443487,0.861818284200797,-0.2608056603425573,-0.5721357949121749,-0.8903966296663679,nm,0.0
140.307883,1.2856919722381501,-26.366454062548303,82.41573222778197,-2.727157710086507,-3.5431485702721477,2.2602824057718265,-0.46265665680769646,-1.6401446937131217,-1.041276035294917,nm,0.0
140.317404,-9.524015335645734,-24.486279758167736,82.3644648835678,-4.110034415247263,-3.5072520780763266,2.7751881529360176,-0.6178127279821843,-1.8828367910018236,-0.9396636629624329,nm,0.0
140.32672,-19.700205603689245,-22.46082730944747,82.88613737440109,-4.210232555011073,-3.0825372809018643,1.1086420913857464,-0.6277413867748767,-1.7972068128024137,-0.7056948917932111,nm,0.0
140.33624,-27.290673251668686,-21.186048285439725,84.00957470195522,-4.017015019297018,-2.630591415454899,0.0183619688855996,-0.401046732668278,-1.3684288994466003,-0.337137155578343,nm,0.0
140.355247,-33.90500362978552,-19.935389041043717,85.30369564931678,-2.8188556037843115,-1.6298062801033713,-1.4299609775341604,-0.09850058173638039,-0.35884924010917196,-0.07407180265502497,nm,0.0
140.364778,-33.723789559567244,-20.92276652434345,85.32040286814527,-2.548890926328679,-1.384045724656947,-1.203972653084024,0.21266458683928738,0.02178713466580562,0.0205663542153959,nm,0.0
140.393284,-25.258241414801237,-28.39286692141981,84.36065355809498,-1.2170674149742433,-1.1228851603398904,-0.1026863035076872,0.5117176500919287,0.6430814336508792,0.24609867490478013,nm,0.0
140.402804,-21.654818246711468,-30.08254185246286,84.44850683966469,-0.691233260341685,-1.3690173186507957,-0.27222886111798966,0.41121179117002604,0.5980701698569606,0.3730585823363191,nm,0.0
140.412331,-18.708351504301525,-31.3277417070364,85.53875452851214,-0.28699519684488484,-1.461564842682291,-0.4771842240165478,0.30573305126676026,0.48857264389265037,0.5221166811330773,nm,0.0
140.421835,-16.328055255553252,-31.890856489818983,87.34725656914878,-0.34400096165554545,-1.5871744719502767,-0.6036741828742187,0.1506336274234864,0.40379693839426595,0.6140787933928993,nm,0.0
140.431351,-14.920430639280596,-31.97291015430522,89.27508834806167,-0.1473841088389317,-1.4754433429005547,-0.8869539875169217,0.03614436398385458,0.24484452516090316,0.5369977696511454,nm,0.0
140.440872,-13.997089965054696,-32.03595101105886,90.81588862555196,0.24061606737568822,-0.8976048798387821,-1.1413243409860687,0.024963521930413395,0.163438989513257,0.4082569539097284,nm,0.0
140.460052,-11.758623438668348,-32.25116361688914,91.56310512781474,0.3421823163190958,0.2594511614488945,-0.4768704635723872,0.023103765920678573,0.18747395981047446,0.1037144046863674,nm,0.0
140.469566,-10.612891152799872,-32.34783323462863,90.9891336739838,0.6532290008008246,0.9008451780994561,-0.29036263223333575,0.027322728886020407,0.2013209892166941,0.008867134326282184,nm,0.0
