timestamp,roll,pitch,yaw,acc_x,acc_y,acc_z,gyro_x,gyro_y,gyro_z,markers,motor_input
110.00791699999999,-23.193142706021376,-46.6469459888658,135.55386890089758,0.09674717998202555,-0.546143610438616,0.6170219201734308,-1.0398301448655443,0.9352452533746992,1.1099048719919822,nm,0.0
110.01743300000001,-12.885984190952335,-46.046615353742496,133.81223158807416,0.7261011359433355,-0.19086249387630944,1.166203885842973,-1.0819370880699746,0.9414012984995404,1.1483397474866326,nm,0.0
110.02693300000001,-3.035435206131704,-45.10419561488882,132.7737529470441,1.2280440582016952,0.4426208993835908,1.3784254100913942,-1.0800314989783237,0.8893913563079976,1.2027005429052118,nm,0.0
110.03644499999999,5.987303660111828,-44.15058098460975,132.7165110002876,1.5751538323196168,0.8977403206387788,1.320085219757537,-1.0105769804755842,0.8290379151468003,1.2579474657976628,nm,0.0
110.04595599999999,13.684485282431167,-43.65681493779218,133.41877901381434,1.6254163923061158,1.4157339861134715,0.9708717992795332,-0.8299383937165229,0.7581585947007708,1.2083249204394393,nm,0.0
110.055465,19.984722793728835,-43.682064398830605,134.42921173147462,1.5413156850469047,1.6708935749376173,0.5201802093287158,-0.6302599728025585,0.6749827043277934,1.0715426232322212,nm,0.0
110.102948,24.835733285403954,-43.890447152439584,133.0682703889827,1.064293119090832,0.5569181250121378,0.37312228956468313,0.18757303439982817,-0.3100198173494296,-0.6076721428576588,nm,0.0
110.112449,20.755216277202177,-43.57699615045197,131.53418405375166,0.7004857230228515,0.10542816757153527,0.7529503542234276,0.3509147905787984,-0.46494638615946504,-0.8738655327439765,nm,0.0
110.12196700000001,15.37733810172554,-43.56362878165413,130.00606678099916,0.397102230719123,-0.4501701475714984,1.216986021589408,0.508868312332152,-0.5787209653684946,-1.0493400921249982,nm,0.0
110.13147599999999,8.814843254820431,-43.86784052971553,128.70786512289556,-0.1195137710306276,-0.7710629686971713,1.113814885441819,0.6522551765672351,-0.6820602476693371,-1.1682820996847052,nm,0.0
110.14099200000001,2.0573499491684024,-44.50648706618102,127.7606867206147,-0.6162533114869192,-1.079721917866183,0.9483753647976697,0.7050508338376426,-0.6696632925870061,-1.1320033904613578,nm,0.0
110.150498,-4.415445377285064,-45.322357729666344,127.08396762927129,-1.071811124283123,-1.570377490961292,0.6409889605396025,0.692735162512411,-0.6168043879064734,-1.0488352782805137,nm,0.0
110.159819,-10.470518331097551,-46.19932645417028,126.45248766092746,-1.3966559947446193,-1.1571402196288707,-0.08255049367656632,0.6532131947596703,-0.560233375123506,-0.99231915864804,nm,0.0
110.169421,-15.138550594740874,-47.007425851141036,125.78886323787334,-1.4779713154591259,-0.9492017573992949,-0.6878021955476682,0.5162654560907006,-0.41163544673591185,-0.8085110541414737,nm,0.0
110.17892800000001,-18.38634128646445,-47.82939523155262,125.17762142082968,-1.5486921323523206,-0.9152614945746207,-0.8215549728226534,0.39697101185005584,-0.25149713649451766,-0.5971315618729427,nm,0.0
110.18844999999999,-20.55556414469521,-48.500504976217435,124.7011783741012,-1.397607708288925,-0.5035152126242044,-0.9899038658621043,0.2839474160452217,-0.14959503959256812,-0.4145470573752557,nm,0.0
110.20745299999999,-21.591832062802904,-48.651449586799785,124.72910049177503,-1.0679785589788684,-0.2907155057017799,-0.6655112899122281,0.0,0.0,0.0,nm,0.0
110.21716699999999,-21.099933849519797,-48.254434436471996,125.4375215401345,-0.8126523006418516,-0.1216233706122347,-0.5156130126796895,-0.09490457108654747,0.018805319113399884,0.22007303261005465,nm,0.0
110.23617899999999,-18.055546245209097,-47.307059082726305,127.59388322494027,-0.4078471857074639,-0.2304389495430102,-0.24790825612216763,-0.2178403789576248,0.15816476444276154,0.49935904719677415,nm,0.0
110.245679,-15.673890853594083,-47.03922819269347,128.4152753980037,-0.13746344224729773,-0.12837611401554855,-0.271846597358646,-0.23544726916540154,0.2345992928162545,0.5178412817223211,nm,0.0
110.264713,-8.907004743675262,-47.17149033350823,128.54727832121623,0.22984953029518568,-0.3607968635843222,-0.035906837168918945,-0.27957918135802895,0.41451911324450114,0.4857449302503995,nm,0.0
110.274248,-5.373314607442077,-47.25597376799615,127.75174538660372,0.4589643285978583,0.022094453076586546,-0.23297804311337947,-0.27836115848575876,0.4014524384441456,0.36224861370014055,nm,0.0
110.28378000000001,-1.8279064968915806,-47.22544014118311,126.73581049254726,0.5713403133045841,0.04206101795978383,-0.1460823444699144,-0.2916267825302739,0.39320510342346027,0.3195702514783824,nm,0.0
110.29324199999999,1.0742925476969403,-47.017536628001686,125.78950921319213,0.707462525701259,0.08196293925680147,-0.07584613671148939,-0.2627568791464627,0.30756495394104744,0.2376628154495823,nm,0.0
110.30273199999999,3.0408439796903632,-46.64225063066162,125.16935017328242,0.7267196632477576,0.3726586716822399,-0.1378085018987183,-0.21304698907058428,0.1892068559492581,0.16393291064315885,nm,0.0
110.312243,4.285196794113988,-46.156615908028535,124.99369050888549,0.6699743763004936,0.3231370656646605,-0.05212527289692857,-0.17399693433499405,0.09823188311789988,0.14589900038707265,nm,0.0
110.32175699999999,4.704680105811295,-45.67517912972586,125.13327266616136,0.5465983169770547,0.32390351374998544,0.04850628711445229,-0.10824415314874226,0.0059904547563772795,0.08876321561811885,nm,0.0
110.350311,3.8795646516957896,-44.44297945882608,125.28047280032196,0.1273832851251846,0.1486532009023979,0.12409191590021167,-0.019061633839339,-0.07298503705029713,-0.09508564359332738,nm,0.0
110.359815,3.5272825653550535,-44.17339134764567,124.7695510535114,0.05110983791295363,0.1681436679996587,0.05125195598667824,-0.01070633233015486,-0.05888473649186073,-0.1511342368489436,nm,0.0
110.369329,3.3835884864477093,-43.96864202207576,124.0579033416674,-0.005488064330114877,0.0751428189399926,0.05993322201605577,-0.017419691777868476,-0.02685708430869034,-0.16206234717644868,nm,0.0
110.38838999999999,3.223932604499036,-43.58908089303693,122.65424415901411,0.0037498041669018433,-0.0006974589573787037,0.06567442473233844,-0.02169447402867991,-0.01699396946387037,-0.13852030449340985,nm,0.0
110.39790199999999,3.041837304533654,-43.33895446490992,122.24299248387914,-0.015320618711523617,0.024288292885307403,0.02709803063970942,-0.022879622778461804,-0.036005508073659535,-0.10703952062680887,nm,0.0
110.40742499999999,2.8891206130250326,-43.02251365133908,122.09975970319245,-0.05266925311379071,0.07775912604660848,-0.0017532534287854956,-0.03652634110311886,-0.039428384200630696,-0.049252960648131755,nm,0.0
110.416877,2.9355434285374713,-42.652576143625986,122.14516428592471,-0.1018185702009668,-0.08499182565283657,0.14993651848593756,-0.06115027388011603,-0.020416170240842062,0.015695110722912596,nm,0.0
110.426379,2.963403630470655,-42.26838449991282,122.20065376700806,-0.14533917282516612,-0.026637628093027818,0.16305812833344466,-0.06211671148043279,-0.02427197594811759,0.015098758572936976,nm,0.0
110.44539,3.730913178913848,-41.65254701114315,121.92207354108113,-0.17822717034272953,0.0007084471965223451,0.2930967300358708,-0.08360983355799398,0.0534128657001314,0.027626472114671508,nm,0.0
110.46440799999999,5.143682644602631,-41.36209315156938,121.03372351455226,-0.10809243137834057,0.08137485926606555,0.28226038032967,-0.07168705573208313,0.10016865021342967,0.002878925784750576,nm,0.0
110.48344599999999,6.526165602240424,-41.350067772635036,120.28756669571307,0.00994818447275839,0.02287233285017008,0.2473208868283053,-0.038483450596203915,0.09315907231538346,0.020042767620436504,nm,0.0
110.49293800000001,6.947501496825343,-41.36954213047809,120.21184381879463,0.07712253802451248,-0.026697451223408438,0.2127439472473887,-0.02348861135267164,0.06993790565928228,0.04011331575619187,nm,0.0
110.51198400000001,7.106919976682668,-41.320186394422315,120.62236599254017,0.10547998744697894,-0.08053023464039365,0.13994135616221037,-0.000541055889312267,0.0049801217566881875,0.05050417963932595,nm,0.0
110.52149,6.980574579508278,-41.23464917604932,120.93506582830044,0.08118185735224404,-0.09189441725182106,0.1375413326543956,0.0,0.0,0.0,nm,0.0
110.53099499999999,6.805616572701023,-41.126631637304556,121.19083730811762,0.0689689460052475,-0.07802354710951044,0.11734580288902073,0.0,0.0,0.0,nm,0.0
110.540515,6.628921371509659,-41.02734212595113,121.33940487058032,0.03782523014476027,-0.03578240326085101,0.11250596601458542,0.0,0.0,0.0,nm,0.0
110.55002099999999,6.484290904024348,-40.95867809511322,121.38860770269113,0.016097357121228468,-0.005901489458393895,0.1126363275238194,0.0,0.0,0.0,nm,0.0
110.57855799999999,6.035758240259201,-41.014388923968,121.46314621082954,0.015235618065568255,-0.01776564232313105,0.0265668184110082,0.0,0.0,0.0,nm,0.0
110.588133,5.837381530330173,-41.03817050983831,121.60436769959998,0.015550442366034643,-0.025272566331228697,-0.025829540128985445,0.0,0.0,0.0,nm,0.0
110.597645,5.633311688831404,-41.00861509883092,121.80049032866135,0.03130453664252186,-0.05048808418719446,-0.05165615037358407,0.0,0.0,0.0,nm,0.0
110.626169,5.171674248992357,-40.78914232814524,122.2878318359462,0.009288430311209513,-0.0195979703077956,-0.056759036479485374,0.0,0.0,0.0,nm,0.0
110.63568900000001,5.098790524423577,-40.75653173448416,122.3293045785333,-0.014736912756758978,0.017493293645872352,-0.026295300824552788,0.0,0.0,0.0,nm,0.0
110.645198,5.059113885882565,-40.76484394657741,122.31859036402489,0.01280227246790368,0.035230994348840715,-0.026596326363886848,0.0,0.0,0.0,nm,0.0
110.65469999999999,5.033020961539053,-40.79675838599372,122.27998226291389,0.03390443300223741,0.02424929943933503,-0.002774526668285419,0.0,0.0,0.0,nm,0.0
110.664207,4.987170788109844,-40.81900782289957,122.23915045006122,0.039373150934941814,0.028088580450453864,-0.0031888090615925656,0.0,0.0,0.0,nm,0.0
110.67372599999999,4.907904628335806,-40.80878308317772,122.2104349090374,0.03996444481836278,0.028424805244780037,-0.0031824328340967407,0.0,0.0,0.0,nm,0.0
110.692756,4.624379000771957,-40.84216249815358,122.18978099451988,0.01637200834887643,0.046393153525373966,-0.035328563638571314,0.0,0.0,0.0,nm,0.0
110.71177800000001,4.20907890918011,-40.8368377281118,122.19398926673219,0.0433711640909864,-0.05430020586973484,0.07990183596297097,0.0,0.0,0.0,nm,0.0
110.74030300000001,3.6680131246254297,-40.31085476964465,121.94377838377537,-0.025149767094470556,-0.08994294403767462,0.02721923842076024,-0.0042612131038916,-0.026546599781002964,-0.04530188679431241,nm,0.0
110.74974700000001,3.5201890737580426,-40.150747960109726,121.74526669406669,-0.015554142439972026,-0.1544714107159838,0.14601602219167995,-0.010086766228359308,-0.022913548829127488,-0.05902368518793509,nm,0.0
110.75925699999999,3.299769313913029,-39.86069867390769,121.43416724938977,-0.025709736832115183,-0.19203765887745713,0.18018252819188513,-0.02643532095651968,-0.04607045114411766,-0.09083106183685008,nm,0.0
110.768833,3.204673313195849,-39.37313195961256,120.8767158901192,-0.09104371897206345,-0.05892345349913371,0.004690924355221924,-0.05530837782214519,-0.06945817946569545,-0.12387022029467551,nm,0.0
110.77833899999999,3.324241167346519,-38.80258746068947,120.11412589001094,-0.10554346981877906,-0.1194197328018656,0.06261410531180948,-0.07531676125291985,-0.05001935007831034,-0.13776146333673,nm,0.0
110.78785300000001,3.5453225356792126,-38.298183258955696,119.14363952619132,-0.1594600576768678,-0.05910887343139082,0.0338246037613459,-0.08504763421704817,-0.03930539044041818,-0.1669827969375103,nm,0.0
110.797359,3.824009240410999,-37.706841141444045,118.02079785133628,-0.12608963452105235,-0.07386344849870988,0.007721151184295117,-0.10534062656759942,-0.03333938141383901,-0.19084369844793211,nm,0.0
110.816382,4.811275419904745,-36.49339229360107,115.37902466259135,-0.08076904613247253,-0.12451480293681079,-0.04438649874563263,-0.10944312990428266,0.018442204452201343,-0.2107098747672841,nm,0.0
110.825894,5.437617801861498,-35.74416360982729,113.97199338815116,-0.001958217145942937,-0.19822253439020127,-0.028673409244363745,-0.12716208308651275,0.04102397157894078,-0.20893419861459628,nm,0.0
110.84491499999999,6.886146577647587,-33.53459766102868,111.12209140882665,0.13067872751805198,-0.30111771886171074,-0.08436213296621661,-0.18993578298186825,0.061549638219473395,-0.2058200781240955,nm,0.0
110.86393000000001,8.322918420515148,-31.169887161704686,108.26519852438638,0.19815904138872764,-0.22140274233025806,-0.07800930056289203,-0.24451142255577246,0.07263927256797675,-0.21240585345611349,nm,0.0
110.87338500000001,9.126168201264752,-30.016309234466828,106.75781103963715,0.16513080547953468,-0.09417607237965094,-0.19682615279136523,-0.25417874260468265,0.07411576329849218,-0.22252663514613097,nm,0.0
110.882891,9.887926555113545,-28.891551620733047,105.21573350544365,0.17632632263278447,0.026954440032287967,-0.2266048787454036,-0.2451036465170802,0.0770153494542889,-0.2366257993141343,nm,0.0
110.89238399999999,10.692316807023039,-27.840439461750716,103.63919955839755,0.17732592021604965,0.06776919897648032,-0.2358442323436943,-0.23094755950263562,0.09595286735966858,-0.24229845808801617,nm,0.0
110.901885,11.53360869904024,-26.907552822210423,102.01095688283262,0.18871475729330486,0.06521703527213006,-0.19981834210937124,-0.20693363587854233,0.11529004896504166,-0.25200213763526413,nm,0.0
110.920995,12.65044153070644,-24.866882124494996,98.8936870041847,0.2898365582483108,-0.20066650358634575,0.004720240753048675,-0.1753362447848295,0.1392569111263188,-0.2723217716698913,nm,0.0
110.93996899999999,14.102176244345232,-23.15747372259651,95.48511131597702,0.30597586923861375,-0.4349415789601745,0.0072366566948300435,-0.1812958852104909,0.11346231177992254,-0.28729409266416017,nm,0.0
110.96848700000001,15.270585934442305,-19.279421239089253,90.89371614981532,-0.014421510633460083,-0.30670895941623383,-0.18171029574950448,-0.2635024435508213,0.09661519224411481,-0.2620989087520019,nm,0.0
110.97798900000001,15.380254040856054,-17.444841479346856,89.63577409503205,-0.2549362717436931,0.3175673985596086,-0.41518036691436155,-0.35741154098660477,0.027500363053176765,-0.25049414132976083,nm,0.0
110.996812,14.679727571983873,-12.736613797518983,88.9721798096833,-0.17951797519147428,1.4311368490946283,-0.48020944766154655,-0.4342470184237086,-0.03353163419322481,-0.009381989276618595,nm,0.0
