timestamp,roll,pitch,yaw,acc_x,acc_y,acc_z,gyro_x,gyro_y,gyro_z,markers,motor_input
103.50275500000001,20.6496662555943,-56.412771634226054,148.1767594801975,0.6870379005766908,0.8159670797103872,0.8829205639394788,0.14551766814680303,-0.21028072875652049,-0.34084936693283613,nm,0.0
103.51226299999999,16.340235218094605,-55.53712181127819,147.03741960590182,0.496526664079348,0.1488620985802127,1.111471124856565,0.3107565632051072,-0.3929996691900246,-0.9426295031477946,nm,0.0
103.521781,9.831444578755102,-54.87976435874619,145.3468655753899,0.11424456581006182,-0.41989422124594356,1.0717495888020183,0.5435137828562944,-0.5092482777820045,-1.4075033913521853,nm,0.0
103.531295,1.0871730555935981,-54.92156346255181,144.13818113852346,0.060256049369724354,-1.547374145363147,1.131693440679651,0.8277394141331803,-0.5605923917048417,-1.6722559110984023,nm,0.0
103.540806,-10.456214543971038,-55.79566987610583,144.44087838248754,-0.332016755328376,-2.055414541636498,0.4258917729414762,1.1712935152861896,-0.6118331092782061,-1.837650011240017,nm,0.0
103.55013500000001,-23.963256184484493,-56.8156417874226,146.94338784678303,-0.7628759953504459,-2.8753525343784427,-0.19024478860197958,1.3574862014416336,-0.6649209523551268,-1.7449098516844044,nm,0.0
103.55964599999999,-38.393881445921636,-56.96373545857378,150.7377792511732,-1.4456028226710824,-3.0518185341924107,-1.4599399426764754,1.370172387873659,-0.7796781818758193,-1.6551058482213068,nm,0.0
103.56923599999999,-52.12376837239702,-56.13130701193307,154.23177482341572,-1.6837802389955212,-2.2417775741919086,-2.7437614417983385,1.272636019290754,-0.8372547575780185,-1.586862001911175,nm,0.0
103.597778,-77.38640387180308,-53.6919911225661,156.3134563311926,-0.4610169758665651,1.149533487132836,-3.676249208375604,0.5454913721009818,-0.28389753791048267,-1.001079192448836,nm,0.0
103.60735,-78.40537940250638,-54.22747948634093,154.05394282893448,-0.21983889598993397,1.5735146473989274,-3.3440742146475646,0.16146685495648014,0.051196264297164736,-0.6059749891146764,nm,0.0
103.61686599999999,-75.76873424286997,-55.46080162909814,150.89620374916407,-0.31178589977598936,1.6426636840236368,-2.762471571073184,-0.14750172707384474,0.3637053003057275,-0.18944011930802862,nm,0.0
103.62629100000001,-69.72813801066799,-57.02549707090746,146.80125708683622,-0.4349806964696492,1.5016992206141622,-1.8343156578952677,-0.40463308723072516,0.6201490379684519,0.1965623948596549,nm,0.0
103.635807,-60.10583786277504,-58.30213365737149,141.61403728770955,-0.8110273649980976,0.810134906742678,-0.7848638303900528,-0.677358352489112,0.8147715035574344,0.5998519971637802,nm,0.0
103.65500599999999,-35.50973286549615,-58.11817215818913,131.3167752257049,-0.5810969052759739,0.9916808575046205,1.4513087218750638,-0.9941486758872371,0.887481381658814,1.24964916652055,nm,0.0
103.66452699999999,-23.37616357165896,-56.89682848565253,129.50290880087107,-0.6379708403263683,0.3086090076070058,2.8099517391184694,-1.0236400667215233,0.8461407425825518,1.692323963334076,nm,0.0
103.68354500000001,-6.817532363664679,-56.04560486599691,135.11663064188647,0.7937298725801369,0.2909184049598488,3.8238952233740084,-0.5091442668120914,0.6079773186179843,2.0011737296618173,nm,0.0
103.693049,-2.2330804682251655,-57.571720708048176,140.26638206242347,1.7186961394944207,-0.3732561033245003,3.531759583300563,-0.16427761625763843,0.5786423859710749,1.8020838915290835,nm,0.0
103.71207000000001,3.8864740758054652,-60.41484122150437,144.114520410064,2.0563350760670356,-0.08142743716870864,1.3908677717977407,-0.14213595663773282,0.3689458276056661,0.605752493184803,nm,0.0
103.72158999999999,7.283767153927316,-60.036348818291295,140.721660723475,1.8014953525726172,-0.13658051969911483,1.1889081071636531,-0.3135582063186392,0.15988394506067058,-0.08617292114678331,nm,0.0
103.740598,6.21915127814223,-56.879731775355424,131.8229179957176,0.9094988570215525,-0.5819043240676293,1.838957052091891,-0.044238803842518666,-0.4045069267618572,-1.2196020775095273,nm,0.0
103.750031,-1.1660630896486963,-56.272407227409,130.72539927758422,0.23186846669123218,-1.004911809599379,2.048142979198385,0.4503575717591874,-0.6792951913623692,-1.4513598852641374,nm,0.0
103.759546,-13.737110628205665,-56.403178219831645,133.8508398169393,-0.6199712760963255,-1.5464028311186542,2.04196465685618,0.9629958263692102,-1.0015396861978356,-1.4663370233922566,nm,0.0
103.769057,-29.723853773742285,-55.62036227480213,140.62425869050907,-1.4678364140243632,-1.8386638867411431,1.195789151578336,1.2122700762872027,-1.3158119849200307,-1.2953865213508864,nm,0.0
103.77838,-45.611041217496364,-53.07496569061957,147.9017715388162,-2.291769407071706,-2.5408199197783494,-0.3783984549790223,1.2135913175803006,-1.481662692929068,-1.1239475977064224,nm,0.0
103.78789599999999,-59.75648358634154,-49.7878595685003,153.0340174228712,-2.2935317000757554,-1.8610007856624762,-2.3468750269232244,1.2185581741133547,-1.430469734575501,-1.1800283463903274,nm,0.0
103.797482,-71.33644624354598,-47.39399527389467,155.75894641987148,-1.5089525087930127,-0.8510807116205035,-3.7665453934505533,1.1819383731464892,-1.086518455755816,-1.1833636373320184,nm,0.0
103.816498,-88.65468127906816,-48.60082107084496,158.83682036128465,-0.0901618161920695,0.9716073042143754,-4.5036120701323545,1.1262282976931615,-0.09944440902585029,-0.870786750027683,nm,0.0
103.826021,-95.43550259175231,-51.30498691385857,160.7305650131938,0.5292401609723697,1.7256507885289212,-3.587782232904776,1.0128826957420372,0.20754742295807,-0.6481276473019046,nm,0.0
103.835609,-98.69169670225384,-53.97828560560446,161.7973658399103,0.77512836361386,1.8621172248366444,-2.887257974888264,0.5533950274336873,0.38085708590505096,-0.2925021336573256,nm,0.0
103.84510399999999,-97.92097085866425,-56.109824992049205,161.17454252634383,0.15158088614778947,1.5134458921173506,-2.6962228737698632,0.05906702628369477,0.43381587744576927,0.013820521160833992,nm,0.0
103.854626,-94.68261522597474,-57.635274426003065,158.63000657543714,0.20351881867050037,1.5254663060175295,-2.07525442744932,-0.2199440812217412,0.4096672121276129,0.04546957188565949,nm,0.0
103.864056,-88.45060697044369,-58.50359673133821,154.43447287409188,0.4332457276669217,1.6050223644728685,-1.7965947086021217,-0.5276771884204802,0.4237350482525522,0.23083515119602194,nm,0.0
103.873569,-80.11373526678848,-58.950294106809615,150.04077209175736,-0.3542646795322879,0.970440624065405,-1.5476139184150952,-0.7161347180667174,0.48517954443620415,0.5586136519172228,nm,0.0
103.90227300000001,-48.82452987554828,-60.67830569020215,135.027704039037,-0.5991776938072191,0.2228731585623981,0.8676234691025211,-0.8131667779765042,0.8861692938910255,1.0148584639202223,nm,0.0
103.911778,-36.83912575922872,-60.79185298468897,129.9819052816014,-0.5365446991460109,-0.6138016673310396,2.175775961369269,-0.7659639077671304,0.8873877544410756,1.091806933742446,nm,0.0
103.9213,-26.71494313753707,-60.31688012180488,126.26360176482989,0.06935286753951855,-0.7905236211968044,3.037097199984668,-0.6806496732907307,0.7342802420428617,1.0277824104069184,nm,0.0
103.949828,-9.702139825183966,-56.91475796742373,123.49199956313761,1.0509292001802508,-0.8417383313524507,4.105757958700848,-0.37016541704768796,0.1820297249429599,0.6041057790459489,nm,0.0
103.95933199999999,-9.370948775541391,-55.88503870239898,124.53666364382477,0.9177619211895828,-0.5139257437087957,3.9396223792340446,-0.18475472594533313,-0.07298902056612762,0.26796660931382876,nm,0.0
103.968852,-11.742762631933555,-55.00840238474287,126.2385634580556,0.5616149898825384,-0.6823640722183455,3.4825465912933544,0.019572703686530458,-0.30933198261152645,-0.04672565130508547,nm,0.0
103.978354,-16.37127122626637,-54.369622344535415,128.3654925618161,0.045912525501625195,-0.6606803660467817,2.8306432370436956,0.2297876815867811,-0.4919094885308232,-0.32635193016712916,nm,0.0
103.98786000000001,-22.512906710404597,-53.95240055910723,130.9695203543268,-0.34679182610225107,-0.7250965141075338,2.1266282370384864,0.4023931716725346,-0.5962194471265969,-0.4708395473928938,nm,0.0
103.997377,-30.361794019715955,-53.793203163619985,134.63122863859653,-0.8599418357853696,-1.2452565228565455,1.5132943265577663,0.6132574345837347,-0.690611079670897,-0.530819190132669,nm,0.0
104.02564899999999,-61.90670170872686,-50.957744682451256,150.2490817818076,-1.1674588947326217,-1.2411322246741772,-1.595995326272062,0.9077886089162994,-0.9487819239925593,-0.5598896232189364,nm,0.0
104.035245,-71.73361177962343,-49.16104256152431,154.53195449175254,-0.8675942289829729,-0.8186867530162542,-2.6900591832158556,0.9587980345527205,-0.8966761346817217,-0.6411484880162405,nm,0.0
104.04475,-80.26952893778461,-47.74296498321211,157.55250107872888,-0.26228851587226854,-0.23841741525535,-3.2699875163598784,0.9263798891859784,-0.7141020098159985,-0.6630310339158539,nm,0.0
104.063771,-91.46093478894325,-47.41011628617913,160.37046568742258,0.3351213551378827,0.8380628848031235,-3.6231724916406294,0.6432681191701253,-0.16381854191240047,-0.49275316001512115,nm,0.0
104.07335699999999,-94.80864732198008,-48.538137817704765,160.9321875486107,0.5399892277753393,1.2662553972523487,-3.182489535857414,0.5040145999754267,0.06654746083249123,-0.3727550579495617,nm,0.0
104.082864,-96.15808213202445,-50.16189008447493,160.86316352064023,0.363386842854903,1.2249095790908873,-2.8307871448508903,0.27888506253454926,0.25136721224145014,-0.20619276983334855,nm,0.0
104.111413,-90.17394895218062,-55.22746933971149,156.60883239543935,0.39103223670677395,1.0668932773245636,-1.8922233343337116,-0.2630032870659842,0.4419944520324548,0.2051035287374406,nm,0.0
104.130427,-77.93027811957674,-57.81566813107356,149.9135235932814,0.2425395596718928,0.6804045092557385,-1.443115099381492,-0.5456015580690046,0.5800214479180774,0.40963373764048844,nm,0.0
104.13985500000001,-69.11186379493958,-58.8849960954694,144.72594597507083,-0.03342145375964493,0.3098910199256028,-0.9448011542377911,-0.6550665867312697,0.684027683192474,0.4755089615612155,nm,0.0
104.15905000000001,-47.365561976366486,-59.450943462309276,130.59179701846872,-0.5519269161343209,-0.657246907751305,1.0328862018309892,-0.801873332375694,0.8104435544131389,0.4416361128140526,nm,0.0
104.17807199999999,-26.640500997180073,-56.44549491540797,118.0838654948911,-0.6096420598917561,-0.6203959014470419,4.598523897451697,-0.8474434725953571,0.7048392808418181,0.5891407251862619,nm,0.0
104.18758199999999,-20.603936332740403,-54.38224589517285,116.07302305723604,-0.08436299515467534,0.16831533020075617,5.258522841528772,-0.6702836537205471,0.4321479207474637,0.597796590150509,nm,0.0
104.19709900000001,-18.36124051591987,-53.269621294342144,117.4293463341087,-0.03345743738242526,-0.2493774008317539,4.934923441500416,-0.3092266392768226,0.14637675904912156,0.6385775159663174,nm,0.0
104.20661899999999,-19.01570782287193,-53.17642692160398,120.67245535994104,0.280552095041341,-0.5965008483584605,4.191092928993803,0.030364477886719633,-0.06724086742236966,0.5488885857585512,nm,0.0
104.23513500000001,-28.073194134189915,-54.273776402617564,128.7469354433167,0.27135727156060846,-0.9931773067544306,1.5083621959451776,0.36107838497846906,-0.2329087875415761,-0.1714059777013833,nm,0.0
104.254152,-38.449113399041465,-55.50593047913935,133.6395959070238,-0.2923456939264066,-0.6714258458168482,0.5767659492161058,0.552974420751978,-0.45021539620642076,-0.4249710964131603,nm,0.0
104.272933,-56.451922184243635,-54.23035163331341,144.07982451409762,-0.6265871470080713,-0.8345577336174044,-0.7435476804908641,0.7452301316682044,-0.8701382514822974,-0.41257791623845236,nm,0.0
104.2825,-66.26672723416145,-52.10116004303987,149.50657769382474,-0.34867181672365954,-0.40806994146468134,-1.614581356525634,0.759486143108904,-0.9939066727735624,-0.4773712345858016,nm,0.0
104.292021,-74.3276977514343,-49.577156665635336,153.34998617690977,-0.23178941010387683,-0.37002470393322734,-2.568250438151844,0.6601100984786514,-0.9247142382452451,-0.4714697614218869,nm,0.0
104.301534,-80.93699171275884,-47.66130850235231,155.62201015532665,0.07288893471076918,-0.029219416947189214,-3.326823909604255,0.6303711499228759,-0.7179359544236499,-0.5263883093095021,nm,0.0
104.31103300000001,-86.39999229394208,-47.02771169660631,156.85131894532327,0.49116887652822216,0.6126473566990567,-3.4292530137619135,0.6329980468654409,-0.41102162081125215,-0.5459895975581913,nm,0.0
104.330141,-92.70622344326577,-49.5903225812229,157.06065582832363,0.4779405599306197,1.192636883170567,-3.0076440072224657,0.45102173580647237,0.20983597974617577,-0.39946681315979454,nm,0.0
104.33965699999999,-94.04847247208173,-51.8829134184442,156.5050797211578,0.49370063995972896,1.3712510179965698,-2.4945586669642377,0.34402196936912255,0.3564153865227452,-0.3069487903305896,nm,0.0
104.34917200000001,-93.81363760853266,-54.02154013565024,155.39530949063365,0.36666305148564127,1.337589709999475,-2.0657826025656445,0.15586041931926722,0.4039112082436534,-0.1724884206262703,nm,0.0
104.35867300000001,-91.73679363587962,-55.629572680086625,153.28184303873115,0.2925818543384442,1.2279922930858607,-1.8127121913477708,-0.06883405865592478,0.3951843073748674,-0.07124686381734284,nm,0.0
104.396805,-67.54098622327834,-58.330452641391894,136.81348037567733,-0.6830167168718808,-0.2141364945177207,-0.5615810175062589,-0.5602616577048257,0.6670917346268298,0.3250044615037172,nm,0.0
104.40633299999999,-57.873667898882104,-59.076939789472384,130.25068504229122,-1.0321852060284236,-0.6228252163708747,0.4554252116380903,-0.5740033907924339,0.8351673259213959,0.35050767236297303,nm,0.0
104.41582600000001,-46.997591307806594,-59.510120756468446,122.84223352060603,-1.1731510276782902,-0.6679123874765244,2.20881378861529,-0.5816127451001813,0.9488000693322015,0.39889124511591856,nm,0.0
104.42533800000001,-36.11606398204887,-59.02789687236851,116.04311004261841,-1.1383959081919794,-0.3565731201819744,3.9820640345040035,-0.6197641266710863,0.9271865082643816,0.5201155297247719,nm,0.0
104.434854,-28.253717927296634,-57.817535101572936,112.62954927310126,-0.6874441100689241,-0.17715734420090495,5.161443756473984,-0.5493293562474225,0.6580689377989938,0.6644282430555315,nm,0.0
104.44435100000001,-24.903084841860128,-56.781080700480786,113.85756331804599,-0.39490828408059786,-0.5867967333885737,4.709230735270835,-0.3234748256645154,0.2592068303865607,0.8160687758425068,nm,0.0
104.49192099999999,-35.213378887672434,-57.121048755920235,131.20577680462185,0.6739924409270164,-0.33969427875912567,0.980001652035634,0.3084953674273706,-0.19790462246156623,-0.12711242541914458,nm,0.0
