timestamp,roll,pitch,yaw,acc_x,acc_y,acc_z,gyro_x,gyro_y,gyro_z,markers,motor_input
101.001532,11.153228573105045,-66.6033999786222,-148.92626149520294,2.4820161836586334,2.6062409083469893,0.10659260867530082,-0.3817820820475162,-0.0081096458727943,0.6751598016161037,nm,0.0
101.011046,13.994680916732905,-66.9443475901102,-149.21699322300154,1.62710984045156,2.5897418006389614,-1.0982934269445324,-0.24095837226382755,-0.052832280161150574,0.4676979347686307,nm,0.0
101.020553,16.5154852406142,-66.78656799988516,-149.3592390251345,1.24627682407277,2.4802531302197655,-1.6080977318788923,-0.16790309150752147,-0.12504966582094984,0.4385370276171055,nm,0.0
101.030066,18.569035526414904,-66.2597047648184,-149.36368410535644,1.3014063250857786,2.4215277684457233,-1.0868930163686066,-0.10083349053201361,-0.1713317486611815,0.37886184631872544,nm,0.0
101.04927599999999,18.940631536704615,-64.46355406666572,-148.6333627321528,-0.39523435888139313,0.9098837417967761,-0.17010307116079051,0.08711831409231248,-0.13561749690695848,0.0624998491693934,nm,0.0
101.05876900000001,18.631083297593147,-64.34456338209799,-148.38215725991617,-0.9642414143610023,-0.07724317384384571,0.3403255618330634,0.0,0.0,0.0,nm,0.0
101.068289,18.098047100534625,-65.07017820406527,-148.48261841871485,-1.9455865475027787,-1.2744354610599478,0.6882504276160241,-0.05096844058793385,0.1506344919592957,-0.11435332860498287,nm,0.0
101.07778400000001,17.761484267008885,-66.65017484240336,-149.13290318700396,-2.0632936751096227,-1.939725851957293,1.0070869149178525,-0.15397450037285804,0.28828858978155614,-0.18911135106350416,nm,0.0
101.09663900000001,19.666828519104346,-70.77040324880156,-155.03732437624774,-1.7803122812219954,-2.3647312637870725,0.503664775661817,-0.2849719270000934,0.30426228256863774,-0.49333142418072645,nm,0.0
101.106146,22.81041745500735,-72.10144625471447,-160.66046731073982,-2.6587707222074206,-2.0165744800904095,-0.0717093379025058,-0.2987257789448932,0.17669351070738876,-0.5250589578766292,nm,0.0
101.11584400000001,25.243757930237145,-72.81037775437215,-165.1580022692794,-0.18164449457841678,-1.342929868826683,-0.16073420158762758,-0.19450417366536282,0.09831792868638854,-0.4319364632902997,nm,0.0
101.12516500000001,23.03950801354377,-72.60917580106023,-167.72067557990442,-0.7698104506339061,-1.4498267265081255,-0.9490421722663391,0.12508471057114204,-0.0019626234916317086,-0.931044749582018,nm,0.0
101.13467399999999,18.353508340466053,-71.26398817155852,-167.77918367068264,-1.1368095950804946,-1.1655839204303484,-1.6090928800765316,0.3298927940610467,-0.19445106863039585,-0.900803612561705,nm,0.0
101.16321099999999,3.971691831674676,-64.53953487984954,-163.52181902538422,-0.035314659339286264,-0.7717530483842148,-0.9832173306475454,0.4462104524252355,-0.34073274365946077,-0.48639845596072867,nm,0.0
101.172902,2.164808513564276,-62.426897822877656,-162.3693183816166,0.7637398971970677,-0.8281215060593907,-0.20491830794521285,0.26773778988189045,-0.34862296025108674,-0.08993381779875209,nm,0.0
101.182414,1.9289904339411894,-60.91926854904542,-161.81116281636756,0.4558411013712937,-0.5145088741379163,0.2556025328089418,0.10325801251921989,-0.271979743771024,0.07319952582957848,nm,0.0
101.19191699999999,3.8358611789476846,-60.285547847916504,-161.75345530090848,0.5793165462091268,-0.03347122843969823,0.7423641368305645,-0.14960690478255415,-0.17093181855936834,0.3470379713219568,nm,0.0
101.210929,12.176354261425367,-61.34772124097831,-162.285646015089,1.3406730254074406,1.3195714877744609,1.1816106383775002,-0.48527474474174986,0.026197508600497667,0.7463621223094385,nm,0.0
101.220461,17.395961130814865,-62.33294800556652,-161.98746770491343,1.5141474494915033,1.836346965020755,0.7382073199594347,-0.5428042381817613,0.04249321050891691,0.9831823931194136,nm,0.0
101.22979000000001,22.231733314523726,-63.4128242419394,-160.9353428076403,2.2538206710389157,2.4884650658718264,0.3041571989144006,-0.5007685643032483,0.06953712700558821,1.0742406412390437,nm,0.0
101.23928799999999,25.540487216377397,-64.64921325189812,-159.5107854036869,1.3001677106625515,2.6296135947461314,-0.5194708967182061,-0.3705196360816141,0.13882467005856344,0.8826173834380127,nm,0.0
101.248808,28.161600430512998,-65.83950605214287,-157.74968862320944,0.8457935138797616,2.463362223947199,-0.8884287787041601,-0.305513828749745,0.14496842250596562,0.831008447690783,nm,0.0
101.27750499999999,31.29988974689952,-68.37441120639305,-154.61317158512767,-0.9231633580869516,0.6140520332602821,-0.12849011402999888,-0.12881894989958795,0.13065680354983802,0.17399311773440657,nm,0.0
101.28703200000001,31.942069542333687,-69.4608432642651,-155.18632199362196,-1.3072466249517678,-0.2699099610853479,0.40089214293980047,-0.14814559440200112,0.17928223891005993,0.007686761808855949,nm,0.0
101.29653300000001,32.22877281210236,-70.84528223118596,-156.4283798386269,-1.8058845712430904,-1.3244226201005025,0.9670501457611314,-0.14525868358595262,0.24718720236941985,-0.1918772282068935,nm,0.0
101.306036,32.62083590949392,-72.53683372494808,-158.67744549210275,-1.9952296499263438,-2.0485802540992166,1.4761260011301556,-0.16581208140465462,0.3066305882005438,-0.3724648104837838,nm,0.0
101.315562,33.76271731181242,-74.16924124798535,-162.52675493295948,-1.8078544336733522,-2.4022496472729884,1.6290253644019366,-0.1836605331626243,0.29041233004366357,-0.5477246695981421,nm,0.0
101.325063,35.56300565626711,-74.95242418217906,-167.8080229491968,-1.7020726604212228,-2.4229178849278665,1.252942165951062,-0.14569695795375878,0.13154565007949554,-0.7057265330217092,nm,0.0
101.33441199999999,38.10153848342721,-74.79724740378494,-173.68417264651399,-2.8380281847103506,-2.4440059679492103,0.6899985379624441,-0.13828821228021165,-0.04706120011676331,-0.6817169391062026,nm,0.0
101.344089,40.0206170536686,-74.33292709313476,-177.62359227665368,-0.8799980477599118,-1.3421898799411154,0.5989766866630178,-0.1073390784561095,-0.09523679556291481,-0.41475440813759196,nm,0.0
101.36293,28.000228652873442,-72.49834120987676,-174.30120712369907,-1.4355877910469224,-1.1974974373667235,-1.018876678494794,0.4874233183971014,-0.18672084655536328,-0.8971501145422809,nm,0.0
101.38193999999999,11.986757226303805,-69.24674651844607,-163.95923701544686,0.9291638169575422,-1.0059999838097353,-1.3502840283892195,0.5828387504376882,-0.21140856033780336,-0.47353125621700914,nm,0.0
101.400972,4.011807478100855,-65.22880947163372,-159.39338867155396,1.040042440636156,-0.71038690822428,-0.8358633415151056,0.2832195120909618,-0.3089390824465835,-0.11375318290175827,nm,0.0
101.41066000000001,4.4755690091578995,-63.67623987563133,-160.07604161997173,0.9849612257692988,-0.5360426127375703,-0.26351476714698646,0.058833812259377664,-0.2978116680258143,-0.04960047715958097,nm,0.0
101.42017000000001,7.075626512577686,-62.694116957437004,-162.19352307800432,0.6187899807400282,-0.04142651435457188,0.3576921758543762,-0.17003107123357886,-0.25417953098602714,0.04377631561208291,nm,0.0
101.429689,11.498424581353134,-62.059627184887624,-164.77919136541678,1.1988635191479096,0.4597217378056302,1.0912456369929278,-0.36916238851044025,-0.23075873012728806,0.269678610526876,nm,0.0
101.44870900000001,20.135736634800015,-61.737813628797,-167.89109248637325,0.791083162043336,1.399435427507112,0.73892494245825,-0.39557553445306204,-0.07627447979986536,0.5434181096337576,nm,0.0
101.458212,23.687945039052796,-62.13437579340382,-167.19998203250492,1.3885256285248853,1.8057110584984095,0.4773120565483738,-0.35676400091617616,0.011447992249363326,0.7674573617658076,nm,0.0
101.467548,25.68483104823704,-62.70666134297446,-165.1829144482809,1.692120512465186,2.15914624339893,-0.0638971778383313,-0.22043448606818414,0.07235128893445869,0.7595396355015331,nm,0.0
101.47706299999999,26.410946513954812,-63.24049651917994,-162.60340947002513,1.028643825603871,2.134481501602982,-0.876657656951921,-0.10670091441461023,0.08887956229481843,0.6472343456275846,nm,0.0
101.51509200000001,31.502969328563083,-62.416629145503165,-161.85567807705587,-0.00459447451118413,1.3042166756149938,-0.3038143697898874,-0.13287040616657664,-0.15683618704152097,-0.06126386574806784,nm,0.0
101.52478500000001,33.177799576752605,-62.22580290261464,-164.7884374401313,-0.39285830235291674,0.8705259839721247,0.044259457518141636,-0.1518354014484096,-0.07757653782292637,-0.28920938850509814,nm,0.0
101.53429,34.52861415611869,-62.70157126768458,-168.19410101170524,-0.9281181374947282,0.302399891979878,0.13625222497782022,-0.15724452023676155,0.06777138085730271,-0.44095660459553565,nm,0.0
101.543813,35.75142262210799,-64.00364495758255,-171.703829835315,-1.0597208086685381,-0.20869455088496472,0.24321465371451229,-0.166820774625984,0.24259765562893948,-0.48247208847105433,nm,0.0
101.553314,36.57885561747757,-66.04412386071309,-175.27102727727615,-0.960093080688363,-0.5284747339703035,0.35975326347941244,-0.1287127212032724,0.40386697397973353,-0.5620861055841619,nm,0.0
101.562825,36.59119431176925,-68.41127266144657,-178.83117882698343,-0.9340446534506577,-0.8282065267133876,0.4799157363502908,-0.037698558217904986,0.480122521121814,-0.7079658058129927,nm,0.0
101.58185499999999,35.66620549366251,-72.26845914286643,173.74567311765355,-0.7142148178224613,-1.457645765067334,0.552248777060918,0.028695583167729338,0.34822241671089205,-0.84100755555416,nm,0.0
101.591361,36.20336966315241,-73.34996632438546,168.40662859627452,-0.7247742604450066,-1.3601934737898422,0.5590557031004871,-0.007876687661121413,0.2281568082899284,-0.9623350889075152,nm,0.0
101.60086899999999,37.12514400513289,-73.79329002499998,163.04010854252874,-0.5988609815059628,-1.3990476933152063,0.4549633924807883,-0.038026706560868685,0.10872046131512528,-0.8936045950481033,nm,0.0
101.629219,30.954814027280552,-74.2586238394319,156.90891206717097,-0.4595502257118592,-1.3522539625590946,-0.2059990129881988,0.21859122401643338,-0.036742566183958,-0.6611350059317261,nm,0.0
101.638724,23.861431507385706,-74.34793592859162,161.66998673015792,-0.4106134455064098,-1.4936541858544945,-0.4103916534237898,0.35792290134371035,-0.10738466105957258,-0.41157022199459875,nm,0.0
101.64823200000001,14.353818913927851,-73.9938101131295,169.56917356541905,-0.6471676096890456,-1.3255747204355792,-0.7206852699101103,0.4771982343766622,-0.18568885489743714,-0.24797935059990253,nm,0.0
101.66727599999999,-0.8119913132968413,-72.24372640300017,-174.95315610700194,-0.21245533517166837,-1.1238399143666897,-0.9330446822055257,0.36363748737972135,-0.17234748726813168,0.19647495527256778,nm,0.0
101.67677800000001,-3.087125591148713,-71.34815005008933,-171.4024150457896,-0.13681850511778043,-0.7991510402412361,-0.8535936292483425,0.15459622333581868,-0.15048823429455954,0.28234799104363817,nm,0.0
101.705491,11.153342161424279,-69.79190939009666,-178.7636440706355,0.11015311510560248,0.14852963263052202,-0.08559742188642708,-0.47625368229345005,-0.1187159006231538,0.4185080667877942,nm,0.0
101.715001,18.12609111587858,-69.03023927771106,177.0742471251218,0.24496825595031546,0.40089460926614484,0.08592142592724805,-0.5022909272841941,-0.13500886423444255,0.4775614553734528,nm,0.0
101.73400899999999,27.324611110533503,-67.64517384061912,172.73437082069321,-0.014150879382944634,0.7777297050063681,-0.046222811696605554,-0.29669634149865476,-0.07342064203574734,0.3864083455586283,nm,0.0
101.74352200000001,29.73183584023782,-67.38603871882002,172.46249028208808,0.25484500774986135,0.804904908703949,0.027732503380976662,-0.20012246497402303,-0.018520461403766647,0.39306573998854066,nm,0.0
101.75303600000001,30.808081525360446,-67.20595720013296,172.90068826029253,0.3883902878221495,0.7810079166310699,-0.06118295398640069,-0.09799176921508912,-0.01622879601281297,0.2884670549636277,nm,0.0
101.76257899999999,31.311087812930793,-66.97636263979524,173.18621291197974,0.22896312596402513,0.7342961133263892,-0.16853422326802364,-0.05548552745621074,-0.03209406821869129,0.1517756945468904,nm,0.0
101.77209099999999,32.221058014601795,-66.60618515447524,172.62313894481233,0.3129596991576526,0.5960597109204558,-0.09371815263870428,-0.09141108545874033,-0.05594187803709406,0.056503906337227815,nm,0.0
101.781589,33.506383118626005,-65.99838446024238,170.98077479066484,0.23002633478234183,0.47013317517960634,0.06833951038130258,-0.1306171246089457,-0.09688914575666581,-0.09151240550659594,nm,0.0
101.79109600000001,34.98779637941062,-65.19472685006635,168.51483210750962,0.05540522434312007,0.37814713656670634,0.14463956690547053,-0.15992066455168874,-0.12750692466783983,-0.22214756908758485,nm,0.0
101.81962899999999,38.31680974363538,-63.552461568379144,160.15980705134447,-0.1955803756486525,0.2815392907449531,0.3885579251321417,-0.06174899609099419,-0.03714630547664554,-0.42781710910422666,nm,0.0
101.82914,38.42002631887122,-63.54891059307631,158.39132696349284,-0.149127416810607,0.10883901489720982,0.27684850538412237,-0.018372515204688473,0.013005046362420595,-0.3346901495052068,nm,0.0
101.84818100000001,37.71078511163828,-64.20281702930343,155.8767858935763,-0.005886763438388142,-0.26277515485169056,0.04931395334328875,0.06777938228186517,0.05790434364787886,-0.3436424038870951,nm,0.0
101.86717999999999,38.321475872848495,-64.56661441886844,152.96703402746223,0.18558169835650032,-0.5143954985398732,0.008301662760109225,-0.052760624001622236,0.05325425834886141,-0.20543554252469806,nm,0.0
101.87668,39.58985669590266,-64.48327278771782,150.84061562046963,-0.05806920860391975,-0.4082601618633707,0.011220667939807466,-0.1124739543844315,0.0481396519446941,-0.19537690273505354,nm,0.0
101.88618299999999,41.453223820096994,-64.2551031992819,148.63753296589292,-0.02879705139385415,-0.3233111046950812,0.1686754133547482,-0.17057674295326525,0.053358408300052555,-0.10374726126978903,nm,0.0
101.895688,43.330300261360414,-63.98231269933233,146.78448125310265,-0.045430421915878434,-0.22883399988023417,0.2862977252556915,-0.17600992658375328,0.05298688475887108,-0.03207902731179562,nm,0.0
101.90521999999999,44.90928325609229,-63.855904678063126,145.4757964777271,-0.2343703832128108,-0.0763391938282226,0.30247543890207657,-0.13769899003944924,0.06798074728053335,0.022614646278247504,nm,0.0
101.91473099999999,46.20620451169506,-63.98726358573933,144.79300434577982,-0.1473905915190806,-0.023183090605871166,0.3637683479728513,-0.08692409945138654,0.09833939926502056,0.09718836305946714,nm,0.0
101.924226,47.02250356642281,-64.33528867944082,144.648547446383,-0.10787819181573342,0.006800579655058158,0.3322245574662393,-0.026324605862717003,0.10947822872937646,0.11888526164779391,nm,0.0
101.96230299999999,49.30976511594833,-65.74423561174846,143.55785879513385,0.1086124800418441,-0.045070639580288195,0.01420020708944118,-0.03328853050410073,0.05949973841646497,-0.04114359195115597,nm,0.0
101.971812,49.67809508907755,-65.61127303480461,142.77758758592057,0.1077646854536279,-0.07868301621611769,0.012742773395494763,-0.04876781362310963,0.008196207123456225,-0.08816939063898846,nm,0.0
