timestamp,roll,pitch,yaw,acc_x,acc_y,acc_z,gyro_x,gyro_y,gyro_z,markers,motor_input
124.50147999999999,-22.240119302961563,-34.333596612866025,75.6759773258436,1.2209961335051929,1.767501954067243,-0.7466845040577822,-0.01900850269495661,0.09525377836129453,-0.0852478824720823,nm,0.0
124.51099099999999,-21.041075896960706,-34.28425814647522,74.39171055252986,1.516762715380509,2.1701668297521657,-0.36068752671107956,0.055341534551575776,0.19598929342554466,-0.11849113964677259,nm,0.0
124.520489,-19.990116419088196,-34.33688412403375,73.36663684170883,1.907580284570692,2.6605506835455333,0.18993989565104552,0.07212289185516614,0.16579079131450003,-0.08349435125640212,nm,0.0
124.558537,-23.449593205726117,-32.443030774295835,77.74736739210597,0.8985998029124067,1.568864267873703,-0.3935052046931396,-0.14871047421470396,-0.19191200221755594,0.15319467322662558,nm,0.0
124.56806800000001,-23.760003953026224,-31.823975585743455,78.09216928461186,0.4537020399790501,0.7804761303483178,-0.6805585569279674,-0.11873097739743724,-0.02296444711197465,0.0395518845539182,nm,0.0
124.57773499999999,-23.47123055967418,-31.485204706260028,77.37345552490633,0.05684533826275103,0.3064125554727807,-0.40328975982005216,-0.04229695368610775,0.0649447112732838,-0.11006350287251483,nm,0.0
124.58726300000001,-22.84085562046308,-31.305890465603532,75.9579868148968,0.07462737380806127,-0.050138103415830616,-0.2535453510181094,0.003512937785903875,0.1152953452928119,-0.21429412377957308,nm,0.0
124.596769,-21.707859581645362,-31.042551397388408,74.4918370333222,-0.1615235269695829,-0.25312296480878355,0.18140136074467955,0.012207436192282756,0.2031056870945535,-0.17299226886444777,nm,0.0
124.606267,-20.642366299791608,-30.57157853077427,73.63015973223811,-0.47771321126467575,-0.4913048368826641,0.5405028287658498,-0.02659630213808862,0.20401076372351915,-0.06038322113261193,nm,0.0
124.61577600000001,-20.04222121703999,-29.909829129585138,73.74917828244017,-1.012006242168528,-1.0421608792580457,1.2666651183133368,-0.08422826402804164,0.13890094389722554,0.08704023336245686,nm,0.0
124.625294,-19.767686152073832,-28.9837114972885,74.73641656068116,-1.4865632197328935,-1.8374474322479823,1.3826638754811234,-0.1517025918469468,0.09879724708514098,0.22722738778536938,nm,0.0
124.634807,-19.395270635018292,-28.112904667818924,76.21264529298767,-2.0987923266785966,-3.0030666621922806,1.2797406852437185,-0.1386393319399154,0.10994877771905996,0.33358577797931077,nm,0.0
124.65364400000001,-18.518804266890122,-28.097072164941864,78.17235606799126,-2.8187223959264354,-4.434812179528443,1.0425842596042696,0.0757913192344335,0.05652999481613497,0.14506288344284515,nm,0.0
124.682358,-17.275229184672416,-30.894355207501288,73.66709976583138,-0.7804218080004083,-1.2146144731134758,0.07387262019599473,0.2569127287718209,-0.03825026832911176,-0.3866023224283152,nm,0.0
124.701382,-20.24507058674016,-33.756639688480405,72.11499929673364,0.6844994461065312,0.8388559617823917,-0.28723670887736347,0.1734356645109556,-0.41225227328208097,-0.25897760534831227,nm,0.0
124.71070800000001,-22.672776532871918,-34.59717286795897,73.01018537850248,0.7393489426422486,1.1256112498033166,-0.4223769381404876,0.05372252206830178,-0.43281286736709784,-0.09023846373077965,nm,0.0
124.72020599999999,-25.216385625363067,-34.775452957364976,74.35821180559856,0.6125787011247854,1.1175439347904386,-0.7112738043014698,-0.06984729464017272,-0.4106475636004318,-0.015870360606793102,nm,0.0
124.72972999999999,-27.501366479213672,-34.508926654513665,75.45298010286564,0.6672325142899576,1.0375608008862105,-0.9763354142636834,-0.13612932632288471,-0.34821368970971645,-0.036417220795446015,nm,0.0
124.73923300000001,-28.836289848748358,-33.999384803635316,75.79279496550043,0.788468191208161,1.0748134813346368,-1.1108587228023072,-0.1403582670749617,-0.18739955868405733,-0.07772025279286453,nm,0.0
124.748739,-29.039497725023885,-33.405145834622125,75.25026818806023,1.0202418448466664,1.3478556787364318,-1.0467492520113606,-0.11034622482664863,-0.0018474500709624443,-0.1265086134335,nm,0.0
124.758264,-28.358411458564458,-32.87657499765585,74.15313469041925,1.58113356848219,1.9092973028826732,-0.7390284590366628,-0.05856848642441742,0.13911240794458277,-0.1405799804813868,nm,0.0
124.78678400000001,-25.835124783309308,-31.60389587257584,74.36780924514385,2.15151944260088,3.5697908695083846,0.6996857436364647,-0.07823382557689523,0.04299918879436257,0.23874192576683126,nm,0.0
124.805812,-27.65153848293141,-31.467364096655153,78.61181742664579,1.059873240666167,2.093969016440583,-0.015393642793804074,0.005050822802113324,-0.1924777559851775,0.3204579284279198,nm,0.0
124.815324,-28.188118538422753,-31.637362622241312,79.72122910386355,0.6557653385430819,1.1729944040884903,-0.4612563256012829,0.02952573215033485,-0.09385705737605911,0.1702991085321343,nm,0.0
124.834517,-27.48648722851461,-32.41740062382719,78.3546296617129,0.07163258399276291,-0.09910143258328784,-0.6165534205662411,0.12416663392445576,0.0710775656788832,-0.17692353675377046,nm,0.0
124.84402600000001,-26.617869436664837,-32.83666543149785,76.73027702309388,-0.10449445421186529,-0.30901359473025686,-0.304352089442583,0.12699765791740497,0.12675402592106927,-0.22724174521757387,nm,0.0
124.85355899999999,-25.763185618560676,-32.74996621447863,75.2544266640905,-0.2597822757368692,-0.3888601694169479,-0.1304883710817669,0.03147586735738102,0.1453781401071736,-0.1987647412946659,nm,0.0
124.863058,-25.401541076046307,-32.262074159992714,74.63238147880051,-0.420377435078794,-0.4184978350571063,0.05923935207426776,-0.06493208529653999,0.08587678311082313,-0.08170505970158659,nm,0.0
124.87257,-25.608918067655573,-31.56819103784036,75.10278430131953,-0.761638488808479,-0.7621457982179101,0.3280006441055,-0.12977747914912066,0.003916425765080143,0.07613451513108925,nm,0.0
124.89139599999999,-24.700855425266848,-29.9221451808853,77.77599647495828,-2.551681858536158,-2.9189588916527205,0.5868374133091215,-0.10332580940751109,0.18110244629986078,0.3784449358942126,nm,0.0
124.900913,-23.45200340764458,-29.960757401917792,78.94117795423237,-2.9643701806233755,-4.29908793486272,0.698272927003557,0.06481314790813467,0.21361187204502186,0.36145582673145316,nm,0.0
124.91041899999999,-21.086344489887114,-30.72206503521137,79.14470011397088,-3.181360789938423,-5.00170938316992,0.5738158111908641,0.24089162963519567,0.37558493903666607,0.2830186544804082,nm,0.0
124.919928,-18.280648254617308,-31.775657596162755,77.83695462022668,-2.7137251002889604,-4.632619267602247,0.21717682906484828,0.3161364375299389,0.43168688109426984,0.03221568232081329,nm,0.0
124.92945499999999,-15.616315635051006,-32.95285116864698,75.3153357017679,-1.323353056684005,-3.0244723211978592,-0.3698479454426003,0.34760058969190827,0.3863875817872967,-0.21701984932915863,nm,0.0
124.939144,-13.230749974750701,-34.056688262393735,72.53976535590631,-0.8858815035099538,-1.4936229359217437,0.07880333644339631,0.3365069173664669,0.32392818568912474,-0.2900935434618974,nm,0.0
124.958159,-13.487722666411713,-35.33449440676606,69.69185404982335,0.9827205142160221,0.9541367247882738,-0.13067374267141793,0.05101240677295249,-0.1489910509212676,-0.2367754749246893,nm,0.0
124.967672,-14.911813900129689,-35.223944710943904,70.29378286161734,0.7308725127173524,1.3698379185347667,0.04490519278412379,-0.08651581803770875,-0.2095756445503461,-0.04189702885119119,nm,0.0
124.9865,-18.603112835326158,-33.587677603513576,72.62546930646288,0.7663068347150913,1.3126882772203334,-0.47811622332293036,-0.2462899344487163,-0.19419439652110848,0.045438120071761755,nm,0.0
124.996013,-19.27226199338589,-32.76259876661617,73.05934443448443,0.6192443588741958,1.2791073703329134,-0.4243098031982434,-0.17715634695642365,-0.05659012746734486,0.01637062578852852,nm,0.0
125.01504399999999,-17.964654920417956,-31.57769967246159,71.56664613497256,1.622559693342454,2.1948918816277634,0.02372084622497547,-0.02235131826567714,0.22540102467461198,-0.07102471868891791,nm,0.0
125.03406000000001,-16.42342667603141,-30.98005995982817,71.47651410734673,2.3844024651893783,3.507933900473107,0.8499818991543269,-0.01874293296638096,0.06601896243646001,0.1417087913110895,nm,0.0
125.043563,-17.25674987242021,-30.86335879421674,73.43606910697606,2.060685142905105,3.339031283823599,0.5661440503835427,-0.05156617254435523,-0.1271949630994339,0.3088542650470256,nm,0.0
125.053079,-18.84218672749945,-31.13844407676274,76.14185345589041,1.4686641418166573,2.5525179252240164,0.013756534715575931,-0.004507141664452069,-0.2743313292033642,0.38080935650900094,nm,0.0
125.062601,-20.24156250760893,-31.561287680051556,78.32243699554058,0.9180406696580551,1.6473359815218644,-0.32118353309120384,0.043292177526166015,-0.24905022474364755,0.2936917775472433,nm,0.0
125.081794,-20.155095523011035,-32.28826361445726,78.2595146315765,0.06274254752717304,0.13937915958255676,-0.6077888406199629,0.1199751300229494,0.05720737519971933,-0.10133535876743889,nm,0.0
125.110332,-19.102485893966936,-32.24355484801146,73.48118721380796,-0.777727579145774,-0.9103890883191885,0.5781315907519635,-0.08972466118742754,-0.0022694718709126453,-0.234297169713355,nm,0.0
125.129345,-21.690497167803066,-30.02366950434431,75.73937229350247,-1.1921967919422094,-1.512100765620095,0.8652912147687477,-0.29027614684585806,-0.13340970668942279,0.25320971447150875,nm,0.0
125.148188,-22.574361856284323,-27.947425854419066,80.98645307248307,-2.7512345260677806,-3.558283483937228,1.0047237263680753,-0.14726035735846385,-0.040101048854577104,0.4717843358676843,nm,0.0
125.157691,-22.207807160952918,-28.280871550156892,82.50873415886629,-2.916394045482024,-4.302039880965324,0.7670625902691205,0.0887150088693047,0.058471178485138615,0.3423234107371914,nm,0.0
125.167216,-21.379506901323712,-29.615160166146133,82.33442849513823,-2.451222354449895,-3.9299616867303455,0.14743143222691202,0.29732870000486034,0.11257715338125632,0.048306967816148204,nm,0.0
125.17670999999999,-20.341209143526186,-31.31112726790529,80.39058879678174,-1.333686550334646,-2.741710295068388,-0.31472426017004496,0.37612001482099927,0.12967369478264168,-0.28085198054893773,nm,0.0
125.19592499999999,-17.916044849075075,-33.88673666498975,75.0072290686042,-0.28207681928039274,-0.37943235816013837,0.01350040414993441,0.26773949556124554,0.09700294350765991,-0.4022610692663414,nm,0.0
125.20543699999999,-18.67755124424319,-34.67171681910111,73.76289830176113,0.7465104794936487,0.6517517017371219,-0.2386985730755812,0.13122526225648834,-0.16171888414011545,-0.3321075501498178,nm,0.0
125.21474599999999,-20.067425848514382,-34.877249675652465,74.07214339062227,0.9534744734901943,1.1436922861744916,-0.18490191878420523,-0.010064764722527465,-0.2291960609511281,-0.0936376312915415,nm,0.0
125.233765,-23.255963637928527,-33.666246109521865,76.83887062744331,0.9070724597460319,1.3571183313319684,-0.5877235436998082,-0.19735605826863567,-0.21592057886452296,0.11755159467683313,nm,0.0
125.243278,-23.945365048350457,-33.121511001296966,77.77117975636975,0.9012968408444008,1.3413415851805228,-0.7317183564015336,-0.11824016055285597,-0.0860752410421931,0.11441451113338183,nm,0.0
125.252791,-23.71436410507413,-33.009306928833716,77.7247205533382,1.0281944744106544,1.5073832159520244,-0.6415860931774627,0.0,0.0,0.0,nm,0.0
125.26231000000001,-22.6736831180809,-33.23169353825676,76.74814030315144,1.4867238933190745,1.933011121589292,-0.43312199546918795,0.09555065180015372,0.1626493530321769,-0.07815515435263345,nm,0.0
125.27181300000001,-21.156276728160776,-33.63721754726059,75.50619176020753,1.778903108319161,2.462421822353332,-0.05744214644817688,0.1532716044209293,0.2288300144308237,-0.0779669445743841,nm,0.0
125.28132199999999,-20.100141900588007,-34.07420039314926,74.86574578131857,1.9656027146928063,2.847323549880166,0.3570048807661577,0.14319212652003357,0.14950330372721765,-0.007292370205534755,nm,0.0
125.29083499999999,-20.04858300678964,-34.322216614092376,75.36479262833903,1.8073005607528616,2.8975335922864347,0.5019722160783782,0.06388007487428533,-0.0022898399946419423,0.10885484379261223,nm,0.0
125.309856,-21.623113696013856,-34.078402165570715,78.38584690987969,0.998450800150958,1.9304502210789793,-0.275184894385155,-0.05485317950407508,-0.12235936165504693,0.2274930684557186,nm,0.0
125.31937099999999,-21.495801123417042,-33.74996775377276,79.36811913069768,0.6504080196799183,1.2133359795956362,-0.5651633096050395,-0.046968728050333114,0.03647577393133303,0.21423444448209808,nm,0.0
125.34810100000001,-18.24018306741084,-32.83968397612821,78.18371152895406,-0.14415372419873793,-0.2148622060475867,0.03824524461005763,-0.020919935949332977,0.2553209672624352,-0.017931429420459003,nm,0.0
125.3671,-16.6851199472377,-31.43479007159925,76.98932817630073,-0.582418901100092,-0.9562433273176854,0.619816012911588,-0.11550146934196877,0.09883359723861747,-0.030954254396350845,nm,0.0
125.37661700000001,-16.991906127547768,-30.778958709456063,77.24845548306361,-1.0520891134889965,-1.581078541016785,0.7614518095928452,-0.12608538279402903,-0.018812835319711067,0.022335060893353673,nm,0.0
125.38611700000001,-18.116916014250798,-30.395925583907154,78.01462776219334,-1.7426801403009058,-2.410272436709769,0.9601385974349322,-0.10283050196715775,-0.1697423939412366,0.04113469723551088,nm,0.0
125.395456,-20.076763943210523,-30.35015299629873,78.90114149063389,-2.1310179820973594,-3.3693239400213892,0.9634313214148973,-0.06316192784109288,-0.32665110518981005,-0.018210117671259227,nm,0.0
125.40496999999999,-21.880120936482168,-30.54681073637481,79.47689010219739,-2.120766534032717,-3.8133346102959633,0.4651349944306944,-0.006213229448500064,-0.30999635333159603,-0.06462647900171549,nm,0.0
125.423994,-23.757864197224468,-31.368437931383642,78.42719858870744,-1.755452428945979,-2.8502887369085896,-0.30748450114087783,0.08100353088244779,-0.16116943929885327,-0.2754661739129484,nm,0.0
125.43349699999999,-24.203838931949885,-32.105543866943165,76.98324757454893,-0.9791177506596931,-1.664080092403394,-0.4808281274714264,0.1415661960765108,-0.1034395559282922,-0.33239279808942673,nm,0.0
125.44321099999999,-24.417344713363164,-33.01372882756412,75.49355513122696,-0.5023555154078033,-0.5598945514347159,-0.3327508586981604,0.18162283163132334,-0.07649569112883048,-0.31746019294226097,nm,0.0
125.462032,-25.344290459705224,-34.369217046708826,73.47028041286882,0.799327789761695,0.7925088499619289,-0.708167172742177,0.09622000615704183,-0.10057442950093928,-0.20326261047162753,nm,0.0
125.47154,-25.574975821633142,-34.77130909315205,73.21914324494075,0.7329140509258235,0.9159238772905722,-0.8502068171499706,0.07977599441593904,-0.05852181387122029,-0.07231669427495943,nm,0.0
125.49055899999999,-26.318338609392526,-35.244881552441235,73.3021791787197,0.6315090842134911,1.0199902208248612,-0.5821334276104345,0.009634983926068036,-0.06408389030513578,-0.04287491694927901,nm,0.0
