timestamp,roll,pitch,yaw,acc_x,acc_y,acc_z,gyro_x,gyro_y,gyro_z,markers,motor_input
119.518259,-35.425947522505155,-43.41381722627879,81.59098082816858,1.007183675767515,-0.03024388790895811,-0.23023678351909635,0.35541566589999984,-0.08718504323690653,-0.07020360090849764,nm,0.0
119.527601,-36.569778655408264,-45.13260875283554,81.73596097685197,1.03376966626879,0.06639239485303394,-0.5490074351574027,0.3293273534972789,-0.21164295423006402,-0.12418522041116015,nm,0.0
119.54662300000001,-39.79044600691862,-46.62308589574317,81.42596195403983,1.0137840391326454,0.379590076190164,-0.8933757654897787,0.04015021020172639,-0.22664511568301418,-0.3065823481013132,nm,0.0
119.556107,-41.133053748339684,-46.02720389600134,80.35343476976135,0.9057454672268083,0.7331957671789893,-0.7169598431268001,-0.13514461901668062,-0.16496822027066632,-0.40180792175821584,nm,0.0
119.575323,-44.171094166480856,-43.239277888144215,77.27903019836472,0.5899816197414123,1.8382892858515374,0.15185877825554395,-0.3425104764825943,-0.17510782872828365,-0.5425395746032533,nm,0.0
119.58463699999999,-46.65750045534679,-41.71038105857218,75.79409147577151,1.0884355453013175,2.543699563742097,0.5801439992803348,-0.37175431662757036,-0.28748667500419317,-0.625389690243024,nm,0.0
119.594334,-49.27558544981775,-40.44115419739111,74.72664271265913,1.0699185349666398,2.9701409716581844,0.8248799833542285,-0.33513699618753623,-0.31945004369741636,-0.549693761619917,nm,0.0
119.60367400000001,-52.32744071456245,-39.7640923776357,74.39596879950558,0.8992427150937008,2.983599537312257,0.5753397270572599,-0.24426756234138702,-0.416604855564073,-0.4509328436109731,nm,0.0
119.62286800000001,-58.434151054167536,-39.57402226333131,76.2927395928591,0.4555838318296551,1.7959254156848583,0.18185595387452697,-0.11188322354333953,-0.4052339570847872,-0.0696254346553142,nm,0.0
119.63218699999999,-61.16821783671942,-39.01407933254847,78.44090824143544,-0.7541505333427097,1.3858521464442088,-0.236721246839434,-0.19227414013310054,-0.39085918105231127,0.0935269168137457,nm,0.0
119.651207,-65.87058321969965,-36.18227535372851,83.18409431355917,-0.5751627299822134,0.3240123840196289,-0.850302476536564,-0.35504043335013086,-0.17807310835430967,0.2896481810327604,nm,0.0
119.66072500000001,-65.38414689063389,-34.46228500175183,84.80081942773973,-1.2829916324394892,-0.1802134960837702,-1.239330218422392,-0.3248943963052668,0.11466261636367242,0.39073228426288387,nm,0.0
119.670231,-63.73694815609779,-33.378248644906826,86.20722237041953,-1.1243227568726184,-0.7152017589554481,-1.170967161368967,-0.18533666080959957,0.2900163243950467,0.47611846412770614,nm,0.0
119.70827399999999,-40.803634599834524,-35.22345902209248,87.70315795184497,-2.623987214753773,-3.463165822062386,1.0035723541542778,0.22502679034160297,1.2312257614452304,0.7566284976902885,nm,0.0
119.717792,-34.43417148279424,-36.28532466366054,87.0577464174916,-1.236267969207112,-3.325420290533356,0.9900203332431683,0.2720800629814919,1.0271910428919087,0.6220132193214166,nm,0.0
119.72748100000001,-29.166383009337213,-37.23769784218787,86.40714847519612,-0.02825224249694774,-2.4879763431541306,0.666244854833124,0.25127305621837837,0.8362156550238511,0.5061464897365588,nm,0.0
119.75582700000001,-21.786403592218452,-38.21865832337416,85.4592365428404,1.646730578293705,0.07853186030309908,-0.2069549518738446,0.0861952240861929,0.19624812206180214,0.16692669687271963,nm,0.0
119.765515,-21.13447193517238,-38.58315190967741,85.68009895990083,1.4304334164611099,0.37986844777775014,-0.09352535309445376,0.09372230079730184,0.10059517572645552,0.12904128064401083,nm,0.0
119.78436400000001,-21.326597073914495,-38.926277998808764,85.25404469146125,1.5195091883340865,0.7419133422437958,-0.37539454232588426,0.02756317912682282,-0.017872667256675724,-0.1007871327892543,nm,0.0
119.79386299999999,-21.241658692564428,-38.931221554009205,84.29307693241331,1.3102490382073861,0.8078809277307526,-0.3514002907560597,0.0153128018948773,0.016933901392398813,-0.17794349529446685,nm,0.0
119.82240300000001,-21.2295609031282,-37.511207571327205,79.19231471966697,1.1930238321535838,1.6972686634415644,0.19150890456372974,-0.1360833933229499,-0.0013941662993793634,-0.3739126434565626,nm,0.0
119.832096,-22.130025011799038,-36.8295126514609,77.90011065281996,1.1031894605302013,2.1040631000713246,0.5578481991450498,-0.1488657108095668,-0.11134794293834899,-0.3639385979686673,nm,0.0
119.84159199999999,-23.801757199810442,-36.07317140779842,77.18764256581511,0.9271655756065471,2.3319806754706973,0.720980501627219,-0.19250856877877043,-0.2282215583381274,-0.33758148521109566,nm,0.0
119.85092599999999,-26.109402055844235,-35.341597640453024,77.00927742036916,0.767857766791338,2.211430462146232,0.44166890709317075,-0.2131643577432042,-0.3312720644097816,-0.30110141556674913,nm,0.0
119.87013200000001,-30.384582050266026,-34.59497931895929,78.1931405484367,0.15390124523277643,1.287651498439848,0.38257277516761107,-0.12247714490976787,-0.2849362409272916,-0.04526370019511648,nm,0.0
119.879649,-32.47613879978285,-34.00821225493462,79.23515893452874,-0.3485013873559354,0.7136948135766437,0.13764775650292385,-0.16986734435898382,-0.3146133631293567,-0.02204211945193346,nm,0.0
119.889163,-34.67331849626481,-33.33669570259402,80.2471629555472,-0.12405906773687332,0.14092692922413197,-0.2620574036440072,-0.18461204110055926,-0.33462035729858025,-0.035616271877376676,nm,0.0
119.89867699999999,-35.51809559633821,-32.818965256429635,81.14041884912226,-0.4961942772856791,-0.44939636775038405,-0.4078924317073148,-0.11240620571580161,-0.12122449678130062,0.09236168673447268,nm,0.0
119.907993,-35.03869270067425,-32.60403179946111,81.71112475638256,-1.5392210708581935,-1.1066725198552596,-0.11576342218177764,-0.017682050289636365,0.08837672742824028,0.17188384553025712,nm,0.0
119.92702,-31.59721671666041,-33.16603963179916,81.70456066803474,-1.841895655355281,-2.174422049617311,0.3715266388979416,0.15097910521648722,0.3833222965111272,0.23036976393521624,nm,0.0
119.95554200000001,-21.24538299453832,-34.98590166973035,80.35654774915075,-1.7410091460020793,-3.116584428010781,0.829779608414382,0.26583208730873564,0.5413824874600079,0.3113717521759152,nm,0.0
119.96506099999999,-19.268472997853223,-35.9150248132128,79.77586599556632,-0.7721118519825492,-2.3701588820315744,0.3309589215260493,0.2523431285792775,0.2888136526224648,0.11650864844371925,nm,0.0
119.974556,-18.1299242367347,-36.637969713308856,79.01329038422769,0.20262900563367103,-1.4249657425891655,-0.23952658295138046,0.18962479868107102,0.15720264870804182,-0.014757414944998486,nm,0.0
119.98426,-17.377868765771503,-37.34936372760345,78.3130818511405,0.09366533949022617,-0.8451611950295311,-0.08329690641204139,0.17686445911602755,0.09301645122536785,-0.04661446146451678,nm,0.0
119.99378899999999,-17.889528901627163,-38.246299799562046,77.76604301710421,0.6463043082057509,-0.014970376974264706,-0.3118433642903168,0.172496924694641,-0.11359183102945876,-0.16918212490483725,nm,0.0
120.041147,-25.07300855429251,-38.50324222454814,75.97535465300584,0.7272616364976356,1.358497008280477,-0.25291338411453096,-0.14180029796805182,-0.18816865666402127,-0.2576280110539631,nm,0.0
120.05066099999999,-26.167449186554148,-37.56869800907725,75.32433938260417,0.9845340931298565,1.8014834680968854,-0.1206857334769564,-0.21069881187519937,-0.11964273331394723,-0.2608785754029968,nm,0.0
120.069661,-27.5939533965879,-35.92587907754297,74.39970127654769,1.2322777375165088,2.7340594864340093,0.5571482827969736,-0.14081777463715006,-0.07466673166547849,-0.13686162475055325,nm,0.0
120.07917599999999,-28.537135195855786,-35.65266387871023,74.56093135432862,1.1927768577349538,2.7873519537206684,0.6722783021562186,-0.08036627070843391,-0.13207486158822587,-0.07338981677576775,nm,0.0
120.088685,-29.8187260945969,-35.84574068960669,75.26164329607442,0.9284377469747764,2.327539955350169,0.4170747034374542,-0.0036201685146128293,-0.21025306593133752,-0.004613434309824314,nm,0.0
120.098388,-31.297960758506377,-36.45686184056025,76.36387231870076,0.6892789764973135,1.7102402624686286,0.20492189059689278,0.07317772130408585,-0.2609356549806592,0.05127596546997641,nm,0.0
120.10788,-32.36056791786458,-36.91386543687363,77.41867025381275,0.29372395809594504,0.8809628747615992,-0.22464722103432924,0.06348959964322064,-0.1859310323958299,0.08961998660839417,nm,0.0
120.11739600000001,-33.23499925097719,-37.2570254223081,78.38336487044091,-0.21071773751714998,0.27166281458824754,-0.2940630956090743,0.05088991126226762,-0.14989112115657124,0.09328845804621431,nm,0.0
120.12673799999999,-33.86500835443559,-37.40020934721389,79.07787419080697,-0.31232415024405474,-0.5480059091570931,-0.7874199036376202,0.021427731283512816,-0.10282940723087201,0.06839945970318971,nm,0.0
120.13623899999999,-33.81524810989007,-37.44626511807752,79.53912641510962,-0.7824489528517758,-1.0998756868812536,-0.6576267250608515,0.023428832821019985,0.007322892619095387,0.10424605572059485,nm,0.0
120.145746,-32.941368772539114,-37.248590698663556,79.56835767489413,-1.4476821438004568,-1.8054684933956302,-0.5091969138082382,-0.0007590635533630885,0.1453690333994932,0.1176834150366209,nm,0.0
120.174271,-26.828506164668127,-36.24171479232488,77.41589526127461,-2.005454430815827,-2.629654404737166,0.320835561492034,0.043062519709229086,0.3942228773422839,0.09849625044124925,nm,0.0
120.18379999999999,-24.56755249760462,-36.325955458311384,76.42418127901927,-1.3400099460698907,-2.2167211610445112,0.1545845033101235,0.11248087165198256,0.35342468448275766,0.07351493018170249,nm,0.0
120.202992,-21.491609646675737,-37.86882094564388,74.82115921317498,-0.4950487143297012,-1.1983659254727594,-0.08306708266649365,0.2425487183411155,0.10027052204044004,-0.029448978398313962,nm,0.0
120.21252100000001,-21.004016651551286,-38.90865087869995,74.18713716998164,0.26447509664661734,-0.6661352654153773,-0.46902778879303214,0.23472659037898097,0.019641233137780868,-0.06256636258636995,nm,0.0
120.22201899999999,-20.605770271666387,-39.78967276413861,73.71020957481662,0.09162767717034033,-0.4051599183745366,-0.4024150137383865,0.2002309073242936,0.011895642545498549,-0.041173000141507925,nm,0.0
120.23153400000001,-21.040738153886494,-40.36865372813823,73.2812117558731,0.4909394102392278,-0.04678932793316947,-0.6558589723334138,0.1058435882318473,-0.09562733507529739,-0.13810284378578444,nm,0.0
120.24104,-21.702101605703735,-40.410016508810465,72.79264761616889,0.5849543650658356,0.1773852829345076,-0.6278127995439785,-0.007921368746307096,-0.09789931023560736,-0.17965831406815064,nm,0.0
120.250554,-22.352687554200187,-39.760379368054025,72.10246574155026,0.3965845532656623,0.4086618517752091,-0.46115229925303763,-0.14052524986625928,-0.05501112206740363,-0.21805553569286787,nm,0.0
120.26006100000001,-23.18088303822986,-38.54780166426274,71.17305925348347,0.639946687110305,0.7883222532946399,-0.3817205544696781,-0.2574155413946271,-0.04502512208734357,-0.28674389974471776,nm,0.0
120.26956899999999,-23.719208172536966,-36.93678089278427,70.09622571989397,0.8657240621439305,1.291673919922168,-0.07358228918137874,-0.31905603934763416,0.026877038651166387,-0.2775696203410136,nm,0.0
120.28841,-23.92339729375581,-33.37435630152684,68.23072220361753,1.5372029511480334,2.7175476627820268,0.7825899573375974,-0.30451512422973304,0.11632336995199231,-0.15578681032510705,nm,0.0
120.298091,-24.121333615150956,-32.112093617899816,68.04820175644771,1.7143599727743024,3.208451411658061,1.120085234394806,-0.233300362110221,0.06328539781592604,-0.05431399950312957,nm,0.0
120.30742699999999,-24.732674358728506,-31.45090817051596,68.5912978148078,1.6608880530080423,3.0666841393126867,0.9158952278113432,-0.1477715069212265,-0.047569308948031026,0.047992004126287575,nm,0.0
120.317117,-25.845019840782886,-31.667967481484357,69.90936080903694,1.1389527428932202,2.333786578239407,0.636335625507764,-0.012937443627037486,-0.19247534068459424,0.1512852682542641,nm,0.0
120.345663,-28.64136825390327,-33.029624151831,73.89936088354644,-0.25739498410452677,0.02681534341031872,-0.10183701760125571,0.05383811615663308,-0.11448581556671851,0.15770914576071057,nm,0.0
120.364666,-28.358687700787797,-33.05981445330515,75.07162256239428,-0.8909415945986209,-0.8547934996091575,-0.04102164642539357,0.01443917218491157,0.08665095957962508,0.14871531539934912,nm,0.0
120.37417500000001,-27.49377028419841,-32.679972305656754,75.29242913892378,-1.3467847180937391,-1.308921695781952,0.17288899038469993,-0.0228834712562507,0.16151206768865597,0.14256445339677598,nm,0.0
120.38368600000001,-26.63818154902572,-32.480771978399154,75.65461529539526,-1.2936644878339916,-1.5213135971094198,0.3778065430291981,0.011080494802525757,0.15138298398126754,0.1689532570129871,nm,0.0
120.39318800000001,-25.443234289705487,-32.62813000460089,76.34339822302793,-1.8931512052846418,-1.9666347651627039,1.000910469766707,0.09094537057838809,0.1904762963609098,0.27063633749987404,nm,0.0
120.40271100000001,-24.33613889448688,-32.91030202525738,77.05280187199858,-2.080764031580679,-2.33913325371378,1.0097834541401836,0.11140859197405575,0.1706045466180489,0.2658178304881844,nm,0.0
120.41203999999999,-23.61503283688052,-33.41471830582976,77.57367778989341,-1.7276196056822044,-2.557088585458044,0.4311814895004686,0.13861410186394818,0.09810894117709895,0.18698144422966745,nm,0.0
120.42156700000001,-23.05455596375751,-34.426545388055686,77.87850593193545,-1.5516381232552772,-2.548130630547351,-0.11260174564238455,0.2312988886600435,0.0503660863450509,0.12735875668169405,nm,0.0
120.431062,-22.995059760863658,-35.762439090057676,77.76004876466921,-1.3677190860459159,-2.1351907272400013,-0.26797739140990456,0.2770487080861097,-0.0445978700998637,-0.013058863910892494,nm,0.0
120.44056499999999,-23.459134910306304,-36.829973956835275,77.05149389834826,-0.1998281577661575,-1.3597392515001638,-0.8393866221160778,0.20578496805381744,-0.11770198089068708,-0.19289450695172125,nm,0.0
120.45009300000001,-23.388838518668603,-37.51548162614668,76.13694807888197,0.2802479565113741,-0.5839137354933225,-0.9085578289913345,0.14963467618036047,-0.019162000947107613,-0.1705802040139924,nm,0.0
120.459597,-23.24950256466095,-37.942913967668225,75.3635632503512,0.5887302198264914,0.1382980675155317,-0.7502659789919325,0.10191155813757485,0.0018838561994726692,-0.13373860599410548,nm,0.0
120.48811900000001,-22.22331247972085,-36.45198638559496,73.94301319470695,1.6144895091608122,1.876744367009277,-0.17366828273239646,-0.16301165821480523,0.1475111113595994,-0.013143612847420223,nm,0.0
120.49764200000001,-21.69929544461011,-35.42096309667527,73.77472994502585,1.6397045257238518,2.2725688043307875,0.2612235038049148,-0.161049645293831,0.1405739971841954,0.03141502084793878,nm,0.0
