timestamp,roll,pitch,yaw,acc_x,acc_y,acc_z,gyro_x,gyro_y,gyro_z,markers,motor_input
97.50174999999999,21.707947310378586,-45.39646040597265,-112.6134412348813,-1.4138717334727586,0.9867803383118484,-0.7979746260232007,0.05002243056848511,-0.9683296989017812,-0.5374020924748945,nm,0.0
97.511278,24.5349721142097,-44.131188426957976,-117.29998458828437,-1.591004675795018,1.2365759177071276,-0.7780429747941572,0.0469381197259228,-0.47712579051473597,-0.521042444448152,nm,0.0
97.520778,23.37235118138072,-44.229805242347005,-118.76087675411458,-0.9853876441688684,1.9143062995012343,0.06388543701864707,0.04862863304619792,0.15112494253016232,-0.37143139986014384,nm,0.0
97.53045900000001,17.456826942850295,-45.29275512557467,-116.16733258895405,-0.127511083878935,2.174582906943822,0.5670699451027827,0.18589707538265826,0.8392460972371104,-0.3164240025470358,nm,0.0
97.53998000000001,8.076151890687362,-46.14036999187131,-110.79890637286734,0.9231273117642668,2.3632866121096248,0.7549940546576418,0.35362428757614844,1.2650150010707675,-0.2712052102209268,nm,0.0
97.558821,-11.811887133161799,-44.97078078323821,-100.79357576955188,2.596302568629044,2.182832473046283,-0.13986753814894148,0.4639550230980958,1.2242360263929457,-0.5099033908567481,nm,0.0
97.56832399999999,-18.3061917575964,-44.18415231228055,-99.83987281984437,2.9870385365751306,1.8153736869330968,-0.7232124906229563,0.30732760849345764,0.8801009293382619,-0.7181726753539566,nm,0.0
97.577845,-22.407279384640496,-44.59757875706159,-101.5222253462742,2.5332216294035264,1.0741578980130093,-1.267682829316226,0.014127154260500378,0.5902249134992411,-0.9068434592284867,nm,0.0
97.58735200000001,-24.42128846469068,-46.407309442251425,-104.35288218362187,1.8896802903486587,0.3822840682339717,-1.1775706059278388,-0.3032299229539698,0.35596220133458,-0.8495554913910572,nm,0.0
97.616075,-25.24001793616741,-50.953587686360386,-107.22483623173795,-0.10158502237550379,-0.812236689982107,-0.3961832508544818,-0.1249103994897818,0.07264955325831811,0.08203598892208361,nm,0.0
97.62539699999999,-25.581397664559088,-50.74128527548289,-104.40510084147203,-0.5755818139894954,-1.3018742755945518,-0.22452645984882857,0.0394098516798537,0.029700171192955278,0.470811643572678,nm,0.0
97.634895,-25.130398255288387,-49.89484704102457,-100.87207732647074,-1.1167927017138997,-2.1292799522131656,0.06126009181503482,0.1396883440666156,-0.09461689471642802,0.7659323608068976,nm,0.0
97.644421,-22.60754093368169,-48.566760239396125,-97.75733536957836,-1.7609195193357559,-3.4423345766757016,0.9769483757444216,0.19609448697005513,-0.3711897653968109,0.9997175062267677,nm,0.0
97.6541,-19.333654010878554,-47.549757383265096,-94.52694827479867,-2.6910852126678315,-4.309061178109467,4.721671500404402,0.14258105431133516,-0.4615653808790461,1.1386358877726683,nm,0.0
97.663612,-19.085935116354154,-46.92511050635161,-88.92598367939091,-2.441256341434034,-3.990053212244618,3.7618303852066917,0.11142330142252406,-0.04294345326790293,1.1879636324957743,nm,0.0
97.672947,-19.36476859829587,-46.89984376442081,-83.91073777446016,-1.0080604064327132,-2.120284754565032,-0.31125557777199775,-0.009311798397253466,0.03200852674402159,1.0472403084903323,nm,0.0
97.68245300000001,-16.308146735110487,-48.37129970623292,-83.79468867263893,-0.2524719058593613,-0.5078479367844569,-1.0364625564549805,-0.26226582664292597,-0.4474503436721356,0.5581533626612193,nm,0.0
97.692037,-8.652139369182537,-49.831074030108056,-89.86274454216408,-0.06204769014778711,0.3778918464391956,-1.655888981342742,-0.24538392639432582,-1.0249307167429456,-0.11426666510768614,nm,0.0
97.720494,18.76077568738762,-44.85138800506447,-120.22479398904103,-1.4436172622332484,0.7604520179791937,-0.5411635284461315,0.06908341755666177,-0.9631464840870101,-0.8416333431397852,nm,0.0
97.73970399999999,15.731752415912117,-44.37864923946934,-121.67444261706733,-0.495309460609909,1.5324082853186083,0.5482533427131289,0.19838327090888605,0.5434972070771253,-0.10626189498395548,nm,0.0
97.749212,7.569626827478102,-45.521437951526806,-115.75887326317907,0.6086465198475965,1.7754581838739933,0.5018274320156156,0.34762064329422765,1.1183229089874278,0.15519622879628478,nm,0.0
97.758533,-2.318257795886127,-45.89682569633379,-108.3244874382431,1.810867517502991,2.1968026463654224,-0.010671497018011542,0.4429799783647549,1.3026488228093438,0.20483746988132123,nm,0.0
97.768047,-10.992687495770317,-45.441700118135266,-102.77777512700986,2.4613390424378347,2.394095793000624,-0.6816012955555721,0.40550963606771484,1.1386920737810644,-0.005703908072836963,nm,0.0
97.777549,-16.301210991217403,-44.968024653393954,-101.25679606430447,2.852564098319069,2.3926052855069684,-1.3337643007039863,0.23780315711569827,0.708852845862054,-0.36152370695812136,nm,0.0
97.78708,-18.258017274398863,-45.59981579147631,-103.70036505592051,2.4993761150884355,1.714042986042644,-1.540903670843429,-0.0771226249229707,0.29470651979760254,-0.7390590958192681,nm,0.0
97.79657900000001,-17.407063005281078,-47.463264787130846,-108.68008928857991,1.7857276677749456,0.9057992789943804,-1.150741836321157,-0.4047161167604244,-0.009238373096391726,-0.8693809374522067,nm,0.0
97.80626699999999,-15.03106794969323,-49.63872182877043,-113.68088120958072,0.9699247907252363,0.1957772892820298,-0.2941261587913116,-0.5331968040664062,-0.1378613184175725,-0.7197926095476375,nm,0.0
97.825288,-13.836598488050141,-51.573192213736725,-115.72999027700513,-0.5467309994478963,-0.7657018005892039,0.7725064850588093,-0.0682628002687077,0.10314885486552679,0.05241949526232067,nm,0.0
97.84431000000001,-20.4652090589314,-49.882886313755336,-103.46889978908898,-0.8638893085652304,-2.215614201381098,0.9779365941203875,0.3734153452007717,0.3775939073206063,0.909357815221076,nm,0.0
97.85365100000001,-23.06213882488448,-48.20093791743031,-96.31574284165356,-0.8087641371194274,-2.722191185457559,0.5725562867950368,0.378080823029355,0.274000378235369,1.1072422371985053,nm,0.0
97.86315300000001,-23.49156235895813,-47.32076779792626,-90.62933219036789,-1.059664650555762,-3.0756358639526558,0.744414791739092,0.16681316333675716,0.042469803129764415,1.1229577859437838,nm,0.0
97.872851,-21.20265013093626,-47.39984263803434,-87.18644056670838,-1.116590887904748,-2.7415995729249434,0.7695390654050196,-0.02279632055696054,-0.3161125073591445,1.0605751930516236,nm,0.0
97.88235,-16.867876273622983,-48.27722057817701,-85.98210348266346,-0.734009123448965,-1.5587716818665704,0.963972257124847,-0.15304789082568804,-0.59824709127498,0.8954694844523138,nm,0.0
97.891863,-11.765861210775096,-49.30332804214977,-87.31625068322435,-0.9099522336773848,-0.9089811050559979,0.4636478195953914,-0.1774841630784274,-0.6905063796457163,0.4934293934407897,nm,0.0
97.901197,-5.292336952238404,-49.687859577719244,-91.47829161607437,-1.3170665234891443,-0.7454679414793045,-0.4395318711310704,-0.07963145983899682,-0.8491322533867752,0.13613228841821715,nm,0.0
97.929719,14.680829121067653,-46.97819386874545,-110.26870477689813,-1.4459038872064436,0.4045557847310083,-0.7626669409270043,0.0278606448637144,-0.6569359401723819,-0.48737510634177106,nm,0.0
97.939231,16.512502119553023,-46.20600790637214,-114.0192677097267,-1.1093004015327728,1.0930846323462406,-0.36391555952681603,0.03430229021294772,-0.297101438805327,-0.4228810504209782,nm,0.0
97.948928,14.92030541016091,-46.38795060789997,-115.28748215063699,-0.3986839386381425,1.8105024725188101,0.09588631658951943,0.04626478090151065,0.2104746791554,-0.3947881285928823,nm,0.0
97.958429,9.88152298050067,-47.42954214073579,-113.65322986803235,0.10109632879643343,1.9935914838483615,0.2874931535485028,0.08222216224008555,0.7094022611037214,-0.4097712102966055,nm,0.0
97.97727499999999,-5.622683617916293,-48.421459204097545,-106.51142205146569,1.7241275912354466,2.036592368883407,0.05687154479952024,0.3203266110269438,1.05342925607142,-0.41794305163513984,nm,0.0
97.99629200000001,-18.843048217310187,-47.93446928478832,-102.67937142485758,2.3990874300575515,1.3530738644747913,-0.6055421150282096,0.19854042109158615,0.7131395471894462,-0.5439849941958365,nm,0.0
98.00581199999999,-22.527930883215564,-48.18133888223218,-103.20929475502051,2.1286888022246835,0.7569657270690309,-0.841666424473122,0.049440483692451784,0.49046927368693755,-0.629415895645074,nm,0.0
98.015322,-24.531144734628377,-49.086486418915996,-104.51513152776288,1.390293804769283,0.1798283736600431,-0.9415271580471158,-0.12595630082129622,0.3002343298703355,-0.5774667668915342,nm,0.0
98.053529,-25.638534029833302,-52.53059400317356,-102.73521883207202,-0.6560050929200097,-1.3880100517310334,0.23418327144087744,-0.05175896839581453,0.009395339479874717,0.4085420105928818,nm,0.0
98.06305,-25.06570488600375,-52.31989122619893,-99.76633130766604,-1.324094036471147,-2.308970453774959,0.8508490385840364,0.014683911764936036,-0.07820124546116916,0.6689621831266853,nm,0.0
98.07256699999999,-23.139158445065082,-51.68902620180091,-96.61865277768419,-1.0227942692338206,-2.6597771110547757,1.4010618770556986,0.07827134129606947,-0.25559194940354923,0.9273588825025421,nm,0.0
98.08206999999999,-20.85184639156383,-51.29651113789997,-93.52225878878363,-1.5368260868071741,-2.89288373723558,2.1085213213362324,0.04021397328106598,-0.294710959398603,0.9779122087005123,nm,0.0
98.09157300000001,-18.03711922071974,-51.38080320118293,-90.48302433680216,-1.1140299995758518,-2.1643548699523207,1.708340948157391,-0.04203120649934928,-0.35621288807691115,1.0616169286995458,nm,0.0
98.11041700000001,-10.947884967454788,-53.013068623030925,-89.63606151974683,-1.1015220429821821,-0.7927627293491808,-0.42111272940047256,-0.18100904848052488,-0.4993923756138844,0.42568220457153894,nm,0.0
98.119946,-3.7262347651361774,-53.536197785445,-94.67143207247267,-0.9745911513959798,-0.21226453731048925,-1.2054347371256033,-0.15009057249418936,-0.8657388713044115,0.16888209279753943,nm,0.0
98.12946400000001,5.514878711282666,-53.33791103589793,-102.57037714892425,-0.6376277465011377,0.7094263990623811,-0.8694036216581876,-0.1379043538506486,-1.1009308367816908,-0.1099861392779619,nm,0.0
98.158109,18.242362195281572,-48.678359547516244,-119.91306369819507,-0.9266153913090234,1.0705456267869486,-0.15782770411351207,0.19256264185362423,-0.1815486079180616,-0.47117385365158615,nm,0.0
98.167609,14.309704569379496,-48.613510263312044,-119.04945779299224,-0.5848956199224666,0.9062706362777109,0.2689017079797492,0.2536650496143235,0.44276301343547053,-0.41856251396107924,nm,0.0
98.17712800000001,7.249517979454261,-48.888949988739526,-115.04255303567311,0.006068911742266359,0.7314134719156675,0.49429210555225,0.36087131468866207,0.8514498911033447,-0.2606657268757751,nm,0.0
98.18668400000001,-1.2281561995434593,-48.527690623084304,-109.5902834917646,0.96515102515431,0.7558063997994624,0.3441141262167852,0.47819217510884826,1.005036466192149,-0.18322408181107422,nm,0.0
98.19601800000001,-9.22777428259639,-47.78991185809435,-105.02445668969602,1.0444960957157694,0.4694999503331466,-0.5086089005417215,0.4449076365069748,0.9727883083983266,-0.2772908630953633,nm,0.0
98.205522,-14.71071565394001,-47.414210435725806,-102.77116761700559,1.4902640003979422,0.5596375066203643,-0.7057660301870868,0.23724363910903387,0.6977614126967785,-0.3563580959696689,nm,0.0
98.215044,-17.54804426692808,-47.57037537642297,-103.38951107471837,1.5209528627811741,0.4166819155125915,-0.9103205859605037,0.0429575518184767,0.3790089973740703,-0.5387126062840302,nm,0.0
98.224559,-18.068368106952985,-48.328141059924384,-106.20008844930558,0.9468403097583024,0.10533143296636188,-1.033985517058082,-0.1424170977217388,0.10506221642366194,-0.6360097675606698,nm,0.0
98.24375599999999,-15.850170830414726,-50.522724225825876,-111.8713654506596,0.45722422776843097,0.03870767773666644,-0.03208438539594898,-0.24847721753469765,-0.06472811705711141,-0.28952312607880126,nm,0.0
98.262775,-17.222645183372478,-49.9544136555066,-109.43435716194053,0.07748478159589962,-0.04195808616057641,0.12135679991385234,0.17143574787864774,0.11655287278681745,0.2776323935710957,nm,0.0
98.272288,-19.631049003834924,-49.119353133277876,-105.18313369546775,0.14844978779788637,-0.08103480298082726,0.06628143266292678,0.23925131526950502,0.24775620070008625,0.48853880309144687,nm,0.0
98.291315,-23.04367889674433,-48.00121932040526,-97.31821186820954,0.48574339248217896,0.044540332346385526,-0.048713188672533866,0.08363601873644767,0.13205566859606652,0.5359146484431806,nm,0.0
98.30083099999999,-23.170681230827512,-48.310390334404396,-95.78637650171403,0.2952113294960735,0.03639392401256182,-0.07290323087279847,-0.07264818442170252,0.021020072638430223,0.2925673141530643,nm,0.0
98.31034399999999,-22.121253221231004,-49.380675647466745,-96.14070971070461,-0.13031691444948884,-0.1773777899405908,0.09383736963451288,-0.2404935930369949,-0.11838522994218682,0.06584326306183391,nm,0.0
98.35785999999999,-16.78433710889387,-54.00144319343036,-102.20683576873252,-0.4209613381093464,-0.181682510225911,0.38381989643166287,-0.01467391739489398,0.1464022411879734,-0.011761474797447375,nm,0.0
98.36739,-18.75515274556662,-53.712757122001705,-100.52645842878162,-0.2583715456157204,-0.19783260432966468,0.13764461496658142,0.0894900613471804,0.2145660020299019,0.045903330517528984,nm,0.0
98.38641799999999,-21.91041593940666,-52.87582007714783,-98.10920644803578,0.08487022546694384,-0.2223491952149883,-0.15756384898370876,0.07930580883925846,0.14226514036253343,-0.021605328518959636,nm,0.0
98.395907,-21.989317874545424,-52.77827231061308,-98.53920491557935,0.09002497151497998,-0.2759460347324738,-0.2489308486187292,0.007588769821213589,0.004580228145426635,-0.08421171203109841,nm,0.0
98.40543500000001,-20.900925044724445,-53.05046941340491,-100.05394542249354,0.1266059799475347,-0.3277280379386106,-0.0742814662509949,-0.08816811400842733,-0.1227369400793259,-0.13415476228944084,nm,0.0
98.41494499999999,-19.176637761355266,-53.62322104272133,-102.16749824825676,-0.054370006738746764,-0.4030865299187289,0.04913873473873643,-0.16541592658439228,-0.1818876365462611,-0.16029869423578016,nm,0.0
98.42443499999999,-17.29002513264512,-54.287270568827765,-104.08757023964054,-0.153766386295252,-0.36559977395471693,0.21425214336374399,-0.193098216563467,-0.18794332221158752,-0.10757376150334479,nm,0.0
98.44347200000001,-15.263989546656921,-55.199652142578316,-105.2535772264163,-0.2405559379394392,-0.16479898482199268,0.13318806643954478,-0.10104682403302476,-0.04555732967908869,0.08986127171939873,nm,0.0
98.45299299999999,-15.611181683070738,-55.38133554510263,-104.02872326318337,-0.13753721802295243,-0.013705728851986494,0.02109731430995694,-0.03864690963679104,0.04574957204585802,0.18525822211501528,nm,0.0
98.46246,-16.524189605328242,-55.346169276117735,-102.18456072090207,-0.07112333673007525,0.0970202293558592,-0.17791465704763096,0.017062644706983023,0.09757609018904012,0.223255252959152,nm,0.0
98.471968,-17.354142978195103,-55.17506035581366,-100.46435463289419,-0.008280522568832856,0.17594759857787484,-0.29944101212412355,0.03891647094530672,0.08384267726766072,0.2123997371017125,nm,0.0
