timestamp,roll,pitch,yaw,acc_x,acc_y,acc_z,gyro_x,gyro_y,gyro_z,acc magnitude,gyro magnitude
0.0,-8.801254954285763,66.57189768580886,-148.02856229213594,0.0146433305970591,0.043190452668256,0.0245491012974992,0.0,0.0,0.0,,
0.0095099999999774,-8.88114912952318,66.52026297813089,-148.18108944718918,-0.0113453291252209,0.0423362859027788,0.0456469001987417,0.0,0.0,0.0,,
0.0380509999999958,-9.23219768904294,66.48224179659782,-148.57067476097768,-0.0063893222769768,0.0485263421461564,0.0638414274408298,0.0,0.0,0.0,,
0.0474579999999775,-9.279370477077338,66.54349490488913,-148.5702791616368,0.0214159850897328,0.0507954478240541,0.0459103601542563,0.0,0.0,0.0,,
0.0570589999999811,-9.273571945440622,66.64569455514511,-148.5007893493745,0.0472532929764786,0.0372488438424206,0.0291418382578817,0.0,0.0,0.0,,
0.0665799999999876,-9.188905030456676,66.75829526091916,-148.3576097506982,0.0468566989860907,0.0384352246249417,0.0123254602356181,0.0,0.0,0.0,,
0.0760789999999929,-9.06334762598015,66.87656290546641,-148.18791696378406,0.043821831642725,0.0389784416128598,-0.0246757117108557,0.0,0.0,0.0,,
0.0950969999999813,-8.755765085828715,67.05000727338285,-147.89608666965876,0.063686816648654,0.0141715424764427,-0.0260332993922929,0.0,0.0,0.0,,
0.1046209999999803,-8.629822663472224,67.09475610372779,-147.83462568078602,0.0534222557522736,0.0449466333070012,0.0010071156625657,0.0,0.0,0.0,,
0.1141239999999754,-8.535979019913915,67.10406521240857,-147.83496551700534,0.0471245743633825,0.0385434816250773,0.013910960568938,0.0,0.0,0.0,,
0.1426489999999773,-8.450438767899891,67.09176372167946,-148.05985992753486,0.0199394377213654,0.0460050814635426,0.0430096404889475,0.0,0.0,0.0,,
0.1521789999999896,-8.452753431032692,67.12110899491442,-148.13783958319198,0.0207367083650399,0.0516930623562318,0.0394149304365918,0.0,0.0,0.0,,
0.1806969999999808,-8.394612043059649,67.32755043669414,-148.20396848846343,0.0419121347513224,0.0342465854852997,0.0049902529943304,0.0,0.0,0.0,,
0.1902099999999791,-8.347536695162155,67.40317520207105,-148.18087063619808,0.0366035096979586,0.03165082907732,-0.0198900254214013,0.0,0.0,0.0,,
0.2187519999999949,-8.203188096946098,67.57048075717645,-148.15590064240203,0.0471861617132703,0.0381196284801277,0.0097287708235937,0.0,0.0,0.0,,
0.2282510000000002,-8.176470095980545,67.60922764329564,-148.19349609622276,0.0485231256506911,0.03873353006143,0.0154859165492263,0.0,0.0,0.0,,
0.2377689999999859,-8.164890085995015,67.64689876245654,-148.25154665163734,0.0484019040659376,0.0383110988780283,0.0188182667097915,0.0,0.0,0.0,,
0.2662880000000029,-8.10300765421539,67.7902239875358,-148.38435344883413,0.0445407714663849,0.0352938637180604,0.0135973457998668,0.0,0.0,0.0,,
0.2758029999999962,-8.07611431873929,67.85071577925552,-148.39581588437812,0.045135399840777,0.0359879401404019,0.009969026972202,0.0,0.0,0.0,,
0.304333999999983,-8.035560723513314,68.02736704956699,-148.2676458538656,0.0546144824532376,0.044266896366784,0.003868124851761,0.0,0.0,0.0,,
0.3138519999999971,-8.05302503187712,68.07100601673808,-148.16105902678785,0.0555317276355503,0.045215584427253,0.0038803129766331,0.0,0.0,0.0,,
0.3232759999999928,-8.076269058056047,68.1048947460225,-148.16395792571916,0.0584041376563213,0.0475373214550613,0.0048402232284139,0.0,0.0,0.0,,
0.3328689999999881,-8.091035559301393,68.1223099452858,-148.17181279408018,0.0557661788081377,0.0451726689377248,0.0079820784295976,0.0,0.0,0.0,,
0.3518969999999797,-8.065276343065992,68.13752376264091,-148.18362575232942,0.0525476094541792,0.0414368719322211,0.0234530141020633,0.0,0.0,0.0,,
0.3613959999999849,-8.022056121953002,68.14736728050164,-148.11946398024136,0.0524502923573614,0.0409563344466304,0.030097734729459,0.0,0.0,0.0,,
0.3709029999999984,-7.97194386662726,68.1708345019723,-148.08994918219702,0.0519578938421408,0.0403049375181922,0.0336767894011777,0.0,0.0,0.0,,
0.3804229999999791,-7.935438670445866,68.21174343098521,-148.07461917406596,0.0527816529319277,0.0411375876066464,0.031132447227987,0.0,0.0,0.0,,
0.3994429999999909,-7.956272392147847,68.32541363337032,-148.10748781784545,0.0543145152636078,0.0437159896966177,0.0110124925159958,0.0,0.0,0.0,,
0.4089599999999791,-8.005933038712671,68.40106618818406,-148.17988636548742,0.0628160490874164,0.0511426528896047,0.0032815350947927,0.0,0.0,0.0,,
0.4184589999999843,-8.054103747460996,68.49807657053555,-148.23558147879592,0.0949092879946052,0.0444210498149537,-0.0010974708614013,0.0,0.0,0.0,,
0.4374650000000031,-8.113020855793911,68.91954999131158,-148.24720713240387,0.2116604467070593,0.0951005150162604,0.0052634569690644,0.0,0.0,0.0,,
0.4469819999999913,-8.162803746154612,69.4322837638272,-148.24650398389826,0.3458341166474616,0.1876793216543571,0.0082235290809094,0.0,0.0,0.0,,
0.4564209999999775,-8.349374105538482,69.67692822120657,-148.30783917983854,0.5681029609326734,0.3587061275084158,-0.0338901976566114,0.0368930881391157,-0.0348644337217663,0.0227199028936787,,
0.4752459999999985,-9.610663003827844,71.02230061357099,-148.64338488850248,1.215747611868143,0.888478802663842,-0.2511039808427718,0.1358046065425542,-0.1149116595680517,0.0974794188456436,,
0.484755999999976,-10.992018554575658,72.18118916337887,-149.05397867262568,1.4538350708682737,1.0509371954080893,-0.4167347296884079,0.1950942537171962,-0.1535819348020342,0.157729252066252,,
0.4942669999999793,-12.81758582171054,73.46253946881376,-149.59698002899026,1.5450302297090517,1.0610185256870657,-0.6733515578347182,0.2241178803640764,-0.1658587868342742,0.2228348385227954,,
0.5037759999999878,-14.790105338150353,74.49411610897795,-149.89066615346306,1.5934365278414997,1.0227508728910202,-1.0572623818269715,0.1985630985573579,-0.1237648065585481,0.3072095389247993,,
0.5228060000000028,-16.223600129013196,74.10201541805098,-147.56644701981278,1.51053286986752,0.9465393335426752,-1.7755503355428863,-0.0763033787777434,0.1234213736217427,0.3620221863614988,,
0.5324049999999829,-15.837751772172243,72.20355013729575,-145.33764211683808,1.048202560495236,0.2809833087843091,-1.6667571583733622,-0.2284619809803482,0.3056947259223337,0.411698625638384,,
0.5419089999999755,-15.851903187704298,69.09457673345503,-143.43705661021824,0.3075423970106496,-0.1365629651333558,-1.3923087769639826,-0.3607402689707319,0.508662561470943,0.4481787056854689,,
0.5513289999999813,-15.52643190447521,65.06651480741361,-142.39135161195972,-0.6054007029529015,-1.3338830646376965,-0.5954845221428009,-0.5049777187768474,0.6306302831747234,0.2264210532985646,,
0.5608389999999872,-14.92841534767687,60.72093671106055,-142.57060259097804,-1.8115844418568376,-2.8976011176263565,0.8268738225314554,-0.5719410168868138,0.6589439039992153,-0.08308304695785,,
0.570526000000001,-13.512204598473636,56.65275638580998,-143.94664399771895,-2.9070643650245094,-3.469428855601681,2.2601948593903205,-0.6049038222162939,0.5658576420340037,-0.4817054578849315,,
0.5800619999999981,-10.506684550984122,53.274387115091486,-145.9929375510498,-3.4780990555125006,-3.1898289786906653,3.264936757580354,-0.6715987819868219,0.3556715886165962,-0.9022796094365528,,
0.5895399999999995,-6.684936523879722,51.3100676193421,-148.3020004857071,-3.914254890839655,-2.759295427677856,3.775924092875168,-0.6071102516266236,0.0750433804914217,-1.119464570071696,,
0.5990699999999833,-3.150785274890388,51.65064118053709,-150.72213452780915,-3.383509539299576,-1.7061688351918207,3.350145785674067,-0.3444181737253969,-0.2838644873507692,-1.1243774990107465,,
0.6085769999999968,-0.3230452297051368,53.77320515776592,-152.9568605670864,-2.4319922481687737,-0.8028705585364828,2.5767182748034463,-0.0999551789894409,-0.5372939156398826,-0.9864128944631764,,
0.6180870000000027,1.6586730734003698,56.53822417763685,-154.77413752845345,-1.948926222757491,-0.2243919878196208,1.5558316192206318,0.0419091797308192,-0.5971539875902289,-0.753094238871913,,
0.6275989999999751,3.54169163933408,59.75124646432042,-155.75547627245302,-1.244041443768251,0.3389103712757438,0.5136633770246625,0.0898524653230317,-0.6678002083770243,-0.5649347436477442,,
0.6464309999999784,8.643771148637004,65.55488689318027,-154.35247305812885,-0.3573639092689929,0.2324712022846144,-0.8675878428405209,0.0240353493160476,-0.5614148279970393,-0.287071257783465,,
0.6560360000000003,10.844841655815632,67.68879135293535,-152.70144060375887,0.2942878694262165,0.5231659783969581,-1.4203844609733431,0.0351773552401758,-0.4606964556642502,-0.125005373423675,,
0.6654649999999833,13.10826427654122,69.64458982079974,-151.00117636136596,1.0346126243184568,0.6560442939650113,-1.3115544525224052,0.0402391536850306,-0.4233932031195989,-0.1132573657381074,,
0.684505999999999,15.06697135950282,72.67980235043518,-150.9190637398168,2.5160360276514147,1.139356023928316,-0.8584125199927025,0.1153062358700863,-0.2643030057381936,-0.2287544760573748,,
0.6940099999999916,15.11771946480348,74.27468263733118,-152.8812180031733,3.1556606286903315,1.195437896236929,-0.5877914069886416,0.1479719265159514,-0.2838086997448776,-0.4028815720613196,,
0.7035279999999773,14.786051713338384,75.86110895815347,-156.11076008755103,3.485778631399277,1.2160202397463356,-0.4455399441818561,0.1521741200305605,-0.280303352544465,-0.5825449597084861,,
0.7130319999999983,15.139644798603127,77.12792925936387,-159.9810335209148,3.724369583351318,1.126233095926766,-0.6232354940828774,0.0792146257581409,-0.2424682190249416,-0.8437273473065263,,
0.7225430000000017,18.330219469627952,77.93002305340099,-162.81492931125428,3.2676197571472536,0.6765920313762269,-0.8359096433975175,-0.0799537517806308,-0.1969784724135251,-1.1915517177760313,,
0.7320589999999925,25.97935008626812,78.02884463171479,-162.81229230941213,2.5764516365475423,0.3884636715416371,-1.1076769173641547,-0.2990404437826769,-0.1134966335099559,-1.5148790969480947,,
0.7415619999999876,38.66668364034417,76.90220245137934,-159.90121164605264,1.385142147138209,0.1294743842426961,-1.2728541593346865,-0.5938137559264665,0.0375000680348564,-1.8941848997825887,,
0.7605819999999994,70.50444231623993,70.13672404262202,-152.302030052737,-1.1572924197021963,1.158668897672093,-0.1923230982001243,-1.2416373898724584,0.3071790334848539,-2.355005771755099,,
0.7702659999999923,84.39244425640392,64.89268767928024,-151.13545983157073,-1.1306514586346097,1.8638065816199456,0.6673114145382414,-1.4311989614395175,0.4189770111542152,-2.3066575223888464,,
0.7797719999999799,95.26421068983431,59.3453972276944,-151.8678686262274,-0.6132278490762963,1.938214613341391,1.0528810281802432,-1.4227898544266582,0.4912965944497002,-2.0217042802476315,,
0.7892879999999991,103.48016114745838,54.238350320886425,-152.28600495392268,-0.199599951172927,0.9966354482524616,1.027725594454752,-1.274038876549915,0.482016642780178,-1.4335062759759285,,
0.808117999999979,108.45105448984454,46.70613875289983,-148.29023553464685,-1.4921760584038857,-0.2832016950362861,-0.4648289334447413,-0.3339744511973608,0.5584914797362512,0.5911458939118124,,
0.817641999999978,103.68765803532358,44.66196689089552,-144.40817980550997,-4.906200616924112,1.4294527354734314,-1.238049727582872,0.3282372262605167,0.7101687184532197,1.4593513762885844,,
0.8366599999999949,72.95927906438068,46.58901894007359,-137.79492025041858,-7.694788294015909,-0.6679949493577211,1.3199694798263464,2.321939282655736,1.4060819488694742,3.281953584855899,,
0.8558559999999886,24.425515296914945,57.71970620694701,-145.92291128091074,-3.0725014519972267,-3.825379946756591,4.744684117028757,3.1583669562965904,0.901221644857366,2.9790914819103937,,
0.8653609999999787,-7.717155222068826,58.931872300215616,-160.38928055213952,0.6146938767492924,-2.8704984552824446,4.272033448362446,3.107200728202705,1.287839820092082,2.7331272608835584,,
0.8842199999999991,-40.32484962482545,60.6127058745511,-161.24077484631576,0.5811403600268091,-5.727393733207948,-0.5908944868592386,1.437295427438514,-0.3359733838628376,2.9439762387648063,,
0.8937979999999754,-58.11384409548794,69.5171411590931,-160.76673244216627,1.528548418693434,-2.274354087435228,-2.828231071629192,1.998460014104949,-1.184771482162532,3.3291764423358368,,
0.9033179999999844,-84.68934266385544,79.2370323171709,-172.48470027613573,2.085133951191461,-1.7485745731682558,-2.988660666949015,1.827255670402944,-1.5249709515451932,2.799047400371819,,
0.9222509999999886,154.1464577911868,77.35005642909108,101.32778598678654,9.691119298749973,-1.6349138537046448,-5.5867816648995765,1.7553863417330051,-0.9141981806485188,3.943965869762165,,
0.9317609999999944,139.7757878412332,71.39947633342184,109.07139326412752,9.993781882575565,2.068029505627547,-3.0782209057863,1.3547197944470326,-0.4380400313709016,4.317466345894543,,
0.9412759999999878,133.96231703196278,69.70189969063102,126.03683450135912,9.031227936717086,6.751371244992692,-0.8771308089431289,0.484407538947528,-0.1888136764907855,4.492333518597875,,
0.9604939999999828,135.79998692492646,72.81122670393607,174.22211513890912,3.0943973767115107,6.416394558483052,4.032772206120341,-0.1187568954870294,-0.5369475450118928,4.589096718928614,,
0.969803999999982,126.849107872565,76.20305175750406,-172.42002312288147,0.6026395952990796,8.690265896524048,0.9808471757898088,0.4940492920719858,-0.6752874442421894,4.396491514429219,,
1.007665000000003,62.63000110855703,61.52065389406354,-155.0394523981576,-12.508651007762476,-1.4033299964215926,-2.774447953368263,0.9276318107284172,1.7928131738652615,3.913817815743992,,
1.0173639999999864,44.27062744868728,57.085103221023765,-152.13973941303647,-9.683468549569804,-3.312586957140877,1.0562470388437302,1.3077933257766197,1.6145649802311786,3.9630752416497166,,
1.0270539999999926,22.376724125180186,54.90496060501434,-153.18239449731055,-6.177639870131351,-4.7236958766907975,4.175417219712181,1.9923476927923365,1.4933256794106464,3.6122909833901855,,
1.0555859999999768,-43.81629407019509,50.12592202208023,-168.6820639436745,1.5537208350525205,-3.64496281267555,3.185590173045585,2.0295222248982774,1.0208487265031505,2.0892745290025214,,
1.084005999999988,-90.81306262593904,59.31705167392371,174.33463193489675,-0.5498469722050126,-0.2346362671026616,-2.842700277489627,1.6152775602900262,-0.9417865739832229,1.1517443438268995,,
1.0935219999999788,-104.2804980114224,63.94093788268434,167.80229044416316,-0.673940833676572,-0.5481890001136729,-4.631513126101637,1.1265516431176723,-1.102606986483408,0.9450457490107552,,
1.103020999999984,-119.21414274465316,67.89727846889078,159.63991895112085,0.4446537406229254,-0.9861659121367052,-4.667635856237974,0.953474212551723,-1.0914489603081607,0.9700695812097084,,
1.1219659999999865,-138.43859413071655,74.45467732821848,160.30880116876432,4.111498773616338,-2.684159867474165,-2.277710724976674,0.1458828618207085,-0.7312034031995628,2.1217992611786487,,
1.131484999999998,-139.56968815172834,76.4063335719878,172.79646609799258,5.261029403765226,-2.349081482832584,-0.5404103477381771,-0.0331884528039871,-0.3952714660746267,2.676811572054938,,
1.1506919999999925,-134.00553966085,76.93901992720657,-154.41725671768546,5.691653066326436,1.3014301442100746,2.6815724650981285,-0.0450578399814734,-0.0202259501158672,2.6906311449194136,,
1.1600210000000004,-152.34689104987163,77.98707124257109,-161.52948764550126,4.239236434468718,1.9192765398304383,0.3128695951497945,0.8140022527337905,0.1029352772575461,2.1961733033378605,,
1.1695189999999798,172.36209026208277,75.7680258808035,174.05670570146324,4.5299446622872,2.267638809334356,-0.7792070558811262,1.5225947627472978,0.5916390355419135,2.0497255051072,,
1.1790299999999831,155.12107307882965,68.3172387201549,165.76966880707465,2.489486811089258,1.199984649619722,-0.9220086481805244,1.3069815346503972,1.2673814233083336,1.6966757570310689,,
1.1980529999999874,147.45454631463065,56.07278989949418,170.83394066337038,0.7065261442925981,2.12255451598573,-1.483360526475506,0.4986741375417718,0.8914173945569088,1.387066742583772,,
1.2075669999999832,145.57717754181175,52.55007013579252,176.76095866331156,-1.0716135267693383,0.3263795168619978,-1.5379734040419792,0.2975533574540612,0.6769544057905703,1.5868736004541848,,
1.2170889999999872,144.99137573684948,49.870638804673725,-176.83925784370422,-1.348701034221002,0.695920165276825,-1.653510289460241,0.0752085849858273,0.5367385464197145,1.4165891265523642,,
1.2265809999999815,141.39268794627546,48.74819986341859,-171.80376961048069,-2.085649237804223,0.920144251479691,-1.5100278646093366,0.4455042578450091,0.2704343336728883,1.5433177974793184,,
1.23608999999999,133.07455758423683,49.06712109107194,-168.92391562436987,-2.633087759025754,0.395495294451426,-1.742219816897643,1.090182115454475,0.1219180582328068,1.7980366984430096,,
1.2455969999999752,121.1400418856326,49.77836323151738,-167.93465366190185,-2.862999195567667,2.592414583193901,-1.913340348873635,1.5511425541133057,0.1741519656690037,1.9903144605826188,,
1.2551129999999944,103.84890795034684,50.57950458876895,-168.81301717625396,-4.069986009122966,5.254130328624345,-0.3315353155975192,2.2027344953142447,0.2906917920131618,2.4833413822272186,,
1.2646279999999877,80.82987624100807,51.41274394367563,-171.64792626951743,-5.809648389340504,6.01868077283381,2.1767029359917127,2.883291547079603,0.327396845858618,3.0344201122517105,,
1.2838339999999846,33.46232532170563,53.40823530199101,-176.59967936863322,-5.9952658529238185,0.528429266134785,6.071351464536173,2.844793686920628,-0.0090702862618675,3.328777590153464,,
1.293344999999988,9.479521304914806,54.05143157108841,-179.36436871805813,-4.708316571010461,-2.643960148443296,6.397471903798307,2.840557550262749,-0.0281469928267871,3.332615650393158,,
1.3028539999999964,-13.516465297375015,54.078692588879534,178.96838477279755,-3.5094501771090294,-4.369429628384084,3.9123950093012994,2.700773567819735,-0.0157356964585223,3.405216362350861,,
1.3121889999999894,-34.04429976369816,55.63317735395588,179.79569754081783,-2.391993144245077,-6.448916889848619,1.6200622451804108,2.3641954408373453,-0.3323659271058997,3.5143225359245966,,
1.3216960000000029,-54.49746261750637,58.91409669166235,-179.08445043568068,-0.5370447772948355,-5.943479094466469,-1.0397195754288282,2.220789913545388,-0.6331941451201237,3.6327522207979657,,
1.3311939999999822,-74.58601071742004,63.276479155690346,-179.15541259771356,0.7286727232497607,-5.566175282063227,-2.7751859218909587,1.9599035712444264,-0.8297588148881793,3.4464142807213416,,
1.3597329999999772,-157.72979891876813,70.82486136981098,157.2915092761914,8.05579677313831,-2.3342299266217865,-3.940674971277992,1.8560705527469,-0.6870518599823742,3.7882383683930816,,
1.3692360000000008,178.0026615101264,69.71764366357326,154.5576312083199,8.888292135885681,0.7886195594363461,-2.788442255391653,1.583557799814682,-0.4666450100441851,4.002184776553981,,
1.3977879999999914,137.67612349629434,70.56023890550163,173.78629348847016,3.799984450831552,4.688085723955743,1.3434257842099755,0.6591010330872384,-0.4787716500644703,3.566017477623107,,
1.4072960000000023,128.99106599221946,71.66405796974513,-178.3193191105962,1.9201607351535777,3.601748384085216,0.593070989438187,0.5561039466853925,-0.2429680092128424,3.191771093589785,,
1.4359010000000012,100.094729566755,64.19584771752298,-170.49950598192368,-1.4944427462766494,1.1246933205142975,-2.495335842481204,0.6397132263402225,0.9867980310273068,1.9329273827411568,,
1.4453239999999994,92.0260458235369,58.62200275338801,-169.91870370349287,-2.487630186820602,1.1734091105237474,-2.5500136033722183,0.5759715303548925,1.228920172074379,1.5981643038640436,,
1.454827999999992,83.8284507940685,52.83310277498381,-169.7459544882271,-3.4433644471134945,1.7480432895628537,-1.469562189078307,0.7094819765766285,1.300893353139677,1.4559258553069188,,
1.4643469999999752,73.24073399467498,47.80588054275183,-170.23270204195677,-4.239068125909081,2.566173552384751,0.0731862662472299,1.1611384622700809,1.2219038863492109,1.5791445629064562,,
1.473854999999986,60.00020605719377,44.45823843741131,-170.79445878193127,-5.164605322516669,3.3319486813877224,2.434097510776262,1.7035926260399366,0.9587584494665292,1.831895147612085,,
1.483552000000003,44.4898264312107,43.47070866380266,-171.3458840057294,-5.467137434879833,2.3469925754977106,4.686190099634767,2.1779421277675306,0.5400092832163523,2.058153863927821,,
1.4930559999999955,26.84020136297863,44.45426884431984,-173.10208214548962,-4.5491140948915945,0.234150654452,5.334327922304814,2.5458222027773743,0.1505175653486131,2.1034975216857514,,
1.5025679999999966,8.024522487144527,45.8115903856855,-176.96390858482326,-3.537290507150562,-1.5380501133608278,4.874887580638905,2.6685644539852333,-0.0382161877585826,1.9011813394150336,,
1.521599999999978,-28.25193397416143,46.556352118647375,173.7381856038671,-1.642455402480378,-2.7232975753096302,1.317331047986835,2.4091047681560327,-0.1795844156537765,1.6089523039760083,,
1.5309230000000014,-43.48904233202573,46.75458284004881,170.904053376081,-1.1105382176657517,-2.044576728141105,-0.118721959340985,2.06974174028977,-0.3114480702923012,1.5719167094865167,,
1.5500129999999783,-66.43338035415165,49.65456916359883,170.45771602688112,-0.570878783321027,-1.286714554491177,-1.836156031148117,1.3069318844683264,-0.6190148046237264,1.5433179573255844,,
1.5595189999999943,-75.8276011439965,52.55015282239244,171.33417964268438,-0.012715131526793,-1.2998543654290888,-2.006061951653114,1.0782662163086565,-0.7536795461773161,1.5392101204865023,,
1.5689559999999858,-84.78391930312826,55.78694539849315,172.9104287364941,0.7919902644025734,-1.8379450667488864,-1.8504977190026128,0.9553682288104892,-0.7804463740471214,1.65950959418079,,
1.597488999999996,-118.07287255770994,63.38176258267138,178.7251178247926,5.442019982182087,-3.3815858829339995,-1.3177532523621769,1.1895449772584443,-0.4069348832241209,2.5711831852242515,,
1.6070039999999892,-133.23387313512302,64.29395839335406,-179.9103497042042,6.893602597177199,-2.3644163412098003,-1.2739747800085262,1.336948981774117,-0.1951675193112085,2.9890024470199146,,
1.616503999999992,-149.46704496316357,64.36805320347365,-178.8384989890656,7.79224960240853,-0.79449529483021,-1.4409160848538516,1.408223701816987,-0.0009629957632869,3.16909542694736,,
1.6355369999999994,175.55294632868862,62.10394092070488,-179.22123772521635,5.462747436346497,2.824285150586255,-1.6297711590584298,1.6276855047617749,0.3444991248900212,3.0422763187688986,,
1.6450439999999844,158.31168315793192,59.19322113736935,179.89300737322205,3.701240845898322,3.797253920028599,-1.956367102349844,1.6874842788848663,0.5885213321268716,2.831301976944852,,
1.6545500000000004,142.89177552841858,55.03422511351387,-179.99694852171524,1.3837865616976608,3.666785079993476,-1.918901218707274,1.6769400136064878,0.8266796066153692,2.614657139255678,,
1.6735809999999844,116.09010538631496,45.75667591247432,-177.70609024022318,-2.209612073509794,3.458289829001528,-2.067143168756813,1.7162731434838314,0.9708030162829528,2.2248343882028605,,
1.683082999999982,102.86860259118048,41.55686156555046,-175.4233422200351,-3.913131148312409,4.4002626074177975,-1.4574919398491537,1.863010009213321,0.9511875655366652,2.283659774944438,,
1.6925959999999804,87.2655928725922,38.63021718819468,-172.5648653279273,-5.674762560711681,5.4029797057438,0.5448675040441693,2.317989723735134,0.8299950721201802,2.58231761520758,,
1.7021179999999845,67.96815701527761,37.845643686132135,-170.35398383132778,-7.419598355156969,4.31774657838946,3.556755991784648,2.9803765037310543,0.6050220552773847,2.8314743384169976,,
1.711793,46.68311591976821,39.59480560862637,-169.54165580334313,-7.458994247147575,0.7430411271914252,5.291975245475135,3.335880831753524,0.2395620535581497,2.8274995435864807,,
1.7213119999999833,23.586021085389955,42.99262047282559,-171.49752806823906,-5.8450461282530055,-1.996638054922898,5.91941490988539,3.5362177618709523,-0.0895468517346738,2.664250134594432,,
1.7403239999999869,-27.55192776034568,43.19114539765626,177.12379809984526,-2.2851246553852103,-5.845268577279691,3.865300816175653,3.661326612913226,0.3098351596111217,2.389949333399908,,
1.7496579999999824,-49.7339577824053,40.42293625023072,174.14548970034667,-1.209572885783197,-5.285054907816039,0.8429972083001231,3.340002535950528,0.2934586876567051,2.369453563040778,,
1.75915999999998,-68.23985352962241,39.16732005310645,174.07668366850703,-0.6991863707420142,-3.64691899634152,-1.0427061050916355,2.857729656495044,-0.044151051080593,2.3580579346430803,,
1.7686789999999917,-83.41455084598658,40.71044965062062,175.93484507177774,-0.434919373101256,-3.254991796415436,-2.498116018610024,2.2953334094306386,-0.5090845905780773,2.321363895692589,,
1.7782629999999813,-97.66959769213614,44.94759278361889,177.6123302939492,0.3342037814853958,-3.318565563000053,-3.8401351617643433,2.043781673695608,-0.9611390665540626,2.275659791203142,,
1.7877659999999764,-113.30989306882722,50.46828865812719,177.01135326524658,2.007576316400825,-2.983502443759495,-4.199752490144806,2.053630575623408,-1.1964220349232022,2.1976633797399927,,
1.7972949999999912,-130.7926984389592,55.702078285478976,174.3325886886674,4.411565937289743,-2.6130495646410266,-3.9653504036093694,2.016457641389953,-1.1951211975466236,2.2652491865669475,,
1.806705999999992,-150.0555407245662,59.42043873564143,170.78661480360395,6.960576818696742,-1.6385188246261655,-3.4790597711507485,1.9528757748882428,-0.9984015726778616,2.5473849650897407,,
1.816223999999977,-169.20698010618878,60.99603714120833,168.42061267977977,7.587431774858036,0.1531812082847237,-1.6735456708912475,1.8150210518658567,-0.6507389037132486,2.8542710500405635,,
1.825738999999999,175.15433774836524,61.57020346828935,169.05411126367136,7.241049572180052,1.761574875903558,-0.1446944212995963,1.452971007541353,-0.4059454688110383,2.871580631319744,,
1.8542659999999955,142.48264277770414,58.19340676161939,176.755877676558,2.7940317288831555,2.2403047058364893,-0.327112709026313,0.8678153999708366,0.4036645168009091,2.1087385157887364,,
1.863792999999987,137.22624804216716,54.661081738481336,-179.00981857023658,1.448830674744081,1.9488004995975865,-0.7503759802323939,0.5963408198051013,0.6959742683020343,1.724089166688718,,
1.88287699999998,126.95668391192903,47.17443561663667,-174.84208539545386,-1.2191960740963836,0.7409654589241343,-2.2277037491245166,0.6008618166302807,0.8123491087783945,1.0278264571393383,,
1.92083599999998,91.8541241404703,33.104615878477965,-175.54225157045292,-3.656654984896906,4.482026148065511,0.3363527494096336,2.1124597412161807,0.6307431313194506,1.3741299382523935,,
1.9303569999999863,75.25184130971279,32.58589812087867,-175.1238259140475,-4.656035896658421,5.400761695099564,2.976664677538997,2.775371297163385,0.330059467872708,1.8862945997398697,,
1.9590729999999887,8.950694865627822,38.53721725208524,179.7597579373446,-4.303803410668615,-2.20665471730149,6.034097882313594,3.809003195777512,-0.2866387795104325,2.190941871120653,,
1.9685739999999896,-14.39985340877722,39.03369430782636,175.5643437415316,-2.9915829725993603,-4.165368775197251,4.152220161001041,3.633120403827221,-0.2464175649975008,2.0965350210687985,,
1.977895999999987,-35.561072156534266,38.33528190355122,172.90009070503237,-2.1417050451162827,-4.678307219234427,1.6584209947700836,3.302397342286861,-0.1947735506820676,2.119112370392028,,
1.996926000000002,-69.70105942709111,39.88588955783823,173.30724118091436,-1.1159789142114824,-3.17537390593511,-2.027240840252012,2.398076958828633,-0.6348379703389732,2.164839575883044,,
2.006509999999992,-83.79918489816889,43.30637294909867,174.2221851140858,-0.4611324437344641,-2.5863571071259925,-2.8373004885632165,2.0253346613439875,-0.907081969137899,2.0570829949664846,,
2.01602699999998,-97.27438194458296,47.623485895936,174.31328898683498,0.516655983501389,-2.093955883089057,-3.0309351778071005,1.7972689137674291,-1.0454784303491569,1.9421168074024049,,
2.0255349999999908,-110.84579814031156,51.835510726878105,173.48640626159133,1.640032690112315,-1.780647971157349,-2.644373622008408,1.6571262200778074,-1.021514875014431,1.9088073648570816,,
2.0349589999999864,-124.43701353597832,55.1295976135445,172.66487126727444,2.8706723328150647,-1.5445516979071034,-2.1214495779167475,1.5312328649320988,-0.8406310231585166,1.9279397596237569,,
2.044472999999982,-137.66057897153348,57.10802793486258,171.8962118101782,4.119674219456444,-1.1699731427503532,-1.5689794746198205,1.4090135917796385,-0.5891496617277245,2.0441940940334065,,
2.0539979999999787,-149.88277919462843,58.171335218354095,172.92832757035208,4.615193321279058,-0.6410492522441426,-0.9510662779094232,1.2703888882443983,-0.383363219656994,2.2729360950897908,,
2.063513999999998,-160.29646181140552,58.94712939143543,175.74235040336816,5.115080856732615,-0.1815772597604333,-0.9236288772770332,1.0675874877608318,-0.2617152627900927,2.3411448822801795,,
2.073011999999977,-169.7464012179504,59.603664309944165,179.30149457336776,5.61265875872647,0.7487009801198307,-1.259330077608568,0.9608449705467804,-0.1730106203463593,2.3378270223781072,,
2.0825229999999806,-179.54730937875573,60.1513172412435,-177.53607604507638,4.798742823766612,1.3304579403682648,-1.1059881527932858,0.9870036230805236,-0.0943235882611076,2.32922930958904,,
2.092035999999979,170.4891014555266,60.424707277096346,-175.87863927509628,4.1618360390476825,1.8029396526806705,-1.1772049444389443,0.9903878685846806,0.0022297722154505,2.063467040278245,,
2.1015429999999924,159.96808714625,59.925977611563056,-176.06894067391752,3.246474282457429,2.047142762868715,-1.0723778930739307,1.0376302503748616,0.1729254796416388,1.788795241498945,,
2.111049999999977,149.50172406037464,58.20542330039238,-177.54140034893928,2.0463971385723934,1.376651853498678,-0.7556778727435893,1.05563763902593,0.4031287359621414,1.5026110229221954,,
2.130077,133.38209464115107,51.06181816783552,179.3149037239578,0.4820517937847179,1.22530273770234,-0.684550592307835,0.878693734244644,0.8182216109374899,0.9075560579865354,,
2.1396079999999813,127.07341759229335,46.48089566563396,178.69358253648238,-0.3270043570192439,0.861240431372669,-0.8289089782293975,0.8482455605424035,0.9019775784745826,0.826112622212361,,
2.14908699999998,121.32597209257013,41.96391046441536,178.6222582715549,-1.1053494253227691,0.949888340956023,-1.0446789269054542,0.8456846455279411,0.8843659454375378,0.7886836837401324,,
2.1776219999999853,94.38834251800633,33.75166098598326,-176.6058898247293,-3.9091494251790864,4.49226450686134,0.1628038525149233,2.004191546220658,0.3295103963547228,1.8727565475362749,,
2.1871419999999944,77.72839679683516,34.71642162368835,-174.4467595407405,-5.628453829151736,5.663460427233627,2.568554667656753,2.765987333673092,0.0238076237796944,2.306604470461872,,
2.196825999999988,56.88590914488632,37.89553189990679,-173.85148754266072,-6.646376127661049,3.361752338704927,4.793384075743045,3.4109680630992814,-0.2835269597403415,2.589435372380085,,
2.2063429999999755,33.65805413258812,42.26766846340191,-176.04992648367778,-5.953218932506776,0.4283874165724585,5.797733327143066,3.619086992968121,-0.5464991246631434,2.559112246952448,,
2.215847999999994,7.959907218786682,45.17361561394938,178.26545725447946,-3.979625302504204,-2.3545402174790726,5.683812782123952,3.7219019824664334,-0.4991694222170162,2.429552116034246,,
2.2253539999999816,-17.506722146610368,44.43629678343461,172.0375203235498,-2.647627629310362,-4.286394221712285,4.305798332183898,3.609220682575483,-0.1608774205375349,2.357816166873885,,
2.253715,-75.03712605575495,44.5906270964011,172.1531115371656,-0.934275666970844,-3.59676959101156,-2.467217382893814,2.3038854564015776,-0.9145215529857512,2.76247249853133,,
2.263294000000002,-90.19705128353856,50.05529896389188,174.27784924034998,0.1822136261533377,-4.464523640029924,-3.928313912951606,1.9167654937353804,-1.324542987335606,2.656688652802543,,
2.2822339999999883,-131.05757362720462,61.85752717640011,167.9873218724724,5.83297687284271,-4.018098239861807,-4.557378284446172,2.1459149984659995,-1.41776367310686,2.920760271549653,,
2.310773999999981,162.0149306091255,62.29025358855159,159.40486933877264,4.266047915790088,3.182218243662013,1.8975481674052583,1.6201477379217335,-0.3009599235095924,3.4219070703225927,,
2.320281999999992,147.41737980282218,60.82113218638022,162.6355497315059,4.855702020667001,3.753115890047861,1.7939076900836186,1.413033557024394,-0.1760222565063685,3.2148245734200427,,
2.3297919999999976,135.83947876025093,58.921828955678514,167.7455297410605,3.9972821552701214,3.836967683537859,0.2539093493062961,1.223814740219488,0.0692878286403913,3.026309182584509,,
2.339305999999993,128.7312923895196,56.06080026598063,174.94728117629006,2.115273208928808,3.1042476839464728,-0.5686461835001356,0.8440214559155601,0.4514614599901538,2.6408312459326546,,
2.358401999999984,115.27370310800276,49.76182996597296,-176.0523346826249,-1.255033134165004,1.0994352223607031,-2.254981674022533,0.8858285834201071,0.6662954050575269,1.7655378396946175,,
2.377324999999985,101.37563053104527,41.65722950619809,-173.47240410234846,-3.5115550177022867,2.057603256983412,-2.346141443408027,0.9251554274331936,0.9726467654904336,1.177116549612265,,
2.3868389999999806,91.084637278718,37.55097048413697,-173.85365979966338,-4.041873859494399,2.6214168446557657,-1.2337851368130266,1.4874533890910826,0.9903595846009894,1.2378594926978297,,
2.3963660000000004,77.42546873286622,34.44374691766755,-174.77812242456363,-4.979400645699116,4.584859814512578,1.0379347869316171,2.1402525393924314,0.8353297340693329,1.423373655953721,,
2.4060519999999883,60.42897689107405,33.42422970611407,-174.7834893265946,-6.071390144284457,4.270464694806246,4.465737574978477,2.7935020945698787,0.4586899072798853,1.8988374564294697,,
2.4155549999999835,39.801520917836186,35.04449804576685,-174.86684404070223,-5.66996139517605,1.1667600329668548,6.118306510286816,3.429964871145605,-0.011642762051271,2.307200550216892,,
2.434584000000001,-7.105766524231253,39.75631461240673,178.28296058931838,-4.134476398663009,-4.084667799505524,5.419518234593808,3.714450774034589,-0.3507532952768324,2.0932556419497725,,
2.444086999999996,-30.05648333992411,40.46713110844159,173.56590476612536,-2.8800398374466623,-5.306786608480495,2.850006046291253,3.49087946642365,-0.3894713614603935,2.0244377813980883,,
2.472516999999982,-82.63081430240901,46.62340806226792,169.52177614276565,-1.6988009153499142,-2.1829807276909934,-3.668117156136361,1.9378694491284607,-1.174208745190019,1.997090976042092,,
2.4820259999999905,-96.3467144620098,52.66441711268237,168.59041005894358,-0.919593305565524,-1.6765904110337255,-4.551050689559541,1.5237699700460057,-1.513370508110056,1.8133865979108992,,
2.510485999999986,-145.58122084123872,71.3059122432045,155.99238778566297,3.8910174756325993,-2.1323368292842555,-2.8928617475113425,0.8581639445669987,-1.493962776330093,2.259123074565034,,
2.5200030000000027,-165.91175399263778,75.146632704044,149.58687437658892,5.642118374277953,-1.888955618542079,-1.7546102624043654,0.693103651649208,-1.211919343132532,2.6169034495312413,,
2.5390139999999803,158.84029978075017,81.33584048292987,145.8379373043936,7.940228025371451,0.6949947999714766,0.5470110390646606,0.1043625976077683,-0.863617871890496,3.182713357867004,,
2.548524999999984,148.02355370027198,84.91695759554737,151.19062818780694,7.361443235731692,2.565171754888974,1.1960756155373076,-0.1552518480029221,-0.7564578533017537,3.2176710291413064,,
2.558036999999985,160.85655625089632,88.0009211104369,179.36426856789646,5.711360222364253,3.551092129180012,1.5951522095010784,-0.2922310496531117,-0.5993627885004715,3.0533557145689465,,
2.567557999999991,-108.03176355760284,87.894261433811,-76.1273648878288,4.071273345465713,3.6743791665537375,1.5444550094853478,-0.3254493710107179,-0.3605719554423162,2.7104242466986506,,
2.5772409999999866,-118.8814062377082,87.1977009376886,-75.3679830094196,2.27309058880801,2.4485624165097906,1.0299669356759311,-0.1742126308922554,0.0504603142638336,2.3193897291986856,,
2.586570999999992,-173.65367208910047,86.39754913338528,-120.7384694634777,1.2505746749079087,1.590544523916749,0.0076601094703776,-0.0698881684284589,0.5723670708837444,1.8456802169647253,,
2.596081999999996,147.91124100731872,82.3468615066058,-151.72202754149797,0.1287458516770798,1.1797605650702334,-1.1094806782390392,-0.017916374634958,1.067788537458258,1.4725475597784945,,
2.6056700000000035,131.06331562784408,76.04929170236052,-161.72352986606035,-1.0524713035737197,0.8385712912959139,-2.1155653825621306,0.0807948278460555,1.4013300014445946,1.322416952948013,,
2.6151769999999885,120.41784441239638,68.85981341706442,-165.43391467021672,-2.260034661718049,1.4013122370421651,-2.60717178854062,0.2162688479718129,1.5592518321300963,1.3964289800794107,,
2.624611999999985,109.8105283759229,61.9757853549046,-166.00460951722343,-3.8875538466546,3.5171468424958863,-2.226414911272964,0.5222087761686366,1.5495043240011357,1.895583637180296,,
2.643634999999989,77.09673717175947,55.50296364730056,-161.81360178888164,-8.2288871748321,4.196375369337609,1.956672962637188,1.8218937190937723,0.8488318091198501,3.6450365169807553,,
2.6533230000000003,59.74812292158814,58.77589868008625,-156.50872458928,-8.055801950034015,1.082939894024732,4.2169905225590805,1.9983888643878809,0.0627672021858588,3.9770258686618014,,
2.662828999999988,38.743648246937205,64.89213649804324,-155.80721362825693,-4.854457187547984,-2.215886428263876,5.50536176732496,2.3078043985777046,-0.3053658043155904,3.8488815864097328,,
2.6816689999999994,-9.133655815389432,72.06922856828172,-166.21945670064665,-2.7342450094949338,-5.179535833631994,1.689108035065902,1.70642097662822,-0.1649921799376071,3.480956720711478,,
2.6911779999999794,-37.37506742090206,76.64492786934034,-175.92115773889446,-1.6622758433513056,-4.607505940472125,-1.2091199361576512,1.6367231356554617,-0.6504336320162043,3.529315611543049,,
2.7006859999999904,-70.25588189641056,80.3302080856671,168.27095389851775,0.0455947347690295,-4.0591878755443,-2.371621151408784,1.2492364407660284,-0.7995538382437138,3.285127666658674,,
2.719797,-151.5367808689453,82.58517312070393,121.8936153178874,3.560900455833501,-5.106584301736338,-5.034596280842823,0.8154115264828871,-0.8163638293138211,3.504954976170344,,
2.729219999999998,174.47313605092822,81.20011038434669,107.58207779588136,6.225431621929848,-4.18580206668564,-3.57638038520846,0.6394180917290613,-0.7458718331495184,3.863994127516587,,
2.757767000000001,144.48636281455825,84.43973151965938,142.38495417787902,8.219055834152469,2.962145434703687,2.261479954658482,-0.3371348723780453,-0.2490070757177211,4.319655083995952,,
2.767268999999999,161.1205958763408,87.2313918486598,179.6126055318879,6.150078645759742,5.359840482153471,2.608326222496572,-0.3911051054745584,-0.4738394553408731,4.108001383953435,,
2.7767709999999965,167.8706125250558,88.00677459548157,-153.95005675084013,3.341680175918619,5.405011962290208,0.999064048207968,0.0119923610348763,-0.1735199307637743,3.910182128396827,,
2.786283999999995,139.25613994085094,85.72073810956198,-164.92534862920257,1.2931064003788295,5.106988917105779,-0.5534018028366086,0.1103502515243981,0.5543476860151055,3.627952063003684,,
2.795795999999996,124.28546510819496,80.80615571886449,-164.52550481416932,-0.4708096203317025,3.506709165404508,-1.7732382675364642,0.0820493330126653,1.0510217977153833,3.2039196858055234,,
2.8053079999999966,111.2483851734129,75.02686790242308,-164.16408573086497,-2.0287807780927265,3.14926455835438,-2.71095278004061,0.2204188078253874,1.260943832386432,2.7515887446342013,,
2.8148180000000025,100.57602175526895,69.15649373341203,-161.4351180733628,-3.720135433371577,3.040606006675286,-3.177921158298944,0.2863269886641775,1.3162078416836938,2.6731558463896694,,
2.8243249999999875,89.78185464770759,64.31507237624974,-157.5762594774053,-5.275545530504558,3.1855307094541105,-1.933734488699483,0.4646774685391361,1.2057187731619097,2.811813492033159,,
2.8338409999999783,74.76695587829468,61.89172342171122,-155.81845968144975,-7.606705508265972,3.2316058688519176,0.7112706793427825,1.0598467681926853,0.9812571885048303,3.0527224920245675,,
2.8433419999999785,54.49853321813712,62.451246947875646,-156.6966692063386,-8.137882366852246,0.8693587733787178,2.9030607196754934,1.778303563106539,0.6610544179662191,3.413890477025088,,
2.8530370000000005,29.5344898868604,65.00441741419043,-162.02061641846356,-6.480518720619234,-1.1155646451789525,4.534317404040003,2.242320645545654,0.3080605803584306,3.421122482349797,,
2.862542999999988,0.4271455387842965,65.8271125631111,-173.8638353176902,-4.783197623054831,-3.1612538382885016,5.315814262706428,2.390006133111505,0.3463471573278538,2.940377396347663,,
2.8720519999999965,-24.53877395256924,64.05160391106338,176.71273671490064,-3.1857068654654648,-3.7010218546725135,3.097801079131478,2.100260616623616,0.395979242153474,2.701729446073649,,
2.8908950000000004,-57.74278504902507,68.91078130930607,173.71034996341538,-0.8675497537609385,-2.84090393837256,-0.7387534875563758,1.2633860266385493,-0.9370602913412776,2.729853315881223,,
2.9004119999999887,-75.0743647584251,74.48158196645774,169.05422269047784,0.1546184148085323,-1.485968506223954,-1.557510129107459,0.9152481940760948,-1.253908685998462,2.268263747659496,,
2.9100079999999764,-95.33860369799736,79.95576374437206,159.72256580538692,0.8049096013048866,-2.3225472243361893,-3.0291634427717624,0.5751621259769222,-1.282699273517737,1.96893203069982,,
2.9289469999999937,175.05943508262416,82.22959607146794,92.961660556275,2.241849244919906,-1.6315395179819847,-2.120437736350831,0.546484066020092,-0.9849607738934724,2.111806007305032,,
2.957455999999979,152.92260073905075,83.97466101451205,116.90443913047568,6.942689169379504,-1.420297218793258,0.5339270517804499,-0.4032322237146571,0.0611679157691298,3.4879084869492885,,
2.966990999999979,-173.7148986045842,86.02811502483318,167.8452989004204,8.546711468752736,0.4301358235120102,1.2920502449209743,-0.6820125794930524,0.0195215768119282,3.5866416667619565,,
2.9764909999999816,-125.85965030620092,85.02952479847863,-126.09688709455398,7.007222738457362,2.456910262962487,1.0513021343513855,-0.7217573037574329,-0.0654195426863256,3.6950620960275504,,
2.9860009999999875,-121.56416706137598,83.48907222680396,-104.5936560234191,4.823285740972777,3.143002268642561,0.0876818445543776,-0.3204146415126856,0.0651020109019745,3.501262037527472,,
2.995509999999996,-145.46025513282044,83.60747177786604,-112.82648466639084,3.655825928259247,3.8692255424361273,-0.7078748211520255,0.195485672147743,0.4957678050312157,3.185482136420394,,
3.005006999999978,167.44426993621016,82.64786407009933,-145.90181119710007,1.5492945672480205,3.213624456637885,-1.745070098881962,0.5570962203953876,0.9513753838516232,2.84491137734778,,
3.0146139999999946,133.61893108239056,77.5403702422315,-167.98750381521097,-0.2290121535182114,2.4127579718836487,-2.5719536829009533,0.673376422871515,1.3529735821079236,2.3765170537581977,,
3.024124999999998,118.02857246130856,70.181147771322,-173.28578488177683,-1.4734822355181332,1.951481040891095,-2.471709492441036,0.6226236622822828,1.5844432089144018,2.043567436094189,,
3.0335469999999987,107.74165872087218,62.88552061726353,-174.01775490911513,-2.407110109989408,2.392714709968377,-2.1737314820927813,0.6662613294181424,1.5351626957957658,1.92443791525798,,
3.04307,97.52643327870614,57.07251878806654,-172.78984624269802,-3.1955387960473813,3.134404455195035,-1.184125740119235,0.8915550102430088,1.2667395208928216,2.155327307766149,,
3.062078999999983,69.36221902264002,53.491384802964944,-169.7185515138546,-6.078630579037334,4.302902125786198,2.4862867473223247,1.8273908372063823,0.3770630560388217,2.7748454907453683,,
3.071686999999997,48.395111053566936,55.50144912786003,-171.14824455431508,-7.21857861447575,1.888399607977677,4.371649965650769,2.4692359935451145,0.0126607912289691,3.1329317453565464,,
3.081288999999998,22.22544381543115,57.81348169277827,-176.90805869286706,-6.631200854263961,-0.5920194729412974,4.814178396157789,2.9041815806675104,-0.1525200402869525,3.231840789205548,,
3.100303999999994,-29.15017430464676,56.5192346001991,168.27994132492054,-4.394020243070774,-4.717308422446404,2.9718865838148294,2.6297636346952253,-0.0569805477818066,2.795108678743749,,
3.1096349999999973,-49.25684316290478,54.97807917949471,165.6192001977207,-2.531324678607765,-3.921282987415783,0.494771283935444,2.274304124394809,-0.2147589927947109,2.8058474024621747,,
3.128651999999988,-77.88926587663542,58.95230467640136,167.493126339586,-0.5980564039737202,-2.6544303278258408,-2.289741372850245,1.2070930815564913,-0.9553526258785872,2.3969079780832416,,
3.138235999999978,-90.68723289442642,64.06447092749777,167.98363397108795,0.3244045216761561,-1.983794175069228,-2.984133987692849,0.9847629909623956,-1.2514426162029917,2.2323366795916457,,
3.1477509999999995,-106.05860263620946,69.64457301699949,164.9987516718624,1.3703253720844677,-2.1828380510245595,-2.959468488981594,0.922977852615113,-1.357413668533288,2.110700724667426,,
3.16668199999998,-150.8384502517586,77.42876322057721,147.08396183337044,5.334499246246359,-3.3503845025122274,-2.1918145923908763,0.7990849524909386,-1.0807310307814428,2.6050006330833777,,
3.176209999999997,-176.4593487394718,78.26878424248251,138.12972859366505,7.943125979235836,-2.7173365714273,-1.5282755242272297,0.7532999188669274,-0.7807901988498556,3.1621657072297973,,
3.185715999999985,164.99705890469104,77.95210812737446,138.16092597354822,8.982396850185342,-0.5391790795989735,-0.3580814945519224,0.6115216144025934,-0.4625745710983563,3.62524490304334,,
3.195235999999994,154.8984925366043,77.80538396013034,146.95360314181838,8.798296842414024,1.9646074162076863,0.6910433944057512,0.3569550715229529,-0.2363937627936555,3.751470297412096,,
3.2047450000000026,150.67399375767326,77.98062009600426,161.21155947259774,7.375089708470788,4.154220685423034,1.1387607370724948,0.1468928130057458,-0.110697900694107,3.699927967226791,,
3.2142439999999795,147.80751103628933,77.49233738325782,175.911310831572,4.515739895750808,4.409784242951098,0.5821761352231074,0.1419135079082335,0.0717979865187325,3.52123167524098,,
3.2428620000000024,121.03291508308271,66.17311190267566,-169.32520516114343,-1.5033458033194456,2.510525020602113,-3.1633996849905897,0.592695247107702,1.1882551205982026,2.4652633606467576,,
3.252296000000001,110.23229150057126,59.755525143062265,-168.22410075823504,-3.718456721677682,3.2607818586991177,-3.749583710902911,0.7228899798702526,1.4459368127182268,2.2689299792191986,,
3.2713090000000022,79.87658809026739,48.74686932704014,-166.16142836498028,-8.271024438673031,4.708043401398533,-0.0016403511664252,1.9183570494698288,1.4000886874447678,2.992436894726079,,
3.280805999999984,59.57240822630391,47.3310409928477,-165.19396892260457,-8.599637817989509,1.9835377254118176,3.471822329012771,2.569428709693558,0.9355662109858144,3.298847671746325,,
3.290506999999991,37.38673354836722,49.52835101070108,-165.70725538822555,-6.716647066952031,-0.9217262570861644,5.699367666496192,2.962114320869355,0.3198922998477935,3.22167393243807,,
3.3095289999999977,-16.1628882885147,50.896816607705546,179.95239004697834,-2.009094465628247,-4.837586538484912,5.687373059511479,3.366171387387624,0.5054563118405563,2.5808851927028087,,
3.3190379999999777,-38.41953672380963,48.71373983856493,175.8736839605712,-1.1831867791570692,-5.542575858287009,2.478441539410942,2.885997532067885,0.3260889408649325,2.592822782675573,,
3.328367999999984,-59.37556274044602,49.0190975042661,173.15180343653333,-0.6233390745141126,-4.522425062231121,-0.0208433913235955,2.739256658475369,-0.323965487276885,2.6185587386084928,,
3.3474760000000003,-93.37095316461478,54.75308135258886,170.86804640390554,0.0220055597269889,-3.304470066993596,-3.82861242441288,1.7484293568608769,-0.9770920508165658,2.293870410058202,,
3.35696999999999,-111.2353738546978,58.74298188623083,167.52388276812098,1.1188492980398002,-2.9972250513287486,-4.88119988928351,1.7807011105178374,-1.1372392820944406,2.2221433765291407,,
3.3664890000000014,-130.6782453345828,62.19665544532246,162.535044888475,2.637691579485648,-2.132245532455148,-4.193970101377316,1.6772774156556711,-1.1491106575532122,2.302555798139304,,
3.3759259999999927,-149.24292696990855,65.26120188482162,159.55777606606625,5.839104671408381,-2.45943081933996,-4.045982562590689,1.3597574080033,-1.1040806454967889,2.660402795983688,,
3.38543199999998,-167.68675504903973,67.16675513323308,159.0994445717613,6.979616913686368,-0.9429075926211484,-2.4546383758783885,1.261206223341788,-0.8762673286439194,3.225954568513292,,
3.413970999999975,149.933755259309,69.45610653094748,165.2646854421614,4.238397148208147,3.297027805439128,1.1450601418610216,1.1429040281184302,-0.2522771448257831,2.748934665573003,,
3.44249499999998,124.92135178052524,53.63943301963262,174.43446000520288,0.4873410629260795,2.498201320316486,-0.8556123043329589,0.5199596357873544,1.1423784713759733,1.6923383406190982,,
3.4519990000000007,120.36611622644766,48.81397746120798,178.5693420296456,-1.3024339074483966,1.368817588316269,-1.8398709980901569,0.6319023304153132,0.9283906667569586,1.593004443813116,,
3.4615829999999903,115.78049917914936,44.69552268289944,-177.2784013170612,-2.555617646156009,0.8857109498898401,-2.658288874122092,0.6204246572345026,0.8317323910376523,1.5041897066228265,,
3.48053999999999,98.40726634835812,40.373596148562335,-171.99273885284526,-4.539594441220323,3.3131865001401466,-1.065462839400323,1.6990831307026522,0.45252291991138,1.833334643099955,,
3.4900480000000016,81.11055732482217,41.07989560443933,-172.280843180103,-5.674511372930813,4.969085721918373,0.9483676541578808,2.6187567637582174,0.2199791854786593,2.2020447608392093,,
3.4997359999999844,59.72222348358957,43.15807251384905,-174.0676483861573,-6.678405883631459,3.8366637832260326,4.266234183713825,3.201204592062724,-0.0308269723379596,2.516936702958321,,
3.5187549999999987,9.354493343400106,46.60293032020618,176.31964806432865,-4.33392666076625,-1.7146664738041493,6.805055772264222,3.598860130217702,-0.2269823912676329,2.5887589095557098,,
3.528270999999989,-15.439484031126137,45.39331090576921,171.13797285500252,-3.5506436853513472,-4.174217936201872,5.398490271571594,3.447751327505499,-0.139552196808694,2.5424821187825493,,
3.547105999999985,-54.904524877514845,47.41688391882565,171.0721902268901,-1.6897196177032687,-4.695371074068607,-0.5066184854953646,2.515395758396768,-0.9219472281927296,2.887717479072586,,
3.556615999999991,-72.13329668454622,52.24857880602628,170.76107310791562,-0.9612889842125804,-3.3921377992226422,-2.3601069872883444,2.0461642872422603,-1.2998032570305238,2.57545086458621,,
3.585218999999995,-129.76705368432246,66.14733906689868,155.17990672612382,2.482371933653874,-2.1479294274181533,-3.4918052275226423,1.45676316042535,-1.2406715376713895,2.241781976987616,,
3.594661000000002,-148.73515375640372,67.86045572766612,150.69623008308915,4.953621959624372,-2.691783724146565,-3.174421800676675,1.1635862575266682,-0.9761125903408778,2.5991861669628262,,
3.6231929999999855,177.15778598768466,72.23246120912383,169.25878681072743,8.602805700429352,1.4978282410184136,-0.2387915444374895,0.301256434576211,-0.5799694793229642,3.450532204012475,,
3.651722999999976,144.43313476786702,75.77918506608191,-177.482735097297,3.5404490566427977,3.629091507094805,-0.1799938131893412,0.8717419644494236,0.3034875898196313,2.4686972406213186,,
3.661239999999992,128.01880837178766,71.29881212333005,177.70078058213358,1.344349234832273,2.379784717382252,-1.0544587928139313,0.927022996168607,0.893315167882271,2.1899072458974627,,
3.689751999999999,108.32922312662107,50.27038713288157,-179.03812811492298,-2.521492581577349,1.7300306946104336,-2.137866010879548,0.6491301359709635,1.3669536596764875,1.2469954614872876,,
3.699279999999988,101.4973921526098,45.037339184431545,-176.44976854890845,-3.27091784061556,2.5875893314240166,-1.721376745335681,0.880183251048789,1.082757555052272,1.5291292182127356,,
3.7087669999999946,90.91471607516428,42.6782960582626,-173.8424391178049,-4.371626246652556,4.041331798047664,-0.0558274349745204,1.4834663557672436,0.5989946630866404,1.9893673116991235,,
3.7182969999999775,74.7546197181408,43.74529454089683,-171.87951102176197,-6.297335730607437,4.959026149411507,2.67606807904996,2.367855776874315,0.0824519535096773,2.606871495182904,,
3.737493999999998,28.053781313043803,51.819059140131245,-176.698194235589,-6.228578526941119,-0.6825797874803585,5.969655084394828,3.3495145756852174,-0.5017004932571132,2.94632394401345,,
3.746994000000001,-0.5125076895335785,53.19823530802826,174.79208309512313,-5.295552415811937,-3.239848323044064,5.6241592844923565,3.462923600685136,-0.3272204688249401,2.8493368119012867,,
3.756564999999995,-27.43214018638805,51.55576617245681,167.917640649774,-4.369616665442379,-5.2740078075412296,3.7441566197264433,3.291789695994659,-0.1750710353903375,2.9038241666508395,,
3.765850999999998,-50.06738105548953,49.666635974212056,165.5501434158416,-2.800724132416,-5.476235548160532,0.6743226635539197,2.8826430760584194,-0.2963710465807444,3.032022234586825,,
3.775352999999996,-68.60981650336832,49.946078560129685,166.57909235577063,-1.6191357716741697,-3.93565490663799,-1.7064424208281936,2.313351117655695,-0.6311558800125487,3.0415100738278347,,
3.7849429999999984,-83.90621513107574,53.1368559178182,169.0145826440203,-0.829228211495212,-3.532079569819161,-3.426680584450403,1.7312039214416504,-1.021040377049633,2.840669774272387,,
3.794466999999997,-99.07739924586804,58.50420151889448,170.11946559977977,0.5300429445321581,-3.3308307286756684,-4.5985614382468905,1.490707105663911,-1.3552248932958624,2.6499021275864063,,
3.813398999999976,-137.34957303189407,69.45478204338535,163.3800070410242,4.898287331379546,-2.776273071460465,-3.771133544730511,1.3213616380616997,-1.3647413717425314,2.783808077123404,,
3.841934999999978,162.45143832922068,76.86182592265894,156.4065875273628,8.49019933559757,1.8426133921597625,0.6570167603265835,0.5310648223591303,-0.6553793883292475,3.411031263412015,,
3.8514490000000015,153.23268774105404,79.19285647277424,164.10903268090178,6.69857791591295,3.486752730929504,1.797803708426538,0.2042910695511613,-0.5713965038359193,3.344574669166445,,
3.860956999999985,150.31093183379835,81.28246007507684,176.54217685024187,4.509035865390374,3.1827751386094523,1.453397044972037,0.0301787349839257,-0.4332904055010785,3.06144871682364,,
3.8799809999999866,146.87904270693764,79.74236591712233,-163.73288981084085,1.6907507061375415,1.934174218614184,-0.5523500309482533,0.0335952070883987,0.3834387083854293,2.11261784748372,,
3.889584999999984,139.25676524627838,76.06228659467433,-163.31962747788984,0.5107468543313454,0.5951398544291102,-1.627081912077295,0.0969372163789104,0.799244364192606,1.5769045509680109,,
3.8990670000000014,131.51663183609077,70.82287133861153,-165.52605685335826,-0.6707481456606331,0.7652631113133099,-2.443805073669967,0.1430802185899645,1.1294175497376242,1.0465769369350473,,
3.9085759999999823,124.34726241052168,64.57309743222264,-167.6403382309872,-1.949809266581188,0.7163947124851929,-2.779617688773352,0.2410999358150677,1.3428749892860017,0.9367151012353954,,
3.918008999999984,116.51788050690372,58.13395045999076,-168.95451134743175,-2.7846579695193787,1.1898464140339524,-2.4348973819870907,0.4759141792247334,1.4132492318915095,1.13517548491148,,
3.927520999999985,105.83412917413465,52.67743495099033,-170.04092481297556,-3.66606331392345,3.0345104634192053,-1.6468948376264458,0.9954738257100634,1.2928025617680277,1.544966142658614,,
3.937022999999982,91.17319797638156,49.162159441502425,-170.3351922397858,-4.865641329176967,4.677732029895442,0.233161219861148,1.704093960335299,1.005327170742074,2.220514300389589,,
3.956226999999984,53.461625342963664,50.9562597634854,-167.51106588105648,-6.40521244342424,2.3995394620553325,5.2510105973320345,2.6278924082336177,0.0426216074573099,3.335787190464909,,
3.965739999999984,30.169713462428305,54.74791010946301,-169.976005233417,-5.3817057578074285,-0.6138579108782736,6.5487113935293815,2.906026518016479,-0.1844779782825507,3.2275867795756628,,
3.984757000000002,-21.91880451710674,57.544630946748185,175.3969776536218,-2.882839437565536,-4.2300313653531285,2.6986154394279613,2.755615752952482,-0.1500045351844405,2.8096908292063327,,
3.9940959999999848,-44.61550041338072,57.69093597979207,170.61859558026205,-1.7930518211669475,-4.367250621314159,0.3341067289352938,2.4076127063886363,-0.3245662317614731,2.885904923892533,,
4.003602999999998,-62.94355472804937,58.42474727682606,169.6338036832788,-1.113499083722067,-3.227553101732394,-1.6353541479499796,1.887327450843131,-0.4764560926563186,2.918058655517364,,
4.022687999999988,-93.60063986991932,64.18841038653873,169.5468509421845,0.6432336593693966,-2.536547182989715,-3.2829043801364186,1.2949326928035587,-0.924802221427926,2.5545597549677144,,
4.032211999999987,-108.5450460813647,67.78884438490324,168.64234682203625,1.426466006512187,-1.53671105495351,-2.5742914887109105,1.0625290768912723,-0.9311174951255036,2.476258050975993,,
4.041631999999993,-122.15286817866516,70.9733794825832,168.30347439872762,2.5291063398560474,-1.8115844430563728,-2.0159811844155624,0.8154628748152447,-0.8116855904408702,2.408280963126407,,
4.051141000000001,-135.5910796125501,73.18661274962975,168.09548256778032,3.3180670195318256,-1.229176120519589,-0.9758341508114324,0.721264047011677,-0.5998574874271477,2.4558632843291672,,
4.060671999999983,-147.05701709418568,74.65971877631681,169.87982666991064,4.000126888181577,-1.0035659604699774,-0.0925606725499574,0.5687349170623588,-0.4097929822880289,2.520509718264589,,
4.0701799999999935,-155.10418602139248,75.99490221264337,174.86345121242172,5.014789753857095,-0.6948024295029078,0.1237637558561591,0.3703503669026941,-0.3193383597088862,2.5276634775885936,,
4.079685999999981,-161.16983200180064,77.30579034977994,-178.0770240007119,5.358806065395132,0.1903821440905275,-0.1861167859664416,0.2745237512483613,-0.271015723410088,2.581498858740208,,
4.098712999999975,-177.9403170534443,78.67458758373994,-169.52002011505746,4.972125530944729,1.9105221357546245,-0.9035593392464616,0.4063246886290936,-0.0389091844941145,2.4247952886329025,,
4.108224999999976,168.59518982101787,78.95992940182904,-171.5009152628954,4.124654012236628,2.4792929403431203,-0.9025172695197972,0.5239462042018904,0.0296385943355674,2.245860244806165,,
4.1369379999999865,134.21661355183227,73.47041703424397,178.67828271717548,1.1085315039826462,1.395556553881022,0.095593020041138,0.4076234036624513,0.5760103759672607,1.2607974348550817,,
4.1464440000000025,129.52262817322617,69.92777607504775,179.015473617599,0.4949871835201898,0.7663789177714306,-0.2132152107730514,0.310856874085911,0.7035152174451882,1.0105866798853806,,
4.174796999999984,119.22421731396253,57.43516914527649,-177.26811061456036,-1.8629046054891063,0.9158369014565734,-1.6656334265497943,0.4556389348114136,0.8300855700639328,1.031578945132699,,
4.184299999999979,111.46540601912712,53.86424025483053,-176.15800371180418,-2.6688602335313583,2.0559902774382626,-1.609058827745568,0.8343600948137502,0.7634735627726387,1.5049763588098457,,
4.193804999999998,99.29382019139176,51.18886687315756,-174.8027172828628,-3.878509459095157,4.236525190531024,-0.6488866720842513,1.4365193232222395,0.6492574553720907,2.2052014943087164,,
4.203307999999993,81.5482860714122,49.91213948193263,-173.58813705265695,-5.89837865962413,5.690638364609279,1.7108302235758537,2.2213761735613926,0.4808867946527517,2.98602880419663,,
4.213008000000002,60.56309749416001,50.486109558494405,-172.75584064313622,-7.347833317292262,3.5164227794299125,3.954431581177806,2.6852125200606363,0.2069804149195448,3.3940459985827576,,
4.222521999999998,39.16540729087647,53.420912607141325,-172.23999084161463,-6.94789587984514,0.3117861653237087,5.370862611242973,2.69504793920585,-0.2312495633437933,3.477356240188989,,
4.250889999999998,-35.668608758106146,59.64272937413944,175.33397230061476,-2.6880018119735047,-5.601949789693891,1.302226247367748,2.5392534462169265,-0.2977524473104486,3.3452237523245523,,
4.260373999999985,-58.00051264285031,61.34330747260517,172.7958458805424,-1.1111925352881695,-4.767409409281012,-1.4029074674920303,2.1535793588412258,-0.5618659097212071,3.3862185408780063,,
4.269897999999984,-76.45394386532253,64.30695607208753,173.26245280074355,-0.2870420378462636,-4.310265414195901,-3.2833341640165177,1.60630992084468,-0.7847474691089783,3.3160170621891374,,
4.288981999999976,-119.53239439292508,73.25796627771865,165.3081506779469,3.676183537172272,-3.910640639813949,-4.514670588893868,1.4014437914096585,-1.1705503348355026,3.1422340763670062,,
4.298421999999988,-148.76463953128928,76.55177677480464,154.5791986819383,6.615815256856312,-3.2769065025140627,-3.5057190293837217,1.203916739515142,-1.119298532276883,3.433208164383293,,
4.307941999999997,-178.27984845259894,78.44549174476634,145.4902961359888,8.7174284772704,-1.3426394064121414,-2.570009163535566,0.9171720220262696,-0.9528504390956056,3.892925923833588,,
4.317450999999977,159.1762426920048,79.03904347477015,143.69327993343916,8.761598011230312,1.0635227878672555,-0.6627639793659885,0.6483895488517385,-0.6054805046718914,4.063562393500184,,
4.326956999999993,146.47414458109913,80.40195164384473,150.52781238294324,8.058194987396753,3.478714833213808,1.395176287115977,0.2344740065380435,-0.477903441052034,3.867114806252221,,
4.336468999999994,141.43022445747297,83.28509767526859,163.74347694504874,5.691255366559018,4.962558673819967,2.347873796144789,-0.0904106300100548,-0.5960404745845943,3.639628652056493,,
4.355485999999985,175.55806697354868,85.43490730435286,-131.74086403590323,2.122932992096928,3.470353588776978,0.8726726457945185,-0.3022961226174613,-0.0912940563380876,2.74072460479271,,
4.3650030000000015,165.88188284774336,83.45531738886154,-129.84056874204924,0.9932444328350252,2.246828371162717,-0.6384445744804855,-0.1832127016906714,0.4058401844218791,2.327774594392812,,
4.374589999999984,143.6987885553692,79.85699963117722,-142.85548328306342,-0.0182836560515671,1.011056226827126,-2.4631647291144514,-0.0284885502683922,0.9565895655872024,1.885853970623989,,
4.393608,114.16557889715776,65.80549104775258,-158.6838848594474,-3.0770979826048115,1.307125355075629,-3.846146078003619,0.1401061952777496,1.7812035496082168,1.3356928831729156,,
4.403044999999992,102.61479147320446,57.78809868588274,-161.97447495308438,-4.817946571870547,3.0449921225487344,-2.82210291160133,0.5011946717248014,1.871845904861928,1.515115227709973,,
4.412551999999977,88.42627092977352,51.3552798424174,-163.44473163416694,-6.610858502925699,4.62729847268465,-0.3720102329446131,1.199257353514128,1.7080064826327983,2.124717873383865,,
4.422056999999995,71.24038227812554,48.18701474792143,-162.13016139923943,-7.619252488684634,3.8627168047088425,2.8247390458999235,1.937691798249106,1.259905732933262,2.8900855764097244,,
4.431750999999991,52.125415655821975,49.29675279108104,-160.04668169238388,-6.720318583474069,1.2541222242134265,5.26813648735415,2.4614232554252946,0.6102921234051285,3.292678894269127,,
4.441257999999976,30.20644349499219,53.11326295686433,-161.44657687076966,-4.878761637956361,-1.3158543711984168,6.913828345596162,2.8441380803217067,0.1940382996953455,3.1426761378017507,,
4.450771000000003,4.715785044051923,55.76427197469444,-168.45898312629083,-2.944189914729801,-3.413234768548397,5.666647429502659,2.9935117156849067,0.2655268933779439,2.757751101605152,,
4.469609999999989,-41.78626267469424,58.04809217291441,178.51244690083917,-1.4401955559184778,-4.280983446384004,0.5186165921598223,2.38523435732902,-0.2045166434418103,2.6295891638493045,,
4.4791079999999965,-60.89171554200749,60.00361549075762,175.13819924492276,-0.8848260004687565,-3.1401430377831634,-1.5405153101384472,1.942031904498981,-0.4961626719775638,2.6072256239797835,,
4.507715999999988,-108.71698852282547,70.35773448403836,168.39584463446482,1.6785206987156225,-2.007794675736556,-3.552996643976087,1.054815908322455,-0.918673550347462,2.293516071884688,,
4.517158999999992,-123.85098060227592,73.46737498123389,167.11499462265405,3.403773976383705,-2.4019269372050984,-2.7643573719934973,0.7893923284975672,-0.8030483183812163,2.5614761868034406,,
4.536180000000002,-147.27215678775954,77.27152068588613,175.52640186719805,6.241143422716774,-1.4133323908998938,-0.3223125440171145,0.4276913816016128,-0.3565643657096177,3.189718243182424,,
4.545697999999987,-151.8585136217667,78.39562665352624,-172.78034307161252,7.475506301651499,0.1190809008210964,0.6400172798065755,0.2013626641678851,-0.2214263005385499,3.24936588686854,,
4.574225999999982,179.115848295494,79.07012259546786,-156.11245098253934,4.012153179678338,3.4670511030546987,-0.0595057614308627,0.5747766118443398,0.4552825397278435,2.748008133372464,,
4.583736999999985,158.1379332082508,76.29277906021971,-164.71845849291307,2.412614870648836,2.8656791345980945,-0.7790861927988222,0.6581594389746891,0.8141373930436229,2.476580633991837,,
4.602753999999976,132.51257014998538,66.53274166363293,-172.07618497672792,-0.3896156141996383,1.581797698762772,-1.746607941853819,0.5744302170604838,1.157732041680204,1.621279011780785,,
4.612342999999981,124.08914748321544,61.21438636642669,-172.72542302913374,-1.2888673923146858,0.8488792876957751,-2.025550915534949,0.5983945512246125,1.1511569062074511,1.4448865986034425,,
4.621780000000001,116.42955564066882,56.29736613590973,-172.56516180201103,-2.0717480444702225,1.7065117341383225,-2.129779510029928,0.6642207867546741,1.0767642819695638,1.367757632902887,,
4.640794999999997,93.3118690941474,49.65371446423229,-170.164945952886,-4.15690246544587,3.843333871307348,-0.2902367713190286,1.6226717679619411,0.781381649028989,2.4030058451010845,,
4.66001,55.999202748524105,50.70695226535687,-168.14468645380663,-7.306946853846532,2.329124835332057,4.557964110206751,2.627289578034338,0.194947383912284,3.251902802082772,,
4.66951899999998,32.802043836457855,53.80409961208147,-169.9072704474167,-6.280684937132677,-0.3926081300643746,5.580928069093725,2.906147682328593,-0.0592499792784437,3.322655948236032,,
4.679014999999993,6.887348079627667,55.61923425044848,-175.35028913521532,-4.543930612537332,-2.784816981682445,5.246838380530135,3.0114942384947367,0.0300743558487038,3.153385162080209,,
4.688507999999985,-18.30285929280679,55.152509995776455,178.8436976462296,-3.344080816226134,-4.830655299004933,3.361503827256741,2.853905728759502,0.1786638702519136,2.9960943402500457,,
4.707373999999987,-59.23204548694263,54.84915481344879,175.96614671069142,-0.9623503581283048,-4.291831258372721,-1.0486159312237806,2.1313592281032103,-0.2503985292036223,3.0652594555667747,,
4.71687399999999,-74.24712464293255,57.29606954364361,178.4914274802987,-0.1747387191887395,-4.000772317653524,-2.49277393603438,1.6543611415701551,-0.5683756917273408,2.999680059357257,,
4.72646499999999,-89.09497222255409,61.505031784424105,179.93108446912552,1.2602280978364724,-3.917975652813338,-3.40595026546546,1.5028600882369465,-0.8597417938237378,2.847691552040942,,
4.754919000000001,-147.4303904251776,71.49099693099639,170.88800281907518,6.863247473075938,-1.553197606123485,-1.6598495226077017,1.337503173182924,-0.512714131564302,3.1603560205413737,,
4.764420999999999,-165.70602812585636,71.46388282035348,170.3176727348196,7.593846640093496,0.2717607863553655,-0.5378246077048893,1.146726772524617,-0.1843361432097751,3.353645988780261,,
4.78344899999999,171.5971379843678,71.0920539590754,-177.66581260865016,5.784518644582514,3.203724896535832,-0.1191801587705999,0.6229372450234729,0.0150023748371466,3.296226241944063,,
4.7929519999999854,162.83676886876214,70.58161847299445,-170.7771248787394,4.0170033181791736,3.413359806155813,-0.4724191895486431,0.56408918515814,0.1600318536772411,3.034073516955053,,
4.8024719999999945,152.76923194106195,69.47796984819666,-167.05309354016313,2.370357111071209,2.77026691822152,-1.0970549757381067,0.6338137992707776,0.3493528489225406,2.6387275479031693,,
4.821567999999985,129.9074984947131,63.144630970368,-169.6169452511369,-0.3196719963624199,1.0143126683210604,-2.2137737448328143,0.7646047286874861,0.9880241688691298,1.5804633203195997,,
4.831081999999981,120.3313981357594,57.417701962930245,-172.4352106935162,-1.2609638091669,0.4676177338634563,-2.2100606250908656,0.7612186604616937,1.277719009943206,1.126590985026496,,
4.8405039999999815,112.58892203566612,50.74267481125101,-174.6472554382926,-1.8555771805133805,0.7670942238071254,-1.964829786420205,0.7535103310086677,1.4286241056333815,0.8146688116982234,,
4.850010999999995,105.57784581800912,43.93187837856618,-175.91403120216793,-2.3261229189577244,1.497064540026768,-1.4382958743800027,0.8362697828594612,1.435979649966735,0.7802327011885034,,
4.8595189999999775,97.67638962339728,37.909292412069135,-175.91256011601124,-2.795853612701373,2.8399201407119734,-0.4902895703344734,1.1070159258014995,1.2864456433087683,1.0373771915729957,,
4.869027999999986,87.20868298239036,33.70762130142209,-174.3431112064901,-3.484467658382637,4.034083582026616,0.8953392990792087,1.623091852246492,0.9806995921963988,1.540174833228474,,
4.897748999999976,36.12290212869961,37.92765936681593,-167.93717484532326,-6.237507453220809,-0.4263702574713426,5.899046964306513,3.478948552083528,-0.1123426140814403,2.5431503684004646,,
4.907263999999998,12.456268395991527,42.59777098773205,-171.18118119757628,-4.889499192535488,-2.7355322316211788,5.093252825679275,3.7205224321982775,-0.2508619681829523,2.4201678382463667,,
4.926115999999979,-34.568356461512955,44.267270246648565,176.9760922663326,-1.405773699188401,-4.489224841006062,1.3866248038397615,3.2352300787022914,0.1115998790434111,2.073870921955137,,
4.935611999999992,-53.76806130088376,43.01224471075118,174.09633375666044,-0.8610661066999422,-3.441267172618297,-0.3831710085310632,2.7909332366068376,0.0315699006726317,2.0797893910197405,,
4.945121999999998,-69.63380735606519,43.08255265698535,173.69128300891865,-0.5689900621486739,-3.1518575390660435,-1.6177710827039478,2.306765707797015,-0.2608619598912053,2.0878098570365977,,
4.954712999999998,-83.53472706171428,45.21147800676573,174.75433860112778,-0.3824829177549571,-2.1548113176846555,-2.5105423587640328,1.9450601734798096,-0.6233461627041919,2.1511040948632814,,
4.964233999999976,-95.95515119649002,49.32188938937566,175.91584934205954,0.3745307199973303,-2.364538521531905,-3.1168399644226343,1.6160961521222454,-0.954884842701474,2.059281886547836,,
4.9737349999999765,-108.72915719532476,54.5092897385984,176.37978918416303,2.065564036715561,-2.7819606868854194,-3.5660028483369888,1.5051468756665105,-1.1386394696435351,2.1067588456156887,,
5.002195,-159.82859323438927,66.48291448583676,171.9356077708077,8.013001929940708,-0.6781383780335453,-1.9743749509377075,1.4882684926618164,-0.7086488576974136,2.932587667657806,,
5.011705999999975,-177.5659133192756,67.6338188407411,171.29706935921803,7.952580822112613,1.4422533922273515,-0.5767430008556422,1.3351441420345809,-0.4280613334719727,3.141374302390224,,
5.021215999999981,167.5273390719319,68.07202441003054,173.15255814651636,6.627297868090404,2.7755953129151605,0.3496213329327987,1.1033940422756623,-0.2388697905590915,3.1340368745371467,,
5.030721999999997,155.1101261617651,67.78093193018091,176.28432913531793,5.039378000433457,3.5681984367478985,0.2419760478886773,0.9364777560764772,-0.0281312294257371,2.9292209907057063,,
5.040230999999977,143.81349425732665,66.23049880300053,179.4008117096769,3.0488121581836687,3.353094222612124,-0.2334164676321373,0.895305986210631,0.2765450821261165,2.704787927676377,,
5.049735999999996,133.7636057938612,63.28932162329343,-177.85523068945992,1.233631751794071,2.46669225382151,-1.1089006039388782,0.8505841469027636,0.5998632106777869,2.368848610271726,,
5.059240999999986,124.66806514581631,59.14390336965003,-176.03046997242106,-0.3617028222551469,1.919643013068533,-1.86193363407536,0.8317884113456961,0.874791876980585,1.9614777166315207,,
5.078265999999985,107.267737506416,48.55371325433573,-173.61779863957895,-3.083721971540585,2.2113687524861363,-2.472252067428287,0.9495677536861414,1.2177564135874377,1.6068026310607657,,
5.087777999999986,97.3909854689576,43.25870284835484,-171.47867768044148,-4.376624256962461,3.562461783141922,-1.0101002820967946,1.228211333375332,1.2279667477792466,1.8484707795182127,,
5.097274999999996,82.79100133312288,39.67262712969476,-169.9592426895711,-5.66089737324776,4.306457541472124,0.9285951418245134,2.0478179754039725,1.0586822235928086,2.2393384771684013,,
5.106981999999988,64.60846570160547,38.85442461708231,-168.3513401505215,-7.184066110726049,3.740090855982715,3.776813230638501,2.7393251118016178,0.6902530658771361,2.624444243571741,,
5.116498999999976,43.91242658988208,41.398469149892215,-167.1467780101236,-6.608444800168598,0.3952399725885896,5.804064909851149,3.205266799454112,0.1800563631586043,2.9104796215894697,,
5.135513000000003,-5.44540524934383,46.35550299350392,-175.76987976920944,-3.294267401886408,-4.258634123565597,5.593612547827915,3.612103909563932,0.2009896125063786,2.4846653689429634,,
5.145009999999985,-29.92702753931721,45.62117913554624,178.11178248427788,-1.9237323328723988,-5.682272455010983,3.0976545048344817,3.394955340671285,0.2137490980007903,2.310480497660144,,
5.1543419999999855,-51.85881972574372,44.25331359120585,174.57791076671288,-0.7615576795816376,-4.5332126265583055,0.338507206090339,3.1160144245323687,0.0716478439337588,2.399200951594044,,
5.163853999999986,-69.59360384177765,44.0133764646703,174.18075877181343,-0.8808458597721017,-3.2614687437921743,-1.417652517313195,2.540892320749711,-0.2021803349865607,2.3936572887700907,,
5.182948999999979,-98.47228121788248,50.21231060582143,175.66130432619755,0.2437840289330364,-2.056260974322728,-3.8311748208794607,1.8317177309298136,-0.9579350585722044,2.1521874854821648,,
5.192464000000001,-112.63888607182103,55.2055843534489,175.3624040037644,1.425119138574533,-1.7487141893798972,-3.708065088127388,1.6390913142197556,-1.1210962583899629,2.122970929678844,,
5.201980999999989,-127.19017385841654,60.140588144073895,174.7208699038553,3.739035760779248,-2.248798618220639,-3.671089616758532,1.4701725633013072,-1.1098032892664742,2.267016453604061,,
5.220929999999981,-159.66997080178984,67.41503685272914,173.6655772834859,6.712120210669903,-0.4944595500297334,-1.5570381793332586,1.255898824462212,-0.7669624279205977,2.9159466236883422,,
5.230437999999992,-173.9544738083272,69.85849230667826,175.33460076873584,7.360844441599998,1.198020880963184,-0.4192987662820895,0.9907623940645878,-0.585285977803285,2.9962526333707187,,
5.239933999999977,174.2369945665445,71.93732988060738,179.23086886974022,6.232214914328182,2.580137724827632,0.6208777599769899,0.7542719289707602,-0.4522149686170473,3.012211122712429,,
5.2589729999999975,154.4811247393452,73.4515768127218,-172.92515010937947,3.1808588267728872,2.7616468414603617,0.4680571559662992,0.5668025639258887,0.0436735345434932,2.4934486385265417,,
5.268466999999987,144.43907868894038,71.811341809296,-171.76162554067236,1.994997229169304,2.4531281285344733,-0.286069694315879,0.5510427379939368,0.4053582221621548,2.1511452587767272,,
5.297088000000002,121.64388754407489,58.710796632952686,-170.56212412319206,-1.1522476929886614,0.8738537497842193,-1.8886411317505616,0.4417109787990382,1.137170390614529,1.179832305476325,,
5.3065249999999935,115.62700073944345,53.168006841071936,-170.05693825120431,-2.013828629879776,1.039670639519987,-1.863730671561108,0.481604050230814,1.206057221556017,1.1573005699389225,,
5.335036000000002,81.27220741522648,42.14468363043599,-165.51107553068965,-6.262793639709902,4.480138636197517,1.5796581232384312,2.126439108816564,0.9126298145738446,2.554940594819733,,
5.344740000000002,62.42690901841677,42.90798692785543,-163.06885604144688,-7.406207322487504,2.739730247726622,4.200586620038982,2.7205198890471154,0.6076564854590618,3.036966687628919,,
5.36375799999999,17.44375073056948,50.460222465791645,-165.01308008731152,-4.29368914824761,-2.6804897624840787,5.961823424717128,3.273895075802624,0.1297017610779596,2.9974798678312853,,
5.382602999999989,-32.579808846064786,52.40321775929686,-177.5420232959106,-1.2695574503249616,-5.371105423707286,2.0616441241086605,2.9533794888620086,0.3064717635052306,2.6630241260453205,,
5.392111999999997,-54.504760837024286,52.25961462829574,178.94900431129997,-0.5844218278883789,-4.19377019919351,-0.6009714372307936,2.6786862944400043,0.0611189314506183,2.7763397192519323,,
5.401617999999985,-72.4876938975729,53.57406807888884,178.38970507840537,-0.3306797977612536,-3.749113731786137,-2.2592606593374733,2.164240540843586,-0.311472586461173,2.761281586777845,,
5.41121099999998,-88.54921990789863,56.81626679633285,178.77066078600794,0.6807537955946954,-3.91785221844761,-3.83319542276081,1.8195889838580523,-0.6906464497875944,2.717384878435791,,
5.439656999999983,-147.3596168597831,68.84175676279303,172.97508739294264,7.9456563609165105,-1.989147953604652,-3.849815867957375,1.6399810333016052,-0.816021907313299,3.446260130926708,,
5.449170999999978,-169.90272727979982,70.41985063425501,170.1410121878976,8.8549216073699,0.5493038384234562,-1.9299418361925096,1.5045500854923903,-0.5406093380496678,3.690272334112244,,
5.468198999999999,155.3892892457667,71.54033328335818,172.4859631415303,4.8810984664081705,3.739480270155372,1.480802314196508,1.0078045179150918,-0.242728942010376,3.414398026478481,,
5.477703999999989,138.2691567000416,69.88381876573611,171.31853746447769,3.265490905125833,4.151610812586646,1.3060530335037988,1.1661511465968464,0.1669947794644088,3.0007965772419527,,
5.4872139999999945,126.69230884565346,65.92603323782313,174.5884261251341,1.8830731613717164,3.693190279564688,-0.0743888799041054,0.9633106108013518,0.6784474200395801,2.8018331675466697,,
5.506243999999981,116.19904023876911,55.807712492676565,-172.9748423547385,-0.9955931721759014,2.223829320461324,-1.4935885563319833,0.4402543432156507,1.024206028341779,1.947283847412395,,
5.515731999999986,109.99780573374298,51.71368690515875,-169.37744674730865,-2.2846000405037805,1.3304591978359852,-2.456520500751939,0.6017244563831871,0.921789721889322,1.7578745266264817,,
5.525247999999976,103.15394181164974,48.34316653993376,-166.3165118566172,-3.3556288589736423,1.5370321793398865,-2.6748853403284665,0.7197436519179641,0.8444322811609533,1.6784868080613855,,
5.534755999999987,93.4113020092284,46.08187412371777,-164.5548291748373,-4.803253462528961,2.968683291768292,-1.5042853160521088,1.1693599312888447,0.7707563105805741,1.7839728085030753,,
5.544265999999993,77.75426038391032,45.2029163618239,-165.09124628182954,-6.181166882928151,3.706827596899573,0.6552892245571361,2.069128346705128,0.7425297874156921,2.134457641815959,,
5.553966000000003,57.59610669242145,45.45140317430333,-166.85135761476204,-7.173522877166241,2.988932553204535,3.4979470328953592,2.763379962438147,0.6397591176971954,2.5198889577540178,,
5.572997999999984,9.756155487478232,47.20473714293803,-173.94436719185825,-4.619473108340047,-2.668137274638032,6.202294196821768,3.3677544946804803,0.3369843612685558,2.76880331865072,,
5.582485999999989,-14.19776532292756,46.64896939221273,-178.54391555615302,-2.6687212540461407,-4.669415315674971,5.10568481836041,3.2560199913371792,0.3233805375655602,2.589942125495019,,
5.592000999999982,-35.974728649673224,45.46188820044283,178.30306421378015,-1.4020978924374845,-5.67201698314745,2.840564503342102,3.0234806853718643,0.2281779825879019,2.5126683019380582,,
5.601337999999998,-55.918078485145415,45.464513034151786,176.68708287229862,-0.6841556968773023,-5.0232426074402445,0.3101000704695294,2.7967641296700307,-0.1229371960934019,2.5248661771571963,,
5.620421999999991,-89.963860256046,51.18682117024745,175.17581331789052,-0.0188021421645573,-3.121926216278143,-3.2705764235245867,2.061848698659302,-0.9093950376127444,2.3043193154604635,,
5.648957999999993,-144.39855409540132,63.02361174844455,161.51240289068502,3.776568170739533,-1.464952347398311,-3.570348227500466,1.580752790290634,-1.1002439021305113,2.262459543929652,,
5.658411999999998,-163.0432645374551,65.14684616031865,158.09569458552306,5.4922859190170445,-0.966609673367468,-2.799345383315943,1.38396117973342,-0.9561303051840138,2.649695398924193,,
5.667914999999994,-179.19505195137745,66.64282031594992,158.021790488618,6.70581726867591,0.1231854570750974,-1.439560472466212,1.1132841580508868,-0.7695927933960814,2.935978131195276,,
5.677427999999992,168.21560973283107,68.49989571644629,161.9044830894947,7.257830912091655,1.7018815613521308,-0.2175078722309908,0.7775015300836204,-0.6787314090624947,3.1054810542385627,,
5.686928999999992,158.86721318050837,70.95953361535379,168.75953924749095,5.9946017091313895,2.869053734217539,0.8297754445421033,0.504314387116641,-0.6417604936297966,3.1261713496082515,,
5.696427,151.5054383941264,73.45281267008863,176.45003565127013,4.636049329691214,3.3168588784163626,0.7957983425225388,0.3840577844459559,-0.5546017218307092,2.940857497206276,,
5.705953999999991,142.45636835062513,74.18279952082706,-179.45733344137764,3.0576945897823715,3.002730980933001,0.3237897107126419,0.5017793198041315,-0.1595997107585177,2.5575642614121845,,
5.724970999999982,123.2733559783158,68.0838080001087,-176.7923335232414,0.6783486217979618,1.4782464231403998,-0.9511566768749936,0.5285871690039364,0.8496550491205356,1.9386291426472564,,
5.734475000000003,117.8380348135558,62.53210823590637,-174.57725799649637,-0.3089105355296834,1.30485787541549,-1.3163722021584674,0.3700021518303403,1.1432832008122458,1.432922373832229,,
5.763007999999985,102.7416677154142,45.17288341403313,-168.80708303911763,-2.774538832281565,1.377305312460606,-1.4648561728930365,0.5368147296257084,1.1750218221440445,1.2123337675168064,,
5.772520999999983,93.90252262037302,41.52308690427036,-167.2933369124584,-4.148335181430775,2.8520654873599773,-0.3821745046555719,1.1085220084217922,0.980453495500984,1.5178422123303017,,
5.782015000000001,80.10246304671061,40.33247916272775,-165.7946881969496,-5.390326882256563,3.556609015688438,1.3751589755021536,1.975877241570188,0.7168007540727936,2.1093500705384103,,
5.801234999999991,40.613864818488686,45.84329442892105,-166.04991464663993,-6.383261141199629,0.0508830641022971,5.788460300543688,3.224164513518119,0.0589155606091284,2.7565646939173067,,
5.810736999999989,14.712878845201596,49.21490247569309,-171.6611911187271,-4.75418685148469,-2.525341242220625,6.058989411654615,3.556591839176355,0.0256733513748843,2.7123230457934584,,
5.8202560000000005,-12.155202119465269,49.77668492614088,-179.53567029208511,-2.933282429987433,-4.312428414539782,4.719244382021024,3.481259004224022,0.1573783267823553,2.52749632490497,,
5.829768000000001,-36.12518647053891,48.07514674019486,174.72406208469755,-1.9603468513204605,-5.576284148764196,2.535501822564614,3.1582025497551403,0.202513290344518,2.477256056014593,,
5.848609999999979,-74.70314007720201,47.30662388310252,173.142151386769,-0.7386221969294063,-3.8214650610548913,-1.976239679108985,2.38093520677485,-0.4303470849557996,2.686493190497603,,
5.8581939999999975,-90.11367575324915,50.47269985542341,174.21356582419705,-0.1132656268587477,-3.388608970466158,-3.429108733175789,1.9480030761464184,-0.850210867229927,2.5392038395594296,,
5.867705000000001,-105.75037151552864,55.2062245416581,173.6107798121424,1.0327662945956748,-2.648134141915353,-4.146239083673978,1.78063537588854,-1.137470185533811,2.375779394574315,,
5.8772089999999935,-123.03304683236998,60.01734044601296,170.6235720214389,2.706538019697424,-2.1718829202011047,-3.9298202090941095,1.7032400481568943,-1.200738386441508,2.326748190484344,,
5.886628999999999,-142.094451945047,64.01440227223738,166.63944734753687,4.263201247816687,-1.5840716228585228,-3.166951760326773,1.5981316976658932,-1.1268257636367116,2.5389721157973297,,
5.896156999999988,-161.57961652486838,66.78416099884278,162.66302569357916,5.791035843459024,-0.834732033071028,-2.177820516376398,1.4176359497052322,-0.9584811771729176,2.7521213967043088,,
5.905682999999982,-179.61253719918017,68.54978925440435,160.7617067751133,6.944286780371833,0.5357904316509797,-1.085357520167714,1.190921648232691,-0.7630517721452112,2.958344367268229,,
5.915177999999997,164.89499046278175,70.07303453498132,161.85411358086853,6.577292133692182,1.89767714499982,0.1358694997370945,0.9408239777449552,-0.638904898276686,3.118878957032569,,
5.924678999999998,152.0683890045498,71.87160117791584,164.9186141393817,5.644948075819842,2.971089324689129,0.5557661031203119,0.700384786096057,-0.5842396565014161,3.0394113510407745,,
5.934185999999983,141.53057731985467,73.29121557003478,169.19836521118972,4.268514652751194,3.614351270164331,0.5231623775722375,0.5529541536961956,-0.4188827724069162,2.867983950013243,,
5.943707999999987,132.69706419225676,73.738504291472,173.97508543582904,2.7311407753964687,3.267141338888285,0.3335685153703066,0.4843940001483158,-0.1623688754921297,2.6505861728597773,,
5.953219999999988,124.77158929196608,72.91310323809311,177.9525313161649,1.558960515773241,2.624810568065807,-0.195622265744486,0.4665384302848144,0.1329569645217634,2.3154754138676195,,
5.962734999999981,117.741878807646,70.52057843890063,-178.92252675699748,0.5050782687615402,1.8308005038199653,-0.8307153366967959,0.4460511983501506,0.4758004003536868,1.962000828866661,,
5.972237999999976,111.71659937300934,66.55127307041263,-176.13730594638102,-0.4339423618852355,1.237789603390827,-1.3230393040381865,0.4071613165357399,0.8137049385947346,1.6808200483975706,,
5.981756999999988,105.8703692391114,61.45846913594276,-173.85077955237333,-1.2595344428977786,1.25956895486095,-1.5579182074351323,0.4224968298442693,1.0609748188625705,1.5105572283687574,,
5.991254999999995,99.64297390041048,55.88016544056612,-171.88298490991647,-2.2489709461185003,1.7051315581901243,-1.5183743632291442,0.5095959987514753,1.186945405277678,1.544384227100522,,
6.000760999999983,91.87675736442202,50.57222935656428,-169.48186356892592,-3.586406306178821,2.6463673376824053,-0.8675929948750571,0.7518757966864121,1.1962679660136144,1.8093763127271896,,
6.010272999999984,80.569996977565,46.50895595086519,-166.6829268762573,-5.481960027839218,3.5188295450574127,0.5727339407575819,1.300375541350273,1.1040280491403516,2.2565461169335204,,
6.01978699999998,65.2748161608975,44.74501846657199,-163.86183949834106,-6.949024013399629,2.916962910852545,2.644252468685406,1.984056967256764,0.8849004229568932,2.7523763272744985,,
6.02946799999998,46.85017839487399,46.02951101709342,-162.0008497166631,-7.098459512910851,0.7153279495120048,4.582921649378409,2.5537164029905366,0.5170955348634132,2.9972626360644834,,
6.038995999999997,25.2196036186931,49.60146882777607,-163.53038809998725,-5.265139096894079,-2.200570223522671,5.419067642230739,2.9863273862485,0.1866874158445152,2.905622544728712,,
6.048502999999982,-0.0977238548979754,52.4298314279998,-170.33443992006863,-2.151428383534927,-3.8767357651372407,4.617184861954643,3.224132736651899,0.1777714427296266,2.5887274336630828,,
6.058016999999978,-25.841192478791367,52.00190287103882,-179.38212161677365,-0.5127131453593893,-4.514494364576927,3.224867147714748,3.126799037132112,0.3653994927100057,2.27520704657031,,
6.067347999999981,-48.06591075790747,49.71724819136879,174.28092811091517,-0.2042479244715598,-4.365358962699494,1.0522195581043554,2.8202605470914235,0.3254490890553037,2.190243592518416,,
6.076834999999988,-67.12666251223938,48.624789196263386,171.5319342761992,0.2801046786695544,-3.7756198949329103,-0.7884014595359403,2.5007724690474165,-0.0930414232650939,2.339979184752687,,
6.086353000000003,-84.50997393907225,49.47785491264957,170.47302710107664,0.0535656967692594,-2.605112111315042,-2.181046855265834,2.225976315571382,-0.5232306616873456,2.408847096530597,,
6.095945,-100.52622946611768,52.294148775066354,169.55434126839177,0.6003628382600703,-2.637871180432904,-3.3831604037744207,1.895827248135423,-0.9002055742878258,2.276437999670004,,
6.10545399999998,-117.73724759053268,56.036205279921774,167.03972099397072,1.7045263230553194,-2.376060615411338,-4.192000326179976,1.8249800761564845,-1.1337297842241163,2.252648779035008,,
6.114965999999981,-136.89906453566687,59.42191292149915,162.49521198501827,2.8190141673659475,-1.4858405362353275,-3.778172542991176,1.7983879889501453,-1.1818259974470051,2.300529878776322,,
6.124397999999985,-156.69710331352118,61.98308568402557,157.55754357700036,4.221484068329999,-0.9092595515817412,-3.189101125740563,1.6468769057624544,-1.1360215918408976,2.4453670183966305,,
6.133901999999978,-175.80901671902208,63.53040637193217,153.8928579244049,5.160726162694331,0.0818334060649177,-2.0952896744825704,1.4682553123913609,-0.9974433313648822,2.653357744399329,,
6.14343599999998,167.3099901018205,64.55413444148004,152.90146197244252,5.300605242084534,1.11179575063214,-0.7757405992778837,1.230526593695085,-0.8439989846094224,2.8395552993855646,,
6.15293699999998,153.33816724980437,65.88002707823256,154.61854897220786,5.010776947867071,2.007109549074868,0.3124396663717433,0.9351717332591588,-0.7559576015527504,2.8820969782823336,,
6.162430999999998,141.46561135058926,67.80725722085252,157.91027152822414,4.339974601684108,2.938764763390884,0.73023226447895,0.7015196219991261,-0.7294457354981363,2.843055211422229,,
6.171950999999979,131.1345921782438,69.69584632661976,162.12681697680748,3.1508644202338325,3.0882822858506755,0.692510696345852,0.5764089112841936,-0.611961536153383,2.770420287007898,,
6.18145899999999,122.18634399237796,70.87033967371681,166.45212403444305,2.0682237252374285,2.7329127113971827,0.3699887830577852,0.5191064040561717,-0.3905473454898115,2.5511146714213875,,
6.190968999999996,113.79791817787726,70.83435651698099,169.71382276518872,1.1922215665838087,2.351181231916145,-0.3036196793655504,0.5411165606774622,-0.1068979469118951,2.238732586648245,,
6.209994999999992,100.4868801041502,65.57254531056282,174.81954279564297,-0.4761260307777362,0.949768833424392,-1.4640721160388486,0.5211941030165946,0.6511957725596142,1.6200711040562037,,
6.219507999999991,95.42697465106896,60.85127850601365,177.02067251051463,-1.1461606017395385,0.8301740100512224,-1.5416167868980764,0.525511995958116,0.90950242479088,1.4051739230301104,,
6.229014999999976,90.31221196539592,55.748286149463645,179.07548572576476,-1.83615267900776,1.1349686119124036,-1.2835410669166702,0.5754390343300064,1.0016689828135146,1.3369780231633854,,
6.238519999999994,84.00261095173803,51.10362713870092,-178.57110821918943,-2.662070388561348,1.920021306339731,-0.4909570836682492,0.7512093062106165,0.931540302896229,1.5330063742085225,,
6.248034999999987,74.69632664334439,47.85678668213579,-175.75139420197166,-3.986638342352222,3.092822323997161,1.1259120470328905,1.1780215247505066,0.7084348808072469,1.980701171772284,,
6.25771499999999,60.85065578086826,46.84560436242676,-173.14590789010177,-5.593942376376853,3.1479744252680937,3.155751744528182,1.8515561414498816,0.3825457100301606,2.5596119315689205,,
6.267234000000002,42.84441826135605,48.3949513361298,-171.73964684545925,-6.716821394082778,1.3740861935175055,4.763055631846218,2.451168760511349,0.0145593600660859,2.94391814849161,,
6.27674399999998,21.210247441688782,51.72566453590968,-173.20650331075993,-6.280436537848295,-1.6922900901553866,5.263501567904784,2.842464828095238,-0.2889564243737452,3.030052159499417,,
6.286270999999999,-3.919269968141117,54.36017921553943,-178.66955689572944,-4.512275143353736,-4.116614619865509,4.466485978622121,3.047656453526799,-0.3029727890988961,2.93503762182458,,
6.2957569999999805,-29.23895061272388,54.436288860515695,174.65321861164952,-2.469394155606909,-5.02231941011632,2.4621344306443733,2.9407255152405285,-0.1182917822171525,2.7939964326347333,,
6.305084999999991,-51.461358210549534,53.18871473493574,170.2355316080803,-1.5207152357802032,-5.2092191310093074,0.2727465486969219,2.632411156615139,-0.1008406150544349,2.7114815075248258,,
6.314514000000003,-70.56831495096549,52.68651561408578,168.76633118152273,-0.4983244658726875,-3.880720124565132,-1.5078881482464537,2.284170105422944,-0.3220633515282557,2.760028169592115,,
6.32411399999998,-86.53496539428515,54.09154615716553,169.54590075714356,-0.095223263331933,-3.0684317549716167,-2.625488825090005,1.820907946042768,-0.6322643106930309,2.706766338251625,,
6.333692999999983,-101.62830680578833,57.42317087154034,169.90808981498446,0.7885192543570697,-2.9257125023338384,-3.471074478060745,1.5565957974175098,-0.9539939717703108,2.5369783139638886,,
6.343220000000002,-118.659907140203,61.47836716988592,167.43492308342414,2.1733988811866247,-2.3399145608613074,-3.371902689710784,1.539749274934323,-1.130471827636366,2.4436460412174754,,
6.352649999999983,-137.95029425893432,65.08921062428445,162.78716979102438,3.83699843317954,-2.040090336074698,-2.855986275684004,1.4915362292226009,-1.1359155264883174,2.5063788807513427,,
6.3621499999999855,-158.7960288988994,67.42937662740289,157.19961488628195,5.714521804986833,-1.4937804494020284,-2.297427967693941,1.4159777534636655,-1.0083186423020014,2.703533749261926,,
6.371670999999992,-179.02888358945697,68.33178322616983,153.20312729516428,6.773262718528623,-0.1090686330922884,-1.4119472313757058,1.305689288779038,-0.8018487244031569,2.974353823367056,,
6.38117299999999,163.37609493861444,68.798653879598,152.5722101102046,6.872065921227694,1.3899682568293217,-0.6143111739382746,1.101574549377221,-0.671007654426623,3.193893179676767,,
6.390692999999999,148.6988994781769,69.46190427440604,154.94336257085322,6.191068183228381,2.817970560698059,-0.0707561141692671,0.8810795755117011,-0.581941755843514,3.2187088580904635,,
6.400193999999999,136.25424454172528,70.28059120376521,158.87379677805478,4.837390521594805,3.929828184530928,0.2867194869027,0.7256756685914914,-0.4874412691347233,3.124552612005755,,
6.409720999999991,125.07702249713256,70.9246225066715,163.2104525564432,2.985263241399916,3.845113541250885,0.3928458656223713,0.6622301616818723,-0.3638601097600484,2.977471898048245,,
6.419223999999986,114.93002796788798,70.87797610032307,167.16752586787092,1.6019753768662717,3.2802182072425308,-0.038182869351606,0.6460032257887474,-0.1612182663467162,2.7108507429666084,,
6.428739999999976,105.92391715832328,69.56042707271514,170.74009108326493,0.4301733226368339,2.557282332965616,-0.723569356934188,0.6502594227671445,0.1418689436590699,2.411510660126208,,
6.438254999999998,98.1416095746763,66.71527603822297,173.97448947296374,-0.5793445791128277,1.9106465241202089,-1.281405805596327,0.6527178677939461,0.4860280078641189,2.147453743394148,,
6.447749999999985,90.8102656832133,62.645696153463085,176.94982186006214,-1.6315529984739998,1.9642493882852925,-1.5543059549689722,0.6928301889799648,0.7610216677326449,1.9777468974168384,,
6.457253999999978,83.1562568293191,58.02418875921545,-179.9491892591398,-2.649891940939729,2.089761559532765,-1.368334095330542,0.7854726564477672,0.9031459436570212,2.006271817942804,,
6.466768999999999,74.18469248399597,53.68661200760847,-176.4194382053504,-4.154551805468526,2.9182004849711536,-0.242159286640389,0.9815154140626348,0.8993357782733695,2.1932858402902697,,
6.476277999999979,61.81993796497997,50.62944490856744,-173.06568410868104,-6.116702955175911,3.189196955559164,1.9725494545641729,1.4584039939064992,0.74729545685713,2.6259105009877435,,
6.485970999999978,45.31732333468507,49.812772262665206,-170.45327881758303,-7.118426096145781,1.5235108696204351,3.957997155189699,2.071361100359884,0.4642388041393021,3.0611886824727623,,
6.495480999999984,25.40167446532896,51.459468525104086,-170.02986835668554,-6.582784299867059,-1.5497343830598935,5.016718633178072,2.548895368861983,0.1070064838139466,3.167947152919881,,
6.5144909999999925,-23.97965603367138,54.32026274615141,179.1387881805624,-2.422114506323163,-5.286013803568172,3.377995772519419,2.9993391828550737,0.0619322870485759,2.7624432686844105,,
6.523834999999991,-47.24858549860152,52.48182982727462,173.22107639440657,-1.1886182231624316,-5.499519957882882,1.265735723206074,2.7895658666841894,0.1766614752955753,2.562644222743552,,
6.533337999999986,-67.33838651395226,50.61080608714515,170.0024739865205,-0.3928714230590807,-4.587095711398513,-0.7466219005610938,2.526171129393791,0.0018876269045811,2.5087795009765115,,
6.542845,-84.36922852149577,50.43559533691883,169.16118202503964,-0.157913928241981,-2.948015925163978,-2.045382569616509,2.137440706886834,-0.3617304050770771,2.5070703680832502,,
6.552435000000003,-99.1160541110156,52.73919251803363,169.25667923835536,0.1239134985019831,-2.624906494482003,-3.229670771808734,1.7158988533199893,-0.7952602283048693,2.3455068117744107,,
6.561948000000001,-114.92862429896424,56.75817975078311,167.33695883050996,1.2902692696255682,-2.352399041308044,-3.9965697186323546,1.6268586351444472,-1.1524414614463367,2.188393283461773,,
6.571463999999992,-133.7431174774031,60.97624618094836,162.38446193402115,2.814703142196889,-1.8516728689863493,-3.728548600158644,1.659351916418309,-1.313429298753911,2.2152768388701847,,
6.580889999999982,-155.19711181363027,64.26465952516465,155.38569043557504,4.826033296544583,-1.6171921659456925,-3.2940356250787977,1.6037173626320054,-1.3143482273838032,2.4017904074351453,,
6.590400999999986,-177.5469458799517,65.65460102775691,148.61695827749753,6.786044203293738,-0.6065986759590678,-2.453992774377872,1.5375680462403856,-1.1282359982107546,2.701194822710939,,
6.599924999999985,162.75815471858925,65.66724130577444,145.76121099049,7.241341200950516,0.9960886133967448,-0.8246975620594305,1.3610969432699325,-0.8828511388788587,3.0480948756761306,,
6.609433999999993,147.20787992830677,66.02480567098871,147.43825066501657,6.871958142331371,2.4665788505390283,0.3666752552405791,1.0233420045938826,-0.7631379084875382,3.21964375120312,,
6.618933999999996,135.28836758124,67.14070418327051,152.5792155450684,5.447221325163491,3.5696828159185743,1.0610370020191442,0.7114200095040579,-0.6684410202331212,3.217370987870687,,
6.628448999999989,125.65490685219504,68.59610546208634,159.09394430606903,3.671459599516933,3.943886024607744,0.9929314303224678,0.5453112289762257,-0.5644321006791095,3.089252535051584,,
6.637968999999998,116.88068439543248,69.52293688982843,165.32935150378594,1.997207040394444,3.8183010163372417,0.2964654259638007,0.5425967707181474,-0.3693345574477112,2.88760341128283,,
6.647486999999984,108.12693795137734,69.05113014499453,170.61495638320832,0.4721289473517451,3.007138103697749,-0.7117464601386514,0.6272281761175805,-0.0370748633545399,2.6965953601429886,,
6.656982999999997,99.3663014559858,66.69212981219053,174.44223560918414,-0.7007413073588344,2.168417296494386,-1.6916122761898298,0.7184913730626707,0.3805054493680637,2.449463865174509,,
6.666486999999989,90.97793748808438,62.567205876416736,177.70077668771643,-2.079295204206294,2.3468040102780883,-1.977056893697409,0.7772073422376344,0.7727297935495632,2.2225144921344584,,
6.675995,81.90116859148492,57.45479034816704,-179.00492181545357,-3.6793007079628666,2.753881457806967,-1.6076443088494483,0.923557504243634,1.0104448527358847,2.2862832413388863,,
6.685510999999991,71.18158955911318,52.484479260609696,-175.11876506399332,-5.47754710665121,3.266529207440368,-0.0863733408993184,1.1840662663106851,1.05285576050186,2.591258000736319,,
6.695016999999979,57.17970905950857,49.02004417198717,-170.7991928033509,-7.584225441314935,2.866088918051096,2.68533573265355,1.6787064367238889,0.90396610316201,3.0345418859494115,,
6.704706999999985,39.35115463088302,48.42733791011701,-167.16895475012,-7.471567296683046,-0.2233755140079796,4.473901475256019,2.292745711229772,0.56641984554806,3.4072818525753896,,
6.714217999999988,18.691401479973017,51.0032888923408,-165.76707962133938,-5.929682951899637,-3.2274178778368925,5.2251230438488365,2.722269273590173,0.1299303153779765,3.435603247770579,,
6.723737999999997,-5.2544823800184925,54.40580053596811,-169.11885903074716,-3.4549171362765767,-5.428597932954964,5.091032608793549,2.978267661023214,-0.0237467207461552,3.1485061042614864,,
6.733234999999979,-31.3102987364096,55.618261016995454,-176.42422941117243,-0.9681383238820078,-6.208707585354526,3.121635376822102,2.9883587115333845,0.1389563176875092,2.8215106884217827,,
6.742560999999995,-56.16384355735327,54.70111538814784,176.28176386898068,0.0978416771545083,-5.838240973496572,0.550592504295815,2.8345081910799004,0.1764393715429773,2.632610272987729,,
6.7520820000000015,-78.58491381203764,53.35366337225312,171.03178742326048,0.6817266595516605,-4.466973889271411,-1.4802718524767156,2.64477349988224,-0.026687515967412,2.587237692436843,,
6.761655999999988,-97.49128896759623,52.985992875292574,168.60314605677647,0.4490750032742973,-2.65551830081037,-2.781030165100132,2.243841421436841,-0.3329206983311008,2.5838695485975305,,
6.771169999999984,-113.83462302728476,54.491157717929575,167.38142762999252,0.5032477621460406,-2.2832118826317265,-4.2042648660654525,1.829376286499354,-0.6968490219752443,2.4132587575658344,,
6.7806819999999846,-131.10583896629996,57.00885954254308,164.215226380672,1.5803971266570922,-1.571165321360387,-4.661135099438259,1.761737264714762,-0.9618035366712862,2.226215507517958,,
6.790206999999981,-149.8275980916219,59.7122155555553,159.57800713337642,2.775853994402881,-0.7440954133863918,-3.807993960041753,1.6988389711812415,-1.119397747763503,2.265262501678265,,
6.799630999999977,-168.9056434946237,62.38594315459149,154.95946304752687,4.691725910291431,-0.5243290710969074,-3.068602207103949,1.4970087012569828,-1.2018163231020451,2.419525249481399,,
6.809145000000001,172.3713786227354,64.2215990007125,151.32919691061977,6.0305707548746215,0.4424164344994952,-1.808029835492564,1.3346685505221842,-1.0849120969984791,2.634122040153556,,
6.818649999999991,155.55316584408052,65.50490060508378,150.0268861980264,6.248719400100422,1.513470988545944,0.1103673190665601,1.1199683985796385,-0.923682333598976,2.813049965771022,,
6.828165999999982,140.35186209738438,67.47807902256083,150.14386350496812,5.817076390005807,2.514647535661952,1.034367422005709,0.8547079051936586,-0.947363613731642,2.844525655855998,,
6.83767499999999,127.296286964318,69.44052668544236,151.8271315240259,4.550862886408457,3.217502998330884,1.1910455039905536,0.6495943664800383,-0.808536071470541,2.7671110601801256,,
6.847183000000001,117.13896896720728,70.58699294393583,155.4262287914836,3.1763679556036686,3.3592083372201262,1.0084304069611272,0.5216195264311686,-0.5149034767661216,2.630499451204697,,
6.856684000000001,108.87900943444347,70.62910315205389,159.70663758879687,1.902372240507405,2.878889035541223,0.3475434915544646,0.5051600642615164,-0.2177898126931458,2.4160082758667056,,
6.86621199999999,102.70294791589689,69.23740617999957,164.4951479983296,0.7578106610532529,2.022010078761084,-0.560652043593842,0.4902672440563999,0.1348074884241834,2.1197250056448724,,
6.885232000000002,95.65687721858096,62.18209895284991,174.71918681043772,-1.0188076793012004,1.2126759528327784,-1.5230606066582493,0.3883756476492223,0.7830003095524065,1.5740134190352033,,
6.894720999999976,91.91674724262786,57.44756480090913,178.81742632990532,-1.7242223383147628,1.0879953143724397,-1.5383290136678005,0.431464042053868,0.9252389508150708,1.5049132089889814,,
6.9042329999999765,86.69691136531509,52.77324453802033,-177.9559294559578,-2.6379069544684013,1.7041604710846965,-1.0744876980317997,0.5951034709495208,0.93831675736394,1.5930118092442354,,
6.9232649999999865,65.46848140134048,46.90183027786407,-172.45832754794188,-5.559329383022315,2.8831376246968663,2.005604909495049,1.6700474574542723,0.5923448866792222,2.469061080835929,,
6.932957999999985,48.40023212154561,47.23850852349989,-170.45792250177684,-6.597924996407126,1.6972907224179594,4.0322120304133655,2.313708785600522,0.2797509826399211,2.9015116681509787,,
6.942464999999999,27.71833866782872,49.69984891758333,-170.8297802173643,-6.510495637166218,-1.3003642685709529,5.331455704160078,2.788626656616692,-0.0346655289701444,3.026530927305008,,
6.951989999999995,3.0430771086444577,52.48735821439074,-175.15501686773226,-4.892892626013265,-4.050739867138812,5.152299570398537,3.141776302525108,-0.1666659672247743,2.98555209926154,,
6.961489,-23.10729511266284,53.241781780499416,177.80401066227802,-2.460829865538458,-5.328548854042923,3.503054994200088,3.154222292450415,-0.0753454470486541,2.7749032336166133,,
6.970823999999993,-46.91849568921786,51.89058975928744,171.84543308851156,-1.2336484886097547,-5.707899794930779,1.371160288853442,2.903546808937992,0.003997223569248,2.6002622490384164,,
6.980322000000001,-67.86775192424938,50.46057013763226,168.29225055336562,-0.3365577815297568,-5.0458328271843085,-0.8127454588141902,2.635886617278105,-0.1744803207024642,2.56014886499719,,
6.989837999999992,-86.3093550794622,50.35061813192463,166.77084241905425,0.0450310746471381,-3.120127508009008,-2.2021492991693385,2.301377937392831,-0.4865963138967196,2.5419177388316925,,
6.999417999999992,-102.36548826180608,52.0884457881392,165.80064043930028,0.2510805419274634,-2.535717859006256,-3.312052460009318,1.8734024491192955,-0.8134697109536283,2.316521959060858,,
7.008920999999987,-118.74832154770552,55.0450352570761,163.42124450556437,1.0721195140222235,-1.802527743868832,-3.905026055560288,1.7213690066050185,-1.0822726962599725,2.149539498612577,,
7.018438000000003,-136.26683397236056,58.28907536296243,159.41131753488628,1.9742699101976693,-1.1731068620768983,-3.59477459117339,1.620059197803284,-1.222351329225117,2.1081163723164,,
7.027951999999999,-154.53651167776948,61.36515643634928,154.78335227531764,3.851754339307349,-1.2538858050745207,-3.5239660356229363,1.4539684347207518,-1.2749374196225391,2.2169633936413256,,
7.037373000000002,-174.03373555800485,63.72357809291841,150.17146432794155,5.456796140891102,-0.5657496105081995,-2.760105399753883,1.377032758628785,-1.2438324051589669,2.534822022979196,,
7.046906999999976,166.6200080896562,65.38951912110544,146.78306269241875,6.417821123805643,0.4770768161624685,-1.4440228534193005,1.2427541717330537,-1.1504947649222046,2.828750041737499,,
7.056406999999979,148.86970638002848,66.9798576422816,145.3965997097221,6.695141583185992,1.753898274636532,0.0213598972281565,1.0134703228549402,-1.0620987341469064,2.972933129321566,,
7.065924999999993,132.7241209188701,68.86326526885648,145.43725479766556,5.90637395018042,3.022355533979065,1.1718201203167344,0.7872187913131734,-0.9983064856166808,3.002604471838465,,
7.075432999999975,118.3958741751159,70.62491262028253,146.6834085626065,4.348456918734073,3.4685092130693964,1.6019860204057443,0.6280097423061791,-0.8464270844653423,2.939633770437533,,
7.084948999999995,106.8328678468133,71.40403073254019,149.60374869377236,2.86612993929623,3.4802437891778912,1.3261645497941228,0.5581922950983604,-0.5304303734865884,2.772778195803646,,
7.094458000000003,98.20861443303512,70.56332479172916,154.41619065250745,1.542280812445149,3.13481501625777,0.5815427420844687,0.5768768065283572,-0.1158898312076175,2.595288842629536,,
7.103965999999986,92.94422966821082,68.14142045553686,161.32858263071273,0.2896413895585938,2.2239788919970853,-0.6308849857537624,0.5283798948049425,0.3095955538929816,2.36977054188801,,
7.113470999999976,90.0390494789671,64.23215375438906,169.00435678172255,-0.8535917193457505,1.6744187678396103,-1.436156805254382,0.4286877869731222,0.6976922293271286,2.068395726970386,,
7.122981999999979,87.04500310083155,59.30952566570095,175.27862300950326,-1.9525680554788296,1.581226261970044,-1.8387040835576929,0.4203979736844053,0.9371572709712804,1.8759799968044173,,
7.132496000000003,82.98772254816195,54.07884355892569,-179.24094088894685,-2.959016939370504,1.606592568418981,-1.7372134331471472,0.4868415762524897,1.030364561433803,1.862567084252828,,
7.141998999999998,76.71668000570253,49.420054684296296,-173.96232784626872,-4.38612641826602,2.3536957977270165,-0.467653712728459,0.7219223877332155,0.9775719691078268,2.0423592281885523,,
7.151507999999978,65.28195273699885,46.2595921347784,-170.19906717437266,-6.30196923592575,2.640371801803587,1.4800394348740702,1.4369976257840025,0.8374179362567495,2.4496629233471667,,
7.161202000000003,48.83547069910089,45.58134456977109,-167.7766831217598,-7.126452547726438,1.2683290414922628,3.45146473763452,2.2249687990812577,0.5704836725228315,2.849157909656986,,
7.17071199999998,28.986281405632106,47.735595840377854,-167.46266255189693,-6.716980044183991,-1.4656933941925847,4.990918703602653,2.7568410937221097,0.1677696522249697,2.953475100603137,,
7.180220999999989,5.249567104401389,50.974797183308,-171.3480657638072,-4.369792646183757,-4.0319199057422095,5.166323971318755,3.156461245277417,-0.0591899481217802,2.8345365840972505,,
7.189741999999995,-20.596349524083912,51.92262536275885,-178.8980371181374,-1.6455424328751445,-5.105163230870483,4.078822883252429,3.2196349494175966,0.0877973284382757,2.5469499712241173,,
7.199060000000003,-44.24699806024413,50.07755384629354,174.42892038449548,-0.5611675849566272,-5.565702368909653,2.120584530363092,2.9848437250860504,0.2469610814110439,2.352908855331992,,
7.208576999999991,-65.25014448437454,48.07739872982521,170.32987928102844,-0.1246276123486383,-4.892473033123272,-0.2954186545709653,2.779135279917174,0.0270984243311654,2.361493662675838,,
7.218068999999986,-83.83172175071947,47.78876151905473,168.53362284874714,0.0212639081027208,-3.3944419413843168,-1.9197732472732505,2.4595001662862206,-0.4006942948774897,2.4038894714548653,,
7.227678999999995,-100.1621424745637,49.84533614748302,167.83769457596262,0.0636726136726656,-2.612721125666589,-3.3607546607080105,2.0231989660234966,-0.8411587473587792,2.322166620019872,,
7.237184999999982,-116.68253312098776,53.53001518809012,165.57307815333647,0.730893106202428,-2.0624140723704767,-4.444328907875733,1.8266140613482136,-1.1829880798814514,2.128889380870465,,
7.246678000000003,-135.0389377032869,57.35581348608559,160.77159369841362,2.3098605630037463,-1.50815905685517,-4.473896615417188,1.773660765070548,-1.3271551628365932,2.0469370048152307,,
7.256204999999994,-155.10443793877462,60.54066459100096,155.05091976162657,4.0520992113395895,-1.042835484218896,-3.947914806534078,1.679496736803981,-1.3602286075512162,2.2822124480080483,,
7.265627999999992,-175.75071550410232,62.62457515854144,150.00161297166707,5.968641786951947,-0.402311919567931,-3.063222098117353,1.5514954476362184,-1.2702253477558416,2.613697287644174,,
7.2751480000000015,164.92602153521585,63.87126456860425,147.2334000871549,6.698517984329731,0.8676105037262324,-1.3017843889804686,1.35429290979844,-1.1182371200526695,2.9292330415639367,,
7.284649000000002,148.23549734117194,65.28880187276289,147.25585316607865,6.699072738277793,2.08584433594654,0.3106442730894404,1.0513367662414228,-1.01537675877428,3.069057206144874,,
7.294170999999977,133.74028717022094,67.35029293726944,149.20778660950154,5.723455567605773,3.2761596998209,1.34503327801352,0.775053904361098,-0.9637597005072208,3.0471885521462934,,
7.303679999999986,120.96613496832572,69.38498316712744,152.23867483523802,3.962151593890581,3.5425311041863523,1.4453245535653914,0.624516928467748,-0.8163806954180322,2.982813549914185,,
7.313197000000002,110.57906571730068,70.34584899890922,156.30622409206154,2.579496312292747,3.506638370038783,0.8724085100962636,0.56242930785641,-0.4846473333396737,2.7656901406875978,,
7.322693999999984,102.6269727568564,69.70764490851553,161.64560869803955,1.1979700456714728,3.057480560096576,0.030861150677399,0.5546240815925698,-0.0762233117044225,2.5645576091006834,,
7.332215999999988,97.09153075391748,67.43075156000776,168.03524963983725,0.0325057062658941,1.90697215252994,-1.0607418185031567,0.5113129925383814,0.334522793566157,2.3104886819250905,,
7.341712999999999,93.4133914724762,63.67709733158624,174.47484672689183,-0.9597752185947612,1.5560314587725756,-1.6760164758745704,0.4164943104799175,0.697497573777478,1.959391903313921,,
7.351226999999994,89.96254283096185,58.98569093097593,179.89406160299453,-1.8736639188272384,1.2375329141302385,-1.868403462141381,0.3814540567692661,0.9215370905475369,1.7767574456766952,,
7.360728999999992,85.39180687635489,53.9980067947749,-175.70670259211903,-2.667615615717063,1.1158579073091703,-1.7230788565962971,0.4724150529510753,1.0155910119074,1.7172121337372737,,
7.370247999999975,78.40852360656271,49.4885277809625,-172.20125130109372,-4.055963218448437,2.056198712444398,-0.7172842059375244,0.7668018234352693,0.9889129801654843,1.7996486594846657,,
7.3797469999999805,67.2964262491659,46.39172186172388,-169.44739122048432,-5.641831664541628,2.504023588089387,1.2043461427411497,1.3740933080627205,0.8486422933601966,2.202730474198487,,
7.389453000000003,51.4890682552831,45.485999024298586,-167.645244259483,-6.5626300036778815,1.6331085193287298,3.369316140597192,2.122901853907288,0.6141029639356455,2.634292378822794,,
7.398945999999995,31.87472411809241,46.85518969555097,-167.7595417332735,-6.645715445365612,-0.9686541933091342,5.174062703853756,2.7154944768532343,0.3140442574081195,2.810808870927413,,
7.408467000000002,8.233893567035768,49.21267431321448,-171.19948487325493,-5.044407610426196,-3.7513307401417055,5.479222979335856,3.1933294556081884,0.1202286061487568,2.8363628976744404,,
7.417986999999982,-17.249951143989392,49.99779362001252,-177.5626864500588,-2.868165983634116,-5.240347846623922,4.411456766368531,3.2978006190362272,0.1692963156724008,2.6221798768106064,,
7.427318999999983,-40.75829124412541,48.5546668671042,176.42896695836595,-1.156671624558987,-6.0378820354203855,2.413284713891354,3.0670481633052136,0.2538138057470691,2.3725980905461848,,
7.436802999999998,-61.67052235371083,46.49558198577859,172.7203217852308,-0.2951789488501303,-5.545775742608672,-0.0439710826062729,2.8500394708449446,0.1383287431364007,2.350262986217479,,
7.446322999999978,-80.28562617003614,45.625226718672565,170.899973235118,-0.1047265633557771,-3.242680087444916,-1.56021051720661,2.583111883293765,-0.1973723183621808,2.32111562658039,,
7.465423999999984,-110.6505141072582,49.51135397119038,168.3840593068791,0.1648864880516283,-1.5709921326201588,-3.556382966226258,1.8391060159901849,-0.9114130755367212,1.8836176159624205,,
7.474942999999996,-125.73524367768664,52.80975269107976,164.90221666119405,0.46366262442265,-0.5448456715825425,-3.276389283451663,1.6894445203667177,-1.075851068520011,1.6575927301158655,,
7.484446999999989,-140.44434767184163,55.89061474404879,160.50172526563017,1.5386150185166956,-0.4794320888063108,-3.0554376366541014,1.4543186631777814,-1.0952425147814495,1.5142084544716528,,
7.493971999999985,-155.19470755240573,58.41061851108156,156.4171492809325,2.4106138425857155,-0.302294492404797,-2.4268523153147425,1.303783180913913,-1.0539573644718134,1.6646635085851722,,
7.5033909999999935,-169.22604873508317,60.36945467697091,153.59037578922874,3.4515478009116056,-0.3525846187565767,-1.707732990073904,1.1300715115859812,-0.9574702019830504,1.852285803753255,,
7.512897999999978,177.76884676542815,62.39472387889514,152.50848895468707,4.766838741286389,-0.1078553933483429,-1.332793227022116,0.927888320545593,-0.9249628817635054,2.068797983732575,,
7.522417999999988,165.0657655571773,64.74964428105348,152.606505803819,5.394549824829798,0.5073727290504196,-0.930153467242128,0.787734901713926,-0.9386802817410403,2.2964823827055527,,
7.531929999999988,152.32838645400776,67.24192465223776,152.8167017763795,5.721704098758193,1.4316717508121288,-0.6626646112024762,0.693713351601961,-0.9177043403930992,2.3709038339239403,,
7.541437999999999,138.83360095815704,69.57015451251924,152.16547876519058,5.469474367451422,2.481187899549244,-0.3249876033158336,0.6669213748566574,-0.8710470021033597,2.3810293008054457,,
7.55095399999999,124.88925504455224,71.21088323652249,150.619580481695,4.475521116041076,2.916743281501333,0.1343555931546643,0.6651573862564893,-0.7354968155041649,2.3197317752292834,,
7.560450000000003,112.35518836050832,71.76403301449508,149.3596736396902,3.493192754462536,3.034818869741907,0.5905781685926392,0.6341987528363304,-0.4938510360264996,2.1269023730008656,,
7.5699599999999805,102.92853814492771,71.1386097974712,150.10023245433476,2.387475940265128,2.420056162655907,0.75062300389815,0.5816856309580879,-0.1945740489484801,1.937299095014647,,
7.579652999999979,98.19149888917724,69.28560186347856,154.04783712836817,1.4928842352731462,1.6450839257292191,0.4965773385052815,0.4581815572498895,0.1776194107695429,1.682579829838272,,
7.58916499999998,97.48944390194458,66.24644239562225,160.3405344147989,0.6941434129944845,1.2201816201550977,-0.0038152319946459,0.2869982508334008,0.5403441383454937,1.4399741282573704,,
7.598509999999976,98.44643072687435,62.19603297376522,167.27526468928593,-0.1867043612582509,0.8573652184605874,-0.7168434315810488,0.1484244055096214,0.8025113300557922,1.2606929860262823,,
7.607999999999976,98.93629385855438,57.452162943206,173.3873192540209,-1.1783966727387003,0.9298933225692224,-1.3616910427933715,0.1129681456174277,0.9452271460133836,1.1759925557419333,,
7.617511999999976,97.79156254429762,52.48336092633614,178.88228592416587,-2.3005730207027955,0.9007406546271692,-1.6693630294749064,0.2001900021909997,0.9842639760454904,1.320237409507524,,
7.627029999999991,93.60308390707335,47.957189552741454,-176.00167210508744,-3.583896089623159,1.5364846524464932,-1.2237918887724624,0.5143517290671478,0.9199448397017496,1.668336981243317,,
7.636536999999976,83.62463879493541,44.79659019943716,-172.24812476115667,-5.237739870334764,2.394834192122434,-0.0658636301684126,1.307931075060159,0.7697942785109406,2.1969155636442066,,
7.646044999999987,67.14001137950889,43.83455977622675,-169.9222747648841,-7.386856509158694,2.9046183091513704,2.2489317272682885,2.3053332080195963,0.5553878825075379,2.769901461869698,,
7.65573999999998,46.12217167271974,45.56539782878679,-169.28023191276878,-8.114028205747895,0.3173489314727571,4.683333500057796,3.0051788687134984,0.2029083044013599,3.0881438706844384,,
7.665251999999981,22.314533911618017,49.19920044506762,-171.9976189083258,-6.425819651600221,-2.8035838288779544,5.577613709301315,3.298682134759816,-0.1823883844259745,2.968756912736258,,
7.68426599999998,-32.7611634518026,50.02406674363864,173.07794528848964,-1.8442684450681528,-6.636790110848732,4.224109998517138,3.500286661217832,0.1125103320667014,2.7731303808816987,,
7.693610999999976,-54.9261668992749,48.38492085891532,170.91096203955036,-1.2218805264674852,-6.915645184213022,0.8041392714950463,2.9144372130757725,-0.082834721210517,2.9289059338861394,,
7.703104999999994,-76.4831821051825,49.85843650787645,169.4074693951489,-0.0119648397685439,-5.599725569931035,-2.0322993738362656,2.731974889103748,-0.7698256457286753,2.964562765017304,,
7.7126949999999965,-97.80466730543058,53.16040169891136,166.1219220471308,0.3458571532035296,-3.316484433423593,-3.4467732599199987,2.455157243659006,-1.200744209014173,2.6876327338084995,,
7.722203999999976,-118.49396078403544,57.11152083512794,160.93094618603268,1.3899701200659735,-2.860044685366185,-4.98563700308188,2.044708626156611,-1.419815055693061,2.364697619501406,,
7.731713999999982,-141.88026910887805,59.94009685294024,152.59467357785638,3.0204261372057264,-1.872661147428852,-5.561668405038995,2.0183156983823203,-1.4731013885125426,2.3313781667402123,,
7.741205999999977,-166.30701700814615,61.16420832862482,144.33159713364296,4.936751892518408,-1.040164344448654,-5.086733366870371,1.916096635142696,-1.4559096002466836,2.588675255698869,,
7.75065699999999,170.746283467137,61.92892316751536,139.14877350264194,7.3712808943818,0.0693818300314748,-3.986575873447805,1.620453085339706,-1.4700653134508752,3.003649083094189,,
