timestamp,roll,pitch,yaw,acc_x,acc_y,acc_z,gyro_x,gyro_y,gyro_z,acc magnitude,gyro magnitude
0.0,-17.974776545559916,1.496422919145077,-140.60132631764614,-2.021297773122296,-1.80185959586683,-0.5252367579722479,-0.47192246030749,0.8494127851397721,-0.5610668473307262,,
0.0190059999999903,-20.609513297370324,-6.9367496850465225,-143.54462399383718,-3.334174684090704,-2.9036341092543467,0.5201400221946729,-0.2320107460625136,0.8024764885075419,-0.1165398478922264,,
0.0285189999999886,-22.2159552265197,-9.52887329135154,-142.86429623940435,-3.267177448501769,-3.425384372021282,1.12458752057833,-0.0669684415959749,0.6120763809203815,0.1464916715789916,,
0.0382139999999822,-24.12847941221161,-10.590121255302996,-141.1247753847903,-2.3562887462827486,-3.789537031147638,1.6744653883332157,0.1539707728245456,0.4048011635920746,0.3021826178259523,,
0.0475419999999928,-26.48531090557742,-10.443006511255565,-139.1104042996759,-2.2140019981631136,-3.053831583700501,0.6422622655033078,0.3623204385095341,0.2796539801112947,0.3322840437926921,,
0.0570500000000038,-28.039599917720977,-9.427519695225175,-137.33716101375578,-1.727476451321065,-2.295708183634671,-0.1283185756100691,0.35121556248804,0.0569381298203177,0.318857625086463,,
0.0665569999999888,-28.63776618998005,-7.95496430532408,-135.85480846699252,-0.8919790970881927,-1.8154806491606807,-0.4345162024052189,0.2756062692424904,-0.1286266419193191,0.2803168330645934,,
0.0760699999999872,-28.95623324959892,-6.279192741260016,-134.64996883586056,-0.4776518639902923,-1.096016804618418,-0.658461766180375,0.2680298184398169,-0.1898295440229022,0.2348357615520074,,
0.0857629999999858,-28.648147882583963,-4.270869444761971,-133.5448764583939,-0.0567307023050404,-0.492122377123172,-0.6415413783034365,0.2330252159617095,-0.3201349460057458,0.2124713067290295,,
0.0952719999999942,-27.737167530360963,-1.8345310872855,-132.45542329265982,0.2690523817998239,-0.0563305267110907,-0.5450138279771071,0.219804131798747,-0.4622400687301783,0.1981187832738699,,
0.1047719999999969,-26.39495526202777,0.8620764602355782,-131.3201523737348,0.3702022505095078,0.4050036914496622,-0.4505233408190509,0.2099552336959711,-0.5571238253924317,0.1931028578723118,,
0.1238119999999867,-22.67683375842834,6.261914754737502,-128.95788081093485,0.784570101075876,0.78880986780868,0.0144152320219253,0.1802072807420772,-0.6016243315481321,0.1356865902771722,,
0.1331349999999815,-21.18578799629761,8.687350749152628,-128.04162724222405,0.7381364380709718,1.503702479384485,-0.1707447092606086,0.1835011466309214,-0.5310817287526612,0.0920276610905615,,
0.1426339999999868,-19.494481144919344,10.630743924011036,-127.14671820906317,1.1672069465326895,1.9318162292044296,-0.0113966363634085,0.0923286355806393,-0.4993431311476974,0.0706974300379167,,
0.1616640000000018,-17.736442723436195,13.024533523451788,-125.08694545173834,1.554932744459702,3.1809449782776964,0.3261426109182916,0.0755901169624306,-0.2031415101339709,0.1583270623300494,,
0.1711739999999793,-17.043053682717346,13.548389772747113,-123.73916711751674,1.9140470290948648,3.275354086393349,1.0125126646422766,-0.0029624839712685,-0.1690414440501625,0.2131168512172555,,
0.1997059999999919,-17.388321711457348,12.418649763897871,-121.27803905098894,2.080051743693568,2.479980709481033,0.1835742431496714,-0.1247652113182053,0.1916587415669835,0.0453056169646746,,
0.2092059999999946,-18.48205158732721,10.813887457162831,-122.58223750605111,1.6925495393659653,1.7924753812762588,-0.6921479088116034,-0.1724505932663406,0.3533716737658482,-0.2034863243479469,,
0.2187289999999961,-19.861062908124826,7.968365424775695,-125.27614942594398,0.9820147002283668,0.6751154569865822,-1.3465282716067966,-0.3335779011264356,0.5462088697979175,-0.4715015143218887,,
0.2377390000000048,-22.98625105633472,-0.8519604371716728,-133.4395578044356,-1.3374034939783186,-1.989520114543208,-1.1833122535874556,-0.4958138741484776,0.8676798307631113,-0.8358337457031609,,
0.2472729999999785,-24.254941702807667,-5.407437916541587,-137.7957891202152,-2.5989507111302155,-2.951612767895628,-0.5990592122857868,-0.4682782845397249,0.8348332694048666,-0.8459532897005904,,
0.2757890000000031,-28.295937250947564,-13.960065890707307,-144.2492769767373,-4.126913786695683,-4.368823199177721,1.5171194903329086,0.0566564972391846,0.4708506870601489,-0.1613918631001017,,
0.2852959999999882,-30.264468208328523,-14.550827628336076,-143.1964680680428,-3.916115672164132,-3.6181464691455,1.2549982586530437,0.2262395319538507,0.3271393158152845,0.1415061753773716,,
0.2948179999999922,-31.31100694345928,-13.756690678011507,-141.1049752929284,-2.359338840936111,-3.031837385021124,0.6499513889194516,0.2457269564906041,0.00442909718846,0.3936226946183861,,
0.3043119999999817,-32.32724291935268,-12.204517340542331,-138.2812982043131,-1.2196151095913716,-2.0588985509112927,-0.1886600668722409,0.3396306443610229,-0.104108479720752,0.5416818010812278,,
0.3233429999999941,-32.826653983658574,-7.370106301650506,-132.6900236191715,0.5303857869266673,-0.3818373491335136,-0.6806265041002698,0.3378314303364564,-0.4145488756372768,0.5264796714122372,,
0.3520560000000046,-28.1889567579476,0.9818405360164064,-129.10434094455394,0.9620079954835448,0.3373579848599733,-0.0908879129025275,0.0908713164797453,-0.698667045074124,0.0359175297867477,,
0.3615609999999947,-26.232996558146223,3.5513356183049845,-129.34316719439602,0.5347746065392271,0.5169881810536839,0.0034813787892762,0.1392421960450623,-0.6254414469678106,-0.1264432976839646,,
0.3708890000000053,-24.306366896469694,5.940143743789125,-129.7381172115934,0.0704335620236239,1.056964952302743,-0.4193597802493986,0.1121381193930659,-0.5978833672228664,-0.1710798702913804,,
0.3899299999999925,-20.28283165292321,10.147599711236005,-128.9339002833576,0.9466255687308331,1.9187976006473484,-0.1335287978222198,0.1012343427547086,-0.4972537650864743,0.0512503802986014,,
0.3994129999999813,-19.30417634998276,11.724055592111188,-127.27133572926768,1.163732304771597,3.00576224396832,-0.0435388516372469,0.1166906571434955,-0.3436434616493182,0.2690774216332213,,
0.4089500000000043,-18.069514905519345,12.72553408586991,-124.74859823789592,1.7724289317869537,3.134086144459623,1.0388630336245614,0.0068974448394888,-0.3114619448536957,0.4438657972582989,,
0.4184439999999938,-17.285758631487443,13.533967047094016,-121.8820432016501,2.173279986661104,3.4995292592474674,1.266506482684075,0.0380523803952676,-0.2153520495354361,0.527040191383911,,
0.4279669999999953,-16.98073001262235,13.932551237664455,-119.41957909392592,2.315796298461926,3.673196162138921,1.0593223279043853,0.0250441782132882,-0.0910175098893592,0.475277056853053,,
0.4469770000000039,-18.080457468210355,12.411906399873944,-118.65414798318147,1.9359122420517376,2.282075976818304,-0.1431031769469724,-0.1193816221136629,0.275866926173856,-0.0693642814849166,,
0.4564919999999972,-19.638115300848373,10.293202809428651,-121.24743660072944,1.4370553815881086,1.2460716724210867,-0.8849306349075717,-0.2281697235161992,0.4777877786968535,-0.4477489908104407,,
0.4660789999999792,-21.586769776691995,6.8035584024615945,-125.34074657135577,0.5848675350736023,-0.1273705641736889,-1.3788576423438723,-0.385348164233766,0.7081507548713438,-0.7489747600068304,,
0.4755150000000014,-23.78803407284548,2.244294435568264,-130.33045110521485,-0.5133663103447192,-1.4783512705994453,-1.3559878938256154,-0.4635707498759216,0.9107072089091942,-0.931348295709482,,
0.4850119999999833,-25.84066835927951,-2.614305322208867,-135.70009982804007,-2.034882072891528,-2.466683440052688,-1.1744986931889294,-0.4409803894647488,0.9699009402681626,-1.0029240468762914,,
0.4945349999999848,-27.118898121349,-7.041625823559528,-140.68633258226953,-2.9629396220905213,-3.8914178718712353,0.1377585823849597,-0.410912981106062,0.8375304028231048,-0.9460420237088246,,
0.5135520000000042,-30.130082481363125,-11.988321380804512,-147.6114749956243,-4.6559204550714375,-4.572581380145913,1.3445489211524777,0.0543144322302162,0.4775207800382145,-0.5716685517472101,,
0.5230619999999817,-32.276061935914264,-13.114921294778645,-148.19863073648608,-4.2126247390396525,-3.895600487702289,1.297589951522092,0.2245083146692977,0.4206604488655333,-0.1801188706634794,,
0.5325660000000028,-33.8319358292782,-12.907003786193794,-147.4138051161247,-3.4275455100410506,-2.867356172562613,0.5172493964582343,0.2676890993272093,0.1330343886612444,0.1165085949364622,,
0.5515910000000019,-35.22908658799498,-9.35773703556724,-142.93176751501437,-0.7840382199321403,-1.4456273724154445,-0.5010449609202468,0.3546963436561037,-0.2554967278103153,0.5182312580559271,,
0.5611119999999801,-35.43417262380938,-6.430146945532406,-140.13865160763058,0.1558953231558949,-0.6665018421943321,-0.7459543735247222,0.3841299513702775,-0.4284866988136927,0.5518313245679356,,
0.5801089999999931,-34.00007304439144,0.6056988048126644,-135.34639780459372,1.1977997798259594,0.62653667770287,-0.7808434877635781,0.3383359838964824,-0.6418080224506055,0.4041744584757739,,
0.5896329999999921,-32.20711394745429,3.887058295671871,-133.91476555067496,1.1680952550171624,0.8428151550417647,-0.6592109615079055,0.2032231921391164,-0.7129856104682506,0.2410958075845641,,
0.5991559999999936,-29.699971283507573,6.839667739042903,-133.40749010748476,1.3956826853727236,0.8784244469933381,-0.3413623062913845,0.0707357376516741,-0.7660229756636323,0.0089576741297992,,
0.6086589999999887,-27.488173796864974,8.982843350065487,-133.62747691538237,1.2463506748495885,1.1877024687733873,-0.1894382379932193,-0.0028536580851803,-0.6099094850885144,-0.1556613094711129,,
0.6181709999999896,-25.373569795712,10.133205628730472,-134.1352078476156,0.8426392374772077,1.736626990251339,-0.3575122261782818,-0.1357470996343549,-0.457010822596316,-0.2159042569945513,,
0.6276790000000005,-22.6099042333273,10.679676457254166,-134.5077206677062,1.4440203234139417,1.7691197026921155,0.261419939548947,-0.3142967099449286,-0.4623436642626143,-0.2142414045573569,,
0.6466859999999883,-18.40008003312419,9.39720965020804,-133.10529895851374,1.5352139592418728,3.1045749008104364,0.4918813706566778,-0.4432386827644811,-0.1393931668171991,0.1480773816152003,,
0.6563919999999825,-15.86911872469772,8.604142002174212,-131.17873033936203,2.194168673287854,2.9179560336959818,1.2706681353217149,-0.4665311577332172,-0.2615678843898842,0.2944326244934365,,
0.6657209999999907,-14.293043078139194,8.21311367589596,-128.95987677552887,2.394241278486662,3.230820032044776,0.924860923427672,-0.2738914624133775,-0.1859628209246094,0.3819776411399025,,
0.6847369999999842,-12.572336931205204,7.216366208886116,-126.04352166066856,1.57373843971622,1.79913220109893,0.2533668590139463,-0.1656374893150649,-0.0753881704285003,0.1470275040328093,,
0.6942549999999983,-12.737459537060424,6.392414401709054,-126.53745491996676,0.8806000446951839,1.1750446540541677,-0.7688366526369981,-0.1267535071171402,0.1261467613014956,-0.0982846279788063,,
0.7038519999999835,-13.329570191190252,4.035843965295164,-128.22160026217338,-0.1265593874844225,0.0088959231665309,-1.192270269986093,-0.3162549230385885,0.3828181849196555,-0.3138009187309367,,
0.7227929999999958,-14.648042201810211,-2.2191579632087017,-133.61372830159084,-1.5706253477872587,-1.2991850151396682,-1.125810829981638,-0.3953166257201142,0.5270003761955444,-0.5315872413036041,,
0.7322989999999834,-14.946047701575694,-5.831551791094202,-135.90598512636709,-2.220941720417086,-1.96817780296832,-0.4168573791533988,-0.4838406562033722,0.5562881226588435,-0.4240241534313002,,
0.7513239999999826,-15.520622171153205,-10.516167030172683,-137.61938836843504,-3.476533717304536,-3.2544183255288446,0.7922146383274122,-0.1793138694296438,0.2877926347475721,-0.0532303736510983,,
0.7608299999999986,-16.40934246798025,-11.037452086408384,-137.04586279170618,-3.807793310630916,-3.9460298835364434,1.3084916034700658,0.0447996638692212,0.1993169025777444,0.0961072941277745,,
0.7703379999999811,-17.721543186141865,-10.450482915824768,-136.33209497505572,-3.562132322367037,-4.298478282005209,1.975334819991484,0.2553031167198425,0.0955062259183673,0.1012774129493913,,
0.7893599999999878,-19.8350303150407,-8.970174671184154,-136.3322773573046,-2.528511310106291,-2.8811679374297725,0.4792189479478769,0.1652197967957629,0.053335270440427,-0.0640070352548981,,
0.7988739999999837,-20.7830970579274,-8.815346704527002,-136.69148825962415,-1.773906643351144,-2.00685468612202,0.1451771241319273,0.1442976210457226,0.1108261216867907,-0.1011608596623643,,
0.8083729999999889,-21.87986359050888,-8.231946281734798,-136.86654861633335,-0.9946732415229536,-0.9556204076796556,-0.3632754304077123,0.225171759962408,0.0679267387774592,-0.0673329511306525,,
0.8180919999999787,-23.007649444941748,-7.057140397316148,-136.40851721063416,-0.1375436133631048,-0.2076217086402922,-0.4487989780430884,0.3111112646800373,-0.013095494140434,0.062025517757703,,
0.8275950000000023,-24.26465110112775,-5.105065259750742,-135.12991217956863,0.4829377851110304,0.1046550147692147,-0.2855647235876471,0.4387749111919958,-0.1014993706336252,0.2297044324070982,,
0.8371080000000006,-25.5726823723236,-2.132645133469157,-133.2651769721947,0.8040187267341125,0.2455981654990205,-0.3160776488517938,0.5956066964563187,-0.223936631055116,0.3570587784057688,,
0.8464309999999955,-26.53019456409332,1.7263361833678588,-131.1909604497296,0.8599704350432967,0.4292472621188864,-0.5893509115737682,0.6875851221274248,-0.3742652534393816,0.4145480902456089,,
0.8654530000000022,-27.071836129932368,8.917571893488276,-126.90768937626476,1.5430628898648664,0.8393529896845652,-0.5548965286642745,0.5214339100074359,-0.3492533379236649,0.416716177611897,,
0.8749489999999867,-27.71245607825601,11.019175647616482,-125.05259828301824,2.065293238771459,1.3573067367491438,0.0320808706358341,0.4011355959123959,-0.1432301718198977,0.3844320555848348,,
0.893966000000006,-28.65100938636395,10.54255793990066,-121.64815430167232,3.7515149242940726,5.118729395432847,-0.1962590641992238,-0.2045689204666036,0.1983884379804167,0.3981930948511276,,
0.9034879999999816,-28.005851696849813,9.665499901405704,-120.42586718172626,4.628106883623907,5.301878201754054,0.8660940961178847,-0.2298006740381885,-0.0178531781493554,0.2325053402659576,,
0.9225040000000037,-24.717978987355227,8.483674042957524,-121.51935673895412,2.464276545442882,2.008425008867246,0.6420516476420255,-0.2787352649688375,-0.3568015318378488,-0.3271610642220929,,
0.9320209999999918,-22.94069887816869,7.743135720730508,-123.41646360872656,1.834177512560632,2.164056379727124,-0.9846590118354666,-0.3273420065326762,-0.2171151442307739,-0.486943244326804,,
0.9416229999999928,-21.43011185510218,4.67703199026621,-125.78929143949549,0.4363568500136297,0.6251289390124752,-1.4598438617222504,-0.6898301686008421,0.1019766817353893,-0.5407600634929383,,
0.951031999999998,-19.3676758934687,1.3413197534698602,-129.2725517244035,-1.0727126949897496,-1.057733756643049,-1.4987629655923655,-0.7945200158407452,0.0814408641967271,-0.7466534165493377,,
0.9700619999999844,-14.92859718370297,-3.1602234987721904,-138.48301209325862,-4.2429530119739205,-3.564818319360561,0.0408728364427652,-0.6069773901635194,0.0397237954045178,-0.9442072985407044,,
0.9795729999999878,-13.39006246237846,-3.987327995688807,-142.31976003828183,-6.523829009119583,-4.366397319073044,0.9358054231410832,-0.3550303631157001,-0.0632942551654126,-0.7636638141171098,,
0.9890929999999968,-13.303773847344466,-4.946928070178937,-143.4890420509888,-5.807323391704054,-5.175839713930304,2.2026386657367474,-0.1420983579458926,0.1483801042541627,-0.2346620590935732,,
0.998592000000002,-15.756921303762908,-7.22882919159881,-142.26969458339107,-5.278456094618971,-4.25912535995842,1.496701152378637,0.1023623770386173,0.6641320044591309,0.2340019708807233,,
1.008119999999991,-17.713006754241185,-8.987445737121845,-140.20269660115065,-2.6276157929820907,-2.897712790932156,1.1875579312668838,0.0702161127799234,0.5220709348180509,0.4096293677272611,,
1.0272980000000018,-24.860672297786945,-10.0686731952978,-136.35057663946048,0.2215401912259645,-0.4309305132907866,-0.3195198811833306,0.6540512151531942,0.5389936724246154,0.2041163632890525,,
1.0366369999999847,-27.85449612764158,-8.279576641450001,-135.48037769040334,1.4269072168743808,0.2738911627348681,-0.5339619393249667,0.661461317759573,0.1574229177043524,0.1201475582810028,,
1.04613999999998,-30.52073723484199,-6.183991483346119,-134.69761883670827,2.070893505419431,-0.0356857532541143,-0.233154153410813,0.6582466647890776,0.0801695112828285,0.1114213117097732,,
1.0651619999999866,-34.81702784799488,0.7494929315306477,-134.0899601129445,0.6823259198116517,0.1039495800591603,-0.6737387860767167,0.7370081044334126,-0.3874572641544538,0.0201352264390014,,
1.0936869999999883,-33.5461088898777,10.120273083317922,-129.323476892244,1.279067311363353,1.2204550105122345,-0.89358402431421,0.2102496533598759,-0.5190391653822747,0.3748203271950641,,
1.112719999999996,-30.858947765386507,11.46859954448372,-123.09167995787747,3.004001180298231,3.424462694218566,0.6688415788584219,-0.1732564233990891,-0.2063613731998126,0.6175260383812083,,
1.1317269999999835,-28.59012413844755,10.525606315527382,-122.11649912669569,2.7626018677115365,4.266597069906354,0.5601089874708509,-0.2041923290432606,-0.0324511721940696,-0.2283412742800631,,
1.1412440000000004,-26.79500600724044,10.038717458523973,-123.51118046358792,1.58903768140989,2.3266935740084445,0.5798357941850005,-0.2869682919698399,-0.243493510033069,-0.3726423067061614,,
1.1507469999999955,-24.32214547677872,10.35523534719428,-125.15553393315538,2.151820050531538,2.1499810906908543,0.0547006921252406,-0.2351562943554964,-0.4369276487623793,-0.4689285103409698,,
1.1697839999999928,-21.49698235852476,5.118940149333343,-127.2732699725544,-0.681947652108036,-0.4157894373755653,-1.1409289599439294,-0.7310462883575088,0.137628859363763,-0.2582478797224184,,
1.1792839999999956,-20.150056669962385,2.2644745842386835,-129.0939336111709,-0.7632264737656158,-1.3380743429427464,-0.7606992359480428,-0.6291348848057196,0.1441234018980026,-0.3894192594723271,,
1.1983069999999998,-20.314090932665263,-4.190236153987128,-134.762547317602,-3.08129020072998,-3.820829361603439,0.7651068641980787,-0.4639311959018821,0.4632248188991467,-0.6060923332018108,,
1.2077369999999803,-21.00146688435332,-5.633170119907851,-138.53670413047578,-4.784791209140538,-5.034182438422032,1.4174903558496097,-0.1115713829743939,0.3089430728305412,-0.7675968396461461,,
1.217330000000004,-22.01267648607528,-6.009341938074065,-141.8957355986429,-5.979901352349174,-5.0334600788071935,0.3448091674226797,0.0939637339629093,0.1922432972700603,-0.6930059609141807,,
1.2363529999999798,-26.78908678393841,-8.048306952136672,-142.15994099473983,-3.827492587479356,-4.038810322284802,1.1291936332042762,0.3470641497578409,0.4568569357117142,0.1225847217413869,,
1.245868999999999,-29.15841107219204,-7.915292404004086,-139.93438659175146,-2.1916726009022587,-2.0891197616738024,-0.1534881073248303,0.3700085996870524,0.2790123684006364,0.4288607927031279,,
1.255566999999985,-30.987251942144088,-7.454541144815097,-136.49575880533038,0.2180255364397753,-1.9856804503737964,0.5923487038014563,0.3195765851532969,0.1767021410111475,0.6915303521477626,,
1.2743979999999908,-35.6051658313766,-2.734519640152319,-130.4194124596247,1.7286963800994024,0.9995107961433743,-1.0844483560287186,0.6946091102018189,-0.0934223395235164,0.5369542814937363,,
1.2839079999999967,-36.64910043427771,0.2531837569635996,-128.35720181506167,2.105671212944661,1.2033860512328007,-0.8691558722070127,0.5814653245073477,-0.2161769079181081,0.4228317998779449,,
1.2934180000000026,-36.81652293416473,3.366551657179392,-127.4440300326234,1.8642801815581191,1.1598157390251027,-0.757737370825746,0.4990948556954377,-0.3544233658345131,0.178757930563546,,
1.3029129999999896,-36.13290970286288,6.577332580633013,-127.69928429578536,1.747766507692804,1.0593904773644138,-0.516854678106191,0.4135036563884403,-0.4975797090650946,-0.0929097353882157,,
1.3124349999999936,-35.17840470184709,9.008896378665003,-128.21918615788138,1.217906000961547,1.139344005307447,-0.5173498531285018,0.254555630507269,-0.4462724672773128,-0.1678838198420834,,
1.3219469999999944,-33.84119592513998,10.586029441882616,-128.3071184949426,0.6911629209346656,1.313959648483885,-0.5308409862746811,0.0715158022195932,-0.4004800712974776,-0.0953587714074813,,
1.331452999999982,-31.8307063425651,11.831273415607996,-127.558049612953,1.1320090227913857,1.824257090159566,-0.2203756958855131,-0.0590203916450521,-0.4627492397283983,0.0365164309008622,,
1.3599829999999995,-25.346623598290005,11.05314902613552,-119.42869482529152,3.215110176032577,4.911691717189737,1.460883064175987,-0.3964928602784022,-0.3100471529872327,0.4783555436315425,,
1.3694909999999825,-23.961685349519737,9.43181526480455,-119.5421788087139,2.9251769180757137,3.9642763825852767,1.107029910180395,-0.4305166288812109,-0.0777435027636633,-0.0930722795110226,,
1.3789979999999955,-23.576543923809595,7.481407117293707,-121.70422270508796,1.5241591921074684,2.864621855630457,0.1185808494099053,-0.3886904882748772,0.1339621938095314,-0.4574005346672659,,
1.3981229999999982,-23.126221941026767,3.35987340101154,-127.43174256854871,-0.1933155035075101,0.1490687182132556,-1.2147095216343244,-0.3737653759820907,0.2984677885970729,-0.5879318867174467,,
1.4075399999999831,-23.806597862697743,0.5023068588482814,-130.20288603748526,-1.6829818516192194,-1.3654879065917682,-1.4405041859336083,-0.3735767939260165,0.4678572067385282,-0.5327904750795927,,
1.4170599999999922,-24.62751925641896,-1.6992118157768072,-133.02472944886355,-2.498859322849893,-3.059152292301355,-0.6239032560722643,-0.2331769781314269,0.4194141424013493,-0.535863058119197,,
1.4455839999999966,-29.226680467745307,-4.966758977169192,-140.91680716723235,-4.992278147243421,-5.4018270426490975,0.5020277261903473,0.0807255099469528,0.3055326751240225,-0.4818119641522155,,
1.4550979999999925,-30.65913386673333,-6.630660197535488,-142.14350243403376,-4.2445722489612985,-4.538722593505826,0.8215137175465516,0.0041036666648391,0.4439350092938895,-0.2534741546305559,,
1.4741159999999809,-32.55802302502471,-7.9841143911662895,-141.38993286896704,-1.62004535678372,-2.23245899126224,0.2894524284809482,0.0946132938547939,0.1383837742917527,0.2123683571480049,,
1.4838069999999846,-33.38697649620196,-7.254503966333728,-138.99843962966577,-0.4086841257123405,-1.1840193203541425,-0.0978594200428424,0.2072967938231527,-0.0021778257853486,0.4802682262049263,,
1.493331999999981,-34.052594779010526,-5.151691022533917,-135.92891367683578,0.7121746701145443,-0.3732490248182248,-0.3128179519359931,0.3692797337219083,-0.2167323423036503,0.616453198526188,,
1.5121469999999988,-34.0347326652419,1.7151868003109605,-130.08935491645187,1.5500087812499703,0.8159238181341406,-0.7486891869847759,0.4827175355723243,-0.5230297181219028,0.5377032267678226,,
1.521663999999987,-32.94719156571783,5.350388203142965,-128.26666305646793,1.3986947069882834,0.7315064699713955,-0.5768281697904342,0.4141532721386299,-0.6255584018866751,0.3223174019638319,,
1.5407009999999843,-29.479216605742405,10.975502005131135,-127.35909663549482,0.6680319667087404,0.6561357061737063,-0.4864472402185136,0.1270613184157656,-0.5847501001886498,-0.0723264928400434,,
1.5503709999999842,-27.712030338071585,12.406728618246028,-127.18394567708717,0.6029507516442417,0.7555670462155002,-0.2834491561257651,0.0053454240430146,-0.4471062993450325,-0.0753450854625422,,
1.5596960000000024,-26.473976297526526,13.310968618887886,-126.41559806610826,0.6506697821125766,1.9008726281223376,-0.283950706021218,-0.0128495298552102,-0.299954805962794,0.0577538976075368,,
1.5789120000000023,-24.34590843286748,13.01664497723223,-121.2786809304252,2.7001978011238554,4.582466485680432,2.224486595132988,-0.1827444714058003,-0.0801083423490812,0.5936112741203776,,
1.5882450000000006,-24.202459387661435,13.559085317553444,-119.05886687928673,3.088663272638802,5.095414222996082,1.87105606139024,0.0661919906662073,-0.0783954687551416,0.4361110827722788,,
1.6072639999999865,-25.44477088761222,13.98103208034519,-117.49181626527783,1.792014693008316,3.15276588231118,-0.21366697885372,0.1127472373877832,0.0894581178707187,0.119632826797506,,
1.6167759999999871,-25.14267759172037,12.95765315800189,-117.88284130449397,2.035471881470624,2.058738241785678,-0.5255466901035675,-0.2224571825174999,0.0431790097875827,-0.0892390313427753,,
1.626294999999999,-25.534666668562863,9.746708704417967,-119.60276170363863,1.466546943418725,1.1461989818721885,-1.3972683397709824,-0.5403171769212631,0.3771371670580697,-0.3236532310983281,,
1.645374000000004,-26.17249334008568,0.6109876150192466,-128.64538565119625,-0.462438860148273,-1.3204402077365154,-1.871819987936098,-0.7891569404105393,0.5600595217166385,-1.0514834026426656,,
1.6548099999999977,-26.248878577839925,-4.552832315220274,-134.7752365129167,-2.342814703174412,-2.9390735672604054,-1.1264776933406455,-0.7744296066650775,0.7043717594551129,-1.2016828434305626,,
1.6643159999999853,-26.156642221735147,-8.202300786098151,-141.40055616039493,-4.201563478944611,-4.784237940410992,1.2467312473837928,-0.5139061366385035,0.5378844170016022,-1.2922246265785726,,
1.6833450000000028,-26.72858435811508,-10.308627341076406,-149.55452956281715,-5.850021063927925,-5.152105724750782,1.5924825839339172,0.0197126224085203,0.233025528122389,-0.4917843584136991,,
1.6928450000000057,-29.21042675336676,-11.046385227959476,-148.4983035217082,-5.140752484756479,-4.349766509411372,1.438361224104947,0.3312917681600319,0.3847181889152997,0.1381881021160028,,
1.702366999999981,-30.941218464187152,-10.751397159498678,-145.8861203670269,-3.273614757789088,-2.746750114905969,0.1438514843563794,0.3063144681823792,0.1408052048958247,0.4916504987178924,,
1.7213919999999805,-34.94406701449735,-8.400803879832665,-138.66794361171506,0.2375538057393932,-1.0944412835134254,-0.3775116322284078,0.6132545841468614,0.0551182671318179,0.6452148867157502,,
1.7309129999999868,-36.85911736992087,-5.435215912553751,-135.9698748646042,1.0828838615597445,0.1485276529127825,-0.9622084303392048,0.6694728539602908,-0.174844988184565,0.5169203299907017,,
1.7404149999999845,-37.82725215739801,-2.354733528531465,-133.8033236835758,1.9103431924164844,0.4578473934409393,-0.9297004096565477,0.5605149240345779,-0.2946974176568744,0.4234308129101078,,
1.7594339999999988,-38.26348830718502,4.207622832407735,-132.38344425455367,1.328831885992518,0.5406577279846175,-0.729028487447983,0.4657922675151944,-0.5046162315722081,0.0177405703089758,,
1.7689309999999807,-37.41609030055399,7.258708697987223,-132.37360791585334,1.2234681380147416,0.5304130824266831,-0.5894251855777406,0.324836015060978,-0.5330823846778638,-0.0440725807714004,,
1.7784659999999803,-36.43691023292431,9.536876442779263,-131.71539499130924,0.6391126916213976,0.8372590508324355,-0.6802606474040739,0.1962947994929537,-0.4463087477233097,0.0588103603276429,,
1.7879629999999906,-34.87389020158627,11.649632631664389,-130.3611657688826,0.9856597845988274,1.7044442420710466,-0.7030721300574,0.1044397216156961,-0.5070295039902459,0.1741057648649235,,
1.7974649999999883,-33.0596929205341,13.272179055474576,-127.82376287300109,1.9282483171059008,3.0215186539632897,-0.3294198306502626,0.0155926550672299,-0.478080598121169,0.3933977735592243,,
1.816497999999996,-30.29511085793573,15.939269065059335,-123.16148399790592,3.259487942799456,5.397110709568088,1.4015435703165058,0.1724350600825586,-0.3633641817983948,0.1366229807502217,,
1.826188000000002,-29.61844468630301,16.636447763929663,-122.99524628979523,2.414563236650278,2.631904095302323,1.2333655928635854,0.0324710238314326,-0.1840268402585691,-0.028003510117804,,
1.8355080000000044,-28.71338392637817,17.90124789764959,-123.55183871373228,2.3617189686456177,3.796140860399861,-0.0868872585023447,0.1035090144538188,-0.2821691823537533,-0.1972318632082823,,
1.8450229999999976,-27.15917907833572,16.605391349230178,-124.0448868141826,2.3961190277429023,2.3572248633246287,-0.3507133203147946,-0.3943955434583855,-0.1016846065158989,-0.2232293380986711,,
1.8641439999999816,-26.10895189358052,9.18110290198881,-130.11684291690375,-0.1914629675328103,-0.7189983666422091,-1.812490983289049,-0.6572723207963194,0.4065620478869906,-0.8656342769966323,,
1.8735599999999977,-26.14384959755786,4.993637658063003,-135.974348927557,-1.4776971799716667,-2.9438949570811457,-0.8928853665143085,-0.621037333188938,0.5820970925684861,-1.158622302483775,,
1.8830739999999933,-27.33134281322217,0.2950606349449891,-141.99872979014106,-4.901238304092778,-4.644186548829909,-0.112857030051648,-0.4496723568673273,0.8721969213135233,-1.1623302166778404,,
1.902087999999992,-29.51275103890745,-6.21594922117161,-146.64304283581018,-5.557065104971424,-5.65148616960754,1.686482980963478,-0.0807256305987583,0.7298935585857054,-0.0252362634914327,,
1.9116039999999828,-32.21826766446294,-8.03231976212264,-143.83792452402773,-4.560199032203895,-4.557753616089434,1.1620861401305749,0.2234252428367566,0.6107581153963861,0.5445213398193476,,
1.9306200000000049,-34.61784972251208,-7.38087701694427,-136.00408517628304,-0.4245728929598314,-3.400301003322345,0.9430127758856718,0.2607920220087947,0.0289022387472211,0.8016065696299038,,
1.940133000000003,-36.38449185515355,-5.056536431593668,-133.0947259447047,-0.5003617700219418,-0.972640915233825,-0.8978470118854482,0.5653203849267036,-0.0728121792660445,0.5655609265044604,,
1.949643999999978,-36.74113809166033,-2.196415438884652,-130.90051326408317,0.5198363214135755,-0.2336509047134046,-1.0977925023519597,0.4600965861971579,-0.3273223416967235,0.4373999115638438,,
1.9591629999999896,-36.90370023188604,0.3855767177741608,-129.2144446452277,0.8868785424086396,0.0653816524832736,-0.8742151625770561,0.4033018661867534,-0.3053884038980016,0.3394395233700789,,
1.968673999999993,-36.7602588330429,3.158580280815483,-128.25657902192367,0.5017519056310966,0.746228128214642,-1.058515779301763,0.4020775999465012,-0.367251759718268,0.1679265126474468,,
1.978165999999988,-35.55967662568694,6.136148500914298,-127.96567816230512,0.8605849513483121,0.8075858340976697,-0.8191041673172658,0.3085170846956293,-0.553946671798725,0.0034011372573207,,
1.997195000000005,-32.7947665389754,11.092312698807616,-127.69229315843826,0.9504023350222937,1.1078485664884912,-0.2044983530534972,0.181331041871842,-0.5048203360885767,-0.0701682966697151,,
2.006703999999985,-31.494031282602528,13.35421461960118,-127.40298087473408,1.1751699352309746,1.765269742197188,-0.1264888973099303,0.1912593170449129,-0.4753855129726688,-0.0435978395938123,,
2.0257279999999867,-29.51069291267079,16.03202266075513,-124.50947080194214,1.896526460807609,2.918688613964872,0.8952156950894808,0.0316582161958104,-0.2543307800549133,0.3157255705425475,,
2.0352419999999825,-28.53632603577278,16.514978422893808,-121.84848041605473,2.4051026607405364,3.634093616452133,1.3679318910661982,-0.0351832623560743,-0.208805612954546,0.4691371965240858,,
2.0447389999999928,-27.572625903109365,16.28641660586754,-119.5474814708995,3.598184373265773,5.199379005332967,2.008508247258923,-0.1475319296896729,-0.1354601529145291,0.400574870050259,,
2.063770000000005,-28.72929501830453,12.469139451163665,-120.93349144049276,1.6171052188560184,3.072138216136498,-0.367840130262254,-0.3168877443817616,0.348067746507645,-0.1970009746493619,,
2.0732710000000054,-28.916683071760605,10.165573242429014,-122.7248499099305,1.8528130732989057,1.6738638029054962,-0.3174595761384472,-0.386091416094573,0.2756506419471357,-0.342124705876492,,
2.082797,-29.967671922760367,7.284239081455706,-125.01885227981631,0.6324819406537143,1.1429229777370231,-1.4631067279131575,-0.3763302689966093,0.4960600985821056,-0.4075077513301325,,
2.092375000000004,-30.64568328845741,3.478315477572356,-127.36233362326978,-0.3065359740549671,-0.3659756235253065,-1.5191095799355196,-0.5481666783952288,0.5617361865666415,-0.4297982983682301,,
2.111328999999984,-32.65741137579573,-3.744255195533128,-133.02017191840207,-2.271798193872249,-2.53604908293528,-1.0015076163845718,-0.3382501982178118,0.644365899419919,-0.5855024851701306,,
2.130334000000005,-34.37054034601577,-8.513617342624372,-139.85372489942296,-4.2014656662658965,-5.228993306123709,0.710737709607321,-0.1559860130953713,0.4218177765066004,-0.711221490133079,,
2.139842999999985,-35.565284235716845,-9.926443445831852,-143.36739472571475,-5.733293061990771,-4.68237560629527,0.4103601253740848,-0.002323712969088,0.3743323400099027,-0.7237369575679228,,
2.1493519999999933,-36.24262078426568,-11.628707145483943,-145.33691576927123,-4.912188713364286,-4.84902847138,1.3536317055308216,-0.1016474319248549,0.3611080483471109,-0.3917948441984565,,
2.1683789999999874,-38.67817424333359,-12.622886952297405,-144.60492458831527,-2.7614494832714565,-1.9859344635124287,0.1890784033654793,0.1699568556790053,0.1211979285667516,0.2090599589809199,,
2.1780799999999942,-39.01370073413634,-11.468650625927356,-141.82070352224085,-0.4940872352315539,-2.062442219563159,0.5125297466758101,0.1790008042610668,-0.1403270645069745,0.5729053157354674,,
2.1875969999999825,-40.23446063806863,-8.671628960291033,-138.41361991466528,0.2709713150427737,-0.6068565601060809,-0.449474614329387,0.5314174986890601,-0.2709877760312476,0.6571353038144175,,
2.2064259999999933,-40.69661395980141,-0.2615113407578962,-132.18742793878175,1.9369576716763817,0.7599344490012528,-0.8039189934065629,0.591201872385757,-0.6244085399868198,0.5662966948142699,,
2.2159369999999967,-40.0169742671614,4.0076218074042105,-130.49767652549852,1.6405778560477295,1.0078557703717708,-0.6687859052576223,0.5394215204818574,-0.663615441032247,0.3078557309232688,,
2.244634999999988,-34.809193686019555,12.6694873131946,-130.6965908070489,0.4271620367483403,0.8017818244072248,-0.2940527831275751,0.0809037105713147,-0.484334998569298,-0.1799520610943845,,
2.25398199999998,-33.20726219907508,14.236202697671446,-130.3766535825789,0.3273364121727772,1.8786851065842949,-0.4034780160235167,0.0229361215573459,-0.4382626900885709,-0.0531549353764653,,
2.2729960000000062,-29.286985457776712,15.50887711704951,-125.317490005856,2.4919374102652205,4.471709424008429,1.85208398213454,-0.1789315208802777,-0.2876338370214708,0.5429046301286078,,
2.282506999999981,-28.55096491754656,15.55058553537622,-124.36521860240786,3.282277880293323,5.288370869672312,2.4776744273326687,-0.0878339809154355,-0.1199032356856217,0.1337804639132023,,
2.292028999999985,-28.980959157247074,14.940214412389308,-125.27870951116329,2.174164170471287,3.3878657896404345,0.8966570868465216,-0.0665379650712614,0.1396122111680886,-0.1611535692626731,,
2.301534000000004,-29.282478929344688,14.69911662105681,-126.36856403252618,1.2225304629574438,2.8164919793860634,-0.4790678831622896,-0.0186001897401496,0.0774537454855214,-0.203576147903914,,
2.3110460000000046,-29.17388644403888,14.032545121595922,-127.7675433473134,1.4699630247468218,1.7522253484715449,-0.554233144479748,-0.1327619616709165,0.0658482635917936,-0.2862451914155829,,
2.3205600000000004,-29.687051043388745,11.402517410089954,-129.4192109760551,0.5236298203444497,0.9537305657003456,-1.461339531862219,-0.3623411169292708,0.4095921846834355,-0.2946467247612948,,
2.349084000000005,-32.80978741968105,-1.8959288001356145,-139.90626023031152,-2.5281535610218926,-3.15416838311524,-0.681823002768031,-0.4324596818428896,0.9759564647618756,-0.763366194615293,,
2.358583999999979,-34.48238920399979,-7.019780339156015,-144.20049042952928,-3.7194974900469817,-4.870854477331844,1.021096778684365,-0.3759698932076404,1.021857373835839,-0.8010535466993465,,
2.377611999999999,-39.66330024935472,-14.0651205403959,-150.83515872270078,-5.058107462327045,-4.595598735411813,1.965399951479092,0.2313464235723456,0.8514413836043286,-0.5729994035314254,,
2.38713199999998,-43.78485209559291,-15.687768317491017,-150.7407541109222,-4.221872713906542,-4.413988092616959,1.8151299711392164,0.528724357176113,0.6791156111389379,-0.1440032826895531,,
2.3966369999999984,-48.5373278093561,-15.275314563539183,-148.76992620905114,-3.584202469489703,-3.2306338738634555,1.0233802520477229,0.8242973251222222,0.396128226359863,0.1838803044086699,,
2.406144999999981,-52.36272565143917,-12.840158885574208,-145.37189898608477,-2.122471712322112,-2.8626738757434382,0.2001662340315314,0.8782925528311911,-0.0004769976119384,0.5328774016001636,,
2.4251789999999858,-59.69888201755612,-3.8465923918410767,-137.03283896143623,0.0806461777498962,-0.9791934905306704,-1.1301044268632037,1.2007721508860345,-0.2681728513576416,0.7632454365549166,,
2.4441850000000045,-62.794656001892726,5.880984985125508,-131.69335215129547,1.5810528056287172,0.8707154563134419,-1.6617950255517353,0.7723498746023247,-0.4707733527180165,0.4408648246277899,,
2.4537129999999934,-63.20384799613205,8.916787171569613,-130.7306915330819,1.19100565915295,1.3997297390751873,-1.4739518184872389,0.4986783441488071,-0.3387671663871054,0.2035055635015165,,
2.4632039999999904,-62.47391078012028,10.64173302263913,-130.95381492944372,1.058134201118887,1.0522785446159917,-1.160669096603202,0.1546980340270314,-0.3344009113541843,-0.0634733749089799,,
2.482241999999985,-59.71826290219641,12.287015811058696,-132.16828028476277,-0.0978844763641835,0.8372480006339142,-0.600827030892327,-0.1025952405916677,-0.3232769378382847,-0.1387817084760309,,
2.4919519999999977,-57.43282619589562,13.631819212483984,-131.297430900913,0.4314723520514729,0.7049344121344251,-0.2603700082566292,-0.1088399628270637,-0.5111688879910729,0.076456909861703,,
2.510933999999992,-53.43671438804631,18.486151943730324,-123.35329638170238,2.3376551602835294,3.056559810165736,1.496089588747806,0.1839730121362556,-0.6358510429892503,0.9091862204250686,,
2.5204619999999807,-51.87233692230182,20.695485607676567,-118.57747026278489,3.8532247398417896,5.395751174024762,3.901997490400277,0.2141369155131947,-0.4826300979101832,0.853779542267989,,
2.529781999999983,-53.11069621515256,20.690099021743904,-118.1194828871921,3.982242088466736,4.345227281871617,1.9624192754743743,0.0959171947399103,0.2025095145539253,0.1823070533018927,,
2.539301999999992,-55.68159680820494,19.594654799933167,-119.11897264720542,1.4259919255393865,3.333619588860812,0.1185097162080531,0.0264204006424707,0.5270894385096193,0.0051883028973666,,
2.5488029999999924,-56.95629820031596,18.40902154215511,-120.81259465294843,2.140408329580344,2.637899200533085,-0.218365100606297,-0.097746714867047,0.325930928499958,-0.2223148589042275,,
2.5583249999999964,-58.06040160471502,16.0943796848815,-122.70635977906404,1.8659617249787763,2.082561019914538,-1.1765431776876596,-0.2953172720801794,0.4224619553115879,-0.2801044665373371,,
2.567828999999989,-59.421830724184495,12.165725937889734,-125.09022719980182,0.8457736519852502,1.0631186439472933,-1.713208571255797,-0.5168736539561385,0.6584449628412802,-0.3615866669028043,,
2.577436000000006,-60.141651412893424,7.0647521178894594,-128.83784723178573,0.463722528834978,-0.6322233824791743,-1.8230544002010736,-0.7409851121326547,0.7302969347864168,-0.6563095705509501,,
2.5868389999999977,-60.7280401676219,0.9760648584975492,-133.64024209225727,-0.7259193853519823,-2.494384944378477,-1.64472447743708,-0.84816548449437,0.8969083509679036,-0.8629497642344572,,
2.596352999999993,-61.54850154123545,-5.407747473775188,-139.2268159018073,-2.545973013921211,-4.831554287004148,-0.562079514153963,-0.7689578388824132,1.0461098368111013,-1.0283813695145785,,
2.615375,-62.0862224435872,-14.522344594371118,-149.24299369142108,-6.065354975423445,-5.050018926973897,0.7892145066709365,-0.4209231688487726,0.6116540854224749,-0.6750049549411986,,
2.624894999999981,-63.7641693811257,-15.88536668231682,-148.21928446371942,-5.979898316603763,-4.280640729808776,1.756707895302146,0.1278586033965467,0.4070140553607819,0.1816272078728895,,
2.634387000000004,-64.82529758395921,-14.610017512103148,-145.14493947720416,-3.491395688062352,-3.626412134799366,0.080970152624953,0.3024867417397416,-0.0961344593914148,0.6046779466624049,,
2.653423000000004,-66.83165098591428,-8.982120919430928,-136.31496878826457,0.2633984344933078,-2.422048664757455,-0.3404664665558231,0.4976954782725175,-0.4389038219501372,0.848062039696593,,
2.6629299999999887,-67.25640204682385,-4.811525313113321,-133.60866189118266,0.6869901679309117,-0.3083971832633041,-1.1275157681166563,0.6401833423998596,-0.5282115901250383,0.5336467516852387,,
2.6724470000000053,-67.481704790976,-0.7577022468103912,-131.4924617504499,1.1029010977294262,0.8407604898859428,-1.015259559649158,0.6176052928331426,-0.5144231912312281,0.423244165189757,,
2.691457999999983,-65.81633206490086,6.214368006652864,-129.62756423987565,1.0722041081551357,0.7833447644402642,-0.7708765025038912,0.3877805591161281,-0.5845572208255919,0.0172404864277914,,
2.700981999999982,-64.66741475702298,9.29246480857137,-130.01161399542397,0.8809255649462889,0.9693416023515536,-0.6186428562428096,0.3162768205666791,-0.5690519683594336,-0.1426065317308788,,
2.720005999999984,-62.60530184694634,14.466669650689331,-128.91957264739847,0.7124612361014253,1.046904202268086,-0.2739054622477632,0.2846075105553134,-0.4590658068107111,0.1036413902762824,,
2.729504999999989,-61.94108738603756,17.34127455719882,-127.04774872809703,1.2863601201759791,2.1734732603254976,-0.0637213509615574,0.3626598993813615,-0.4554676077556784,0.3156065006123882,,
2.739014999999995,-61.17697838022891,20.04583404722268,-123.26746463377565,2.408222723300688,2.809198189366947,0.7744629859812637,0.3466663400174821,-0.4319562092192369,0.6979876185921498,,
2.758038999999997,-59.36527146210958,23.18927410354409,-117.8167663123835,5.102906665623539,5.275210360756743,2.131477175917861,0.0614685728610755,-0.1590173478402481,0.1635700777671184,,
2.767550999999997,-60.72066952391192,21.69647259395976,-119.1126527964948,2.103572760346381,3.735022133523288,0.5526942115707703,-0.1560306516524955,0.3601472261279398,-0.1516999456101621,,
2.777060000000006,-60.73943794550209,20.27593586761156,-121.76209777659987,2.0624446143733035,2.9492418702222287,0.1076674967158303,-0.2563558248709002,0.144994282456385,-0.5247403967100379,,
2.796087999999997,-60.97174394696852,13.902008395635557,-127.03097235371769,0.4839967644883342,1.2690680582553486,-1.3565681880865184,-0.5984390291931255,0.5331741487422131,-0.4953354651899505,,
2.8056139999999914,-61.23372379626494,8.929851374588353,-130.7196497582906,0.219660789737663,-0.8613265105922232,-1.423099809917218,-0.7541765402813908,0.6667504071261975,-0.6857395415988614,,
2.824613,-63.83744914027526,-3.0235217529611624,-140.14906801502852,-2.894394215473448,-4.217963485416694,-0.8008516619956108,-0.5867891296792003,1.1412834614323686,-0.9018107464094426,,
2.8341109999999787,-65.43403299041462,-8.4722078391929,-145.55232890786252,-4.933052422000796,-5.871083768937763,0.2796073615674375,-0.411747292710783,1.0677945014706425,-1.0360772859618557,,
2.8436319999999853,-66.80448940529894,-12.353885796467786,-149.35619427902267,-6.385398270628894,-4.731081230345261,0.2728876800672202,-0.1975613401834358,0.8062513328770061,-0.7542400779950128,,
2.8626449999999863,-70.89729016012676,-13.663823342831764,-147.47912111348268,-4.266491047095783,-3.451694992591946,0.1450357210078554,0.3460917474067883,0.0740135133324694,0.2998023116974002,,
2.8721649999999954,-72.30804449994562,-11.317852958860332,-144.04568938134156,-2.720257079304525,-2.3465010534768296,-0.2499820662061099,0.4834904897877792,-0.2296570786107412,0.6558401099440188,,
2.881672999999978,-72.50967566966733,-7.604935793345084,-140.13638243465144,-0.5494387384384023,-2.9062204366236406,-0.4402683993620398,0.4788082944435815,-0.5593746619333343,0.7900975518062419,,
2.9007000000000005,-71.93232096317792,2.2667958569803845,-134.96650693220184,1.0678835127702822,0.7479543682012674,-1.0777427905402432,0.6220178559957403,-0.7840644974025626,0.4605556053271059,,
2.938751999999994,-64.83730812995344,15.060031537540173,-131.07044762036952,1.394886090992733,1.7076984081477904,-0.1182213445083143,0.0274987165186268,-0.535673103580002,-0.0845499360583349,,
2.9482600000000048,-62.98367882432761,16.468508946639727,-130.3046434416516,1.188059526494058,1.77680565505607,0.1869695370801142,-0.0310042970372345,-0.4549183104990886,0.0194952139472594,,
2.9577589999999816,-61.07986631353696,17.883005357691783,-128.81007828026296,1.6642072884715848,2.309203841513713,0.6063004060495191,-0.0258775003560271,-0.4615663701922812,0.1592225495036652,,
2.967458999999991,-59.12829695709063,19.13425238479108,-125.97762772185196,2.294866671372826,3.078223152498199,1.245697557358038,-0.0385413684226445,-0.4474657770458392,0.4195932673126661,,
2.976766999999996,-56.90048403968034,19.84244938503329,-122.78263065169158,3.432210938291889,5.320828557352662,2.3913273294133583,-0.133092909042344,-0.4286936402649469,0.4664422242090122,,
2.995812000000001,-56.746821147232126,15.544504421016777,-124.86023857619946,1.8666600734975167,3.360986533184429,0.424889356689595,-0.4334343172502095,0.4961656197501633,-0.4039698059617225,,
3.005316999999991,-57.14549822419946,12.377094658557091,-127.94428110231324,1.6371036068778797,1.7336559271880183,0.0077998305090434,-0.4771401473215126,0.4391834590376397,-0.5806837207535288,,
3.014825000000002,-58.066214426659855,9.2902055395156,-131.27001837150314,1.0332835772068678,0.7835310849511373,-0.5549831450967414,-0.3729064972966733,0.534934796807535,-0.6059324509940117,,
3.024331999999987,-59.46020141042673,5.8131306365665,-133.93439438199138,-0.4302332634971471,0.2755104034262329,-1.15381220458694,-0.3366488626546697,0.6770244318037486,-0.4675445760434591,,
3.0338509999999985,-60.684040379904815,1.980208084176844,-135.9005167221671,-0.7790537041690144,-1.910713644704019,-1.022898916143453,-0.3814926479564144,0.7178968233639783,-0.3373174673418167,,
3.0433479999999804,-62.89364438419205,-1.675893030403096,-138.36136236422962,-1.5737018896235853,-2.9418186200595984,-0.911695155525396,-0.1829429895656371,0.8408380752589785,-0.4339688805770509,,
3.052854999999994,-65.36156381934843,-5.28778822310909,-141.23952571636482,-2.712208423478261,-3.415078389447922,-0.6425946902675088,-0.0985434621060004,0.874502298718181,-0.552850868126624,,
3.071882999999985,-69.47367802217553,-12.610745889781946,-147.61564333092244,-5.644376596500115,-4.319992576301324,0.8187466690674817,-0.0497580444298141,0.8208192021766652,-0.6692172656759647,,
3.081400000000002,-70.60354218464023,-14.817969567925465,-149.00228782242843,-5.754989877711279,-5.211469671410456,1.2867054854304092,-0.0517599279521454,0.4967637992571956,-0.2607674583738048,,
3.1099189999999908,-73.90200667146821,-8.71435710170199,-142.17130173000535,-1.300612006866672,-2.9569671882226465,-0.5446226583702293,0.352275827514146,-0.612271857577492,0.7671498438811385,,
3.1194419999999923,-73.77517449962941,-4.14383959404407,-138.6446618336389,-0.1074150586668158,-1.2661833683308277,-0.8930209153929135,0.5545620268754167,-0.7189243424354834,0.7047520930753358,,
3.128945999999985,-73.05959202932124,0.8402012821171875,-135.66749853828628,0.6478412440562789,0.5193047799179991,-1.0184867775373534,0.5640798943826467,-0.8273708532024163,0.5825095342421069,,
3.1384649999999965,-71.16371040602351,5.392076460595201,-133.06131721759857,1.6186164059425303,1.2605530777541425,-1.0938765706643614,0.376482410624545,-0.9073979319209684,0.4780607960539506,,
3.147967999999992,-69.24379691907751,8.993712356693077,-131.1461660639797,1.9047545121762333,1.4806368272667754,-0.713868882806393,0.2687368954893179,-0.7661805462729129,0.3071491272029271,,
3.157488999999998,-67.46891921947713,11.795883583592596,-130.44632295876522,1.438311165897626,1.861549421376428,-0.3062455119958561,0.1852254024964475,-0.6312170224704665,0.0472485074002184,,
3.1764969999999835,-63.531656550458855,15.847721162919932,-129.9684289861971,1.44579554095769,1.756723375524763,0.1073072384206718,0.0328577067208958,-0.5065524546767514,-0.0381840339516876,,
3.1861979999999903,-62.2020540534813,17.520020236990522,-128.44063106850805,1.30655214297873,2.055224663982428,0.5400135495304356,0.0859037339275767,-0.4097373131791142,0.2079208151082265,,
3.2145519999999976,-56.40078654074711,20.690912315672488,-118.5167139939993,3.9890195927198153,5.622275926941462,1.9554771278382417,-0.2234730360911409,-0.3365863431560342,0.4633468765146923,,
3.2240500000000054,-56.10979966802822,18.07475122139232,-119.1203606165124,3.812126289060036,4.182726410768524,0.7534186994584763,-0.498572428345381,0.2020342273590458,-0.1469179536013559,,
3.243083999999982,-57.59455781936742,8.974701211085973,-126.81030434474984,1.9094647338055788,0.7781501675160142,-0.4565318322756178,-0.7803278410861115,0.606484194050018,-0.8690749030060452,,
3.252576000000005,-58.95441563967298,3.6002108375760646,-131.7842438344692,0.1109125343485598,-0.303653810061269,-1.1327513952408317,-0.6711281064674761,0.8945286627583721,-0.8967971603814097,,
3.2811159999999973,-65.28349512273815,-10.941363182824505,-143.415266045929,-3.3912846076076244,-4.29995163983127,0.0002785441298606,-0.0342370385555268,0.9551333241140882,-0.7605300424354221,,
3.29062399999998,-68.25514508744573,-13.95742156750258,-146.80971283978775,-4.527682903149152,-4.761092492898219,0.4095663385456087,0.1249484828009019,0.8323881777904063,-0.7397277894294999,,
3.309650000000005,-73.28852325555236,-17.833788476929737,-150.13507184716903,-5.563512381533877,-4.8323251269490735,1.0529966345888788,0.2116373723732047,0.4752042276277319,-0.2213849034180812,,
3.3191579999999874,-75.91811998765175,-17.493839291274302,-149.2755507288323,-4.478890015181428,-3.556617434611117,0.6619691941343864,0.4609224187002711,0.1984262528845017,0.0581224027823701,,
3.328676000000001,-78.44881942807471,-15.175455498344018,-146.70374115721648,-3.439993992491316,-2.1743944307875744,0.0331266995797956,0.6511034400392406,-0.1324627569685287,0.4059247441696104,,
3.34769,-80.657625707529,-5.608450099758313,-139.28908223567285,0.0780187021744021,-1.5392464509838542,-1.336301994313545,0.8147273440123818,-0.7434242204423681,0.6844715349148577,,
3.357203999999996,-81.22320877829584,0.3727428131280558,-136.59188984613667,1.0067814440127116,0.4471141585667851,-1.5138208268159845,0.8773366237932567,-0.8125140711890145,0.5316086246362965,,
3.3667159999999967,-80.82262958739172,5.867416280359205,-134.3031671434591,1.8922256244414883,1.29191813574547,-1.4642934187104737,0.7053858779606729,-0.8401903882932119,0.4416786847648792,,
3.3857380000000035,-78.81773767497465,13.546885087900788,-132.55443624066572,1.720392094682102,1.81219267787856,-0.6474256480396626,0.3173429139924996,-0.6153286378405401,-0.0196452589325617,,
3.395247999999981,-77.2311890183662,16.034149398117627,-132.83607556016918,1.437499360616261,1.7299693070575766,-0.4210720366467296,0.1468833061702771,-0.5647279308403357,-0.1587335367282464,,
3.4142769999999985,-74.11025654564494,20.51488268941985,-131.03787178639362,0.8327738870976651,1.8869838903376088,0.1097885376155679,0.1515932154824183,-0.5238132500622958,0.1782167591475902,,
3.4237739999999803,-71.89898016925532,23.25147782655976,-127.90330205782382,1.6383580993106772,2.597566543961548,0.7400553349035704,0.1500669425678869,-0.6676904210578691,0.4432641985857255,,
3.4332780000000014,-68.80931762019925,25.26288569546837,-123.21872610510542,4.01413976738515,4.825828344653626,1.9751679629275616,-0.0118951738378565,-0.6961925739678427,0.6511112828216381,,
3.452309999999983,-67.69085875208543,19.18901730639268,-122.0341668210233,2.3833996244015325,4.307277469821775,1.1938466537238517,-0.6780743284920455,0.6343473347513269,-0.1509602570718622,,
3.4618269999999995,-66.89463576683742,14.87666320459537,-124.31449314325673,0.8160589410556653,2.108774505281222,0.2903298150019925,-0.8176073518116433,0.34474338697913,-0.4473368110049036,,
3.480845999999985,-68.4349156501637,7.288437881606771,-131.77778200890023,-0.0072195161046929,1.774681243437623,-1.089568001912611,-0.3500010457823969,0.9167309090609592,-0.5320872393794129,,
3.4903539999999964,-69.36274294677281,2.183716458036436,-133.6104290395773,-0.3788405341169778,-1.0845590557880227,-1.1272297536272369,-0.6335306280291264,0.832514561387427,-0.2571801718114448,,
3.4998589999999865,-70.74061483461762,-2.6275339370365853,-136.83745323761158,-0.0021058913104594,-3.1891663745140555,-1.2178825940360305,-0.4894397184907111,0.8820934047853961,-0.5477160970217892,,
3.518889000000001,-75.49047472955053,-12.817463386053108,-144.45100329296326,-2.4562920423848724,-4.804785238593682,-0.5203646998492866,-0.3587376715550703,1.0749903891217107,-0.6828164153791586,,
3.528380999999996,-78.54614050995261,-18.078345895457524,-148.94219867992456,-4.361880574758151,-5.822586133691036,0.7257651292503483,-0.0875855115669886,1.2092004934081395,-0.9721082987040134,,
3.537903,-81.2802125559247,-22.33916502388773,-153.44095810725753,-6.847296697939162,-2.82130262905417,1.8114805865319803,0.0368143683331015,1.0002222685756883,-1.0177884286959376,,
3.5569209999999885,-86.28498318796846,-24.27542371114032,-153.63527175104934,-5.350025405446652,-2.8966668943542384,1.6318819902028223,0.4522145764605421,0.1426486135128072,-0.0192195971845436,,
3.566428000000002,-89.05547687707521,-21.05765410853584,-150.63752212865435,-3.702112159469816,-2.033066238915135,0.1794748052461351,0.7491054360622535,-0.3266494263491433,0.3986674873566616,,
3.57594899999998,-91.0812156711864,-15.91661938260665,-146.86574235740406,-1.8758402813101305,-2.41516751823783,-0.1395747241398721,0.8575327206077993,-0.6780417983720551,0.6383941298932627,,
3.5854619999999784,-91.102448027101,-9.676368958674349,-144.08949368239948,-0.2756033818389445,-1.8335984543581445,-1.5134341064904029,0.7058257347260556,-1.025237653708245,0.5466238800753361,,
3.595043000000004,-91.56699713687382,-3.340088046475791,-142.11475825448375,0.5766157908416503,0.297217858227756,-1.470328771099107,0.82912535149399,-0.957909846311307,0.3696041091724195,,
3.604474999999979,-91.29819882944024,2.407583947781797,-140.0282517851841,1.2957908798286255,0.931509209539772,-1.270681406985039,0.6735944529256178,-0.9292363900926291,0.4073348025810135,,
3.613984999999985,-90.20451538484366,7.068015091547265,-138.19056714867816,1.7746822055795897,0.9628109553826824,-1.2035936861139762,0.438066843623299,-0.8489242868515461,0.3187291375102237,,
3.63301199999998,-87.46524849295491,13.195276050164932,-136.40315115240233,1.8624514304604884,1.5587091305799403,-0.4118830221993191,0.1292857087381639,-0.5982139716111377,0.0859643081992464,,
3.642526000000004,-86.0367023113002,15.455103659661985,-134.6873784465156,1.8477551331562017,1.5666127478303449,-0.0967868825978607,0.1091574713967948,-0.5192407210080692,0.248614492615469,,
3.652027000000004,-84.74622726848992,17.80229628857599,-132.2035181449407,1.9371735467879023,2.0720265677322693,0.418787668921978,0.1605221029432467,-0.5056482130678279,0.4101360171704581,,
3.661536999999981,-83.05757030968279,20.21379274729004,-129.16483288340314,3.731627251915041,4.052700544067033,1.1887674226740197,0.1471762197623308,-0.5604764788990512,0.4820241835835031,,
3.671053000000001,-81.71658186272498,20.40693252949376,-127.73766112432908,5.130410964533237,5.750755332788836,1.2243776537164592,-0.1373217291869743,-0.2248966376878198,0.1820254563368936,,
3.680560999999983,-81.29625122704923,17.472883454681085,-128.228751755672,3.803006230941776,4.902236861236647,1.2957003130325797,-0.5227864828782024,0.2961384598248435,-0.097360440121182,,
3.699584999999985,-79.55197622510894,12.553821023309826,-133.744788606025,1.961350332305141,1.5206414640735657,0.0015249380576938,-0.3783441811644367,0.1741787942356761,-0.7283707599686338,,
3.709094999999991,-79.61376833580462,10.507002981334168,-137.11371774504906,1.2781831502243866,1.4814693807871246,-0.517793740510984,-0.2897099174426619,0.3001382057982225,-0.6545216634600843,,
3.7186030000000017,-79.87001152809499,7.4672412268061,-139.32533114792503,0.3308248220529149,0.1614091392918289,-1.1785177470227357,-0.3777146238389447,0.488228109467454,-0.4031255153587469,,
3.728114000000005,-80.90925215878809,3.2668447526882867,-142.29473514445922,-0.1690748783519088,-1.597913454368322,-1.427832172001383,-0.3789359296086361,0.784639803653834,-0.5154406061555604,,
3.737623999999984,-82.64533807938524,-2.237055148062069,-146.5379941367829,-1.0090880524302588,-2.6064018118493246,-1.5681513965574243,-0.3639190285335396,1.1017697077995292,-0.7671404786399888,,
3.747135999999984,-84.89628485671153,-9.067197245390728,-151.03623204016816,-2.3747025327036093,-3.8266975459498105,-1.2361345123647065,-0.3268910887837495,1.4064786570904144,-0.8484618226205701,,
3.76616199999998,-89.4435947616492,-23.097409845090244,-160.0350780785556,-6.621278300200378,-2.736195528335948,2.482447909576972,-0.153056722663072,1.3509179150887412,-0.9249900236495546,,
3.775673999999981,-90.61195837086022,-25.71589258415309,-161.24527597598174,-6.441362935642099,-4.765092107745527,1.578505473934106,0.0255514117751642,0.5695946488115032,-0.2846236220065821,,
3.785192999999993,-93.04444912485124,-23.90101883109279,-160.09954549963143,-5.84323055260746,-2.639573586445347,1.5894720166537295,0.534452314380512,-0.1928951893010373,0.045020375179161,,
3.7946819999999946,-95.22382892617594,-18.74187177625233,-156.6309236417442,-4.092203800142238,-1.9218274992771351,0.245604525360137,0.7552128125367134,-0.8071086900513905,0.5378295445235876,,
3.804191000000003,-95.95663642957877,-11.899217537420297,-152.46539628760723,-1.8182305421701783,-3.131132096855518,-0.9746012055196274,0.7128487815599719,-1.1738226660674038,0.7767296697600778,,
3.813705999999996,-95.77814265986784,-4.854231738166842,-149.1586033066747,0.0260763604327424,-1.837729555978821,-1.8821729965472884,0.6527039654778353,-1.246951398368717,0.6332576146295735,,
3.8232289999999978,-95.95563617964108,1.272773770607613,-146.32056962385516,1.0277284010697405,0.413389464559639,-1.4114783788111465,0.6787588157976858,-1.0177967753772,0.5390753391486292,,
3.8422300000000007,-93.44020311937582,8.52226771462086,-141.21739031204,1.9958459192211164,1.010119435748217,-1.0795840373486394,0.0659868562855555,-0.6317040585095732,0.3886074977292852,,
3.8517319999999984,-92.2276121574758,9.893200232836048,-139.98938478730378,1.6075142562773463,1.338327171865242,-0.4149262417589291,-0.020136911994313,-0.36600167270593,0.197723896739436,,
3.8612750000000062,-90.96397482337618,10.913080132302587,-139.00363857552898,1.257015473640874,1.185394563833379,-0.0789183851926016,-0.0662070554239098,-0.3187506401377957,0.1557908624711982,,
3.880455999999981,-89.34151210705028,15.62838863424603,-135.21111394498084,1.5519681158221117,1.39098113384484,0.5081110786278057,0.3356751111150837,-0.5193186161137845,0.4334864524740813,,
3.908815000000004,-89.21583680448337,22.45621235710785,-130.23577392186115,4.243338642437127,5.57190477534843,1.2413494268967005,-0.0379184298952686,0.2428576873031307,0.0303033033323452,,
3.9183249999999816,-89.93119446994538,20.156378706474044,-131.37315731100895,2.025565390423105,2.024911403044723,-0.0264620343017609,-0.2712904532347566,0.3981881798330831,-0.1399572655515132,,
3.92783799999998,-91.17671312275898,17.966257950103817,-135.09455569015253,1.914335925669864,1.6644671924270595,-0.4444726071325851,-0.1678503268405383,0.468965557401857,-0.6318649182647795,,
3.946860999999984,-93.17984617332728,11.176975092410748,-139.9422960351421,1.1036127413504346,0.7668714459245976,-1.6350906267179537,-0.4043165398455412,0.699745592347469,-0.1527529748552808,,
3.9564609999999902,-94.58301921076134,5.877153913607624,-141.5582484478344,0.0656744224464873,-0.5323633168143111,-1.7896204192692402,-0.4617577306659201,0.9974809242428716,-0.2015804005287707,,
3.975375999999983,-96.24812712503424,-7.579001000127029,-146.32440865275487,-1.6002359995276214,-2.1182884481983453,-1.7527184428983669,-0.6831498979168245,1.232483545061826,-0.288099552431864,,
3.984888999999981,-97.57894680247466,-14.519238281730022,-148.0901579784481,-3.354116374284349,-4.134826322303016,-0.5646764066881114,-0.5290738979731522,1.3144739065225917,-0.2448872070389764,,
4.013437999999979,-97.95471090706104,-25.97273594877072,-154.5394609735646,-6.229912411058917,-3.883346670242736,2.158840209939841,-0.0578648366743106,0.2099885903107299,-0.0755705329668683,,
4.022953000000001,-97.49575279910712,-24.354621386580803,-154.07940833167748,-4.926283802804562,-2.6811725922842924,1.1285247373720606,0.0626642919121105,-0.3252683447106704,0.1541593875024749,,
4.041955999999999,-96.66131449910196,-15.992989036882776,-149.2203235043441,-2.3448824410732034,-2.8588443127202634,0.0240107057068074,0.3180227415939909,-0.9178760445577536,0.557214258002594,,
4.060991000000001,-94.60105479224238,-5.314605727947113,-144.61968169579612,0.0903370060050396,-0.1658866607716556,-0.927274105358554,0.4844828225309179,-0.951211937076256,0.453201535033966,,
4.080005,-92.60577191233396,2.8565444279991543,-141.04445485432342,1.5783154418979035,1.3338001289917705,-0.8845971776254121,0.2506201051066478,-0.6922846801569975,0.2401912870021583,,
4.08951399999998,-91.34285828727694,5.111542551635756,-140.65970422230876,1.6282355748490998,1.6190645019420358,-0.5703230720893778,0.0811431596428173,-0.5102590182955964,0.0404399131723739,,
4.099025999999981,-89.70445478281187,6.442698462036852,-140.78908616385615,1.3281031082274268,1.079139438609401,-0.4804015096160085,-0.0928614604998259,-0.4138588103537616,-0.0688906251126087,,
4.108540000000005,-88.10900204758985,7.412212854693525,-141.1101499531557,0.7633114559633926,0.7266710362866758,-0.3942855134069011,-0.1333511076020175,-0.3512722945671752,-0.1073932097046549,,
4.146573999999987,-82.71891081869786,16.077088190702177,-131.2521832403038,4.333206697377856,3.2678529614973,0.8599362939911159,0.2480868824949724,-0.5378237880794035,0.8070071175050249,,
4.156090000000006,-81.9917821983315,16.195825858380164,-128.6909389222243,5.665475376222128,5.540603792327945,0.5150364012650593,-0.0825011692974926,-0.1254299097968476,0.4802435447509955,,
4.175098999999989,-81.29461106992774,9.835703470052684,-129.50108754669102,1.469983569493215,1.82944920641595,0.1453291980250902,-0.5813533656639607,0.2041880743393307,-0.2147864208165782,,
4.184622999999988,-79.94636478836368,8.12265257442313,-132.90815306576383,2.613952944373158,1.413758694929627,-0.4625038046442914,-0.4442213777700664,0.0244785671933269,-0.7053035100958622,,
4.194134999999989,-79.86123254169522,5.712318294365193,-135.6035948902254,1.4018009179616215,1.725437155789474,-0.7606004749614592,-0.3677438387643298,0.3244337476810566,-0.5324552928061449,,
4.213144,-80.10671305838723,-2.4707461711238268,-139.3340435009932,0.0858674616609968,-1.1577992215432782,-1.1899593242385993,-0.568602927629569,0.7069535334051499,-0.4531757904474285,,
4.222673999999984,-80.70948506367671,-7.72245636745955,-143.31266163700107,-0.7679257500370218,-0.8378779118001888,-1.1632422879793225,-0.568656432650353,0.900384298265833,-0.7224848989023339,,
4.251180000000005,-83.15789339092531,-24.695329591707896,-157.85307061292244,-4.775730753730747,-4.900249055661996,1.510032748519388,-0.3193171580306839,0.9595544819560472,-1.265711116769365,,
4.260700999999983,-83.83290657839882,-27.87113929346887,-163.0118412572567,-7.070424415048416,-2.5804420531121885,1.877147655804712,-0.1006927938256253,0.6458036515425427,-1.049924535642183,,
4.270208999999994,-85.36697688894644,-29.184808385592227,-164.0187817282022,-7.111911090562359,-3.949047819817377,1.199250828192616,0.1821504631870464,0.3342611821611767,-0.3195222457178928,,
4.289234999999991,-88.9108087167591,-27.35034007989276,-157.84445827295605,-3.41507347104306,-1.6442013188959197,0.8779846764311967,0.4962161554246173,-0.2434129139302912,0.7478579104849691,,
4.317787999999979,-90.32242760613582,-12.498551680347886,-146.4120932544832,0.876033579086983,0.2445574206519547,-1.361575695213057,0.5894048988696173,-0.9166672884758836,0.5318347284019875,,
4.327276999999981,-89.90790113577405,-7.698023165141666,-143.02411550501154,1.3514216987947187,0.1344080775793102,-1.3421055414493306,0.482366283482078,-0.8302564506928098,0.6772089784082772,,
4.336781000000002,-88.86464279383607,-4.0802826971451855,-140.9240052351538,1.4201372326954602,0.461653240421856,-1.2658777196033144,0.2754158071149835,-0.6977880679774311,0.4281859715980026,,
4.3463059999999984,-87.53251450976221,-1.783560777606479,-140.21510804535723,1.2488158487988452,1.383305948185929,-0.8105517251383778,0.0784888355397022,-0.5239387096729413,0.1422927593084814,,
4.355800999999985,-85.53330540690597,-0.5459713209642029,-138.95194455523512,0.9995722408811678,1.2421954633771188,-0.5801517524628946,-0.152095486370319,-0.4480770051369688,0.2327136648198227,,
4.3653209999999945,-83.23653550613065,0.3318523077062588,-137.1643475684674,1.0735085476253323,0.4885806961308291,-0.4781685720656901,-0.2332045609695886,-0.4381948667178647,0.3375167228155268,,
4.384344999999996,-79.83455805640354,3.847267193877792,-132.98652783487626,2.026168830812188,2.2676540703637307,0.119182801879166,0.0777109638459202,-0.534925387231161,0.4678632724341495,,
4.393847999999991,-78.18518148577111,6.607915268517798,-129.03326225275225,3.616855742186647,3.604187083159813,0.5372430307159819,0.1916313695285226,-0.6120208754243748,0.7395527885897059,,
4.403356000000002,-76.50317669890809,8.114206314527932,-126.88421427894257,5.348493264157262,5.753559083831417,0.4754662047248288,0.0221182985255889,-0.45053279452652,0.368165425963452,,
4.412871999999993,-75.7383396784787,6.650210718620368,-127.2677793986127,4.017483005087106,5.0463870978427785,1.0596772830215968,-0.3361735953382242,0.0539146952735148,-0.1049606290417666,,
4.431893000000002,-70.5357756336982,4.386586797753609,-132.27132346245884,2.938674891092256,1.6573807831995533,-0.0108983370912737,-0.4971581012193922,-0.4543323425528898,-0.754916624628186,,
4.441389999999984,-68.77999426811279,3.926105215505726,-134.42824123578882,1.784566460003884,1.870365103242504,-0.41560813369515,-0.3184858136888511,-0.1914225172267443,-0.5077270747201401,,
4.450929000000002,-67.01188078083037,2.513365906669196,-135.36095130935297,0.0866002799590301,0.8021893464128187,-0.7280064967947073,-0.4610072944218108,-0.0499088913819266,-0.2348867641768994,,
4.460420999999997,-64.94374554776118,0.6115971429893248,-137.4806866099724,0.7074886792259854,-1.3440960946493306,-0.6406593181558496,-0.5735264875895604,-0.0079784544083546,-0.4605810010038145,,
4.469928999999979,-64.49595191532563,-2.446682678765816,-140.55092969674791,-0.94101362716549,-1.3836938217563004,-0.6929010172699214,-0.480211189176438,0.4066031979875553,-0.6127600951021092,,
4.4984549999999786,-65.19872298857476,-16.544151591758684,-149.92691009251016,-6.0175775813558605,-4.338605866438618,1.5302334153755142,-0.3835107030244578,0.831418256084376,-0.5517630141562032,,
4.507971999999995,-67.16389298453424,-20.036547165028384,-149.69335936126498,-5.10767942889092,-5.502710481774276,1.4967486720300622,-0.0345955029170704,0.7983503964788703,-0.0236395238586217,,
4.526996999999994,-71.32737669888107,-22.771576597038056,-145.6052071689798,-3.060898760477344,-3.378793435628041,0.8361871873884926,0.2672885207247842,0.3153041592206962,0.4010380650148991,,
4.536508999999995,-73.38612558874112,-21.269778318246853,-142.91655798528112,-2.016682489159796,-2.84814663901367,0.5561790655033746,0.478681123097723,-0.0161034154349763,0.3944775628513836,,
4.546019999999999,-74.66576646180549,-17.7760318250398,-140.44058799961715,-1.3332996093851,-1.9069219977225824,-0.484051774894313,0.6157196760747544,-0.3949614774522472,0.4132627386607092,,
4.565115999999989,-76.8822808037918,-7.451572934881218,-134.96940852009374,0.0667648395806384,-0.3843940383972365,-1.350720586227944,0.8722202338036696,-0.6788602003225348,0.4902444366229287,,
4.574657000000002,-76.99594023158895,-1.9606554154051032,-132.99473752747608,0.7121429617830515,0.4883022794994474,-1.6203814643913017,0.7985228221362858,-0.7451163429985889,0.3606153591317289,,
4.59357,-75.72310462046201,5.839800019056215,-130.5695550649382,1.2545986943851637,1.5148312405742062,-1.206721324459041,0.3464651583249024,-0.5617926314191838,0.1596658843244552,,
4.603087999999985,-74.23760799584522,7.666130751874429,-130.18029402332962,1.351301136108248,1.5631269307372009,-0.8335381181816326,0.0770371392282818,-0.4625007339204319,0.0087751870924473,,
4.612586999999991,-72.39409994893363,8.53742543878901,-130.2013290507525,1.6972707665095672,1.463721016489088,-0.4876054086205604,-0.1131884936004172,-0.3925533316731572,-0.0890549063951641,,
4.631604999999979,-69.16185496928775,9.192157497220272,-128.85879445974405,1.5662607891021023,2.416859203570896,0.3491698037693652,-0.1686946855975348,-0.2901911477952086,0.1463690265589873,,
4.6411310000000014,-67.1027998330644,9.831201531011924,-126.722522690815,2.35155765421214,2.812482864476088,0.7214062324502057,-0.1595103808240949,-0.4007873016783503,0.3403313803938576,,
4.650638999999984,-65.22975863998424,10.506244112028751,-124.30548519349936,4.183662459940326,5.3632575183662325,1.8754146450710047,-0.1160988776618753,-0.380372305143796,0.398721870702313,,
4.669280999999984,-64.95550012688253,6.683657977200918,-125.40035788610764,1.5241248930871527,3.074554034458362,0.6055529004342816,-0.4069655785119843,0.2984517950322787,-0.2233376493382558,,
4.679172999999992,-64.43452700561956,4.864149753557771,-126.61065661058537,2.0977887661844066,1.817484184609108,0.0317386276082409,-0.3675241563180214,0.1300262565375045,-0.2457051882629035,,
4.698199999999986,-65.20745859540533,1.0910496891987698,-127.61653159807744,0.836993740054392,1.070289025972688,-0.8758242057680057,-0.3065541163439939,0.2957222914631917,-0.0539093504692582,,
4.707702999999981,-65.86632499977912,-1.6299451795381918,-128.43473149746626,0.6427642660882821,0.1976064919547509,-1.2059982685243569,-0.358722212868927,0.4404970534244324,-0.1415860284130247,,
4.717290999999989,-67.04573764424225,-5.3535470783178205,-130.09389401105477,-0.1863277163018939,-0.3184980606737848,-1.3135027517381563,-0.4369725925597827,0.6568347037598584,-0.2800853785784711,,
4.736237999999986,-69.79542064620057,-15.004446403358134,-136.4545842231752,-1.6706022066039508,-3.839421382040445,-0.1258192687778317,-0.486196736510839,0.9355130380461162,-0.7685137279412766,,
4.745738999999986,-71.22869501220039,-19.55457307333115,-141.82513630991238,-3.407207717715198,-5.208251459729419,1.019933618356252,-0.3940770010388053,0.8743117603119197,-1.0839500588915825,,
4.755245000000002,-72.45688541266819,-22.994662931296443,-147.24894286669632,-5.716719396442495,-4.973302006492535,1.5987131464610131,-0.2182801600995987,0.7001389665757898,-1.1208323784613743,,
4.774272999999994,-77.15118996305489,-25.69298552382403,-149.7388324411274,-5.410481095887823,-2.991176585585011,1.248369962117983,0.292752335159516,0.3905507960729758,-0.201759017505486,,
4.783779999999979,-79.02612647914034,-25.446883619076072,-147.65804260425912,-3.620226651952071,-2.420721029603282,0.5884646011250764,0.3097529829552886,0.1387594589597114,0.2802495735385263,,
4.793286999999992,-81.54729124627097,-23.23858994040389,-143.8244038190274,-2.0909351570173262,-2.84678153593664,0.6102734590529649,0.6233978818347973,-0.10248729094103,0.5792222405046766,,
4.802815999999979,-82.74916557855767,-18.880110117261104,-140.81589717783453,-0.7026535817814958,-2.094357089383939,-0.6104781552293551,0.7051955278856632,-0.5497511871025921,0.5139222641202412,,
4.812400999999994,-83.85112159864782,-13.230999620891666,-138.3515885978718,0.1331675621180766,-0.0997343752720067,-1.5622999192340357,0.8885459032738655,-0.7204808974142609,0.4149387661990867,,
4.821822999999995,-84.7586225418969,-7.347891232190011,-135.5656396527,0.9104705337961672,0.7000130457494684,-1.659050046063071,0.9276404368063856,-0.7369735897484256,0.5084503434033479,,
4.831338999999986,-84.62412164902085,-2.0522130346253604,-133.52480638097208,1.5231956894239935,1.3052047915620484,-1.8761338269581085,0.7291069264798407,-0.7622660027585538,0.3926706967131913,,
4.850351999999987,-82.49257545227638,4.159875414190768,-132.452267209264,1.853852815585154,2.6206714418248382,-1.0930304964940472,0.1191884791981923,-0.5281461324901943,0.0366362470888332,,
4.859868000000006,-79.98366543170366,4.920351132122779,-131.7767413289485,1.9188033349617253,2.130571106317748,-0.819771100499379,-0.232269422334706,-0.4747533533635297,0.0695581025509855,,
4.878886999999992,-74.6039736732908,4.481346790076603,-130.3286266537181,1.6588696819849618,3.018355443664349,0.0366068550669151,-0.4200512680481922,-0.3674059870607915,0.1040482296713331,,
4.888402999999983,-70.68605808495367,4.052601969781765,-128.42685325814648,2.3440656644107944,3.196010447632767,0.0788438412387313,-0.5729453464188724,-0.5513700553683973,0.2979169602549413,,
4.897915999999981,-66.33392800949241,3.3545450335274167,-126.15508815064376,3.682792806593224,3.908182386728997,0.1429662801163816,-0.6484710726672449,-0.60853895478232,0.3671469882087342,,
4.907413999999989,-62.259321647742375,1.5512183017031151,-125.12205461103063,3.072655718418929,4.354692241648323,0.0224303976519806,-0.778458567035805,-0.4547700818595769,0.09940817990628,,
4.916938999999985,-57.54652824146872,-0.8808788530673922,-125.17557021815776,2.649222636416752,3.073260870240633,-0.3308217482801705,-0.9512569470197992,-0.494625380398649,-0.1033233812915939,,
4.935957000000002,-48.47091843141059,-5.824844502719766,-127.2180576739459,1.1248355147865876,0.9191440600213197,-0.6748220703618303,-0.9061163149273302,-0.3825738045513632,-0.3377500215840365,,
4.945629999999994,-44.76603199594899,-8.622059173695762,-128.8574390736167,-0.1135950867996001,-0.0522636563597665,-0.7384179503224875,-0.9056584756309288,-0.2373144551093468,-0.3634098199929635,,
4.954981000000004,-41.67774161950493,-11.857281246609226,-130.4629676111735,-1.1801764272286508,-1.734210327447058,0.0176487226772658,-0.8992933301724482,-0.0553963101535236,-0.2947000886686848,,
4.9644779999999855,-39.76391185977265,-14.520269676219902,-132.2931511649774,-2.2483812360015443,-2.7395859323644016,0.7616644451367456,-0.6593127233683892,0.0744805493320457,-0.3355063931481788,,
4.983508999999998,-38.74318955337611,-18.256990987956,-134.33819887744363,-3.922288870476261,-5.577839674552849,2.6005140419305777,-0.25251021213308,0.1946125561543503,-0.1772419555437338,,
4.993011999999993,-39.82568798801727,-19.46449184495492,-134.89523264228512,-4.26237351630536,-5.150395102245333,1.960874101425325,-0.0402577105365512,0.3203952389322668,-0.1974676049197,,
5.0025229999999965,-40.81995132828687,-21.285545216531567,-135.3070096500867,-3.736396242755719,-4.352949750135351,1.580136091847195,-0.1370847078713402,0.3947609669958884,-0.159584857996344,,
5.021726000000001,-41.42029422997396,-23.477476431931407,-135.89096017500728,-1.8928368714577744,-3.08875034308488,1.467367690083617,-0.007866754039227,0.1614974471076325,-0.0521822991216254,,
5.059582000000006,-47.39446359986647,-11.263501755841627,-126.36074280488306,0.529301822851992,0.3234796834563625,-1.1956833349873248,0.7745389601838683,-0.3222170038554543,0.5028233192091676,,
5.069096000000002,-47.39242038805658,-7.388840891154716,-124.61163738322747,1.236572345492964,1.2046062318874828,-1.4398708567801226,0.6195213141072279,-0.4482962216686378,0.3232275563011454,,
5.097629999999981,-44.18492225542526,-3.348505071691574,-125.25028014916212,1.4255919397122128,1.9127691665488784,-0.4353624903019297,-0.1251834934860418,-0.2990366381956056,-0.2718309942972064,,
5.107130999999981,-42.294913367635225,-3.5657822052214527,-126.41896670374604,1.528416729952024,2.351443541640837,-0.4172159756816389,-0.2687020676425433,-0.2796833597281139,-0.2699325094744568,,
5.116649999999993,-40.54558910271311,-4.376176958744234,-126.62828423567142,1.5988029187777393,2.8591135371917376,-0.2286139854000272,-0.3510522975718639,-0.1830543795412554,-0.064393257777908,,
5.126162999999991,-38.792775927645,-5.256117569154423,-125.55057077637449,1.7112958204827196,3.4931832512802155,0.0959651518580486,-0.3613204431631845,-0.1775944840002051,0.2150597945975199,,
5.135670000000005,-36.75814289154852,-5.68446260076784,-123.60117381882168,3.1945512631007587,5.60819305325435,0.4204305137847207,-0.3136119995646325,-0.2844338239590527,0.3918470191368454,,
5.154687999999993,-33.198299403584926,-7.835221969503392,-121.45168683189476,1.5996618069267263,3.2005309125659256,-0.4573793517517222,-0.409951347916235,-0.185246986674141,0.2173671648991881,,
5.1641970000000015,-31.155808872100653,-8.643182778503995,-120.7990713604107,1.431826444844992,2.4006804242820325,-0.8704198797710627,-0.360733110207569,-0.2627635824436113,0.1467591418270633,,
5.183232000000004,-28.46100290351277,-12.604103888711286,-121.33356132947456,-0.4599402602960162,-0.1798601680458405,-1.1443367941654763,-0.5804057799004607,0.0874769298261499,-0.0986066915378073,,
5.192733000000004,-27.662711033365326,-15.7489577960455,-122.82823108494082,-1.2805473137307632,-1.8138454449078432,-0.2300063427172881,-0.6295408400736306,0.2038833220864068,-0.2801962129920565,,
5.2022560000000055,-27.26863512131565,-18.36036964765968,-125.34838196805072,-1.939231567923628,-2.816116210467542,0.4472875857243868,-0.4889400968522702,0.2321780049471233,-0.5008146504643948,,
5.211753999999985,-27.369263660206503,-20.91764813456232,-128.2383728674269,-2.7823372082418425,-4.173175850886847,1.3592972691667868,-0.4121298461185855,0.3244179623822251,-0.5996433357547105,,
5.230774999999994,-29.78050143887397,-24.39794683622356,-134.3384444498567,-4.340943798780482,-5.621165091502859,2.556501550271216,-0.0621679944972745,0.4243661405026763,-0.7058135223848618,,
5.240465,-31.826839053825424,-26.57444462229505,-136.02395782863272,-3.4828826870749627,-5.33953941670099,3.086024453365719,-0.0571137309892345,0.5748458796169885,-0.5186470552745245,,
5.259484999999984,-36.84078170545899,-28.32610749741004,-136.24429130617978,-2.0048253743317246,-2.716283024549016,1.0342037871085117,0.254882877493791,0.3753921626687206,-0.0975343890845074,,
5.269007999999985,-40.564735694579205,-27.57021997472985,-133.90236401448993,-0.9239480275593888,-2.1600302632561323,0.6269834241263073,0.5617447791640119,0.3630020323269298,0.1251986658204461,,
5.278328999999985,-44.98053277116141,-24.883827501910847,-130.79257023517613,-0.5929670899452367,-1.1651999122480834,-0.5019211950196361,0.920364854545609,0.2277245935266824,0.2526947970201132,,
5.287932999999981,-48.973250605329845,-20.75287135924226,-127.41317746439964,0.2176986318702226,-0.3465283126098816,-1.310540093384461,1.0950006803156904,0.0530456320140256,0.3869557991338182,,
5.316377999999986,-54.01604630742756,-8.510437983055631,-121.83908494819622,1.319869472706789,1.0387313204526654,-1.7553209977528053,0.5653587299334946,-0.3413597496573951,0.1118531798335643,,
5.325876999999991,-53.18455617679933,-6.814358721278604,-122.03691105536316,1.2999536333474606,1.0030086037613388,-1.3738169761668424,0.1891147711635016,-0.3186991780199768,-0.0379579242824168,,
5.335387999999995,-51.6826459960318,-6.402727241067164,-122.78514787806036,0.8700261697434568,1.116087305728209,-0.9425734446673812,-0.1023943405597281,-0.2955926237583284,-0.1435574561438983,,
5.344910999999996,-49.16206888707893,-6.424165372664405,-123.63038544307916,0.859771255594821,1.5312383706056978,-0.7717756250613386,-0.2900264931950954,-0.4165897599895907,-0.1478643226357876,,
5.354412999999994,-46.52180116580935,-6.481752672575088,-123.63944910221828,1.2906706396178331,2.25003915459138,-0.4581158166538281,-0.3124372236512551,-0.4302956670629839,0.018359219449506,,
5.363927999999987,-44.28918871210654,-6.374120749166048,-122.15348053566755,1.1664128186804794,3.4424928769185392,-0.2106114179943087,-0.2355495785549227,-0.3840561966663736,0.3198159586992313,,
5.373439999999988,-41.4028050742926,-5.7292319157656,-119.7372754587946,3.2733999250803105,5.934857899946462,1.167382863696708,-0.1971513113434832,-0.5591901136400393,0.5144373294407266,,
5.392459000000002,-38.13351839963736,-6.057730652272157,-120.68535834415918,1.2246360139279375,2.746933842080356,0.353895095880933,-0.2102512738268503,-0.238892264594497,-0.1088706315229791,,
5.4019619999999975,-36.51675159165851,-5.326443219272668,-120.48507659953958,0.7727484961054104,2.620744449255945,-0.6853205700304875,-0.0508215214738571,-0.3512531645098362,0.0447310649622841,,
5.411480999999981,-34.77626942794158,-5.701664928327408,-119.13979881043048,0.4710598835260168,1.4934937081947075,-0.8694592058433411,-0.2508590352441974,-0.2635826590709364,0.2806007663039596,,
5.420985000000002,-33.30835559557939,-7.601003339108554,-117.50895341057596,0.2699210748964996,0.3827231288940048,-1.0545506501641038,-0.48673844494061,-0.076986598767295,0.3438621948427325,,
5.430504999999982,-32.678800767997856,-10.300260916058315,-116.97776911368015,-0.2414883728277382,-0.6725349415971409,-0.7223383288054768,-0.5510626420655593,0.1363740005824563,0.1172849009129395,,
5.440008000000006,-32.328923223717766,-13.367441955129394,-118.13379231277118,-0.8415007955874755,-1.4795739778462371,-0.6682635084327679,-0.5896999696383278,0.22343748454546,-0.2228281661701291,,
5.459029999999984,-32.22912180448037,-19.820701689335955,-125.15359103573036,-2.579790676246165,-5.5154090870469386,2.464515037382771,-0.4876017327774432,0.3360144556856925,-0.8830883174075375,,
5.478048000000001,-33.254468921103275,-22.61525533852709,-133.6668477947798,-4.480845013279686,-5.667386938991122,2.519352808713645,-0.1211190878504575,0.3237203308450964,-0.7383115411509886,,
5.487561999999997,-35.7459313895196,-23.5730212636802,-133.91169329881836,-3.7129313317271575,-5.15777581608111,2.619534049655584,0.1667554882986955,0.4686086286458876,-0.2525113103674418,,
5.497063999999995,-39.07904487012107,-23.079271894860025,-132.13303376591062,-2.3867139990434283,-3.5064535396764605,0.5734932402382749,0.4785298362002436,0.3846230932297617,0.107469542425098,,
5.506576999999993,-42.48786473829938,-21.663581025840728,-129.20778247553793,-1.1359056848564406,-1.943899662198092,-0.1236228411390536,0.6146896011544293,0.2968322743881375,0.3623122529383921,,
5.525677000000002,-47.59749400000055,-15.785448874499115,-123.3244865447582,0.6467768495198818,-0.178289125951093,-1.469285715149953,0.7969903904283934,0.0173133420649294,0.4309577070611912,,
5.544623000000001,-49.5454605767323,-9.187313975052977,-120.08446447038496,1.1917435941367651,1.3072242186075729,-1.7760346113251129,0.5263089167277107,-0.3217481326867081,0.2353005762245635,,
5.554132999999979,-48.70256689682216,-6.6527711685937145,-120.0342845739446,1.711453935359185,1.3022317303808428,-1.1825064706485486,0.3433412386939355,-0.3980555888199038,0.0127064657811877,,
5.563647000000003,-47.23191400759295,-4.792853677102202,-120.93568669233802,0.9652513069098996,1.6767024694495551,-1.0113290347328323,0.1601644364934708,-0.4406452908352797,-0.1819789512475067,,
5.582674999999995,-41.60686816761184,-2.7872630360027566,-122.82845420014688,1.1698043109600258,1.554342742088344,-0.2192363314874987,-0.1779471700480334,-0.5538370278435509,-0.1703396145524897,,
5.592175999999995,-39.13984301617501,-2.2622998213064625,-122.64749926400724,0.4099186021108916,2.66156595777326,-0.5111803012981841,-0.1905530899103084,-0.4714738828069212,-0.0010346440746086,,
5.611200999999994,-31.97211716841017,-2.341150302279963,-118.50580515368614,2.20434538811106,3.6642553287447033,0.3845399968158778,-0.4134379796382967,-0.5940465895030973,0.4967553480562616,,
5.620702999999992,-28.53260259012428,-2.8381527549444803,-115.79184511462144,1.975443099789069,4.452835464089596,-0.1549328903985298,-0.4152127844103851,-0.5681167907186684,0.5355414262007221,,
5.649243999999982,-15.166446500454894,-6.771321856669759,-114.3158274052512,1.1025461902268745,1.7053391512011746,-0.7634755022876708,-0.6621237683469615,-0.6671035607006071,-0.2883606835406585,,
5.658931999999993,-10.927522107875806,-8.667553103365247,-117.09219662815818,0.1812317903665768,0.1442428740956361,-0.7770887034703354,-0.7171979921906515,-0.5979192706608237,-0.5670188388064222,,
5.6777720000000045,-4.659509924559236,-13.8525097959469,-123.35654513458763,-2.558755515701137,-2.8779710328407497,0.3597214166984233,-0.7234579744844142,-0.1884401340140834,-0.5547469561598709,,
5.687284000000005,-3.1173194187096995,-15.801979533551796,-124.90004254719616,-3.126115594356736,-3.5279520601536865,0.6893801896691327,-0.5040650990970126,-0.0284493312310138,-0.2589913936293967,,
5.696800999999994,-3.125963615272516,-18.16802669400416,-124.31983423304442,-3.480982415538751,-4.629465230886319,1.4607972783787848,-0.4024600435807543,0.2705817393797402,0.1207033603848293,,
5.7158179999999845,-7.146501041914994,-21.43776166858237,-120.16870208220078,-2.6180378188652766,-4.764560506014805,1.4199524415805556,-0.0122331324195243,0.4797990727591079,0.309521667093846,,
5.725504999999998,-7.992405991563249,-22.786147007863224,-118.95847883462211,-1.6864718468718312,-4.0335042713037,1.7528574849622254,-0.1706794176563346,0.2690594418633334,0.2161173525843031,,
5.753874999999994,-12.667544013588696,-22.070412250084445,-119.95820262321524,-0.4261795660983588,-0.9779837490813864,-0.6009408575468878,0.2793921966088403,0.0874317707623165,-0.2335391720321743,,
5.763550999999978,-13.962208618395982,-20.838587795865887,-120.44514146975143,0.1262067748753539,-0.3875734252877808,-0.2632732642784871,0.3207463864033859,0.0844720698743956,-0.1921550445722695,,
5.782322999999991,-16.34832950744826,-15.433022347532642,-120.2123852408875,0.593502665621556,0.8435327975095241,-0.5978211385539076,0.6017145565547041,-0.1793903471356619,0.0265783327089528,,
5.7920839999999885,-16.76793035827708,-12.324410669230335,-119.39353314151552,0.7818344227261574,0.9508360376475375,-0.2599555093533984,0.5668610387416738,-0.2385910357366074,0.1434375986054067,,
5.801402999999993,-16.690802060368824,-8.89121103847296,-118.55594538831257,0.7801929229496033,1.293847848706308,-0.2900512021581767,0.5804938539178917,-0.3460668333837997,0.1539710405506149,,
5.82043299999998,-15.147661183664844,-2.8722234361530523,-117.9007285706286,1.2699210365739242,2.24383690762875,-0.1952239042822317,0.3727404790515948,-0.3600789834677569,0.0053418678618492,,
5.829935000000006,-14.482536308760505,-1.384540428472111,-118.17983114486027,1.0723111422930929,2.6951932187934458,-0.1970182250287778,0.1870487838955463,-0.2574312259312326,-0.0820836712253874,,
5.839438999999999,-13.388773915126556,-0.5963544993798374,-118.79944114408464,1.20478112611136,3.12048691094582,-0.2033273511369586,0.0209368651896858,-0.2677423879750188,-0.1439456099447054,,
5.848962,-12.141690831933854,-0.761376838768618,-119.41365367132136,1.408143018530046,3.4162946989773846,0.1443491964840192,-0.1637024336504103,-0.2021169729251244,-0.1378694258670767,,
5.858463999999998,-11.009639260415378,-1.868481724622215,-119.72652284738126,0.9915015770080822,3.2579741338513952,0.2042211943179154,-0.3180760640292736,-0.0877734312463043,-0.0694293468962435,,
5.867986999999999,-9.61882828618056,-3.1357437580149745,-119.5927571375632,0.7598688824104947,2.9484162698012346,-0.1555808186804928,-0.3716177571099865,-0.1162861364449729,0.0360626462743651,,
5.896507999999983,-7.087981426744626,-8.60788665185233,-116.73975668087796,-0.1246823317729724,0.685866677197843,-0.8961336830254021,-0.4437533268566324,0.1295581127566328,0.2660907692146636,,
5.906029999999987,-7.006391068924899,-11.035818489711652,-115.68764062827276,-0.4495660769867867,-0.2155581071936921,-0.9952850013916664,-0.4564181671687851,0.1995052432550495,0.2456935670874443,,
5.925053999999989,-7.434159323731381,-15.791503199577413,-114.62861079920124,-1.190725436750388,-2.376124823488675,-0.2030556472829783,-0.3870133452394921,0.2311161032726238,0.0790769869356213,,
5.934564999999992,-7.932251571177124,-17.11583786895465,-114.87758193871797,-1.686220634377119,-3.6323193811346064,0.4479162086165505,-0.2140798348810473,0.1963608631124444,-0.0512300849724047,,
5.963084999999978,-9.486967375145651,-16.764675293116824,-119.58325329279184,-2.904325801016884,-5.332019311687563,1.24784918048255,0.0150508247358887,-0.0200590428619798,-0.4383277152511974,,
5.991632999999979,-9.321038607054838,-16.39974130134242,-123.55794254421944,-1.0078836501776829,-1.5187314629484818,0.0004704195830223,0.0819384833698371,-0.0614772048550088,-0.0904825976061405,,
6.001122999999978,-9.900716105568742,-15.469235246946887,-122.93038155058164,-0.385118070544617,-0.4789472305726566,-0.7628813636739571,0.203291549967279,-0.0084537122128549,0.0924643568149624,,
6.020164999999992,-11.344377245100674,-11.67713720514809,-119.8749569576925,0.822316307404473,1.075159525602129,-0.9388655942372152,0.4115222265036184,-0.1311166461350519,0.3093968067734798,,
6.029665999999992,-11.757524203932622,-9.10211449165326,-118.50043395135089,0.9704377863184426,1.2781046317436418,-0.614010074350205,0.476141419019346,-0.1808469763777923,0.2585096807010555,,
6.039174000000003,-11.700707148453436,-6.000445651730696,-117.84508548072289,0.9985014384930015,1.3789043339000933,-0.473758101970849,0.5285211594552337,-0.3036659688854804,0.1305675167848619,,
6.058191999999991,-10.880591855774853,-0.4591418119375376,-118.56850523427316,1.0209538702304035,1.677709762757687,-0.3490601118327138,0.3806559176511049,-0.292868215690124,-0.153670211447179,,
6.067711000000003,-10.625380925173292,1.101313141018077,-119.44131984800948,0.9384580629816957,2.2458651904859552,-0.5732288164576569,0.2352623936309175,-0.1958333168702092,-0.2008692406929478,,
6.096232999999984,-8.837953239382509,-0.816465841127913,-119.5160374016576,1.561885094726594,4.2568199451621975,0.6710441884404644,-0.3666514573039978,0.0215651036642255,0.1417637059940232,,
6.105743999999987,-7.91415519201169,-2.4260429218663297,-118.29541253552128,1.8190129206458376,4.567710487347596,0.3442203387161521,-0.3848672745389894,-0.006138333244778,0.2687713562553939,,
6.124767999999989,-6.282865497326811,-5.760280629051193,-116.0503637937136,1.23361714515858,2.8881120908521725,-0.5030092871381485,-0.3773940773434524,-0.0090770169681372,0.2049627746900936,,
6.134282999999982,-5.721679186952315,-7.060885965570844,-116.05479604340528,0.6612963018329453,1.6679733277016928,-1.0931901458508957,-0.2963187633612132,0.0129352549979644,0.020679176082411,,
6.153296999999981,-5.020798962810396,-11.775153238322986,-118.60743629836672,-0.9772019220313688,-1.5031289535981889,-0.7761056107590957,-0.5438447343568231,0.2051189659630564,-0.3023803534105121,,
6.162802999999997,-5.035088026556531,-14.17749585960424,-120.61449058267571,-1.5745651856870553,-2.525958414977578,-0.052792721941383,-0.4301831108395337,0.2398695360150997,-0.3872921106664814,,
6.172325000000001,-5.390869339188132,-16.26596075962839,-122.5685832278686,-1.945724713576508,-3.1541037994416903,0.1763116986774537,-0.3336018892821284,0.2777209958718081,-0.3955329781989277,,
6.181827999999996,-6.339074601855257,-18.834405412648067,-124.16294363766438,-2.397070121602484,-4.275919532065842,1.4070519427038093,-0.3432877820124219,0.4345475505329403,-0.3607512670981431,,
6.200844999999987,-10.963436519640398,-21.45744112706294,-127.11128255875158,-2.7846001896315307,-5.246878457101373,1.762525717831835,0.1165627909845243,0.5071060055455001,-0.4588190054126481,,
6.210543000000001,-13.56411368438154,-23.21060744743517,-128.80011223934568,-2.7912382852081947,-4.684378825055664,2.16747186945064,0.0067780405491672,0.5976557809294529,-0.5018985873846663,,
6.220065000000005,-15.82493789404063,-24.589175809935504,-130.3090550600685,-2.2487621976117484,-3.735203909138172,1.8724951070427631,0.037971702598483,0.4973662197286716,-0.4520237189925609,,
6.267507999999992,-30.376278822249137,-18.50117186388037,-123.08004823423916,0.4355261041178506,0.5430840196489651,-1.416410242014142,0.7914547411434614,-0.0321909372311129,0.4323700145855956,,
6.276940999999994,-30.740324933353783,-14.555802618930027,-120.6355039716468,1.2076149373480063,0.8323998748412584,-1.0794660301556145,0.6942505807060139,-0.3570127808366934,0.4826549651314443,,
6.305470999999983,-23.91885819213179,-5.587145036693899,-118.47265474816184,1.892600318605615,2.40111920326972,-0.0713157172624109,-0.0047193635866913,-0.8049703228677538,-0.0036661227742815,,
6.314980999999989,-20.190429911353345,-4.449537045516905,-119.32894080391142,1.589385625385022,3.180611976981983,-0.2727671820668661,-0.1712894927617901,-0.7614764202006267,-0.1832065341670662,,
6.324489999999997,-15.647456310379976,-4.118583543552057,-120.40596011327136,1.9347428527672648,3.5815712181662325,0.3345549669188619,-0.4050293458568499,-0.8206952208994086,-0.2312251420246189,,
6.334007999999983,-10.96353161503875,-4.285179021572055,-121.31114926434309,1.8817548278073404,3.798442041428392,0.8567485208956971,-0.5190819410847882,-0.7872872151132552,-0.1970704718533581,,
6.3435130000000015,-6.369326502582567,-4.5588371789467015,-121.78507403904293,1.403151442723947,3.868857536804935,0.3748956307704398,-0.5379220688883453,-0.7540498723150356,-0.0866035192136332,,
6.353014999999999,-1.5083481382174106,-5.247802420290448,-121.56252430713042,1.1213212199001716,3.152635719790219,0.2418390781917246,-0.6379845482832742,-0.7543656705395126,0.0739684885039509,,
6.372062,6.620990306288761,-8.149108812874536,-120.19797780516072,-0.0792854276277742,1.0936300699815549,-0.8039065447621284,-0.6821606451192755,-0.469550273162936,0.2343603026777746,,
6.381554999999992,10.138473880595209,-10.596077255151348,-119.34674129066136,-0.4403306658130834,0.0748648139432428,-0.8047396017879542,-0.7822134116061042,-0.3627612628005994,0.2534233401678528,,
6.391069999999985,13.042281482033664,-13.682138124114102,-118.80317717674072,-0.8688301419020698,-0.8114936104515033,-0.6663452032587425,-0.8285027768706003,-0.1989237676942677,0.2324559564784502,,
6.400569999999988,15.20491138441398,-16.794478380598818,-118.3881754063069,-1.3537830357197718,-1.6664460933122032,-0.8678695166078241,-0.7593732172990649,-0.0704814335122391,0.2306306710491113,,
6.410095999999982,16.97165781937947,-19.58829442517554,-117.6400833463468,-1.6723610647041012,-2.4849719210819767,-0.599410553619731,-0.6638148411878779,-0.0367269791189184,0.2894142759212247,,
6.419606999999985,17.97740794560323,-21.802008878078688,-116.25831572089444,-2.074979163966826,-3.2447655117738576,0.4596736298987532,-0.4924448148531244,0.0290417763547816,0.3620325201917435,,
6.438612000000006,16.882302279162943,-23.32450556628252,-112.72754685643392,-2.3382625863676987,-5.821258119441543,0.8187774792683661,0.0230601174083532,0.167366841332243,0.3181180263810277,,
6.448128999999994,16.80241346366416,-23.61746471435276,-113.442297294756,-2.615637834444061,-5.258767726944643,2.097190264579745,-0.060114520728011,0.0316532621959429,-0.1286163005811225,,
6.457641999999993,17.673739177157852,-23.346288587710248,-116.4479430509827,-2.708419266638149,-4.01690567707486,1.374193116177144,-0.0301759300275101,-0.1723583614119781,-0.5608013510844647,,
6.46714799999998,18.58441213470383,-22.544105320943537,-120.10525070205388,-1.755540607614262,-2.543121635374774,0.4333590373423345,0.0498829847665276,-0.2275503432604258,-0.6863863625760004,,
6.476660999999979,18.164935871782333,-21.724978635802337,-123.52254624787076,-1.5147411778320568,-1.4122669813829674,-0.4551628971451879,0.1679956855772803,-0.0231127747409852,-0.7211132226715636,,
6.486187999999999,17.32432919160249,-20.24355120058668,-125.68106858925192,-0.8623599146542761,-0.2341886819380949,-1.272614994412366,0.3208832759954621,-0.0413788376547317,-0.4827248245543781,,
6.514704999999992,11.640980984605903,-13.36653552999015,-123.46990772809262,0.3911867288125505,1.0664034696281883,-0.4636001709305963,0.6561803774924406,0.0382650367317512,0.2879899378393203,,
6.524385999999993,9.48790472160381,-9.75256355364042,-121.23273132113763,0.6828991555384982,0.987752215864438,-0.1938588503275267,0.8247671910532957,-0.0326561788865387,0.3829747950277206,,
6.5432480000000055,5.7290147295247165,-3.3976194993456983,-118.80646615640346,1.2637571929402227,1.386466358840008,-0.3428817395905845,0.6408321353328467,0.0340587301799493,0.1308563919081274,,
6.552750000000003,4.0476150577255785,-1.375344089604001,-119.10966338926389,1.6911856464153328,2.265556158061544,-0.7172351496643127,0.504717640146702,0.0970627905325824,-0.0570159618188048,,
6.581277,2.525363127484236,-2.1669108653378104,-121.2806467514144,2.800165855861837,5.104673736675817,0.2474912968353456,-0.1618210347944522,0.0452733879602344,-0.0246439320222682,,
6.590791999999993,3.7126600727345926,-2.485875066522248,-120.061110683116,2.448540155366892,4.905375306594558,0.5217230446004212,-0.1887649945250749,-0.172216502456295,0.2588103809171583,,
6.609825999999998,6.33983351313459,-3.851122571665445,-116.13486701741935,0.9534961819659004,2.2939728592565984,-0.9939030937369387,-0.2675229889806557,-0.1546160185927894,0.4146147324725502,,
6.619344999999981,8.339381470350935,-5.721965092115814,-114.5053891710489,0.4898899575854282,0.7339455464076525,-1.0562936916750012,-0.5213894010210708,-0.2028182157074667,0.3536000632763784,,
6.62882399999998,10.233943912829073,-8.875417720719192,-113.72778907363625,-0.2204389334043063,-0.6873181773143646,-1.1013385861251963,-0.74212599290356,-0.0880140325191077,0.2114828555764424,,
6.638330999999994,12.09973528440318,-12.329511972548518,-113.72439324567004,-1.0207218094877148,-1.8698423172416123,-1.0401704351665102,-0.7929486964089774,-0.0604217224938561,0.0917429657267624,,
6.647843999999992,14.251659724386911,-15.290774515457995,-114.06919215980496,-1.510740973255262,-2.609328914215797,-0.4719807747222797,-0.723575206629173,-0.1457574872294294,0.0434009350674864,,
6.657370999999984,16.231545572311695,-17.846983446089435,-114.6548320058876,-2.246431672412249,-3.5293711540301413,0.0762473125894727,-0.6348747710989279,-0.1389026333396865,-0.000470520263685,,
6.666873999999979,18.111221529569463,-19.75305150556064,-115.13531515165089,-3.166470272253356,-4.929979139433288,1.2228083282266953,-0.507923891738423,-0.1669161846752045,0.0195145597761598,,
6.685895999999985,19.855885048439664,-21.526718877798807,-116.43724958810331,-4.107929777171189,-5.819625048469078,2.2505477977660497,-0.24228891399307,0.0056883874916631,-0.1861261934487707,,
6.695397999999983,19.450530280946168,-22.169715875816674,-117.9819409163242,-3.0370105468579327,-4.123589496909524,1.667824496813286,-0.091931817519507,0.1217857659620981,-0.3273883678691969,,
6.714600999999988,17.373823060093486,-22.650308776358376,-121.63706931151503,-1.318791642421277,-1.5129407643755912,0.9512343745119164,0.1037162739450582,0.2266824234073957,-0.4488189961394245,,
6.7239549999999895,14.980974696381749,-21.854302756733507,-122.887020020094,-0.7042134402763978,-0.7302447012445078,-0.8250522001828882,0.3590547026046387,0.2870755564705915,-0.4164157056921052,,
6.733606999999978,12.90063456244491,-20.53517928066119,-123.46252166237504,0.1054259157936249,0.1578681553199286,-0.7415651093132325,0.4209150140804558,0.1781611523689762,-0.2518139010835132,,
6.752465999999998,7.8581956808107325,-16.82298561315943,-122.56614758796012,0.1479597562583809,0.4687520440733973,-1.115349337325424,0.604362038449119,0.1686832357764604,0.0297256348096042,,
6.76217299999999,6.381981744988623,-14.085771375658227,-121.13299476582922,0.54442752748963,0.352583476955893,-0.2514682792729857,0.6028847810398841,-0.0492349495732429,0.2274270166153232,,
6.771657000000005,4.96330244983274,-11.227552570416623,-119.544931374783,0.4934892610720115,0.1364084432372203,-0.3768590379489041,0.6209800475708167,-0.0518630294526283,0.2717698661979432,,
6.781182000000001,4.133987335620755,-8.67382791376209,-118.15798175318898,0.4812453032692689,0.1580493954658732,-0.520057626529144,0.5138810862062803,-0.1054500494892762,0.2646068676736805,,
6.790515999999997,3.9828859114637503,-6.534188529280377,-117.21227155021056,0.9973389009200072,0.6604562607021687,-0.336258078917624,0.3804909804496298,-0.1742712525241019,0.1940799083270193,,
6.800020999999987,3.786759975165123,-5.0828880505227305,-116.89318322024045,1.3906740454805742,1.751373984673032,-0.7845841311415128,0.2638939959390367,-0.0989015198888688,0.0586019726356189,,
6.819041999999996,4.762530198639866,-4.817689294513268,-117.98537758020808,2.6572534261380443,4.657928722059028,0.2268734761745608,-0.1277315134508282,-0.0975288991047288,-0.1545623208318269,,
6.828549999999979,6.035994588381651,-4.834956791820203,-119.22621683095473,3.896404887379159,6.378836933659624,0.7363038066775849,-0.1371747971275539,-0.222503104154554,-0.2326620482121987,,
6.838049999999981,7.797099231510719,-4.162899742195682,-120.31495479074847,1.9961678216158465,5.198699500959082,0.4715211067198869,-0.0697319228233625,-0.3729181797767571,-0.2173250781518408,,
6.8570880000000045,12.925826634378415,-3.5669163667841324,-120.81519010093892,0.9511779263332848,2.458228025396193,0.0774860083703453,-0.2573290600598223,-0.3996854283159698,-0.0169918436535454,,
6.866602,14.627198556576422,-5.746110997002165,-121.05872898084402,-0.1848415751417187,0.7350839830488027,-1.2122659950310624,-0.5605207388615425,-0.0683916490072104,-0.0281430182672629,,
6.876130999999987,16.798198567772154,-9.46118343772396,-121.2595036044354,-0.7832082808924271,-0.5699340807781488,-0.656432884636271,-0.8711577883628703,0.01469173730308,0.026837187801018,,
6.89513199999999,19.46378163040203,-18.58802990823765,-121.39633987606402,-1.322755911156803,-1.5921668240031726,-0.7980618170136903,-0.9582007204292676,0.3297763320870167,0.0833104688676882,,
6.904625999999979,20.39982518213049,-23.29165718970225,-121.19230167164768,-1.4352410745216293,-2.028454976012592,0.0057491620847719,-0.907104542328012,0.3377949123381639,0.1513831227269825,,
6.91413799999998,20.22445911634301,-26.554139054546905,-120.0675841588639,-1.8037774668889992,-2.8491856122048103,0.4792511361754568,-0.5577660809014393,0.3565765778029424,0.2266958426745665,,
6.923675000000003,19.155162891475378,-27.940457154932623,-118.09636379580814,-2.2800758210353984,-3.974172830792932,1.53745823863435,-0.1618248442517172,0.2969803462843495,0.3283671817248758,,
6.933166999999997,17.151702345881954,-27.50595882807196,-115.78294874663,-2.626177334983051,-6.004627659379016,2.507624871691373,0.226586061111175,0.2720778211185413,0.3052428541870962,,
6.942686999999978,15.632966367443052,-26.85118766100452,-115.06096273578288,-3.0370916179098058,-6.555693067062735,2.4238141716238264,0.2225401289198697,0.1829913907584869,0.0407881516069048,,
6.952187999999978,15.454010767812228,-26.636973341040203,-116.39122141883212,-2.680466494547129,-5.603876363615709,2.152530833067116,0.0401182749093416,0.0058597326878545,-0.2734373724830557,,
6.97138799999999,16.326722375966106,-26.89696741363477,-120.20960134577628,-1.08463227155607,-1.6165648863341509,0.2983111573155248,-0.0717771391687189,-0.0754270193216317,-0.3198563269085319,,
6.980715000000004,16.23738836370282,-25.947494002091915,-120.9417348940379,-0.4401062748028231,-0.3701858152543141,-1.0184230776845118,0.1592574084342682,-0.0861572412908951,-0.1769376823926511,,
6.999743999999993,15.563677305528264,-21.709424586126826,-119.70712253679947,0.5868443858648705,1.6974406654864815,-1.3389607126961034,0.4186275121115905,-0.1732574325483357,0.1564216269633925,,
7.009251000000006,15.11307620405198,-18.85201916409438,-118.41370681795316,0.3319682429472898,1.716697790572219,-0.7192642828401806,0.5289170547668411,-0.2071954022406349,0.2223443676252976,,
7.01875099999998,14.916683005280705,-15.024086900545706,-117.07590265818205,0.3332142948731771,1.7149420217864682,-0.3029303466743522,0.6837857066257451,-0.3267243144445125,0.2504628631989657,,
7.037970000000001,14.320013632479084,-8.340686723434649,-117.06763234901818,0.3908098414398355,1.351585984519634,-0.0067218096036115,0.5565161509562483,-0.1870666311223069,-0.165713385148691,,
7.047312000000005,13.452317419521176,-5.696343215607127,-118.97380220820502,0.7914515875027592,1.7537063932531871,-0.1685945108304718,0.5366369219635725,-0.0981307086758751,-0.4156788668235001,,
7.075842999999992,10.51363970886374,-3.5580364751770968,-127.95193441126948,1.8095700405288613,4.16848788502075,0.7394371431839275,0.007898581891517,0.1668287965225293,-0.5584757021039966,,
7.085352999999998,9.545203927419706,-3.9556323632598778,-128.69772106108243,1.952723668952249,4.423152317124951,0.6226443826807996,0.0454888733560255,0.201878254556131,-0.155044479860528,,
7.094846999999987,8.641692242580508,-4.820677175003441,-126.95635550593968,1.6156467572978088,3.908949741247687,0.0284818324839317,-0.0381722115773341,0.2491154771101367,0.3586370630673645,,
7.1043619999999805,8.080149369025857,-6.182134525342862,-123.35194824322842,1.6141403529891996,2.484810958640689,0.1687955709741841,-0.1704937355736451,0.248289358142518,0.7425239348067535,,
7.113865000000004,6.958460841157516,-7.856628541724947,-119.25477511211722,1.0506008916418994,1.3869851657767067,-1.078132077444523,-0.1821057755313299,0.3638432871569839,0.8582300075191865,,
7.123403999999994,6.599277815854318,-10.3301193212387,-115.57406076897176,0.7626153050635572,0.2982949872609847,-1.46374810134288,-0.4186911311874484,0.2899600649635302,0.7903310734707885,,
7.132895999999988,6.581300337319307,-14.047339936430625,-113.21868784426,0.3807058188545824,-0.7971718983586504,-0.9859165074447822,-0.688094173431673,0.3094234652645274,0.5331419241599485,,
7.142402000000004,6.628929992165913,-18.061187347510856,-112.50545640334632,-0.3193777312384667,-1.6489471717955198,-0.9465135899579716,-0.7559745509709436,0.3020507737697327,0.1999858769436076,,
7.151904000000002,7.598212470686387,-21.731601883585807,-113.05593286157952,-0.7805663534848029,-2.2413486741540893,-0.3437983717367419,-0.7608411038262886,0.1130304046262184,-0.0292865814935177,,
7.161412999999982,9.059814760746992,-25.13192299266033,-114.35480057529652,-1.4951033220005547,-3.3949456652780645,-0.3273915066288298,-0.7440871160309055,0.0236396795650779,-0.1552117267300916,,
7.17092599999998,10.989684666244232,-27.74384665270896,-115.56921787927196,-2.376999537289612,-4.218411735348543,0.6034825173088677,-0.6327890582586092,-0.0974596417262544,-0.090512614173171,,
7.1804389999999785,13.460918805663509,-28.80016224923062,-115.98172516448145,-2.8875500882500345,-4.959760854885368,1.7155137445911446,-0.3922052899289297,-0.3051637247427322,0.1229514221781062,,
7.189947999999987,15.732490003075672,-28.43031235635588,-115.65278450395463,-3.354160618951871,-4.990257462305073,1.593291811578187,-0.1191958138223557,-0.3964056301169332,0.2551653505999326,,
7.199460999999985,18.43003316441957,-28.50865040470224,-115.59983442015584,-3.648098808914884,-4.553074763660317,2.1441380500430736,-0.231285372242313,-0.4264684656759933,0.2459676176378461,,
7.2091489999999965,21.27069385167947,-28.56598422341033,-116.0507579137404,-2.589158891725301,-3.178923719883171,1.5407800360731845,-0.2394676367962656,-0.4502236657130857,0.1561324998449911,,
7.218485999999984,24.1660059559221,-27.94601013806306,-117.48511678905702,-1.4320307605398497,-2.195684755561088,0.046023370986942,-0.1303034958956976,-0.5172162536070075,-0.0415264839194495,,
7.227992999999998,26.61868500496936,-27.125752226512024,-120.09237988321472,-1.0331281606505918,-1.1087996695946474,-0.5300386264257984,-0.0769343135204921,-0.4658127728118919,-0.322888957142913,,
7.237501999999978,28.798792863705923,-25.813933517571297,-123.07804842796712,-0.5376229708380698,0.0734752631345517,-0.9582278055392336,0.0080614493234436,-0.4750324333441886,-0.4350036508026523,,
7.247016000000002,30.286963214530005,-23.745535995415928,-125.66726165705016,-0.0454809481539521,1.2200870463120306,-0.9606456358108582,0.1779532976012077,-0.4611103824732003,-0.4155177587314734,,
7.256523999999985,30.49022491618022,-21.375688211579927,-127.5978545164362,0.187218674303222,1.6120605676991848,-1.301606579040054,0.3470505297761695,-0.3167721368229144,-0.3820863925873556,,
7.266043999999994,29.654175794524384,-19.091850670808803,-128.6452247045606,-0.0258501340347091,1.6843498303070203,-0.755029050545175,0.4453255695121388,-0.1618182559130607,-0.2695995488861199,,
7.275728999999984,27.64882898517524,-16.634915434027075,-128.3986492115341,-0.1389694965266469,1.5012794457311482,0.0459835955492186,0.6114931134904795,-0.0104438740129749,-0.0602083946591989,,
7.285235999999998,24.55200644595836,-14.27585595959034,-127.08303470438986,0.0815818940986262,1.269120470275949,0.1326105916129339,0.7280840109216679,0.1802530780448043,0.1271660188517158,,
7.294764999999984,21.12317197723866,-12.675199022147275,-125.34833409249116,0.487893004717132,1.2112289101346163,0.2942398160309495,0.641987312477144,0.346166188148115,0.2243205102179087,,
7.304091999999997,17.729868943095674,-11.614574193019957,-123.62444465397937,1.0613284156869127,1.5165781094855897,-0.281470719800634,0.5401846422313825,0.4242159914688747,0.2476445980577627,,
7.313584999999989,15.141869236022336,-10.967033471624433,-122.22888294324422,2.1094953476948204,2.602354729070268,-0.2641005300502944,0.37370598125651,0.3534973299543668,0.21852125437038,,
7.3231119999999805,12.85109534091088,-11.332553323577216,-121.62669033087812,2.7796417923225705,3.7811179341082575,-0.0651005805372496,0.1643472910608852,0.4186024770620494,0.0660211317438628,,
7.332613999999978,11.04457225714862,-12.19535304233257,-121.3645861904454,2.6566962840651134,4.369936491647916,-0.0984269535526797,0.0256665165962388,0.3904734773522619,-0.0018557155563905,,
7.342124999999982,10.569960654555388,-12.850650676733444,-120.36604602329982,3.0982489296483813,4.657740559502259,-0.6555172206515374,-0.0774009937954288,0.1451074692049527,0.1963982849069294,,
7.351628000000005,10.867870350288518,-13.739509938599586,-119.93765004102444,3.021450964887932,3.5606562751200403,0.5983623884857094,-0.1955160679446169,0.0373189680533475,0.1208176780871803,,
7.361154999999997,10.803525338486848,-14.072346952558666,-120.35761926532294,1.5454741235506857,2.157435484667123,-1.4478826251353327,-0.0638825948300308,0.042282532659468,-0.0846184073064024,,
7.370645999999994,12.645212638952495,-15.277477020746678,-121.36416259378905,0.9346133301869296,0.7328174487262913,-1.1490803048493683,-0.4024775151310572,-0.1847548167883498,-0.1264003080803923,,
7.3801719999999875,14.713341535965156,-18.09607973367037,-122.83514367847704,-0.3351624043937684,-1.0918465454272153,-0.8844330325758256,-0.7012842048064746,-0.0390752536702779,-0.2033794417987931,,
7.389679000000001,16.782064309493194,-21.165035985244742,-124.00342235798836,-1.6776661855810024,-2.441911080155737,-0.9660151109807243,-0.7402446290632223,0.0098385077585777,-0.1138430352314622,,
7.399168000000003,19.51462280319656,-23.992871057074627,-124.23713309519653,-1.9829586268446504,-3.1680411906634807,-0.1705621156690348,-0.7644795386220176,-0.1036856819202184,0.1582048768645078,,
7.408685999999989,21.64850872707847,-27.25651771011335,-123.58208331832516,-2.711887304296352,-4.265002548599234,0.797983607955914,-0.7695555861195479,0.0415439760897133,0.3237128437955054,,
7.418203000000005,22.757208554108,-29.84957795428024,-121.75424545001798,-3.4818851189005406,-5.326073602023073,1.9893631716305555,-0.5544347412370031,0.1124734334123617,0.4992439542788217,,
7.42771399999998,23.52541712043028,-31.606425681757315,-119.90087019961162,-3.514581228811881,-5.561168455317281,2.2038577893890925,-0.3819018739758112,0.0619137039861722,0.456352636538454,,
7.437416999999982,25.14443142334828,-33.14522657640258,-119.8674625944483,-3.5638967073437486,-4.255934970186437,2.939241867341724,-0.4155129555046565,-0.0891941402731728,0.1760557291251752,,
7.446737999999982,26.56890028916008,-33.407707692221145,-120.73201187744294,-2.5394289011263984,-3.3108613264491527,0.6843581628875354,-0.1775971938984168,-0.1847177623344058,-0.0209256960746638,,
7.456426999999991,28.47081437098593,-33.00577519638382,-122.6362304216232,-1.6422172146278768,-1.85856057105766,1.0375540229299138,-0.1107588602722429,-0.318610720822383,-0.1772794134865518,,
7.465936999999997,28.765164265769474,-31.368143422067423,-124.65672370763718,-1.2131598714373286,-0.9988532382914362,0.1337527849536146,0.233380702374752,-0.2279317955893998,-0.3780515281721738,,
7.47528299999999,28.4332113910347,-28.96265754211706,-126.32531409119142,-0.7143802132904167,-0.5197928610370367,-1.2787132668535224,0.4136876638753058,-0.2367241678454115,-0.387439421610898,,
7.484780999999998,28.15129701498504,-26.60720927108742,-127.6303564805584,-0.1356408162895735,0.5073066825804248,-0.7609913217975585,0.3950566044535658,-0.2470784833801375,-0.3139729686778061,,
7.494286999999986,26.78410035583764,-24.32189499860704,-128.24386457057062,-0.2459981916095098,0.6852119626997722,-0.8157111709335628,0.5008796110198906,-0.0891965716836926,-0.2605760489634458,,
7.503996000000001,25.08514072768285,-21.92007791839752,-127.78188782641185,-0.0724352793176581,0.8919496530684712,-0.4532480841189115,0.5595479243652576,-0.0524351813431809,-0.0472986945389622,,
7.513499999999993,22.98573571800157,-19.603349380949066,-126.48271562823506,0.0633802476151508,0.7516710680562003,0.0282163484794866,0.5950956886133245,0.0304169589360176,0.1194346117622595,,
7.523017999999979,20.43941813858694,-17.356108406063953,-124.6996732387609,0.0251564356955095,0.538067578565934,0.0137915401013008,0.6353892568894381,0.1283742794759251,0.2100935121201865,,
7.532533999999998,18.313172307757995,-15.054597623045662,-122.85079936770062,0.3746540403938273,0.6658699070664513,-0.221046691849998,0.5983864550347061,0.0806423642428037,0.2701966662306125,,
7.541838999999982,16.819438032113286,-12.964417207096078,-121.50825211280258,1.1106527036449656,1.210895948263988,-0.1642810947532857,0.4967998464275933,0.0199896504836613,0.2112731829512216,,
7.551356999999996,15.445524190774776,-11.25215027595194,-121.06710964383834,1.7646085147458173,2.060673083425751,-0.6095868178602095,0.4206846365433502,0.0495053649698721,0.0370532416246226,,
7.560866000000004,14.558742410739717,-10.033960938535715,-121.56136324866756,2.506020141373851,3.2322919105703103,-0.7389050759590928,0.2870481200904239,0.0204419296639068,-0.129854791621379,,
7.570376999999979,14.069462726581149,-9.438374952166868,-122.5055832750964,2.689506827216392,4.209701369024952,0.0715759851404145,0.1402355137467257,0.0171625971011768,-0.2159962130949854,,
7.57988499999999,13.786787722377875,-8.966899740530327,-122.23395640840978,2.863371767197206,5.218270124855875,-0.6056805232063339,0.0975835853126406,-0.0047648179995061,0.0307807320906545,,
7.589393000000001,14.751430866935648,-9.09264257645813,-121.83905524999903,3.0540458948786684,4.3486314217164335,1.5079116700452695,-0.1344857700334737,-0.1499809562872837,0.1027450799930254,,
7.598906999999997,14.556680234845423,-8.665345633262607,-122.2595011171967,1.935750213362951,2.7487054114978746,-0.5195132159264596,0.0809935948432554,-0.0142322391909475,-0.0968557312371574,,
7.60842199999999,15.62368208379202,-8.81315544204274,-123.0901461972324,1.2528039271829017,1.6584512541396494,-1.1665804427509858,-0.1507951960259946,-0.1631932433941173,-0.1406512927189782,,
7.618112999999994,17.638021195128438,-11.197371496696022,-124.37565671649958,0.4555497209739629,0.0296152753665758,-0.4517501389369748,-0.6293732944287697,-0.0672607082285512,-0.2086873717283824,,
7.627441000000005,19.07051731400664,-14.58509038649563,-125.6647040132072,-0.892931465435183,-1.175921589460784,-1.1242246067112556,-0.7279293515327154,0.1584150886321583,-0.2005180139350121,,
7.636944,21.42367802232128,-18.05311448919693,-126.21472587683124,-1.0567872057740548,-1.4679091271754818,-0.6478507867819397,-0.8395289261715898,0.0395181432808166,0.0292010717700821,,
7.646460999999988,23.69031123834714,-22.419645767820285,-126.21351375811508,-1.4020541292789488,-2.1069030557515376,-0.3892896618081945,-0.9688026409352738,0.1708768787540004,0.176158036881548,,
7.655963999999983,25.314833886989632,-26.94822616417541,-125.25131468982758,-2.118028468869718,-2.930433067089108,0.2330696571054651,-0.9202912035663808,0.2872653716049206,0.361231469231833,,
7.665466999999978,26.133112802467387,-30.0010374335186,-122.5637082203802,-2.24251046977527,-3.37787515965012,1.147048672797432,-0.5990384850759936,0.2185414391523601,0.6801055158077458,,
7.67498599999999,25.868775077130994,-31.84399949967226,-118.67264106514148,-2.5360285289539903,-4.459973176947496,1.5409073722968316,-0.3056255895028136,0.2222510089615173,0.8086489267761734,,
7.684506999999996,25.80913090222019,-33.12755849139616,-115.6945310354872,-3.1243639111433428,-5.921193686929938,1.9750334424703384,-0.2352091849364314,0.1206687601263755,0.6429830047582182,,
7.694188999999994,27.54636937390509,-33.93558058024498,-115.2510897933741,-4.149671607986682,-4.406867529021934,3.65835812393038,-0.2820095244847964,-0.198838284855992,0.2765883211847382,,
7.703523999999987,29.290077789943066,-34.19951542285969,-116.54638069717248,-2.134901232151645,-3.243518359018075,0.5234094743325027,-0.1849707974205308,-0.2437923794110199,-0.0768158671685537,,
7.713216999999986,32.04212800964514,-34.12606505905492,-119.69876409754993,-1.2344283086103245,-1.6715806052019353,0.2890855539461364,-0.2126991220698006,-0.4156814334411844,-0.3527186476042661,,
7.722718999999984,34.02920975852957,-32.55074419005662,-123.2283776183402,-0.945092736578675,-0.3283361259162975,-0.0730310814325552,0.0849637257151812,-0.4538996900576615,-0.5305487687489884,,
7.732125999999994,35.21418588914978,-29.39954144883919,-126.0550421360789,-0.221411071799901,0.2933969863361986,-1.7239073502752218,0.393020464010619,-0.530680271843096,-0.4855060426266804,,
7.741561999999988,36.15417997693355,-25.9258815742454,-128.25775705176395,0.076019373644531,1.3606025038129326,-1.335161566421718,0.4433514499144239,-0.5569477243421003,-0.3946372458483862,,
7.751076999999981,35.814766491187626,-22.60672576357856,-129.60687609570408,-0.3126067688165202,1.4690384477445353,-0.9872531022239608,0.5452783486501827,-0.3729341855790408,-0.3272406254414909,,
7.760593,34.44341057513294,-19.136310190823725,-129.4573671673195,-0.4030878607436552,1.4902168000035731,-0.5510993033289812,0.6883653696711257,-0.2478796116698631,-0.0756383343407123,,
7.770283000000006,32.28068634919442,-15.90188209315793,-128.21964792093232,-0.1167024866693862,1.356831894381604,-0.1067767786586066,0.752608705954263,-0.0875079183878691,0.1093260611175778,,
7.779793999999981,29.504883727811663,-13.36404523851146,-126.94402770687064,0.1813355837500699,1.1891903552452825,-0.0665095249713117,0.7198891665831836,0.1130133174683376,0.126359269487693,,
7.789304999999985,26.651086558873693,-11.123726746177072,-125.9929639821657,0.8573158099237003,1.463226008039308,0.1988150930439532,0.6818707960063178,0.1793661573201476,0.0897980970402807,,
7.798631,23.53598866928678,-9.069784022283208,-125.7620400620705,1.7797511446290837,2.1137657792759548,-0.5523955626353024,0.682217177779379,0.2540356364161503,-0.043096929991015,,
7.80813999999998,21.096327522330093,-7.943680117605425,-126.52652455713704,2.5539287890672173,3.128509548570204,-0.2133921760160093,0.4558887309457661,0.2555781045148159,-0.2142034022537195,,
7.817639999999983,18.919993414132502,-7.80091787758775,-127.63764989361074,2.380606683191391,3.534538518533048,0.6446059623027419,0.2717022342433949,0.3262283666701672,-0.2759347299565098,,
7.827153999999979,17.137335978220936,-8.253905135463883,-126.91525313413698,2.448996857899063,3.667893802674613,-0.9111725982141924,0.1304652103252437,0.3352802330147888,0.1106762602927679,,
7.836668000000003,16.78848995593164,-9.467280166736012,-125.1143843155102,2.765513818684291,3.0746338321033053,1.1553044899816418,-0.1676122934460271,0.1976280076835031,0.3637417707549421,,
7.846182999999996,15.4092206640499,-10.014230423426282,-123.7823272142404,1.959192898334808,2.250129258929338,-0.9878175797486428,0.0521077182351477,0.2849122618663489,0.2493789870064305,,
