timestamp,roll,pitch,yaw,acc_x,acc_y,acc_z,gyro_x,gyro_y,gyro_z,markers,motor_input
165.006363,8.64214447821889,-29.500415547954113,-122.21327057315001,-1.2976631908833955,-0.2971114171734444,-0.12169613893852195,-0.11483186648921541,-0.09550034201379212,0.2557526594717208,nm,0.0
165.01587700000002,9.366786827418714,-29.70246161435088,-122.00859672153713,-0.9987853365847204,0.03330380418570625,-0.1064162900997411,-0.11516860522917362,-0.08718652070353093,0.109977496660247,nm,0.0
165.025208,9.805273019229682,-29.797958189810995,-122.416177772605,-1.0618494933622464,0.14153852232590147,-0.5354091007522307,-0.0706374921887001,-0.05608652996969813,-0.04075803400532425,nm,0.0
165.04441899999998,10.927141851201743,-29.167918755294377,-123.75603817884034,-0.8277554994611075,0.28978619752563295,-0.3924012540138039,0.023710702450549143,-0.12360945993192342,-0.08397994109692693,nm,0.0
165.05374500000002,10.982774929904615,-28.433924739441665,-124.06063354446987,-0.8903041114370082,0.15388790215455952,-0.481342748287741,0.10277267259418231,-0.09159599873507904,-0.058741956340048675,nm,0.0
165.06344800000002,10.861795960815465,-27.631831355247947,-123.94466857896215,-0.7468088699657832,0.08264086146450617,-0.23846733913269477,0.13136701987475427,-0.07357359617103128,0.00859492755713679,nm,0.0
165.072941,10.444100600948607,-26.760029845453577,-123.53139008856819,-0.6078916803369332,-0.01988756980071274,0.003756460666039126,0.17276422684952414,-0.03657482017922108,0.04120688407970846,nm,0.0
165.120491,5.765785018699113,-21.628112482130106,-126.99240100848324,1.3447258419032968,0.4280394263312253,1.4844376682336449,0.2925122335634352,0.05489719695863558,-0.49810951997341363,nm,0.0
165.149124,-1.460438271525,-18.784649238829097,-133.45422778569207,2.2344667739155244,0.1655610258013757,1.2482373713000237,0.426640942892349,0.24223960192626767,-0.5144158472964088,nm,0.0
165.158563,-4.508597776587432,-18.006505042357652,-134.46142500525445,2.1790026342222513,-0.008858597151279799,0.8832261035938551,0.5004998386107478,0.31206458252662106,-0.395984842172082,nm,0.0
165.16807500000002,-7.276092608345814,-17.112097078971935,-134.77118083047233,1.732128525620183,-0.1291280358121313,0.10954078702482291,0.48489782014633004,0.2539243311423396,-0.23051686545705877,nm,0.0
165.17756799999998,-9.06476474996929,-16.159808226101724,-134.60058212283028,1.9958978602325645,-0.4693754781732778,0.8453849907760583,0.3632350162120447,0.113614987453224,-0.06946331841274356,nm,0.0
165.18709299999998,-10.725844626949632,-15.352109424289965,-134.3710985554298,1.4610859992727134,-0.5806500399273244,0.1027236182295767,0.3260423828347964,0.11884801663972003,-0.0452081911871532,nm,0.0
165.19626200000002,-11.862873727036602,-15.384076328147623,-134.26550201105124,0.88389477847493,-0.5220496705559294,-0.41554954295692637,0.13514284375185442,0.1653945969430084,-0.03979161943632312,nm,0.0
165.215478,-12.198776487970989,-18.131734976908085,-134.88631706936053,0.32982076249550507,-0.509282820202642,-0.030146419799632444,-0.24317995634139775,0.242141207360748,-0.09991494953828495,nm,0.0
165.22498800000002,-11.738174433320715,-19.957831051244046,-135.50022004093927,0.13783963431874863,-0.1900427339401644,-0.09607295024447594,-0.3331455500253531,0.20210937860003123,-0.09289002537741865,nm,0.0
165.23448599999998,-10.87667391600011,-21.98832935540905,-135.86926642220993,0.1827474996307368,0.009023352881892143,-0.005463494130837866,-0.41290405022512167,0.18250967695096298,-0.01215725046036031,nm,0.0
165.243995,-10.094718306887803,-24.017663210496448,-135.79431091719366,0.13322400862820863,0.2726957806303221,-0.1565130573379885,-0.40015848341106425,0.1950887193548115,0.07625056908854715,nm,0.0
165.282188,-8.837799103452433,-28.37543146946096,-133.1747080284268,0.32792000554539735,0.5067657873956678,-0.6147166116466939,-0.11394264430920778,0.06067329661189199,0.11363531706538683,nm,0.0
165.29151399999998,-8.649507903459687,-28.568499937364535,-133.1633923339709,0.19970012335672094,0.33111971064979423,-0.5235704709561252,-0.06469236965807222,0.005543706173034912,0.020597777198473118,nm,0.0
165.30118000000002,-8.47559571970655,-28.622334141169073,-133.59060864582744,-0.15959139069823827,0.15811945379086803,-0.5640703823095021,-0.042628700050418085,-0.0114666726659061,-0.06852207130737989,nm,0.0
165.31069900000003,-8.134753366734865,-28.73301204253022,-134.22871216671095,-0.2765031247587569,-0.025555563025472124,-0.3209918938943448,-0.07125822694388055,-0.024297308578137937,-0.09470585005911576,nm,0.0
165.32021699999999,-7.881623523962452,-28.861147446117716,-134.84804850222827,-0.4020455253712192,-0.11932209766890214,-0.2213422482999584,-0.06317737916563572,-0.010072155216480423,-0.0993168414315273,nm,0.0
165.348735,-7.486656117437134,-29.20409067863186,-135.02224208870885,-0.19786468113766073,-0.00789839261231242,-0.36439153955399384,-0.03809825876249355,0.01077639569186962,0.05634214458840036,nm,0.0
165.35825000000003,-7.35041694960275,-29.167386444070335,-134.65745850726896,-0.09048370680094689,0.07088808739956372,-0.4164601737387977,-0.025357050840437857,-0.01859413415660566,0.08652331869828084,nm,0.0
165.386605,-5.890029621080503,-28.117080915563864,-134.30541733133677,-0.17949196393200756,0.09298787517622252,-0.24198746011284655,-0.0295452736341036,-0.14789677027371487,0.05052900908013013,nm,0.0
165.39630100000002,-5.101446945613093,-27.513954172476918,-134.48250843331144,-0.30081502521409936,0.04808044877859943,-0.10882487406475282,-0.025242429368703995,-0.18111048301454696,0.03780675916073573,nm,0.0
165.40563799999998,-4.31607809027291,-26.819835069008864,-134.64770563473627,-0.4213285966111329,0.012264716530070933,-0.016454206423043544,-0.012990005842030044,-0.19408849340005727,0.03807111967522257,nm,0.0
165.415135,-3.601086895781534,-26.088832197021038,-134.69934497624433,-0.47091733163522925,-0.0120003966236284,0.08922198069242408,0.00013752206390106708,-0.19100161151636819,0.05255037557132155,nm,0.0
165.42483000000001,-3.046071050521384,-25.325763373129995,-134.6090258122749,-0.4746368415309874,-0.008861911583278289,0.14400278905907601,0.02447746230631068,-0.17563933360964,0.06518872811625455,nm,0.0
165.44385200000002,-2.4116178862667854,-23.79585531230244,-134.2172348954486,-0.3923191012329588,0.013216296818654341,0.1298358990751617,0.06198524092822227,-0.13504019409927526,0.059501158530935495,nm,0.0
165.45336799999998,-2.272274016980477,-23.0753516071879,-134.09068121209899,-0.33474968918636805,0.014060815891249119,0.18073335409365468,0.07185006535126567,-0.11605654411712017,0.03488276427845418,nm,0.0
165.462868,-2.2450654733367443,-22.383407917934733,-134.08520178965475,-0.287947498649124,-0.017801899291831312,0.19700807239528123,0.08220964059511959,-0.09718837474178665,0.001555318489698237,nm,0.0
165.47237600000003,-2.345047127978113,-21.751562984243883,-134.19261373767523,-0.3035789493834687,-0.06663923802540903,0.1748644677224137,0.08992385924517579,-0.07191858552850586,-0.030736671338217898,nm,0.0
165.481887,-2.499701419405662,-21.19156833035708,-134.34436218350197,-0.28901439657208694,-0.11342814984988031,0.22771998307553762,0.08663700453085987,-0.05469382699301389,-0.04346969862059995,nm,0.0
165.49139,-2.733297202286366,-20.700857727799153,-134.4556942718808,-0.25715695801137045,-0.15662949191840478,0.26780163126033096,0.08700746472720511,-0.03453210624918059,-0.04078807664992288,nm,0.0
165.50090400000002,-3.060371567489636,-20.273530900998903,-134.46199800091557,-0.24122200299175992,-0.1707278752760133,0.2659545588448662,0.09029191629479835,-0.013091362668422063,-0.02595457950274326,nm,0.0
165.51040500000002,-3.382080587140192,-19.889698475957264,-134.33482568579353,-0.16403087579665201,-0.1835982503828105,0.2865953762006421,0.08349173132023317,-0.00748389444083206,0.0015827242781152819,nm,0.0
165.51992499999997,-3.674386630860197,-19.539801015286653,-134.10516660498217,-0.08630445325775223,-0.16898678900627723,0.29063521409770976,0.07487983159907391,-0.006332094011349836,0.02448646972733407,nm,0.0
165.52942599999997,-3.9100292495303486,-19.233358002483598,-133.84203514767225,-0.01373062056932091,-0.14567418915144048,0.28321170160064735,0.06129490570671587,-0.007564416061288895,0.035276723610162534,nm,0.0
165.53895200000002,-4.067079203552419,-18.98217042222894,-133.62221417448467,0.03382903204802657,-0.12359072538424624,0.2838716483438671,0.04310926120554688,-0.010320945765299516,0.031973614183467995,nm,0.0
165.567304,-3.8509431552564504,-18.560306712802443,-133.54804752360752,0.02734033855127307,-0.11588268899411366,0.28067394819079117,0.0,0.0,0.0,nm,0.0
165.576808,-3.6819055851510285,-18.542940699484454,-133.61072402266805,-0.024557229964626177,-0.11968751042579912,0.26464670620668734,0.0,0.0,0.0,nm,0.0
165.59583,-3.413535359004466,-18.682294288886773,-133.48191106201952,-0.0692831904493823,-0.08970380278056858,0.2408753433462144,-0.041525032330885676,0.0019427440718589113,0.028637341453813206,nm,0.0
165.60532800000001,-3.387101633681757,-18.838599845539846,-133.26183644371667,-0.04844754169894401,-0.06576318837313976,0.2024216232793679,-0.039984778023384016,0.020679073665174425,0.043865437376478404,nm,0.0
165.61484599999997,-3.4260507329894136,-19.052747605837475,-132.99203565928298,-0.011914770415669115,-0.026939806485467965,0.18023377381466935,-0.04006409142988071,0.03746118628899099,0.04962000865774155,nm,0.0
165.624541,-3.5356813352761804,-19.306696487880075,-132.74720007113658,0.01933726776288991,0.007341229312693543,0.1515821244199723,-0.03699135069815835,0.052501443886815456,0.039994109884017394,nm,0.0
165.634061,-3.69816570669165,-19.576630802430852,-132.58862545057136,0.03377775551870327,0.02498788194846611,0.11600798947120543,-0.03279174614972127,0.061875692396156895,0.019175450887696496,nm,0.0
165.653088,-4.152593198383625,-20.120614328107635,-132.59149188432045,0.003404122496393656,0.03308995026149205,0.07278312389248903,-0.02193903449484458,0.07386221261664483,-0.028431275655332412,nm,0.0
165.66259699999998,-4.456242417339432,-20.377323774459192,-132.68281739079674,-0.006481183067727482,0.02876081089363265,0.045090618146850905,-0.013027638386818127,0.0795513417873191,-0.04081760126399228,nm,0.0
165.67211999999998,-4.820843295206346,-20.62716098843516,-132.75481330413908,-0.02041944465103504,0.020035782168366982,0.0022570466547918297,-0.004215551450863324,0.08699660967577338,-0.04136762224057136,nm,0.0
165.691199,-5.622182421470336,-21.221821684580046,-132.69811712169397,-0.026877699805539466,-0.02912900492516545,0.015390656984659343,0.001379154274527241,0.09016842062197669,-0.017591484584018578,nm,0.0
165.700703,-5.996666112131424,-21.436412089913297,-132.6032443660294,0.009610234598428361,-0.02468219253479243,-0.029702865097581427,0.009833216444173929,0.08338875834510252,-0.009357786769664419,nm,0.0
165.71021199999998,-6.30300219184821,-21.615502230912185,-132.5167537543916,0.02976461525054748,-0.026820827353848414,-0.07461316641578473,0.004749184372422063,0.07632099992275658,-0.006171450338417356,nm,0.0
165.71972300000002,-6.515969548433077,-21.806784996439617,-132.48301489316762,0.052398527967585797,-0.01910640940473797,-0.07792601073689709,-0.010742171271166142,0.07060551428059553,-0.009934581222470951,nm,0.0
165.72924300000003,-6.636259674772747,-21.98198287577538,-132.53450186234775,0.06108733332413482,-0.0100871270909223,-0.09165796149054939,-0.022154880357320963,0.05802990113633264,-0.020155569321078495,nm,0.0
165.748257,-6.655812751519895,-22.223739172777464,-132.85972251469096,0.0676625454870067,0.022407564675344695,-0.07767554264154417,-0.03867648146710511,0.0331875712269313,-0.03725540102195358,nm,0.0
165.75777000000002,-6.611614603902002,-22.349344157269737,-133.04807599046856,0.034012444318476234,0.04209994890751344,-0.058408741224663475,-0.04374019767518981,0.02619395463779406,-0.035172953140863696,nm,0.0
165.77679199999997,-6.475951580955712,-22.49673084093897,-133.27301853467978,0.037100904065091055,0.047887355004164786,-0.08039782098861942,0.0,0.0,0.0,nm,0.0
165.786124,-6.390010646009037,-22.53441586801153,-133.28408487761527,0.051375305742633444,0.06190876700135539,-0.0820987448339257,0.0,0.0,0.0,nm,0.0
165.80531499999998,-6.15240245703458,-22.539168552532193,-133.2265216834369,0.09125017449937804,0.09708147316138684,-0.05529423681117252,-0.050781961373510244,0.003639332489156499,0.015041280599521086,nm,0.0
165.81482300000002,-5.995250564959928,-22.512341449261836,-133.22309053885755,0.09500195796714297,0.10108514202769182,-0.05749522251556905,-0.05685694134934524,-0.003587339415810754,0.011791666885948227,nm,0.0
165.82434099999998,-5.817910119627164,-22.486879947733247,-133.2572222381319,0.05812003826007295,0.12910467060450653,-0.05031924067151271,-0.06278401024435949,-0.010313257570834481,0.005759694874991628,nm,0.0
165.833859,-5.616983499715354,-22.470026015537975,-133.31998429011196,0.03242526379512654,0.1311042494881024,-0.041589019177153894,-0.06700898315755865,-0.01922673455633981,0.00178317900333423,nm,0.0
165.84336499999998,-5.33032261940146,-22.425094097987273,-133.4162543814497,0.06391271063564519,0.11035794702383724,0.01115686587025142,-0.06787208576152395,-0.02777305315504183,0.0015296356898732092,nm,0.0
165.852874,-5.238100989579175,-22.40183148352497,-133.48229036890956,-0.0036729360763636896,0.11760520619877335,-0.02584386696830269,-0.048853742936817116,-0.013607144728662778,-0.007270641795883482,nm,0.0
165.87188899999998,-5.06077477079289,-22.406418653215532,-133.43518814469712,-0.02337582579499778,0.1380196905377499,0.016273396036203723,-0.06324639259951112,-0.024641692290172008,0.01925731292847699,nm,0.0
165.8814,-5.0191360330893176,-22.460887874137132,-133.34225950524237,-0.06539144609735732,0.14765407766418534,-0.011688621306250042,-0.05983779408601277,-0.010468303441776116,0.020684764782842438,nm,0.0
165.890907,-5.031618927529434,-22.569934591916375,-133.2215953210568,-0.0923787395941782,0.1402224375228203,-0.0006018200740451248,-0.05861823262493215,-0.0027701513674789563,0.022140408654249606,nm,0.0
165.90994500000002,-5.34238822203311,-22.81900687870662,-132.9641083279885,-0.06919520230124222,0.10258890306572067,0.0004861111849032214,-0.023854056925265644,0.04543273343409155,0.007055307777617587,nm,0.0
165.91944400000003,-5.830007150960024,-23.14239460829627,-132.71823498688016,-0.13086470766683425,0.026763089236110305,-0.07725465962402187,-0.0066309550315377585,0.08150128912163081,0.010245554810300274,nm,0.0
165.92889399999999,-6.3440619207686275,-23.314014055945258,-132.37955654424712,-0.10717987804784977,-0.08183823102126843,-0.17798262640602416,0.024748621183245664,0.09576582689467245,0.02645988839924922,nm,0.0
165.93847200000002,-7.056336780367733,-23.59322994939814,-131.8949926890024,-0.026809481755906084,-0.1370080115625136,-0.0657479967322517,0.06478266877392731,0.13105564191189467,0.03946743204295053,nm,0.0
165.947981,-7.879462053758273,-24.08716579578453,-131.25149952009065,-0.08465652848849281,-0.2177000678805137,-0.11366834340281684,0.06555560742148071,0.16051964193073784,0.06141252696564848,nm,0.0
165.95742299999998,-8.564704395156712,-24.593235148296476,-130.52492677823574,-0.08908459464190972,-0.20512826291285505,-0.13875174501651433,-0.008743595611454583,0.16345944022692382,0.0887443802960405,nm,0.0
165.97643100000002,-7.820264282138423,-26.995278146261054,-129.80430330819607,-0.0022994254667200007,-0.2904590532710635,0.24090398114939926,-0.27208641618245516,0.04752386459226195,0.1025131443152226,nm,0.0
165.98595300000002,-6.471550922590154,-28.03357131949699,-130.1023575717501,0.004624522640702003,-0.19912101485289663,0.18239742062828332,-0.32721550633108143,-0.04782930405193692,0.06497264846674451,nm,0.0
