timestamp,roll,pitch,yaw,acc_x,acc_y,acc_z,gyro_x,gyro_y,gyro_z,markers,motor_input
149.00008799999998,0.19682818149161016,-31.028595771863632,130.83174087022707,0.07563147200194195,-1.7250196983749535,-0.4001889384590351,0.4109503154205336,-0.5971638665923935,-0.5595135653814683,nm,0.0
149.00959600000002,-3.5951269366274894,-30.401702363168205,129.6871338549859,-0.06209441486041482,-1.5805712608110611,-0.8514975034586727,0.3305340913691385,-0.5658413572140908,-0.6172798360924354,nm,0.0
149.03838599999997,-11.612793371042846,-25.790077860350923,125.18612764445092,-1.1669669239415397,-0.7636017892667156,-0.10009553168907566,-0.036015096487725544,-0.5930131537022719,-0.5183955449174251,nm,0.0
149.047901,-14.247739102820875,-23.994136332774694,124.18404427647903,-1.6064141828044112,-0.2810914341493669,0.16525587583167448,-0.01661056902909603,-0.5857540489892931,-0.42177032989311675,nm,0.0
149.05741400000002,-16.983014860273112,-22.343464094687064,123.48717664563732,-2.2101407845964403,-0.014728217173449777,0.4568580090187309,0.012893949042189467,-0.5900503375491687,-0.3537183904010741,nm,0.0
149.066768,-20.225155479448695,-20.80116733325947,122.67406156514002,-2.5925065998779657,0.17544299629855784,0.40153889972425444,0.0781835198578753,-0.6624423474637454,-0.39967922473470063,nm,0.0
149.08578000000003,-26.421213076909794,-19.403469849921173,119.83626397148308,-2.7041001070613224,0.2670966955768486,0.11901349900238023,0.22663235559163256,-0.49154266885054454,-0.5157969001853432,nm,0.0
149.104812,-32.109938575432366,-19.901873712369717,116.20512298071574,-2.831388845094088,0.12937932036843824,0.1958090341208819,0.320286908697836,-0.45329530878473523,-0.5477488533580436,nm,0.0
149.114244,-35.25857737573232,-20.170683513897583,114.8208531221626,-2.673174536424374,0.2911907194674132,-0.0538208511606312,0.312823067712268,-0.5016849035968606,-0.48828604304096934,nm,0.0
149.12376700000002,-38.09936358792616,-20.223799722660857,113.8892806335,-2.7386177117999786,0.3116713637436609,-0.15456541549460726,0.23907447265693804,-0.4726468359366017,-0.37748277928331286,nm,0.0
149.13328199999998,-40.613350608208606,-19.97164873552999,113.19116321635309,-2.8402066444246103,0.42082858646931964,-0.3088066005849603,0.15178083771736509,-0.44455947887172703,-0.3068600900879428,nm,0.0
149.14286,-42.817849436006604,-19.57838925467708,112.45621466912439,-2.7009933111337032,0.6693419058214943,-0.6240643978469582,0.09781616193714061,-0.40468999322423665,-0.29020171098967457,nm,0.0
149.16183700000002,-45.11881307883248,-20.328993837741965,110.82927298048986,-2.4936844708434167,0.9790588002238105,-0.5769385274458879,0.19322542339509807,-0.062427502159981954,-0.20967898326551884,nm,0.0
149.17135199999998,-45.168600731204776,-21.491763075104565,109.8560730190717,-2.3076946333610056,0.9754254659423292,-0.38117408562353133,0.23115822761582902,0.08008407632109237,-0.19153991865910128,nm,0.0
149.19037,-44.8057086732513,-23.975385884315333,108.46340698913177,-1.5082998730270714,0.7270967936389042,-0.35609711959841495,0.228942642963849,0.12725920838847798,-0.07396336571780147,nm,0.0
149.19987999999998,-44.021774879406344,-24.88946690122789,108.43597386542861,-1.5398971320554358,0.29526484602630076,-0.18898356405583996,0.13839989327237143,0.20088015477816,0.06631299121746813,nm,0.0
149.209573,-43.12934148746723,-25.275722387885548,108.73707115740363,-1.336461392500245,-0.07764254060214813,-0.1803955281047893,0.03174142006563887,0.18555289426951652,0.14277718031550068,nm,0.0
149.21908800000003,-42.150945554536996,-25.17655948694791,109.31880087805378,-0.9495374570766087,-0.3059805095569495,-0.2729434687159748,-0.066576924094894,0.16879006496010027,0.2065152581080192,nm,0.0
149.22858,-40.81002925559014,-24.82321475704017,110.17335254975026,-0.8628884063155691,-0.5708388908491093,-0.24970759072621326,-0.13891255020750776,0.2131915373807429,0.2908320798004537,nm,0.0
149.238096,-39.28697120676444,-24.412001600598735,111.13818851018475,-0.8191487261972236,-0.6741766177347456,-0.11559842491455252,-0.16506088517947137,0.2388165386591793,0.32615323037778343,nm,0.0
149.27616600000002,-30.45068412525215,-23.58327718617383,114.18881867534849,-0.28195169732134795,-0.47706046826008097,0.4139143533641566,-0.16952230039905192,0.4339737165100388,0.3603323884046287,nm,0.0
149.285656,-27.578896951546078,-23.536426431320276,115.02931448564712,-0.00044410382013253567,-0.517442455405726,0.37644959005399853,-0.218873430809629,0.4856247236969248,0.401650365081439,nm,0.0
149.29515999999998,-24.344999498681055,-23.41042645156389,115.98925435360253,0.22994988522690074,-0.6871029630939823,0.26423043169573057,-0.2696773088825593,0.5359416898645156,0.4529712877636823,nm,0.0
149.304677,-20.94960478510881,-23.348571040641293,117.0958562100697,0.6197784504909394,-0.7200616605848597,0.14697712295676213,-0.28141819293572173,0.5639527487480314,0.4934835327335008,nm,0.0
149.31418499999998,-16.971565514477582,-23.344625868030224,118.24808891310875,1.0375906070820486,-0.7136207075025374,-0.016584288882012098,-0.33225922481907927,0.6589827855394848,0.5476653922711411,nm,0.0
149.323698,-11.958885024948668,-23.43222546453032,119.31441896574302,1.3798294150458497,-0.8439710741937054,0.13720784633722444,-0.42069440588952656,0.82802709388593,0.6122129153856994,nm,0.0
149.33320999999998,-5.784236920641929,-23.655560205060066,120.17169208318653,1.828783523450145,-0.7786605699735374,0.591597729753695,-0.5167833829251645,1.0188762055883023,0.6645917044153921,nm,0.0
149.352226,9.891317672131759,-23.840648601018493,121.36874753536057,2.980650810882751,-0.12332827388816042,1.530441664252474,-0.7759341860995101,1.308446552118272,0.775978662794711,nm,0.0
149.36173899999997,18.516052937244076,-23.897452008741173,121.98720294877465,3.4980046123200075,0.43115872358430307,1.367534728149857,-0.8165742605770294,1.362995133218041,0.817437253343942,nm,0.0
149.371069,26.90003558001485,-24.2273025855022,122.75603510404245,3.860041069250292,0.9479540621693392,1.145861564052592,-0.763517134197041,1.3428289391261883,0.8320446244610212,nm,0.0
149.39951900000003,43.45312838842849,-26.712525608577916,126.31440320946251,3.581469587290347,1.6187303864829476,-0.45149812698823644,-0.19882172128959588,0.6623888156401148,0.5643260183273818,nm,0.0
149.42804500000003,41.58663535989835,-29.363844530635806,130.42115399250366,2.3948804989698105,1.1791365317594042,-0.6219059044719489,0.36893373732643875,-0.2583013317699932,0.019062691309294416,nm,0.0
149.437558,37.84076374899725,-29.644299241350918,131.39651026081611,2.082938655591634,0.8730380457688703,-0.28515167841675865,0.46730600615328616,-0.44418996601834465,-0.18062430748650407,nm,0.0
149.456763,28.25760856798924,-29.307113000026053,131.90471886647742,1.2968463762173565,0.11311646950069858,0.16558910452014888,0.5387566632263551,-0.6876367766109639,-0.4984342036680933,nm,0.0
149.466286,23.04498646908711,-28.83960457764596,131.4428153391142,0.9501596981889134,-0.300557289065273,0.07000830078794354,0.5367693656656194,-0.7303214111930337,-0.6045280163954799,nm,0.0
149.485304,12.896874318668882,-28.275124209564222,129.29454510536982,0.4621618414834706,-0.7727626486433045,-0.24195781151400117,0.5357752349516278,-0.6981116199897768,-0.7253007109179896,nm,0.0
149.504314,4.294049648787985,-27.30751987990081,127.06892027894924,0.00464185224579002,-1.4271717194485833,-0.13953818454597094,0.36949119099268474,-0.6531028959297087,-0.6040954361884336,nm,0.0
149.513655,0.04037158014378364,-26.543067037228106,126.22892743584163,-0.2642254699755269,-1.1134781842461727,-0.43250532211660475,0.33537334980549494,-0.687422154621259,-0.5553546916832613,nm,0.0
149.523341,-3.573578885450751,-25.36541343359632,125.62044061596745,-0.592301558695839,-1.1092874951130942,-0.13732846862631584,0.196248156517059,-0.6521756502576883,-0.4395330328774804,nm,0.0
149.53284299999999,-6.864217480635869,-23.775749230245893,125.08070178504069,-1.0266517030994655,-0.9947657955411245,0.04093224323489254,0.09301385622574636,-0.6600241051007083,-0.3826257891085453,nm,0.0
149.54235000000003,-10.032337068867577,-22.086928078855326,124.44284269145389,-1.3391279549338633,-0.6427901862884655,0.03996684805722337,0.061666440127261524,-0.6600803758121845,-0.37502809673306564,nm,0.0
149.55187199999997,-12.853674515790514,-20.550806103306957,123.60151438535408,-1.7485028961047582,-0.468168716790989,0.3295636140785643,0.04627473257763523,-0.5958087192683759,-0.3735787729913729,nm,0.0
149.57078399999997,-18.69465754178446,-18.097644929694823,121.03683878430417,-2.569670684908077,0.0014214944265833764,0.4734021759229004,0.12210183503928106,-0.5973690129338596,-0.4799865014247611,nm,0.0
149.608777,-32.36636396646693,-17.78485345479078,114.66236580179695,-2.921341171862689,0.5284985096727098,-0.024319452434978805,0.344981078151272,-0.49239970920654424,-0.43618429345463045,nm,0.0
149.618282,-35.15389672085174,-18.18349590349455,113.99135861444812,-3.0110078518982717,0.43839856440772756,-0.03799726760935597,0.30062857923941233,-0.4411252905173797,-0.3020508680464354,nm,0.0
149.627853,-37.71987189910346,-18.165138077834996,113.64505043237624,-2.8765775294589564,0.4343600225408655,-0.3928855429534927,0.20298344718655992,-0.4385754948026298,-0.224453254290561,nm,0.0
149.63735999999997,-39.92223247052689,-17.944455351675824,113.41565754853539,-2.6238827582108826,0.4000571949830521,-0.728473597517401,0.13604678356310013,-0.3927525786104435,-0.17704007905406396,nm,0.0
149.646869,-41.46753825623304,-18.026731050898785,113.18426930129702,-2.714401590741247,0.22473818899835263,-0.6885210523932188,0.1406903054286615,-0.25465791198388843,-0.13599744811395492,nm,0.0
149.665897,-43.20047437108932,-19.72991379035067,111.60645408394157,-2.214171863307363,0.4154050704485516,-0.7610962633187992,0.26222418278266196,-0.022213647528523808,-0.24345943257147962,nm,0.0
149.684917,-42.54227569118347,-23.08926231362293,109.19728168029876,-1.6739687816175226,0.340352691179694,-0.4955440382681234,0.3087167608002089,0.2315065815992325,-0.17654419602551819,nm,0.0
149.70411199999998,-40.29840482971041,-25.40319586528749,108.3317512325901,-0.9417076094030992,-0.04771195646571922,-0.2907820579772043,0.08481842976090713,0.2883819685034914,0.08971169815027236,nm,0.0
149.713632,-38.667456761898656,-25.45819538879235,108.91722959884189,-0.7466871203607801,-0.36793351094411475,-0.3291009526731915,-0.07359433890596108,0.29100559271043025,0.2633613746994334,nm,0.0
149.72314300000002,-37.00618219578962,-24.99355556739983,110.13861452614852,-0.5144185342362455,-0.5711017690704706,-0.39273706275879067,-0.17826690582963226,0.2609700200720501,0.3918459480171804,nm,0.0
149.73264500000002,-35.075273844362705,-24.203608372334816,111.56786067592991,-0.2741353280844004,-0.6168795269908584,-0.47356284424270295,-0.2631659151655641,0.28119529025367507,0.45218132477261835,nm,0.0
149.74216399999997,-32.458853671135174,-23.32211841928549,112.7548642308175,-0.14995742358680175,-0.6676922931738457,-0.5151157012003166,-0.33474144573353254,0.38699920582588887,0.45324318868277197,nm,0.0
149.75168499999998,-29.13729873488682,-22.667819827535443,113.47184678676349,-0.17759750905321497,-0.7214654133528282,-0.2548617096078496,-0.3513889414188722,0.5216501611794294,0.40713113847819504,nm,0.0
149.77068599999998,-20.6407712472616,-21.840216809310995,113.25508620952466,0.37360836783801193,-0.2890405771205366,0.13871441765361295,-0.4129749776870928,0.7759504386607525,0.28476758672760727,nm,0.0
149.780182,-15.175122564967923,-21.396925898618857,112.77880436237466,0.5015870042702708,-0.34644289079084883,0.4337323290056542,-0.47040777550908086,0.912685580012402,0.308744358687771,nm,0.0
149.808732,2.9532397472962386,-20.598552101914024,112.97026894378854,1.8048487904617252,-0.3196217943017339,0.8953490299603281,-0.4989689799680769,1.1189092344116376,0.5418713389894607,nm,0.0
149.82774199999997,16.19310154670215,-20.735901185923737,114.3062821941005,2.6670066110450446,0.30148999193055975,1.1110562634994154,-0.46439546414490496,1.1629572815829214,0.6022201277699453,nm,0.0
149.837249,22.665649255196968,-21.19681548806566,114.96262817067837,2.973377384169919,0.7337639672003301,1.1485170032420946,-0.4164982268074755,1.1507449936254157,0.5889650345227373,nm,0.0
149.84658599999997,28.558977145530974,-21.84909080993332,115.55856595321606,3.147046928758852,1.091928374388796,0.9294159934525016,-0.3474494164134633,1.060678986170301,0.5453883953484971,nm,0.0
149.85601699999998,33.549461143230296,-22.707968117761663,116.04224097173882,3.2101803461692264,1.2656964713796728,0.4694376446351191,-0.2457664307363605,0.9194298567409563,0.4684008856382431,nm,0.0
149.86552600000002,37.56570460390637,-23.825563393268297,116.31323400826989,3.2566376770904295,1.2796950060426406,0.1460574741404013,-0.12408942587571076,0.7737684639756998,0.3644609401909619,nm,0.0
149.87504099999998,40.40236460051865,-25.104451313121725,116.38185599753842,3.275207764053864,1.0992634932747483,-0.042962368244609174,0.00044182900681133635,0.588994254417507,0.24149450214063156,nm,0.0
149.90358,39.8130295638903,-28.374378380516468,116.89481218165848,2.653864283843087,0.4147027325384939,-0.19289197548204756,0.2953196978447958,-0.160239823788418,-0.0829863070070385,nm,0.0
149.913083,36.836978361290264,-29.112210364892952,117.64726562283663,2.261489105829669,0.28459207261354247,0.11462577051427368,0.37134852776677885,-0.38409196220582736,-0.14237694623435884,nm,0.0
149.92277299999998,32.64744179847067,-29.611690152797767,118.80841526950879,1.710200742728749,0.16526991624849457,0.237533473843593,0.4350484812525204,-0.5840289377788626,-0.18486313261771697,nm,0.0
149.93227700000003,27.743365994657005,-29.920815590606257,120.17761591201399,1.1005790291157707,0.10160151637001112,0.2840164132815967,0.4752387392387261,-0.6984121916152194,-0.21882599978230027,nm,0.0
149.94178000000002,22.604201221969433,-29.987310256093465,121.53030045585477,0.6971771014398878,-0.09036070019503702,0.4847170458442082,0.4710233353626945,-0.7453486939812677,-0.2477792251028083,nm,0.0
149.95129799999998,17.33951245686146,-29.697676922619298,122.6185755764054,0.35266894586798625,-0.31553568451926906,0.6566107159622155,0.43946604955091223,-0.7922783008461817,-0.3107849911890245,nm,0.0
149.96081,12.146315759945457,-29.107124462022604,123.22244896665676,-0.014597805021752586,-0.17739189342537315,-0.2890137566108591,0.39689427817472994,-0.8113856117856609,-0.39295287842114024,nm,0.0
149.97032900000002,8.135443716550961,-28.69772100162502,123.23561566815604,-0.030186223848876387,-0.5134599675452794,-0.2849819312207558,0.3211045053368522,-0.6198103587508281,-0.38819336546115024,nm,0.0
