timestamp,roll,pitch,yaw,acc_x,acc_y,acc_z,gyro_x,gyro_y,gyro_z,markers,motor_input
159.00504700000002,11.768334953322066,1.5788500177662326,137.1643429269923,1.1659576576053576,2.5459624589881145,0.5917435145353135,-0.5493724936136817,0.7758040846516396,0.005520211455483416,nm,0.0
159.014731,16.97129016501481,-0.11554213279549104,137.18240095910494,1.4411013681902243,2.026531597151958,1.0989422460666582,-0.5316456895982417,0.9684082039851502,-0.017753931106685633,nm,0.0
159.02424499999998,20.89392312363657,-2.219719842378491,136.95666672640309,1.9720441132290933,1.7238245397165637,1.1719931899131937,-0.2867797800000906,0.8546218723937724,-0.03762101228147865,nm,0.0
159.03357200000002,23.264733630289136,-4.152423488438024,136.8146023662099,2.1649839081574145,1.6377943486348523,0.08508945011160927,-0.08064096153783709,0.6177078966171837,-0.010646168737822443,nm,0.0
159.04308899999998,25.371736684457083,-5.715305024746551,137.0814677172348,2.262950562393891,1.2158733117015417,0.22658722609613377,-0.09311029305250908,0.5268156554918172,0.08098115466488214,nm,0.0
159.05270099999998,26.461330137925167,-7.121451749830448,137.62036658187722,2.1462539963137375,1.0486573827917578,0.42087102086644934,0.03132802396778134,0.3652039319794085,0.12356724548964529,nm,0.0
159.07171200000002,26.26065309316558,-9.04205905171001,139.2401544201546,1.772549370124398,0.5498515159352383,0.18472540174175928,0.1317005129155655,0.0988343429113367,0.15864195269185305,nm,0.0
159.081312,25.444349010477545,-9.521289825824024,139.75981967679084,1.8631405213564705,0.02380413649581645,0.38982688729179066,0.18446757331331998,-0.020254044280939583,0.06942277576302681,nm,0.0
159.090749,23.86676940265837,-9.916441481219621,139.52788781918866,1.990371251759954,-0.3987586943732562,0.1965419369845686,0.2881952607561629,-0.12957202928277237,-0.10771566839307564,nm,0.0
159.10007299999998,21.990829989043988,-10.253420146648207,138.55709181992833,2.1352115192865178,-0.8659731519016487,0.3261336300008572,0.32363289329300843,-0.1794979849535515,-0.2677345636797269,nm,0.0
159.10977499999998,19.58644394271934,-10.520602483739719,137.10546093703414,2.248192060964024,-1.346266077180419,0.5139820402158749,0.38760652488604075,-0.2660630252680137,-0.38458391981258977,nm,0.0
159.138115,8.84682449376786,-11.45150082317532,133.71976458345577,1.5857361090522857,-1.7700570392365296,0.06628424831092018,0.5623317210466272,-0.48974535331552865,-0.26990082470753346,nm,0.0
159.147619,4.621813008358231,-11.532958920500278,133.75754844997883,1.1880189173205256,-1.9406352050500617,0.07132874285630293,0.5880045517448926,-0.5745846349168635,-0.16541567634599894,nm,0.0
159.157162,0.07270742336533768,-11.322341656923085,134.08133787828245,0.857492129973648,-2.005898991174689,-0.1502826993752839,0.5923676780526087,-0.659065864145966,-0.1192457762602662,nm,0.0
159.166663,-4.377183334601704,-10.895019792846016,134.31713866018407,0.5093465353676918,-2.147586502961146,-0.2708074223558299,0.5519832235990364,-0.6730455280091248,-0.12719827388458319,nm,0.0
159.176185,-8.819761501808987,-10.451252736016942,134.192395113136,0.12246214695588956,-2.2767317077488767,-0.16037970820148068,0.5505412891092143,-0.674660465337388,-0.19154304531082594,nm,0.0
159.214238,-25.537893562496052,-9.622312761062638,132.04396267135806,-1.1685900304272618,-1.0423054049572593,-0.8812933509768128,0.4883837260249102,-0.5542930398878172,-0.18927397843476446,nm,0.0
159.22374900000003,-28.808991347062765,-9.451170231544669,132.0941115948239,-1.3640019644183201,-0.8497223140520442,-0.953250319075086,0.41267053749046884,-0.48951888432215596,-0.09608557982968449,nm,0.0
159.23326999999998,-31.57136666220292,-9.140396903438374,132.39423128516597,-1.457605728722558,-0.7890594801542583,-0.9780458071715509,0.32615433400025345,-0.4330619794314056,-0.026312507440353846,nm,0.0
159.24276999999998,-33.765865726575406,-8.696081237016118,132.7776305240873,-1.473550257358612,-0.7854908079700945,-0.9834148026852562,0.23337532296111083,-0.36700754549826275,0.012017348771775602,nm,0.0
159.25229,-35.40807205713929,-8.150278387261872,133.09216311951855,-1.5540836852703168,-0.7706641840113618,-0.8816219315506967,0.14656045955236233,-0.2998183940437254,0.01848773255972779,nm,0.0
159.27134099999998,-37.430563881339616,-6.522095376475096,133.11002731592203,-1.9996033222492469,-0.35358272900203175,-0.5173115669565611,-0.016331750646002428,-0.23791893321806695,-0.03751949060374112,nm,0.0
159.28084299999998,-38.06831930765903,-5.35843391200773,132.91434371202521,-2.2873445346798387,0.03429400287660867,-0.3668944584366826,-0.07889428107166613,-0.239085527810593,-0.048410079867793374,nm,0.0
159.299908,-38.78153783503005,-2.9143765752898663,138.02972192133427,-2.8603194641088314,0.6509688295792282,-0.2526554531079816,-0.12158839629882999,-0.19551972639614054,0.05892437949438932,nm,0.0
159.309408,-38.674607794101846,-1.8043866661932029,141.03824278731759,-2.8259773582529992,0.7512531438001129,-0.30478703545703145,-0.15441703473180285,-0.1451424025957581,0.12234434460568398,nm,0.0
159.32843699999998,-36.94104567916357,-0.1550282941351365,147.89435187343668,-2.253509958470898,0.09484161509613788,-0.173460775048516,-0.2594860261545456,0.013314733359214452,0.20227620839660893,nm,0.0
159.337954,-35.53931661989391,0.3255038289370835,151.25046278760158,-1.653971512563925,0.17356540556292505,-0.18331278414605187,-0.29169919986877296,0.06639706085377588,0.14537603907236868,nm,0.0
159.347632,-33.11653651394875,0.5863302709723223,154.3679451029626,-1.4035784176651263,0.04285598362956557,-0.02283556675163528,-0.4599666690679937,0.17788996792832598,0.05267283055206002,nm,0.0
159.35714499999997,-29.951644547831034,0.6480699216358432,157.22441343537756,-1.3200384243614867,-0.21377534764554015,0.33087218022198767,-0.5905369544470906,0.24693342042538977,-0.04698979411810062,nm,0.0
159.385641,-19.455142344454647,1.1635067378992074,157.7713018314039,-1.0928971877930613,0.6712715823939687,0.7770143056568725,-0.7389239269264536,0.23163540935944582,-0.20657646460280557,nm,0.0
159.39519700000002,-15.464086811436323,1.5760816691995758,160.367865082603,-1.0130575034818123,0.7897880373419573,0.8907181846629059,-0.7831866044306484,0.19976604090100689,-0.1638966778042131,nm,0.0
159.40465700000001,-11.669832085894155,1.9660806174013594,159.99330901101916,-0.7336840808258073,1.0309834504003215,0.8955350658461684,-0.7425646471399353,0.1979026096546681,-0.10106031427118514,nm,0.0
159.42369399999998,-4.555604205025725,2.4481121356598554,159.89365202231852,0.03137891550383887,1.2221708814604135,1.0714328855529447,-0.6701705415989477,0.22038890287717652,-0.033083336551123096,nm,0.0
159.43319699999998,-1.374034582278383,2.476654970208127,159.7511983184177,0.3689193522203163,1.271762667388335,0.9028789113282184,-0.6011209285511752,0.22742229601219494,-0.060751714931497225,nm,0.0
159.442707,1.4680317066172555,2.278759834449443,159.245933243674,0.6174078842666163,1.335613502740886,0.6558909886682321,-0.520402494256646,0.2492811442076383,-0.13016605912972307,nm,0.0
159.46172900000002,6.281722001029569,0.9815292530299017,156.95515273993647,0.49317674871231243,1.6943789713195685,0.6558759694193255,-0.35473040937555017,0.3244604145558181,-0.2811296835334388,nm,0.0
159.49977099999998,13.349548981196545,-4.732326271439875,152.99488222927235,1.1833810847336927,1.5627949596576405,0.17703381854342745,-0.08046150222869343,0.4763101644400052,-0.09695373190808576,nm,0.0
159.518606,15.431976858496517,-8.251146964218252,152.42872742503508,2.2658931267781717,0.939055756710879,0.009327721126428063,-0.016409983436433486,0.3928848285063879,-0.03232842649362282,nm,0.0
159.52812300000002,16.359822956751522,-9.622763601550963,152.14004106061043,2.5850351984863345,0.7125461718360739,-0.1839447415618259,-0.036878865322847655,0.340795022159316,-0.03571087175643011,nm,0.0
159.537629,17.23233767784116,-10.484700882929706,151.90648624291183,2.6412209285409864,0.6131670100543603,-0.21274324884601548,-0.07321549980258417,0.24537877688137194,-0.0230759960765056,nm,0.0
159.547133,17.780535753720695,-10.599575186975931,151.93252202579666,2.5773904146740443,0.5925329725969772,-0.16226998308247748,-0.08671352000747704,0.08328511719962753,0.018388469628964708,nm,0.0
159.556567,17.83967868203164,-10.155197992793099,152.28426935946948,2.376116146944569,0.5767369037647494,-0.1328202413039398,-0.05428271639942427,-0.061057389231212324,0.06556359511447582,nm,0.0
159.56607499999998,17.3742407829873,-9.584525010437412,152.8768578265161,2.0322433720694204,0.5393223708811697,-0.16071868125350847,0.026501637939528505,-0.13158607755938095,0.0956673473440723,nm,0.0
159.575589,16.437128284397886,-9.176595719657742,153.60581154130116,1.7494277651868209,0.4410115028802703,-0.20150850857682176,0.1261287260503709,-0.14410615425646311,0.10846039327835588,nm,0.0
159.59460900000002,13.495461242353914,-9.248563219215928,155.02873700235958,1.556527658429372,-0.033924585631627466,-0.2416057181444651,0.3078083278596087,-0.0920007723348262,0.07532404232451909,nm,0.0
159.604123,11.426055671985708,-9.648610870269454,155.5571977156359,1.5326902617478393,-0.28345965989628,-0.22778412143490098,0.40236436878672255,-0.08542374821794319,0.031823372378233045,nm,0.0
159.61363200000002,8.908487635977455,-9.9900901056717,155.97849486951634,1.5102307602899663,-0.5219492036604335,-0.2711601513454917,0.4786492745170132,-0.1286323705094194,-0.007075066650721024,nm,0.0
159.62315500000003,5.874924097904041,-10.190962096077534,156.3375297369691,1.4333907466314089,-0.7443079673939087,-0.33303536462718614,0.5610223793037373,-0.19179892134565327,-0.03939844273453442,nm,0.0
159.642375,-1.8812351957022284,-10.113310106910781,157.16471427668046,0.7420161804292039,-0.9428082232778245,-0.11027783936438983,0.7209742723809512,-0.3357086250763788,-0.05500090344034228,nm,0.0
159.65188500000002,-6.4742059623882176,-9.363925574916184,157.68087238003625,0.20177700326362427,-1.3285747904370504,0.1576776783783271,0.7776954240924215,-0.4726210942623286,-0.05474553449917554,nm,0.0
159.68975300000002,-27.283581925947043,-5.805420187614951,158.2515453297534,-1.348653329869005,-1.7943438076778697,-0.497517395387826,0.8773469806038996,-0.4651763756083979,-0.15131796470888728,nm,0.0
159.70873500000002,-35.80458608741571,-5.536295463982054,157.39210176029133,-1.6498533156590967,-1.9294334053430504,-0.8366235173754814,0.7332364522320187,-0.28937447829810675,-0.16441208565128593,nm,0.0
159.71825299999998,-39.343366944859525,-5.494082848166563,156.87073031683377,-1.781412377090789,-1.7765662899886328,-0.9703271787533896,0.645859631679589,-0.26836918903001267,-0.16819712958795374,nm,0.0
159.72775600000003,-42.11620079872426,-5.178642767938281,156.3231661458886,-1.8565878943308458,-1.5860958602696726,-1.0711967947023375,0.48159367648065116,-0.2641986596959321,-0.15643360587924576,nm,0.0
159.737272,-43.98623813906386,-4.566449186945924,155.9048790402221,-1.923105547910024,-1.4395353558967778,-1.1168366915270083,0.2908635869152039,-0.24993246272899688,-0.11040567172879695,nm,0.0
159.76587500000002,-43.18250116984047,-1.93219610426392,156.19199363867418,-1.5419060314996644,-0.8595422691546395,-0.7832845733761147,-0.3403548526394825,-0.01681428884179063,0.09095179392762275,nm,0.0
159.775381,-40.473506285668215,-1.3967221733756665,156.71183108615293,-1.4134231497442087,-0.9502850180419947,-0.2983653266395159,-0.5408940963578658,0.13193557275604495,0.1238572068848052,nm,0.0
159.81360099999998,-22.425256205426514,-0.000504628954295824,156.22596114319177,-1.2845248296336722,-0.0749328996495705,1.33930986663374,-0.9989695929167495,0.352719184351,-0.09898731315794654,nm,0.0
159.82312299999998,-17.44559126281808,0.6681760310048901,155.67023400567106,-1.1592256224353368,0.7349651567101215,1.3345548943230154,-0.9657078424995068,0.29833635839531325,-0.11819979604389386,nm,0.0
159.83262699999997,-12.140901494606272,1.4676943858907323,155.30110006033743,-0.9824991419726002,1.0867166688560326,1.2714364788977899,-1.033243117514641,0.3090843990959694,-0.09610322858387753,nm,0.0
159.84214799999998,-6.932925812183999,2.060240198804198,155.22347694037344,-0.9836203452595199,1.2805806126028279,1.6320178575166353,-0.9969104161815842,0.3422233059475544,-0.05128466792128251,nm,0.0
159.85164699999999,-2.5055768393022317,2.469945510507549,155.34436906116292,-0.6483844103571129,1.7571219289658873,1.3503271487050998,-0.8396568720994779,0.3093227830779986,-0.015482682257483485,nm,0.0
159.86116,1.6956082864902737,2.7209231112232106,155.56880786715976,-0.31903695505539503,1.9338839081472166,1.130390855730348,-0.7861397661406915,0.3164574403932128,0.001293501463137872,nm,0.0
159.88020100000003,9.017396694608662,1.9950711267521366,155.52253289807473,0.2106744271495469,2.0704270030156455,1.041568029606413,-0.5593833139812221,0.39618971471003545,-0.06779834196457948,nm,0.0
159.889718,12.008351048893465,1.1270679565225301,155.08754457509326,0.38138809508641147,2.1468216660709403,0.8869682984348398,-0.4726152725059397,0.4201184128448126,-0.11070463514067094,nm,0.0
159.91822800000003,18.55577535825061,-3.696007836478907,153.8653064628445,0.6337139441503535,2.1631685666150537,0.4452021340088514,-0.1370679435757329,0.5267376487041732,-0.017663395612140295,nm,0.0
159.927834,19.785018578607637,-5.802781173012496,154.41791589897286,0.711684294712729,1.9547805278419026,0.3119804692797841,-0.039228651598385185,0.498180041181099,0.12314761696290868,nm,0.0
159.93734800000001,20.46922126014155,-8.05306391672023,155.57575140573854,0.7868452555160951,1.6423798193864183,0.054384520801334185,0.0641521166215301,0.477420859982834,0.2406197973592584,nm,0.0
159.946675,20.732264993589897,-10.436526972818742,157.04520169286036,0.8349872575733994,1.346079336313966,0.03434320403091519,0.14050774429252635,0.46951503057016286,0.2952073419995443,nm,0.0
159.95619200000002,20.57264919627522,-12.592869037925981,158.5515740845483,0.9233791942922688,1.0734842367202229,-0.027062029963739423,0.18797596693178217,0.3995336492981804,0.28808575869773084,nm,0.0
159.965517,20.15252559275758,-14.253509411479367,159.80542536010682,1.0445205792836527,0.8284687946565071,-0.2391003665176211,0.19010040078806398,0.29333930817605186,0.22469952899834555,nm,0.0
159.97502899999998,19.719345686676224,-15.48007125268627,160.5422564847647,1.1643502669948804,0.6291495566742645,-0.4064731162895159,0.15734364021347383,0.21426973311156305,0.11872549796586361,nm,0.0
159.98452999999998,19.312290618678222,-16.395606258175057,160.7139768438463,1.2811773944931786,0.5490398189533189,-0.4758267862178834,0.1298310528929062,0.15867834456967123,0.00567243764223153,nm,0.0
