timestamp,roll,pitch,yaw,acc_x,acc_y,acc_z,gyro_x,gyro_y,gyro_z,markers,motor_input
155.50533399999998,-6.796458161334017,-20.6577675536961,133.47444980367047,-0.14774379790215852,-0.5761133314928327,0.014090080456383195,0.0776397460143989,-0.2531867225062583,-0.1599172870516928,nm,0.0
155.51485499999998,-8.070526919011677,-19.73282210099855,133.3684639888348,-0.24699845784227129,-0.5987669226878313,-0.015253223349119974,0.03412800925541528,-0.28764216707003337,-0.11014318395881381,nm,0.0
155.52435999999997,-9.211868503558406,-18.609138931742645,133.26006528292694,-0.42307471126128043,-0.6744169093963794,0.0164207750568608,-0.01142413306935703,-0.2978867374452085,-0.09751009647765246,nm,0.0
155.533901,-10.368571271825461,-17.438592173225814,132.934428209457,-0.6692102672918436,-0.6368973754081347,0.17625464007238673,-0.016278531254208587,-0.307494178679267,-0.13751468442610618,nm,0.0
155.543399,-11.6113029169668,-16.28206571145182,132.28714783347488,-0.9998793427387602,-0.5067101222057355,0.3348939752744115,-0.00456504712878219,-0.31866180722395143,-0.20228889940789724,nm,0.0
155.55293200000003,-13.134001395183251,-15.193293161531498,131.36623152975605,-1.4378369925045391,-0.2867371061215698,0.45587004661001923,0.03822782975363886,-0.3508006500991361,-0.2673972461667752,nm,0.0
155.57196100000002,-17.742389363786792,-13.427291332621795,129.4314231561208,-2.3647344681352642,0.13391126519342175,0.5385192906637858,0.2054423336458913,-0.4732702062587612,-0.30561377715129734,nm,0.0
155.58128200000002,-21.086703903534627,-13.02541181100174,128.6971043080905,-2.7388805321836243,0.3774347230713826,0.2811116681530223,0.35433766454884963,-0.544058246935578,-0.29908215932330795,nm,0.0
155.590788,-24.732430682419224,-13.028432616470113,128.0285896668573,-2.914475525560566,0.5054366370003647,0.07053049395227462,0.44813237454224636,-0.5447088317830909,-0.29645363153973675,nm,0.0
155.600313,-28.2605144854525,-13.40439772035525,127.27385564597434,-3.0386318559657006,0.4837303077363439,-0.1699585083485292,0.48618376422491355,-0.4862278607685165,-0.3098820064628413,nm,0.0
155.60982199999998,-31.562914642666605,-14.212552993813883,126.44416517808396,-2.7997676211523514,0.6432752770379607,-0.4759397620278138,0.5213596999803173,-0.404759470898523,-0.3204186444680123,nm,0.0
155.61932499999998,-34.23349050624347,-15.352493263470041,125.77069998922485,-2.675568508791782,0.5043998242974058,-0.4356240566241334,0.49598653327074627,-0.27155998996519737,-0.26710627293687156,nm,0.0
155.62884799999998,-36.503093280125334,-16.50118705149776,125.4194599347634,-2.449953637790445,0.352390923308741,-0.49505028091995384,0.44838978207921687,-0.21009055870140408,-0.19030180093956928,nm,0.0
155.638345,-38.49724507312256,-17.483242702605622,125.51096378176507,-1.9451513409440557,0.25888798911303856,-0.8900466719193126,0.38873175382870406,-0.18574518368933685,-0.09316550440118468,nm,0.0
155.647861,-39.9847200238354,-18.39030520783927,126.08282648180098,-1.6356250298211656,0.25744177981390165,-0.9788831179962342,0.32000086269681055,-0.11253811269209071,0.028342648162018876,nm,0.0
155.65737700000003,-40.52513663538644,-18.972440271223338,128.5847325473545,-1.4259577182290912,0.10380699161217578,-0.9635887361111317,0.16149319349607816,0.0031636872345771156,0.07062790234864497,nm,0.0
155.68599400000002,-36.20809620580716,-20.735161212223673,134.80189706906935,-0.9386884082734162,0.03700379827478441,-0.48390993629164814,-0.18356408844401553,0.4441488014999127,0.06466349450084319,nm,0.0
155.69565100000003,-33.553280075271935,-21.537230509887127,133.873946642754,-0.8063080306432896,0.09404728339507588,-0.27888655887985236,-0.22620920848911433,0.47913185369665406,0.010527074207846293,nm,0.0
155.70515300000002,-30.922464164175572,-22.120276857435794,132.80949713263703,-0.5570466409645141,0.18669771235690102,-0.23050836255884902,-0.24508658793297974,0.44812075627103365,-0.01308084551428359,nm,0.0
155.714705,-28.502130378812343,-22.50249828203421,134.53351890742567,-0.4420688717552186,-0.004098391712581976,-0.05967890109180115,-0.2571666034593186,0.3842386492379627,0.03517471140577315,nm,0.0
155.724227,-26.650536624958995,-22.566775172007056,136.935649928913,-0.2323689547102306,-0.08957333467707553,0.0063309586539369855,-0.23741906261115017,0.2556827233607555,0.08912388930214928,nm,0.0
155.73367900000002,-25.213450405745178,-22.19546704340769,137.12817285776615,0.045241291919831755,-0.181672412090005,-0.11601282157602134,-0.24093540952712977,0.14012815780589158,0.1510581841200852,nm,0.0
155.752695,-22.85915384088957,-20.83274143409028,138.41347776208198,0.3160638979230846,-0.6255250321256371,-0.08568517089097,-0.2416998050569659,0.042093125977756565,0.22283407543577363,nm,0.0
155.76220600000002,-21.64549414248954,-20.056141370093066,138.94496450929174,0.3945732011316801,-0.5969063609701645,-0.16005528595595958,-0.26995233862730106,0.047130607534438235,0.19327645190969997,nm,0.0
155.78122,-18.298328122906028,-18.845803680243424,139.05184792522886,0.47311893178082615,-0.47651267371669,-0.06930588334026025,-0.3165708993671679,0.16525098476515518,0.10155723519769044,nm,0.0
155.800242,-13.59969540042236,-18.133491204610145,138.63749730801595,0.5940355057751489,-0.17147510355570644,0.1411966525151394,-0.40813304909379683,0.2726241041531094,0.12284662350978638,nm,0.0
155.819246,-7.543388910813949,-17.69581934361919,139.20676452324426,0.964320511747249,-0.11657832249992947,0.40851908638564205,-0.47569006701868943,0.395443884577695,0.2877268550211547,nm,0.0
155.828772,-4.138272266345485,-17.572455740437636,139.90355144304766,1.1736117553747438,-0.10998031748355303,0.544644825342706,-0.5084093948962137,0.4166808315851632,0.34411025062616946,nm,0.0
155.847786,2.679969805056782,-17.281746888454517,141.31440695479967,1.5200325239223693,0.07492546631573287,0.6072226273318904,-0.5111914885425521,0.4025725066036788,0.3291012327891287,nm,0.0
155.85730600000002,5.646563939566992,-17.27597153685459,141.79672277314972,1.5433239469465527,0.3096462016783007,0.6305366180952048,-0.4442831106357098,0.36544355558236663,0.2691408710762577,nm,0.0
155.86681000000002,8.009230851405798,-17.19800122545054,142.1515047135063,1.5409379937265106,0.5152408719565643,0.6446277271709826,-0.3652009133649251,0.2796007850634037,0.20692312511365232,nm,0.0
155.876251,9.586977174527886,-17.03169880250154,142.48329308435734,1.4176373445401662,0.6998644851586787,0.5068872804235994,-0.2591993872837505,0.1716635924592226,0.1547975983761316,nm,0.0
155.88576500000002,10.30881052354272,-16.859012479303775,142.91521666481555,1.2050147474613724,0.8638166444557226,0.4228737404764316,-0.13099565883079978,0.06967032157732965,0.1238429613543304,nm,0.0
155.90496,9.298701197656737,-16.705855219479066,144.39432637686235,0.7531535226752333,0.7820199424828442,0.2582097796930235,0.13701850249785127,-0.08882458295767653,0.11199196955511588,nm,0.0
155.92396799999997,5.81143300873403,-17.14484312962409,146.2284226673047,0.5234714824522622,0.36427307097705364,0.3077194353168162,0.34191916253948035,-0.15713542465476124,0.06010945030929856,nm,0.0
155.933486,3.606492627983856,-17.305215001424145,146.96796294754384,0.46883125220199207,0.17023573053121782,0.2473614967874225,0.3694422506458577,-0.19158270849603615,0.013828172722770449,nm,0.0
155.943002,1.4478882549954841,-17.338778829203427,147.462981279759,0.40762493492316754,0.01677889492479246,0.10111161323965523,0.35035148022302753,-0.20391701392506362,-0.032651175685511236,nm,0.0
155.95251499999998,-0.5132609793731615,-17.33752340416469,147.72140112071176,0.3078901465204446,-0.031054872330964132,-0.009209379818931676,0.31627537875918216,-0.18716821951468515,-0.06796263078018099,nm,0.0
155.962032,-2.205270933546651,-17.308427036160595,147.86267236715787,0.21611518508985192,-0.019606177744110734,-0.05631077824910452,0.2706257094700154,-0.1633161328737786,-0.07493423399709108,nm,0.0
155.97152300000002,-3.5913271232289676,-17.257382622279525,148.05162175716328,0.12390718764495434,0.014535479751904643,-0.16419194078366753,0.21935830412426482,-0.13521877384456127,-0.046691939255128885,nm,0.0
156.01895699999997,-6.428691968575992,-17.490014903360276,151.01927715701788,0.08518745775134724,0.09239217422831278,-0.05731675078501763,0.03388913457877392,0.022050328185582724,0.11337287261577539,nm,0.0
156.02848500000002,-6.473653206045036,-17.657942095489894,151.43729479934467,0.08252995138781087,0.1399181082526492,0.017553711750261214,0.023252722258026257,0.039472050103194385,0.07953819594098989,nm,0.0
156.038016,-6.509925356587771,-17.80012377287343,151.63967817344437,0.10973408634313561,0.16863605588224906,0.05126312077393848,0.019146210589947393,0.03586038416421295,0.03690189227542742,nm,0.0
156.04746300000002,-6.638719186236128,-17.899304753849115,151.68239714189656,0.13279822928990304,0.17542755331169363,0.10431336309602497,0.0,0.0,0.0,nm,0.0
156.05696200000003,-6.966721365375559,-17.944006291991467,151.6609666696701,0.09452908416918386,0.18915295634638943,0.16747688205476174,0.05878650535277976,-0.007639415083686832,-0.025790968307382416,nm,0.0
156.06646800000001,-7.544738962965114,-17.89152388880743,151.66284412823228,0.06816628437136427,0.15658051286698152,0.19685669660286795,0.09152434504210709,-0.04737977677699698,-0.03641331182918901,nm,0.0
156.085478,-9.351300897865038,-17.52508852845086,151.8323864197825,-0.01476757740528285,-0.03305730324382129,0.22915763411351106,0.14653623000222035,-0.11373445650407664,-0.04031901927903177,nm,0.0
156.09498499999998,-10.434693404580761,-17.2474051462109,151.90241283026708,-0.08482940417037003,-0.120740531154937,0.19366744472721925,0.1561215384261872,-0.13246919460263656,-0.05147347230772029,nm,0.0
156.10448699999998,-11.506864665076021,-16.931251598474294,151.8606988740212,-0.1509587899016132,-0.18440136259482712,0.13768998044422584,0.15102369717677447,-0.1383621724989655,-0.0719223039276638,nm,0.0
156.13303499999998,-13.862752864746929,-16.213074348069117,150.97254242314784,-0.3111333329457864,-0.1784827421310794,-0.08326225166149387,0.07905955986337582,-0.07377603720189531,-0.11011507244244884,nm,0.0
156.14262499999998,-13.97963765420627,-16.277329971208463,150.47971986567111,-0.29043219570540313,-0.18124899728550303,-0.03030006484238136,0.06560580000538334,-0.05045704618897397,-0.10531327557713642,nm,0.0
156.15213300000002,-13.932597138440027,-16.392322965582704,150.0357467405927,-0.25112100613080557,-0.1446044516788951,-0.12899449650911024,0.03946811214317742,-0.023347564706707267,-0.08630946251928769,nm,0.0
156.161574,-13.992333838341558,-16.330441592154333,149.7378292585825,-0.212384008975104,-0.22206461084251675,0.059120432334891095,0.00428271368010915,-0.0022894118758221803,-0.06304138809621897,nm,0.0
156.171076,-13.91580445589597,-16.18884285050158,149.4694527049579,-0.1603026583902465,-0.24533878745873752,0.13588049005749336,-0.02640441854548658,-0.00282768794905717,-0.04949989674929076,nm,0.0
156.18056199999998,-13.762633963417606,-15.993044138165946,149.21707746207434,-0.11866954168214539,-0.25071689603543795,0.23867558266013875,-0.04465955857299339,-0.004518547555531123,-0.042140365308066335,nm,0.0
156.19015700000003,-13.600609564785536,-15.830351057287327,148.97332438760944,-0.09255241834938067,-0.18457812681288682,0.20773450236953525,-0.04277103914554049,0.00225247637425873,-0.040072671712272474,nm,0.0
156.19966300000002,-13.44171092062943,-15.783768641541824,148.72237865385307,-0.05479335702047208,-0.18099507935888426,0.16677027849319354,-0.03024145335195866,0.022032196393106267,-0.04178054780135673,nm,0.0
156.20918700000001,-13.395933240140113,-15.894887283453379,148.42322937396196,-0.0391666749128115,-0.09226244731595983,0.05248165171680655,0.0049331314910632034,0.037758235546478475,-0.05759278760682795,nm,0.0
156.22829199999998,-13.28883472554749,-16.454758833701096,147.5630940262518,-0.004126585748117191,-0.04313483139046823,-0.09718649519846863,0.03406255746842325,0.07309131563068767,-0.09184321119891908,nm,0.0
156.237672,-13.348634441092893,-16.83854025977378,147.02879200357157,0.0005597365064827789,-0.0061111436856794215,-0.14529079806331635,0.05237315891222384,0.07261669616054899,-0.11050109836114963,nm,0.0
156.24723400000002,-13.349165691182685,-17.203407482010615,146.45324658199831,-0.043851562655794145,-0.01573956508296197,-0.0899481932403851,0.04845131431919777,0.06904909218642238,-0.11534520023203926,nm,0.0
156.25682099999997,-13.282077829858704,-17.48549495167085,145.8694559571085,-0.07216289350944204,-0.048921405344331856,-0.10248481062085243,0.03476267316210575,0.050970336143521866,-0.11295390532479793,nm,0.0
156.26627900000003,-13.299553449885959,-17.593029441952254,145.3557902718126,-0.09788462579552357,-0.05549944690992967,-0.15446729297756642,0.016520523137074285,0.029992781449127426,-0.10391550477078308,nm,0.0
156.275764,-13.213636145347627,-17.593091130164996,144.90219886236397,-0.16666414040935532,-0.062299572399927027,-0.17575145630368702,-0.011739138545761902,0.023481271933731698,-0.08565197314936979,nm,0.0
156.28527899999997,-12.995405756854963,-17.52438362897359,144.50098058612372,-0.2032080447980973,-0.0643883128825307,-0.17963415966503649,-0.04016268969991445,0.026930814684348995,-0.06723656602593125,nm,0.0
156.29480400000003,-12.59289572858737,-17.44680110681477,144.13805278469454,-0.21332146933437288,-0.07317802200788058,-0.17438753784927885,-0.06965734602127356,0.04629697953684606,-0.048628977634910454,nm,0.0
156.304364,-11.759291086574061,-17.5059423932868,143.71503245781824,-0.19369483985235894,-0.16570268325492107,0.009759964994906863,-0.08415440998355957,0.07556463483850544,-0.03484907979995234,nm,0.0
156.32332899999997,-10.369942931869248,-17.74573073024122,142.93551812704317,-0.012240112438661651,-0.09162563042514832,-0.10880094251177164,-0.07669980933217029,0.10586864612862727,-0.03569517824796315,nm,0.0
156.342345,-8.779560417785,-17.823775191659813,142.23471831524304,0.13298893462641126,-0.08999306066452804,0.26191320315578276,-0.10018786451962503,0.11478406229188721,-0.018819815728040583,nm,0.0
156.35185199999998,-8.22825677046387,-17.9775987837287,142.07123250484707,0.1586970457674012,-0.0028996843388625283,0.2449029560626756,-0.06205639165356766,0.10280209649306866,0.00017518071943185232,nm,0.0
156.361438,-8.129460229622696,-18.427037677709656,142.20023188153507,0.08217454067626576,0.14106074906862923,-0.06460727815687488,0.00988971872474475,0.11701734379102056,0.031161447623263828,nm,0.0
156.38988700000002,-8.885434408701657,-19.737288233383893,143.23273588741344,0.13750474510108127,0.07127159945493916,-0.048342548263676434,0.06945762752359128,0.04667776779688485,0.05274735635355354,nm,0.0
156.408984,-9.318167334141897,-20.45072796204277,143.6189024449399,0.05169507529208633,-0.05392296468006937,0.05548298052917708,0.08074160829363417,0.06562981180763679,0.007771910051062655,nm,0.0
156.41850000000002,-9.500220496479141,-20.68181613158556,143.45868231583125,0.03983326125324352,-0.1234802969557471,0.08216721011038862,0.0819613834370024,0.03911640838446067,-0.04532156209905486,nm,0.0
156.43745099999998,-9.498596657959,-21.024212295783986,142.5745830511737,-0.019381639492755055,-0.24082964771473098,0.16081840625655516,0.010335531411176374,0.045977046388838205,-0.09516389924491729,nm,0.0
156.446964,-9.394982901280216,-21.181257250566027,142.04113647084907,-0.10598122297095697,-0.017861332273602898,-0.1872905521651408,0.005993031791602958,0.050759264341947274,-0.0997210797884633,nm,0.0
156.45654,-8.893677611233494,-21.35998695573777,141.53856716693588,-0.09728305034092116,-0.06408694052769354,-0.004396679795617272,-0.03612711829227697,0.0772904796811185,-0.06466688786703585,nm,0.0
156.465988,-8.447628760327934,-21.440586073350378,141.22250067850462,-0.07380499837696919,-0.14337967673608384,0.15869527640398054,-0.052710713133146694,0.07853419681025954,-0.031240888555390284,nm,0.0
156.47554499999998,-8.017000655019427,-21.545941798601245,141.04443773684892,-0.030589187250200076,0.004295612275086683,-0.06708568727692901,-0.05084603518246694,0.07011990643111121,-0.0046473391860579576,nm,0.0
156.484991,-7.503845397142498,-21.529011526379666,140.98248159813937,0.005778772274447463,-0.10553729388783507,0.17980352488533982,-0.07427374719073472,0.07151871709498162,0.024583724400467986,nm,0.0
156.494586,-7.1546182901663995,-21.465424206379993,140.96261134503743,0.006409721790085473,0.04672672708341472,-0.062182792977010674,-0.0653660442563048,0.04935070862501948,0.020838043244332666,nm,0.0
