timestamp,roll,pitch,yaw,acc_x,acc_y,acc_z,gyro_x,gyro_y,gyro_z,markers,motor_input
172.02501900000001,13.959523691128956,-23.519246325176844,-121.55430490220527,-1.4038237634166721,1.3120481383994451,0.2336578746245349,-0.23432145416516498,0.005685996861306296,0.0922922717818994,nm,0.0
172.03453399999998,13.935812467478627,-24.407934375938808,-121.24836453753906,-1.0431885598277184,1.4709037101956872,0.2153406055178256,-0.16298602161966055,0.09407129594238368,0.05507073395020092,nm,0.0
172.044045,13.297054500119645,-25.095321953705263,-120.87781908379999,-0.7741397342750997,1.4689843848513089,0.11006509893071711,-0.07138094117316492,0.1681261319558427,0.016589793862999136,nm,0.0
172.053555,12.275577717630476,-25.492668072795215,-120.41779260113559,-0.4524079639347752,1.3916214658460968,0.16041140317140096,0.012347145469879393,0.1972668277414255,0.0008902696428713723,nm,0.0
172.07258,9.005119066760122,-25.54706569816633,-119.41128871982218,0.0585012865760849,1.1324580269537956,0.09522243195737218,0.1594742648101621,0.2767375575307569,-0.061526168594869673,nm,0.0
172.08208199999999,7.060377605809015,-25.403774171103176,-119.02288657800781,0.4770842385599821,1.167028067948954,0.2976638563622526,0.18290269837627876,0.2907790242073543,-0.09268881383044102,nm,0.0
172.091596,4.656047849083877,-25.17597149539734,-118.8767128756979,0.847977275874295,1.207412346030992,0.2722738096857142,0.2367657998135061,0.3570670066048874,-0.17896663680074978,nm,0.0
172.11061600000002,-0.9570837085731879,-23.994550546969396,-119.57172349140126,1.8210367780280459,1.375002874985693,0.6178693988590855,0.36646580226924075,0.3761078951130036,-0.3396802470977871,nm,0.0
172.12012000000001,-4.510687672675706,-23.014299350829152,-120.51440914869741,2.2724342684756818,1.188856375692353,0.7148377317473438,0.4824572290587003,0.46641806249904233,-0.4735983549671569,nm,0.0
172.12963799999997,-8.705475348332067,-21.879985071077265,-121.79616816661384,2.4892244850515266,0.8851105222370504,0.7048817235678844,0.5818320895311402,0.5474658100575786,-0.5776800861181041,nm,0.0
172.13895900000003,-13.194871554365852,-20.72218266047869,-123.23928447344863,2.830409229085644,0.38323156526109053,0.619493749173871,0.6315899500707503,0.5830195217239738,-0.6150189435625398,nm,0.0
172.14846100000003,-18.37233389662962,-19.815243914747207,-124.63313839956098,3.0371060064357014,-0.1619279591216898,0.5361689531878248,0.6796180130595756,0.7076477356766886,-0.6367443854849474,nm,0.0
172.15798700000002,-24.080493132804733,-19.264720968317796,-125.73504571574021,2.8754350516457285,-0.6106442223045778,0.2863082438274598,0.6970383768170958,0.8196022405288772,-0.6003198758422826,nm,0.0
172.167494,-29.643033013519315,-18.962957947763428,-126.38650919587333,2.6053149061874064,-1.0599469223340865,-0.1433016073133883,0.6549538335691025,0.8183077915426048,-0.4915133468069495,nm,0.0
172.17700599999998,-34.83959806188446,-18.790718508645064,-126.62223918790306,2.2462869357004833,-1.310902868984713,-0.6032574833453762,0.6004062070395146,0.7741883002236691,-0.37922310436941653,nm,0.0
172.196026,-42.73687691218164,-18.918135728435566,-126.26859044782726,1.2528673499401717,-1.3121786509518532,-1.469142834607794,0.34860274507798333,0.5442809923070838,-0.1655797894431852,nm,0.0
172.21505399999998,-46.418599291038774,-19.891834695682814,-126.20823338279075,0.706694882864727,-1.0395667528007704,-1.5629388916543125,0.03520326840097908,0.2759556457023325,-0.09777466524779121,nm,0.0
172.23408600000002,-46.15557410458077,-21.5205898852292,-127.1088731926516,0.4173147117618478,-0.9276884066133312,-1.1270192662929184,-0.20175717288703895,0.023483124426407775,-0.06943794921115182,nm,0.0
172.243591,-45.1303362103975,-22.067486691309686,-127.91123754789199,0.1126296472713644,-0.865046806059186,-0.909445140917534,-0.21468186349934104,-0.08055225401649982,-0.07752470668601413,nm,0.0
172.27210799999997,-40.75868979606969,-21.233512035493508,-129.97244890457273,-0.6722105170160695,-0.9510591960047389,-0.5372950057482784,-0.08759316566376046,-0.2830148816555419,0.01725744674601572,nm,0.0
172.281617,-39.14078457385725,-20.394231718996668,-130.25066603430443,-0.888942437775139,-0.9854646506342668,-0.50842552819491,-0.0789111834270438,-0.3356232873081517,0.06505861718324327,nm,0.0
172.310146,-31.894156393423433,-17.536875121371775,-130.81461631646002,-1.099996626364407,-1.112797280525486,-0.2088952059405908,-0.22042533089928756,-0.5197819140457339,0.14125203516237225,nm,0.0
172.31965899999997,-28.858355575235947,-16.59615699265842,-131.07892989598545,-1.3261115447725247,-0.891419430592206,-0.20284008971851028,-0.2518632165194153,-0.5583923814794108,0.1286743422383708,nm,0.0
172.32935799999998,-25.125918779462236,-15.643040477299236,-131.39670553260228,-1.3224418794348298,-0.786393164337252,0.009403377972429563,-0.3433055519876836,-0.6618184299559736,0.14619451005352485,nm,0.0
172.33886099999998,-20.821389267229065,-14.688390806861893,-131.73862896767005,-1.3227346058457532,-0.6973400760853793,0.3481078653538842,-0.42267784220518123,-0.7454566124146174,0.1583326794548098,nm,0.0
172.348194,-16.12152399297149,-13.776061628208648,-132.03537585614157,-1.6025160742914466,-0.46894952576907667,0.48298217238558033,-0.48688323420437624,-0.7974569827145466,0.17214741362090422,nm,0.0
172.35771200000002,-10.963980249383168,-13.024692227466774,-132.1978644101556,-1.53822818993245,-0.413569954792227,0.9064922050516085,-0.5760073306169772,-0.8427651049554012,0.20579554013242732,nm,0.0
172.36723800000001,-6.019827901146498,-12.400427678985253,-132.3578548749517,-1.8103875416122643,-0.0682954441187925,0.9491674847717622,-0.5709824426466961,-0.7956052527470576,0.18369775106286915,nm,0.0
172.37693299999998,-1.1360485994747536,-12.002330735826746,-132.58206316329813,-1.9249091928456368,0.1699474863483661,0.8634696315882631,-0.6002100840880907,-0.7561896498410311,0.1586165995694386,nm,0.0
172.386454,3.2707825574619274,-11.959430875850986,-132.9678993382816,-1.8779081796353316,0.2591267185666693,1.063241562362021,-0.5933231853862042,-0.6370884611457233,0.10188061446684366,nm,0.0
172.39596400000002,6.422614052033739,-12.10291924686233,-133.56509355294472,-2.0537672445265427,0.38712942901636993,0.7607685302873413,-0.45722342048798226,-0.4276051655107293,0.007347711878255149,nm,0.0
172.414948,9.366874626181486,-13.035250120922845,-134.84693214951483,-1.8058102464816046,0.4470640745129226,0.5509904347665627,-0.22797534272322484,-0.034378754799225704,-0.08615236957635353,nm,0.0
172.42446199999998,9.142425238379204,-14.12786021401869,-135.18855336782448,-1.6211000457236606,0.4172464779939321,0.3993000376866576,-0.13690979334841724,0.1877877703297969,-0.08386248268475421,nm,0.0
172.433976,8.11769872533111,-15.550191908136604,-135.03476608279115,-1.2281755965299848,0.31837861272696066,0.5446930163727063,-0.07375315629369439,0.34391491263362,-0.0263069106966223,nm,0.0
172.452976,3.748184249743949,-18.17780584447488,-133.1933199706253,-0.35332943815401807,0.0958512565529323,0.32823895452565494,0.14249793768885782,0.5108835125893861,0.0707208379778541,nm,0.0
172.46249400000002,1.0096459134920992,-19.014168056904825,-132.01028674462708,0.22571380402347876,0.05744169063917763,0.3581706033341105,0.21477528979164498,0.4979831676027823,0.05918041716237105,nm,0.0
172.472,-2.0295545467811507,-19.473713948209078,-131.19067039769325,0.577501766287929,0.06719693905454968,0.25575112698049,0.2987992919711006,0.49292180656170104,-0.03862249195987361,nm,0.0
172.48151600000003,-4.709635981551377,-19.61910178743326,-130.975290936054,0.9981330281774767,0.20765218797584514,0.18357521864859222,0.2964964255659947,0.4027310837902968,-0.1379797852720008,nm,0.0
172.491028,-6.93136502754904,-19.809222011231256,-131.36708424014992,1.973754929928792,0.20828497781986635,0.9052254580955754,0.23316163876811632,0.3430261645462572,-0.22956977881433377,nm,0.0
172.50053699999998,-9.660173015284803,-20.28001108472076,-132.15825226552258,2.321128543564,0.377913424458675,0.8505634233390127,0.25777117728550175,0.44883218108566975,-0.3461171071113417,nm,0.0
172.510053,-12.328075306002651,-21.01187569744616,-132.85477959094453,2.6354431526355446,0.5495827431318363,0.7957667736507277,0.216028730293746,0.4711001652365157,-0.32762586502601704,nm,0.0
172.52888399999998,-17.09458909820205,-22.13234801604378,-132.65456873871636,3.2798927725791747,0.816907646594861,0.352684715706051,0.22745640738861508,0.3918415151668154,-0.09506591219924974,nm,0.0
172.53838699999997,-19.26096117586022,-22.146760479742802,-131.6885768066563,3.243050005759923,0.8226532051668778,0.14324197199380068,0.25403319442124556,0.3035415288862481,0.031596901180792905,nm,0.0
172.55741300000003,-22.470566704865924,-21.06042537410817,-129.70846601431313,2.37055283042274,0.6558570135448808,-0.4677603311943694,0.2490289472998973,0.13246958853283816,0.07534064392277573,nm,0.0
172.57644100000002,-23.68809469435671,-21.292033061887636,-128.99721621259687,1.1215844725671866,0.0610042603078825,-0.43759454750245913,-0.025932128535077318,0.11254246901252563,0.00277336137297753,nm,0.0
172.58613599999998,-23.91353561052506,-22.003214466273008,-129.19747530347186,0.5473830393157141,-0.08789554834510509,-0.4083512874541916,-0.09756198509188814,0.12589148717457968,-0.054103562212974785,nm,0.0
172.59563899999998,-24.03002970454715,-22.85201913762653,-129.4377235101317,0.27062015854654536,-0.12329442131751939,-0.38968629901788193,-0.1312884244360437,0.1279916805955531,-0.05425112601193419,nm,0.0
172.605155,-24.320431279296965,-23.70760058706597,-129.37942914621345,0.16129283304778388,-0.04195411187076332,-0.43679338099917514,-0.11188100638468287,0.15368870591673986,-0.008422855137715,nm,0.0
172.61466600000003,-24.845653753767778,-24.322413831288486,-128.8929510327111,0.30811282171668397,0.06287711023630116,-0.4609080150740525,-0.04826024821388121,0.15581444759890875,0.05764753658684991,nm,0.0
172.633504,-26.619428190695235,-24.196235728519436,-127.30254498394304,0.6001598171314564,0.23719694656814588,-0.7435680982441949,0.14038547253044464,0.1107868137721452,0.08445134177403817,nm,0.0
172.64303600000002,-27.520818526757466,-23.688660642744072,-126.73879620737193,0.4165072826250353,0.17090133699001298,-0.8762351858635847,0.16710322773088288,0.0737423024873797,0.04317869631409831,nm,0.0
172.67155499999998,-27.451778586403517,-22.205759832913163,-127.8004547668268,-0.6319377269718872,-0.6849893613521323,-0.6588473671718844,-0.008519964623519822,-0.10776313753062959,-0.11104348702917384,nm,0.0
172.68107999999998,-26.411812324930512,-22.086915714609226,-128.54700740194497,-0.9773690386312135,-0.9391307782625485,-0.42926718670778763,-0.11388046310741524,-0.16283027885276122,-0.06776988664964068,nm,0.0
172.69056600000002,-24.860007756671205,-22.0143738032706,-129.0508111892604,-1.3941458387212118,-0.9266250317044864,-0.42303099158199864,-0.18259187263834686,-0.230025166239194,0.018661027947933808,nm,0.0
172.709773,-20.07517183300666,-21.46452439836003,-128.75907002169492,-0.9863758636796328,-0.7376166238395355,-0.04935381148810665,-0.24104691955773971,-0.4017634644037863,0.248861106002112,nm,0.0
172.71908900000003,-17.2293991320931,-20.912421576672266,-128.22717554022805,-1.327326817088337,-0.35519945493662103,-0.25271143079354436,-0.2580864972027777,-0.4818785698661909,0.31360816994691343,nm,0.0
172.747807,-4.143815854024844,-18.24822216236252,-127.39855655148023,-1.8103407587921128,-0.08683839428805917,0.3407869661646186,-0.35307137765372487,-0.7990681507206875,0.28266881197187094,nm,0.0
172.757326,0.5273391387172102,-17.24469711684131,-127.44122669303381,-2.0677755947835212,-0.3347563633960223,0.7836124701771984,-0.39570724417156944,-0.8285104900590958,0.27371658238586616,nm,0.0
172.766831,4.220803121941277,-16.509971582113103,-127.3178027410181,-2.4771890528358664,-0.46141008817722895,0.7635128167793562,-0.326503115384003,-0.6509968478944406,0.2357536093614572,nm,0.0
172.77634300000003,6.458942748457175,-16.220240443282282,-126.92064851035957,-2.5002894176293977,-0.3824459601203999,0.5663282898502813,-0.2268366109580459,-0.37752386714697533,0.20164168104905186,nm,0.0
172.78584300000003,7.281412626632858,-16.42554059822952,-126.50176678075738,-2.0491398583903444,-0.1412598645305348,0.4658271032414771,-0.14099018330154547,-0.10195415969252765,0.1258837571189139,nm,0.0
172.79537200000001,6.889084235265812,-16.853738207264392,-126.56038712997109,-1.641409971355825,0.1284539934107409,0.01874531600177691,-0.037679780606784806,0.11174276866401046,-0.03836395697398748,nm,0.0
172.804878,6.230501574094172,-17.30451852497885,-127.38295088012244,-1.37729906620043,0.28163535654639205,-0.170278267181451,-0.009933339177389587,0.15547433743278485,-0.2073532058501272,nm,0.0
172.814398,5.457416762548622,-17.706243228905894,-128.76331957832025,-1.0240610416613485,0.2712643189662391,0.22133693073349758,0.014050325455522957,0.1667037239500229,-0.3266551823662225,nm,0.0
172.823901,3.904764519231551,-17.98189329501077,-130.19510648552762,-1.0848872216682552,0.15488472517732654,0.05560412376855436,0.1318620981214828,0.2649086631222493,-0.38531586219241365,nm,0.0
172.83341700000003,1.956427223675984,-18.08723780257676,-131.08400384937943,-1.1108505992336346,-0.009010051845628262,-0.03540962149318947,0.21186354395752952,0.2970379870525743,-0.3017625487296293,nm,0.0
172.84291199999998,-0.24113624402538647,-18.03521611911606,-131.09674387248361,-0.8438058071715117,-0.24203714125548784,0.15102650783807464,0.26901234746820396,0.3104846216274103,-0.14160062596066328,nm,0.0
172.861933,-5.661211144710909,-17.3636758213384,-129.04021079321973,-0.2697568404261122,-0.5137954918669068,0.16605989988276523,0.3904763525461333,0.35204857203128836,0.0824667101634372,nm,0.0
172.871437,-8.453911818192116,-16.85981849685422,-127.84079856998879,0.15166105746859107,-0.476868740249952,0.26586337409909555,0.39726929242834086,0.35792212959413144,0.07441124623928823,nm,0.0
172.88094900000002,-10.944914063449842,-16.55695711715727,-127.07467344108694,0.5566376647465675,-0.3017750149127283,0.2186305929531242,0.3246426032594241,0.34438830635897383,0.009306725148811989,nm,0.0
172.89046299999998,-12.945268733487492,-16.673917149272235,-126.87306167276185,1.2976625310210474,-0.2224581353451816,0.6499229693526078,0.19810717558890986,0.3228628945825959,-0.07439417028650738,nm,0.0
172.89998599999998,-14.919784710014527,-17.172800056160455,-127.1524038758002,1.7669379745324008,0.04268945396582442,0.7019945469237786,0.13394883771311214,0.3645196189570022,-0.1707606744459312,nm,0.0
172.90949400000002,-16.657608537889196,-17.945867184152167,-127.54491888265152,2.306907717493508,0.37082729772164724,0.7661964568846367,0.0642767975030276,0.3602188935215132,-0.18286186988306674,nm,0.0
172.919002,-18.21398215610206,-18.76368129782358,-127.69848814591703,3.048621495598715,0.6383061401513578,0.881964443877139,0.03697328253823498,0.3369681625913696,-0.12776747076932266,nm,0.0
172.93783800000003,-21.732575872522258,-19.11734873390283,-127.11251555929054,3.756187376136958,1.0352348606707695,0.7328855254879956,0.20910795886019298,0.24863228647685207,-0.03299385725409395,nm,0.0
172.95686199999997,-24.6691754191573,-18.007971950414998,-126.4307998197036,2.9710375081842275,0.7211496215528418,-0.13653705821116688,0.22217600993510084,0.17271363529118955,-0.029431864893156946,nm,0.0
172.98558899999998,-26.574151023825124,-19.820681189327846,-127.29754545749277,0.5897979400111267,-0.29350700515607514,-0.3886864649343093,-0.18706938525532602,0.19711508832024277,-0.1124542229781283,nm,0.0
172.99506599999998,-26.718606267999238,-21.670494270711337,-127.60500155642222,0.13687313789486588,-0.33392313718548383,-0.33903132982084994,-0.2910574000411165,0.25001740447622256,-0.06864104356158945,nm,0.0
