timestamp,roll,pitch,yaw,acc_x,acc_y,acc_z,gyro_x,gyro_y,gyro_z,markers,motor_input
162.514468,-14.894703737640201,-24.74934271198911,-120.04883559272022,-2.4181858757386037,-0.9412397648034164,1.0524679128078944,-0.15900195852248847,-0.8605993951198224,0.6338019869892224,nm,0.0
162.533489,-7.706022510828927,-23.41348174839272,-116.61085081555491,-1.7682935335590046,-0.35287212433353277,0.8576889469883587,-0.23857786801047687,-0.5559067248932237,0.5923199355654544,nm,0.0
162.55269,-2.9428025327965,-23.776403293876367,-116.50959296419677,-1.794842287420098,0.14206736328481512,0.3907208358394653,-0.24177144731507577,-0.37913277648767707,0.0715185808887974,nm,0.0
162.57170499999998,0.722061422006274,-23.454969508499214,-120.23367066290305,-2.0741794112257224,0.1490793188675952,0.3151334688285103,-0.09946634684888121,-0.2687751484941526,-0.28947217804824465,nm,0.0
162.58105400000002,1.4726290905927786,-23.084598323681394,-121.73262719326945,-2.169709325154187,0.08196616922871341,0.25217580462565453,-0.02149377829783582,-0.1571673868640602,-0.2429661570583089,nm,0.0
162.59073600000002,1.2066769748023682,-22.71399439273304,-122.04075004678779,-1.838271678756138,0.08859231148247469,0.39952116622209893,0.07492030589175776,0.0019465259802676485,-0.08466730426619294,nm,0.0
162.600243,-0.3404179833087722,-22.289048416381075,-121.06652036260904,-1.457170231955451,0.10919505929608324,0.2782651790047056,0.20823480273623576,0.1988017882014714,0.07443855286895373,nm,0.0
162.61926200000002,-5.759580861856488,-20.791315652053584,-117.36429428829271,0.15609391085814253,0.4412327494810554,0.7309074585411708,0.40808710711287394,0.41783342195568174,0.15466138851831457,nm,0.0
162.666863,-25.923777251775324,-21.12636886644694,-119.15859315702261,3.259339974508594,-0.1660100260934721,1.4103730202771074,0.1909690138903425,0.7871116508472928,-0.5622879538589931,nm,0.0
162.676192,-29.969287554760463,-22.19628384570913,-120.2578373252167,3.4061739469663275,0.05042362703333382,0.7483703912610391,0.1736031684658559,0.761884919586258,-0.5151245812551418,nm,0.0
162.68569599999998,-33.16473724636993,-23.273620542847095,-120.8195773378349,3.9632638663208346,0.2622528541754465,0.3062833634456483,0.10087620602114883,0.6200515701599729,-0.35510396435729974,nm,0.0
162.695206,-35.7905457469678,-24.236268265554905,-120.9192864586145,4.284139032444136,0.4047524276923768,-0.14702331446737488,0.06851335032783686,0.5143508577015408,-0.2265428160964576,nm,0.0
162.704714,-37.80141819668256,-25.076674575107475,-120.82927426667398,3.5776245159606286,0.5489238853158895,-0.8794575456852998,0.030601582994847023,0.40297079919850737,-0.14427996366454357,nm,0.0
162.71424,-38.80814460928436,-26.034065410554767,-120.73169883458192,2.9880662858633964,0.37273729776901293,-1.3143080060433405,-0.08425150598685383,0.25699329706760055,-0.061485798290940016,nm,0.0
162.723692,-39.48105449435209,-27.53643649854935,-120.68800676517913,2.1388382075007324,0.09077525466945582,-1.3676985551607685,-0.2096943983605807,0.25985699697837517,-0.0458200741064607,nm,0.0
162.733211,-39.888688386550015,-29.633112432612755,-120.72693750001312,1.1569900246241267,-0.126012008678842,-1.1758132079447379,-0.33669172972731537,0.27906094625850564,-0.04050626623207909,nm,0.0
162.76192899999998,-38.47862711188722,-36.086327472138166,-119.98588873596775,0.30661128396665793,-0.01205903487073987,-0.32659019681869683,-0.3707417782979796,0.07595100061063904,0.2029255364151702,nm,0.0
162.77126,-37.83867585272723,-37.03117967985222,-118.92854694402833,0.07022465104169102,0.2998306543642906,-0.8228139127578419,-0.2276203374303431,0.006630369487095705,0.2944558542768543,nm,0.0
162.78075900000002,-37.53254296100876,-37.418060215488715,-117.32914613927448,0.38412601079596775,0.5601159054492305,-1.008695975947451,-0.10369462365775198,-0.003651619031664056,0.36373205141200154,nm,0.0
162.799768,-37.671866546625594,-36.80331656475315,-114.774160900974,0.17711819175057947,0.7130306393590782,-1.2041846126521791,0.08898634720196551,-0.039977776710009204,0.1883597010802956,nm,0.0
162.809309,-37.08913850607447,-36.012861840853304,-114.77406691512633,0.1416262968951905,0.516262357773255,-1.0347214590227014,0.09183758267753711,-0.14945010469118278,0.07563738970388105,nm,0.0
162.81900199999998,-36.226613359656504,-35.359990173864105,-115.5079355135623,-0.1634311496240917,0.1588896515459396,-0.7627469352265935,0.04614728963042291,-0.18035974141755362,-0.04000233562130654,nm,0.0
162.82853400000002,-35.178644571154535,-34.949381559995565,-116.66245067173827,-0.6219710923262066,-0.2630493516495378,-0.39840710216937447,-0.014268699869385676,-0.18794650007652552,-0.10435980343056411,nm,0.0
162.838019,-33.937624922271766,-34.57726506857248,-117.93815322934236,-0.8764632329988853,-0.5765877121967093,-0.10439478535224413,-0.04017930673548997,-0.2131438374154675,-0.10799886353357645,nm,0.0
162.84751400000002,-32.746933419213825,-34.16693407917316,-118.90291417002544,-1.3974421453259664,-0.7162316715042291,-0.012854153917266228,-0.03425567385141963,-0.2096680958654196,-0.05307656547365764,nm,0.0
162.86653700000002,-30.498480199096246,-32.98851797060978,-118.7471151403632,-1.248801948559876,-0.6723468720997414,0.12062312810276543,0.026956423032053103,-0.21208916591032592,0.1947665335993871,nm,0.0
162.875865,-29.272639946996676,-31.997127564468112,-118.08376415417658,-1.4391038391758115,-0.4534629323799795,-0.17968182563381255,0.0627686486220714,-0.27473908037392564,0.26933212736202133,nm,0.0
162.885546,-27.301642823949745,-30.934133855769225,-117.41376977987831,-1.1813858986053225,-0.3639202499585232,-0.14565953411387894,0.018114893959886573,-0.39562311772968123,0.34435743389153645,nm,0.0
162.895069,-24.856856414949718,-29.979866788951746,-117.00221239622215,-1.3696658790207188,-0.3483934588035547,-0.059488475553531726,-0.03672841484169877,-0.4616390142391924,0.33419367136948663,nm,0.0
162.90458600000002,-21.69177651450127,-29.070662366420834,-116.94693873190299,-1.6626220754410574,-0.48151614811206384,0.19581675806961188,-0.10181816081244836,-0.5733821320651764,0.3263594966653369,nm,0.0
162.91408499999997,-17.805683469621062,-28.142463475927915,-117.06051659351184,-1.9187774474558776,-0.7249415878339138,0.6296067199639618,-0.1587033845155532,-0.6927795069789769,0.35196063758467955,nm,0.0
162.92340900000002,-13.85908979846308,-27.290845869136056,-116.90412248265176,-2.14308543813624,-0.9677833558601617,1.03786781983965,-0.17966948461122825,-0.7009980955544204,0.4001049224759781,nm,0.0
162.94260899999998,-8.010777756899474,-26.45338066987777,-114.86858911066889,-2.190003422203832,-0.8255133798824711,0.9380393923210885,-0.1711386153176885,-0.4304943013140917,0.48592889676533685,nm,0.0
162.95211600000002,-6.351207264813582,-26.736971861592345,-113.52821242924762,-1.649372385484283,-0.3986207183441135,0.7838024347589235,-0.18770543987626462,-0.24963634054156789,0.41680193671706167,nm,0.0
162.98066500000002,-2.3665856653921487,-28.556562377939503,-115.15744611632886,-1.1642058118285241,0.490849115674883,0.08695167521321508,-0.2470256981270316,-0.22395508351061,-0.15516192188945127,nm,0.0
162.990175,-1.3780503251400276,-28.82078491282328,-116.94074281098472,-1.4165544416086011,0.4508403347984776,-0.0680012075878814,-0.13786375579363522,-0.1343568743246093,-0.2629403919992489,nm,0.0
163.00918700000003,-1.5049388960398138,-28.272085819049803,-117.93909848763447,-1.0766161646349452,0.3495311882375791,0.036747252778434755,0.09522407239102156,0.03858128006592363,-0.02749888115346666,nm,0.0
163.0187,-3.1039414418904046,-27.764843904422662,-116.64825965417293,-0.8971309430876406,0.1801440985906191,-0.10936288205951505,0.20576385190186,0.20316108126498467,0.10722701623743502,nm,0.0
163.02822999999998,-5.226713809837252,-27.02362434855075,-114.62464536708536,-0.4368315439984801,0.08699531235925603,-0.005474987808082048,0.28298760852030697,0.27433798188753183,0.2090367496177763,nm,0.0
163.03772899999998,-7.57419521328325,-26.0000940928743,-112.63176569518235,0.08748748232286482,0.0525062655978248,0.07605976932876349,0.34226235837065455,0.3013154310762859,0.1889427815795091,nm,0.0
163.047228,-9.989929010956187,-24.952406774003208,-111.40398943525236,0.5651919782161355,0.07939698327432351,0.16015029341834752,0.34411276045038985,0.32424711583898297,0.037886140633306774,nm,0.0
163.05673299999998,-12.545567394004015,-24.22959365418694,-111.39412052050862,1.086446467530891,0.19396558516448073,0.4238709979882888,0.2904458487819543,0.3787574672536523,-0.21037958064460907,nm,0.0
163.0758,-17.198844131459357,-24.471810896616443,-114.78637668574314,2.4005815771906125,0.5954424874477946,1.0659025925758847,0.0657592658138213,0.39028004080565143,-0.6030755653263193,nm,0.0
163.085299,-19.61444096924284,-25.19532120629463,-117.32555421768723,2.9939933262425074,0.7873608680014547,1.1789629027335287,0.04869754690702034,0.4585286375554291,-0.7093390381347691,nm,0.0
163.104146,-24.76131019040851,-26.218587810696803,-121.21170884824966,3.7667066460962437,0.7352933386802512,0.9277600130617785,0.16589290496469117,0.4365858206636371,-0.542486188784982,nm,0.0
163.11364799999998,-27.71450787871261,-26.12764113988773,-121.87288577001502,3.5553085422791644,0.5122028530494516,0.37855587517183753,0.2796836480611825,0.445038186974645,-0.38936298161682875,nm,0.0
163.123168,-30.662027704747764,-25.855494770008807,-121.61757538290749,2.8687964662989773,0.22925628643478993,-0.2494294496601672,0.3121600244511507,0.4248448823373959,-0.20316625941397295,nm,0.0
163.13263400000002,-32.96551886956889,-25.74825943465989,-120.75668807825662,2.2117070089767497,-0.0897604081591295,-0.6112083582349145,0.22023172544108197,0.3464280796371766,-0.02360894470226417,nm,0.0
163.14217599999998,-34.476709957037905,-26.18279973558079,-119.74092290382534,1.6496105559493477,-0.31806219812331776,-0.7103750298349568,0.0488118641131983,0.2810339526964855,0.0759967760602356,nm,0.0
163.15168200000002,-35.16077048238463,-27.451024754405957,-118.92040386134873,1.0064071339412333,-0.30671971241549645,-0.8415426328739363,-0.1745089434471762,0.23312323930587742,0.10780360619227675,nm,0.0
163.16117999999997,-34.92122592907747,-29.608866819568426,-118.38628286769992,0.7582324556264533,-0.20144977797846497,-0.7167087580752803,-0.41233354646691184,0.172404720151066,0.1352501570686426,nm,0.0
163.17088800000002,-33.99094854330893,-32.2143068563704,-118.1925808856015,0.7364379953204327,0.06494999536069596,-0.48710478230350973,-0.5480741446534123,0.10881085808123866,0.13988719059002028,nm,0.0
163.18970099999999,-31.065667325817095,-36.15896549129365,-118.24981740749668,0.3676628434629148,0.7002035329788826,-0.738462421128332,-0.418172541429705,-0.07133975928774984,0.19209821987888395,nm,0.0
163.19923300000002,-29.872462024665122,-36.927961851423724,-117.76159026927355,0.552294441462385,0.7568679847069318,-0.7426538096602443,-0.23918265477237313,-0.09498292295659815,0.2450891179461742,nm,0.0
163.20872,-29.64430990025995,-36.877889767430936,-116.85050685881173,0.05544191667805797,0.6602490205131385,-0.8459475411406133,-0.02099150928916325,-0.03511150415286068,0.21490531522571588,nm,0.0
163.218239,-29.533501955819272,-36.11131135047157,-115.78275414367783,-0.23729104083279157,0.38441529357338844,-0.8704209641501529,0.1164824325363846,-0.08241699327562557,0.2319892096484806,nm,0.0
163.22793199999998,-29.24194416863747,-35.058684899330345,-114.83977528273198,-0.22110822630986138,-0.019275873497355545,-0.6209430893647468,0.1569657101829991,-0.13174651655004754,0.22766643398543085,nm,0.0
163.237288,-28.845588136531635,-34.140993346785145,-114.2887993410368,-0.7073356386925261,-0.44102052153690274,-0.5464660468810906,0.12662135911939165,-0.13474844522343793,0.1601361726406921,nm,0.0
163.246787,-27.73349235859275,-33.54819432350635,-114.2403927609885,-1.1487909198437887,-0.7965353951069254,-0.3457420921125271,0.018761022383105057,-0.21649575358328124,0.13821502059309845,nm,0.0
163.265974,-23.5946064400347,-33.39383854675677,-114.90591268743886,-1.2148519614252606,-0.9527429584466213,0.20148729647467362,-0.17809531722230848,-0.3333546380071934,0.17362776045034092,nm,0.0
163.275478,-21.15724376257286,-33.29755165056187,-115.35174748950168,-1.319348760827116,-0.6851339606746499,-0.054818259326890745,-0.16950192596646593,-0.37686468039419757,0.182282227090198,nm,0.0
163.294501,-14.335135394852612,-32.39252259590348,-116.4292494618113,-1.1961058170365144,-0.20853395361351332,-0.05078274286614151,-0.18703797636192818,-0.6208886670900817,0.29509586488036754,nm,0.0
163.31351600000002,-5.944841078061491,-29.812451524427367,-117.49439846255136,-1.783596531757396,-0.37030820706800666,0.29398474855230544,-0.07709659021392368,-0.7992927098198455,0.339478377256692,nm,0.0
163.32303599999997,-1.4849031969491608,-28.26957303264966,-117.59038628250605,-2.0424890097214345,-0.7447099248917862,0.7257488993002724,-0.10134453172594239,-0.8365591997060455,0.413374545243107,nm,0.0
163.332545,2.2608478999810067,-27.261726063087718,-117.16869728463733,-2.4654854251167744,-1.1094459457205832,1.0420489040216274,-0.14003793479545454,-0.6841498311774693,0.43202889657488874,nm,0.0
163.34205,5.111273273005811,-26.769440806018043,-116.25768371551416,-2.591620650252037,-1.1686532689826354,0.9260652539991625,-0.15432722175518773,-0.501106073988233,0.43924000202017827,nm,0.0
163.35156600000002,7.139773557238486,-26.88792946216869,-115.27244730676752,-2.2711805982421596,-0.7952945621602876,0.5698517462496274,-0.19254765073747515,-0.31917936949925635,0.37782962627999184,nm,0.0
163.361078,8.378009202947288,-27.642849852018813,-114.84970150143582,-1.7213944120588704,-0.22417445519289866,0.5276872976315835,-0.24382268299306933,-0.13894401261977463,0.19538782072580954,nm,0.0
163.37040299999998,8.96678203653586,-28.33534187751075,-115.52003970886474,-1.6351702525648055,0.11196863172867252,-0.32246653921507057,-0.1833267452344101,-0.03845208637484346,-0.08169561011219936,nm,0.0
163.37991100000002,10.266596779465605,-28.748484205621285,-117.26972590182336,-1.5490691440709994,0.3489503297437002,-0.40699166668008996,-0.18930540950741412,-0.1710489176568799,-0.22888470201777428,nm,0.0
163.39892899999998,11.80862168903423,-28.718246565716818,-121.25321140134604,-1.5750768326968778,0.4299347760950167,-0.41318643621460466,-0.0019914868015770805,-0.042224062992835446,-0.34670609599751745,nm,0.0
163.43715899999998,5.257187453709247,-26.684310624697492,-118.09455147059474,-0.2543794494150832,-0.06171484305466214,0.1968099362158746,0.3386680702451105,0.328433496893642,0.09483172802542193,nm,0.0
163.44667,2.402496887847508,-25.858702999653584,-117.0759865729237,0.3515259626600266,-0.02717663481218248,0.4973801502098454,0.36994827063582053,0.37580697130936813,-0.05118533059561861,nm,0.0
163.45618199999998,-0.9465802040853899,-25.285593496911492,-117.28291024992629,0.8052465276228099,0.13533386676131,0.8995754162411344,0.3643607605805249,0.4842549518227925,-0.3324044744529887,nm,0.0
163.46568699999997,-4.137662689190553,-25.144953406543532,-118.78678135664207,1.3786888937775497,0.3982644636989346,1.3157861696033342,0.2824609533823067,0.4963449262424512,-0.5741721815018885,nm,0.0
163.484746,-10.356924579178086,-26.23172995659673,-124.14985667026414,3.218941064088329,0.8225265585898996,1.5388885664432994,0.1841543522466337,0.5923799264736693,-0.870019169235138,nm,0.0
163.49407499999998,-13.698314780137345,-27.464575925785873,-126.55932628134094,3.9312075953609864,1.0434910030685314,1.3236044993997453,0.1302246413182036,0.632030117792378,-0.7832674985824244,nm,0.0
