timestamp,roll,pitch,yaw,acc_x,acc_y,acc_z,gyro_x,gyro_y,gyro_z,markers,motor_input
163.00918700000003,-1.5049388960398138,-28.272085819049803,-117.93909848763447,-1.0766161646349452,0.3495311882375791,0.036747252778434755,0.09522407239102156,0.03858128006592363,-0.02749888115346666,nm,0.0
163.0187,-3.1039414418904046,-27.764843904422662,-116.64825965417293,-0.8971309430876406,0.1801440985906191,-0.10936288205951505,0.20576385190186,0.20316108126498467,0.10722701623743502,nm,0.0
163.02822999999998,-5.226713809837252,-27.02362434855075,-114.62464536708536,-0.4368315439984801,0.08699531235925603,-0.005474987808082048,0.28298760852030697,0.27433798188753183,0.2090367496177763,nm,0.0
163.03772899999998,-7.57419521328325,-26.0000940928743,-112.63176569518235,0.08748748232286482,0.0525062655978248,0.07605976932876349,0.34226235837065455,0.3013154310762859,0.1889427815795091,nm,0.0
163.047228,-9.989929010956187,-24.952406774003208,-111.40398943525236,0.5651919782161355,0.07939698327432351,0.16015029341834752,0.34411276045038985,0.32424711583898297,0.037886140633306774,nm,0.0
163.05673299999998,-12.545567394004015,-24.22959365418694,-111.39412052050862,1.086446467530891,0.19396558516448073,0.4238709979882888,0.2904458487819543,0.3787574672536523,-0.21037958064460907,nm,0.0
163.0758,-17.198844131459357,-24.471810896616443,-114.78637668574314,2.4005815771906125,0.5954424874477946,1.0659025925758847,0.0657592658138213,0.39028004080565143,-0.6030755653263193,nm,0.0
163.085299,-19.61444096924284,-25.19532120629463,-117.32555421768723,2.9939933262425074,0.7873608680014547,1.1789629027335287,0.04869754690702034,0.4585286375554291,-0.7093390381347691,nm,0.0
163.104146,-24.76131019040851,-26.218587810696803,-121.21170884824966,3.7667066460962437,0.7352933386802512,0.9277600130617785,0.16589290496469117,0.4365858206636371,-0.542486188784982,nm,0.0
163.11364799999998,-27.71450787871261,-26.12764113988773,-121.87288577001502,3.5553085422791644,0.5122028530494516,0.37855587517183753,0.2796836480611825,0.445038186974645,-0.38936298161682875,nm,0.0
163.123168,-30.662027704747764,-25.855494770008807,-121.61757538290749,2.8687964662989773,0.22925628643478993,-0.2494294496601672,0.3121600244511507,0.4248448823373959,-0.20316625941397295,nm,0.0
163.13263400000002,-32.96551886956889,-25.74825943465989,-120.75668807825662,2.2117070089767497,-0.0897604081591295,-0.6112083582349145,0.22023172544108197,0.3464280796371766,-0.02360894470226417,nm,0.0
163.14217599999998,-34.476709957037905,-26.18279973558079,-119.74092290382534,1.6496105559493477,-0.31806219812331776,-0.7103750298349568,0.0488118641131983,0.2810339526964855,0.0759967760602356,nm,0.0
163.15168200000002,-35.16077048238463,-27.451024754405957,-118.92040386134873,1.0064071339412333,-0.30671971241549645,-0.8415426328739363,-0.1745089434471762,0.23312323930587742,0.10780360619227675,nm,0.0
163.16117999999997,-34.92122592907747,-29.608866819568426,-118.38628286769992,0.7582324556264533,-0.20144977797846497,-0.7167087580752803,-0.41233354646691184,0.172404720151066,0.1352501570686426,nm,0.0
163.17088800000002,-33.99094854330893,-32.2143068563704,-118.1925808856015,0.7364379953204327,0.06494999536069596,-0.48710478230350973,-0.5480741446534123,0.10881085808123866,0.13988719059002028,nm,0.0
163.18970099999999,-31.065667325817095,-36.15896549129365,-118.24981740749668,0.3676628434629148,0.7002035329788826,-0.738462421128332,-0.418172541429705,-0.07133975928774984,0.19209821987888395,nm,0.0
163.19923300000002,-29.872462024665122,-36.927961851423724,-117.76159026927355,0.552294441462385,0.7568679847069318,-0.7426538096602443,-0.23918265477237313,-0.09498292295659815,0.2450891179461742,nm,0.0
163.20872,-29.64430990025995,-36.877889767430936,-116.85050685881173,0.05544191667805797,0.6602490205131385,-0.8459475411406133,-0.02099150928916325,-0.03511150415286068,0.21490531522571588,nm,0.0
163.218239,-29.533501955819272,-36.11131135047157,-115.78275414367783,-0.23729104083279157,0.38441529357338844,-0.8704209641501529,0.1164824325363846,-0.08241699327562557,0.2319892096484806,nm,0.0
163.22793199999998,-29.24194416863747,-35.058684899330345,-114.83977528273198,-0.22110822630986138,-0.019275873497355545,-0.6209430893647468,0.1569657101829991,-0.13174651655004754,0.22766643398543085,nm,0.0
163.237288,-28.845588136531635,-34.140993346785145,-114.2887993410368,-0.7073356386925261,-0.44102052153690274,-0.5464660468810906,0.12662135911939165,-0.13474844522343793,0.1601361726406921,nm,0.0
163.246787,-27.73349235859275,-33.54819432350635,-114.2403927609885,-1.1487909198437887,-0.7965353951069254,-0.3457420921125271,0.018761022383105057,-0.21649575358328124,0.13821502059309845,nm,0.0
163.265974,-23.5946064400347,-33.39383854675677,-114.90591268743886,-1.2148519614252606,-0.9527429584466213,0.20148729647467362,-0.17809531722230848,-0.3333546380071934,0.17362776045034092,nm,0.0
163.275478,-21.15724376257286,-33.29755165056187,-115.35174748950168,-1.319348760827116,-0.6851339606746499,-0.054818259326890745,-0.16950192596646593,-0.37686468039419757,0.182282227090198,nm,0.0
163.294501,-14.335135394852612,-32.39252259590348,-116.4292494618113,-1.1961058170365144,-0.20853395361351332,-0.05078274286614151,-0.18703797636192818,-0.6208886670900817,0.29509586488036754,nm,0.0
163.31351600000002,-5.944841078061491,-29.812451524427367,-117.49439846255136,-1.783596531757396,-0.37030820706800666,0.29398474855230544,-0.07709659021392368,-0.7992927098198455,0.339478377256692,nm,0.0
163.32303599999997,-1.4849031969491608,-28.26957303264966,-117.59038628250605,-2.0424890097214345,-0.7447099248917862,0.7257488993002724,-0.10134453172594239,-0.8365591997060455,0.413374545243107,nm,0.0
163.332545,2.2608478999810067,-27.261726063087718,-117.16869728463733,-2.4654854251167744,-1.1094459457205832,1.0420489040216274,-0.14003793479545454,-0.6841498311774693,0.43202889657488874,nm,0.0
163.34205,5.111273273005811,-26.769440806018043,-116.25768371551416,-2.591620650252037,-1.1686532689826354,0.9260652539991625,-0.15432722175518773,-0.501106073988233,0.43924000202017827,nm,0.0
163.35156600000002,7.139773557238486,-26.88792946216869,-115.27244730676752,-2.2711805982421596,-0.7952945621602876,0.5698517462496274,-0.19254765073747515,-0.31917936949925635,0.37782962627999184,nm,0.0
163.361078,8.378009202947288,-27.642849852018813,-114.84970150143582,-1.7213944120588704,-0.22417445519289866,0.5276872976315835,-0.24382268299306933,-0.13894401261977463,0.19538782072580954,nm,0.0
163.37040299999998,8.96678203653586,-28.33534187751075,-115.52003970886474,-1.6351702525648055,0.11196863172867252,-0.32246653921507057,-0.1833267452344101,-0.03845208637484346,-0.08169561011219936,nm,0.0
163.37991100000002,10.266596779465605,-28.748484205621285,-117.26972590182336,-1.5490691440709994,0.3489503297437002,-0.40699166668008996,-0.18930540950741412,-0.1710489176568799,-0.22888470201777428,nm,0.0
163.39892899999998,11.80862168903423,-28.718246565716818,-121.25321140134604,-1.5750768326968778,0.4299347760950167,-0.41318643621460466,-0.0019914868015770805,-0.042224062992835446,-0.34670609599751745,nm,0.0
163.43715899999998,5.257187453709247,-26.684310624697492,-118.09455147059474,-0.2543794494150832,-0.06171484305466214,0.1968099362158746,0.3386680702451105,0.328433496893642,0.09483172802542193,nm,0.0
163.44667,2.402496887847508,-25.858702999653584,-117.0759865729237,0.3515259626600266,-0.02717663481218248,0.4973801502098454,0.36994827063582053,0.37580697130936813,-0.05118533059561861,nm,0.0
163.45618199999998,-0.9465802040853899,-25.285593496911492,-117.28291024992629,0.8052465276228099,0.13533386676131,0.8995754162411344,0.3643607605805249,0.4842549518227925,-0.3324044744529887,nm,0.0
163.46568699999997,-4.137662689190553,-25.144953406543532,-118.78678135664207,1.3786888937775497,0.3982644636989346,1.3157861696033342,0.2824609533823067,0.4963449262424512,-0.5741721815018885,nm,0.0
163.484746,-10.356924579178086,-26.23172995659673,-124.14985667026414,3.218941064088329,0.8225265585898996,1.5388885664432994,0.1841543522466337,0.5923799264736693,-0.870019169235138,nm,0.0
163.49407499999998,-13.698314780137345,-27.464575925785873,-126.55932628134094,3.9312075953609864,1.0434910030685314,1.3236044993997453,0.1302246413182036,0.632030117792378,-0.7832674985824244,nm,0.0
163.52260600000002,-24.636488395216638,-29.070702161547263,-127.21280260201878,3.531823557826786,0.29237024308544834,-0.34973790837050445,0.39926661716932643,0.4667515233247639,-0.19040300500055396,nm,0.0
163.53212599999998,-27.497243718286708,-29.055316770175313,-125.7613018361842,2.5342415002257743,-0.15609372993715576,-1.005598074208717,0.2869786113521581,0.4040189982481018,0.016304564598738875,nm,0.0
163.54162799999997,-29.6871409629112,-29.830437908716608,-124.149911421573,1.60601004053335,-0.539933584615022,-0.8546287944768537,0.07846379190646127,0.40503116128977085,0.11150479352437823,nm,0.0
163.55113500000002,-30.585754853681788,-31.249563939990644,-123.12876528529776,0.941422790623685,-0.6551772117077491,-0.7718945008083288,-0.16376944224430903,0.2895153203826983,0.11773856099113407,nm,0.0
163.56061400000002,-30.2374624758104,-33.44148610507064,-122.7817687001685,0.5381610954113224,-0.5812882170178599,-0.7051990758267322,-0.4133401482327793,0.19244391403705632,0.11161124987023081,nm,0.0
163.57030999999998,-29.07644609294707,-36.26363349631649,-122.8225761536577,0.2387526374520922,-0.3074066473502124,-0.6218816072067958,-0.5913256801381013,0.1489957112190336,0.12951078145409906,nm,0.0
163.589142,-25.57758294749447,-40.72342878984189,-123.04464572769614,0.322487910475623,0.555587619307932,-0.7534133792837465,-0.4614461456719103,-0.029472925918169784,0.22527769464977376,nm,0.0
163.598649,-24.341656939239922,-41.56738883185364,-122.46243181101909,0.2437412045901238,0.6989252810772312,-1.1397492363477952,-0.2561224269817321,-0.062321930773039574,0.2838746881845802,nm,0.0
163.60815899999997,-23.965277838102587,-41.63532016601438,-121.25336682088019,0.16969394775602906,0.6828609602097535,-1.108200066822199,-0.05454923505075443,-0.03803911107375092,0.2965506474757208,nm,0.0
163.627193,-23.548946731008193,-39.86157328574461,-118.89985339567276,-0.33740051493559703,0.06121875860498028,-0.8799876389555253,0.14763477033474667,-0.15532674797683307,0.25851095257653994,nm,0.0
163.63672,-22.93851075100337,-38.86163451231682,-118.41997076828974,-0.6577239173350269,-0.3960741913199994,-0.5578357105917868,0.11687520840501832,-0.17727725452191753,0.17770194595651229,nm,0.0
163.64620699999998,-21.79880500852727,-38.158475033898405,-118.5172785147423,-1.3546293011827428,-0.8352889458587313,-0.3245590220085305,0.025061961874453448,-0.22256630401832234,0.12646063892004986,nm,0.0
163.6559,-19.87776048979792,-37.82850465544519,-118.90032073593652,-1.4563379023523597,-1.0781163446367217,0.1414005442274255,-0.10138061839580444,-0.29624621555709146,0.16357571041585042,nm,0.0
163.665407,-17.686514305284806,-37.71928848748807,-119.301640957639,-1.533092479179508,-1.0146005744657145,0.30370788847345753,-0.1633916559013844,-0.31248300339006974,0.1914947468397603,nm,0.0
163.67491900000002,-15.379785278577733,-37.59969827747908,-119.63712040744402,-1.3829721198344749,-0.7152632090450272,0.09786223066889943,-0.17297105898747447,-0.3291652211708559,0.21769905907780635,nm,0.0
163.69375399999998,-9.298605009029986,-37.163406164021154,-120.9020551723622,-1.2320185468265408,-0.0376636554199042,-0.3753270848875827,-0.245460344039209,-0.4993483987264579,0.26049710985982427,nm,0.0
163.703455,-5.259029614741128,-36.507483155145565,-121.97697958458359,-1.0141049257280759,0.22338301264889074,-0.01907975623824515,-0.23983798254013614,-0.6206802849423609,0.27061249343937005,nm,0.0
163.722479,2.2936805309597004,-33.517558745815734,-124.0282443710101,-1.7960744575942929,-0.08919700529502604,0.17663605145519878,-0.0621888975376174,-0.6913743277115648,0.2305834814436059,nm,0.0
163.74149000000003,7.875707939051083,-31.202254625637554,-124.06714498246741,-2.555593348867316,-0.9828773786820626,0.9518619451537895,-0.09678873992624339,-0.4123143450899043,0.2975879913233362,nm,0.0
163.75099200000002,9.167702301852367,-31.023246243113167,-123.13455892071316,-2.43432237695953,-1.0495244003144162,0.8533537506374761,-0.10663752406541396,-0.2059240617299282,0.31794787838561644,nm,0.0
163.760504,9.735331848878186,-31.537409299870372,-122.12346773909921,-1.971421844461791,-0.6922123004050962,0.40983163230118436,-0.15296252910684732,-0.02822998120503524,0.25897921240983923,nm,0.0
163.77002000000002,10.135258301948763,-32.62828301681492,-121.71373857509411,-1.602648829623493,-0.28227041313346984,0.12544961451466385,-0.2351538387367859,0.05578502297687721,0.12220906404461944,nm,0.0
163.77954000000003,10.779163673098406,-33.58590526071079,-122.11896576263675,-1.165659640566628,0.18638639692250744,-0.19429325017535215,-0.23373243286421047,0.007568989266249963,-0.012992502059428916,nm,0.0
163.80806800000002,12.241978414316273,-34.44568224206823,-125.93621036532119,-0.9334899600866637,0.37125360666815804,-0.36049319095952065,-0.028250827919270735,-0.05501742297075431,-0.21183974275652284,nm,0.0
163.81759300000002,12.13420925189363,-33.980342082453184,-126.53377062315586,-0.7714893090137002,0.3102308271231308,-0.31155721160579863,0.071786748250492,-0.041971836573639294,-0.13418829799344748,nm,0.0
163.827101,11.51099504607365,-33.43428192327986,-126.500456922092,-0.6620076747939648,0.14297485315964487,-0.20555509159456653,0.13571878223917308,0.017178499102344046,-0.06500780950522388,nm,0.0
163.836601,10.544124145422105,-32.88631957272891,-126.06214894094956,-0.38589871342108134,0.05473137936163419,-0.042319792534478005,0.17040805266724476,0.06459306766457991,-0.020518316614584062,nm,0.0
163.846101,9.252186642682988,-32.31797013688845,-125.610297283883,-0.0014792735626732209,0.06785488905346412,0.26138103298588,0.20587826924129127,0.10902512020388758,-0.051183780675605965,nm,0.0
163.865122,5.161320524364729,-31.2805574229688,-126.08369114412433,0.6082004470106595,0.316821763186987,0.45591057090093867,0.2860649717799106,0.25211015539098847,-0.3426258904876242,nm,0.0
163.874626,3.1098081158476263,-30.97141920318159,-127.21067661514205,1.7020326434635868,0.748382090420875,1.37031220272236,0.24547043797377957,0.24553569712327208,-0.43939351414444705,nm,0.0
163.893672,-3.033382066367091,-30.80938054910401,-130.52702278322457,3.2209658022496654,1.2432847841583752,1.8876417240977637,0.35282869165323216,0.4422240788723742,-0.6851965478917084,nm,0.0
163.91253300000002,-10.469298668573579,-30.539693841780313,-132.71792501427188,3.777797015125768,0.5560768365080282,1.0331615535974794,0.4733687265560102,0.4863417749392461,-0.5621945313022791,nm,0.0
163.92202699999999,-14.66783804878512,-30.363170204173162,-132.68562039002495,3.231488482520063,0.017853752059567216,0.509678196319808,0.5039293244065286,0.5124952523857029,-0.417922586759299,nm,0.0
163.931549,-18.58829379388325,-30.262703492095344,-131.8727800077094,2.43101454207638,-0.5409204580875232,-0.0729128825499798,0.4573885038462916,0.49189864138876743,-0.2311153178491996,nm,0.0
163.941066,-22.10713475147529,-30.563550179957684,-130.46132756655248,1.6006359612393721,-0.8732163729225372,-0.45552968351755324,0.34137338323346417,0.5010883434986458,-0.07107685283900755,nm,0.0
163.960044,-26.839133087397837,-32.955507115705394,-127.03208892311554,0.7935522524977743,-0.8267617871568461,-0.5642328141195727,-0.04910558721936699,0.44030518244361455,0.14069491270911488,nm,0.0
163.969571,-27.904749009416648,-34.81035134165259,-125.65734581508282,0.666158864096622,-0.478055983850712,-0.5938141600619173,-0.20715733280982254,0.36646465325843547,0.16074947598830316,nm,0.0
163.97906500000002,-28.070428395722864,-36.67157672834275,-124.74555606638661,0.5750733024003409,-0.07770995088282635,-0.7977163154877501,-0.30195861536834206,0.2404434561823941,0.16783818564931458,nm,0.0
163.988574,-27.590271214930283,-38.20402246548454,-124.2532421634947,0.5972492541123239,0.26547537796317827,-0.9751698622818481,-0.3090655621238021,0.11442770558623569,0.1617450218990062,nm,0.0
163.99808700000003,-26.972800168391338,-39.217595667096866,-123.97950242770516,0.42247627809147265,0.5320543460674659,-1.0817195839936704,-0.23508803301035205,0.03743990704437136,0.1368616676513272,nm,0.0
