timestamp,roll,pitch,yaw,acc_x,acc_y,acc_z,gyro_x,gyro_y,gyro_z,markers,motor_input
184.502673,8.147323000608754,-17.231991324578154,-94.32695514788347,-0.15228470369658217,0.666202992305867,-0.16795242736032281,-0.17767557150113755,0.37725778755781897,-0.20027261178129316,nm,0.0
184.51217899999997,6.2576903000638415,-18.073053155815327,-95.1559766043237,-0.015511250564547337,0.8015102588693096,-0.19496349773067007,-0.1498122435090617,0.36634684734039946,-0.28456132763997416,nm,0.0
184.53120600000003,2.768248794952374,-18.927314795925703,-97.34379467109515,-0.02571007497534772,0.6386487705656376,-0.4067599195350815,-0.025648491520010495,0.3074888640765922,-0.329840830864993,nm,0.0
184.569244,-2.2776579203782155,-17.886576802201148,-100.2093011615022,0.09298460024113078,0.07452381482601342,-0.19908173997231438,0.12450522898637242,0.1651273393420793,-0.17765657546344077,nm,0.0
184.57875499999997,-3.112884744198786,-17.346282608410597,-100.90310251467618,0.1041723500590081,0.0552080925330121,-0.26592713211634267,0.12243303510395624,0.13193877839358867,-0.19165609207249495,nm,0.0
184.588266,-3.707426982713023,-16.9319373881495,-101.79567247717647,0.14136714718713686,0.10406052857350885,-0.20785296105012274,0.09049995208156386,0.09053031434401046,-0.21585506845589714,nm,0.0
184.59781,-4.141442155048221,-16.517785992730488,-102.86061397819715,0.15795951784363332,0.12790542664433682,-0.05688578702861139,0.08544958485918286,0.05921679707114231,-0.24025627848910477,nm,0.0
184.616789,-4.965242315634944,-14.882565356956125,-104.98135052918278,0.2319624579519304,0.11584502767328438,0.19283620466885273,0.19558287388662038,0.031245968861381684,-0.22632067652107368,nm,0.0
184.64535099999998,-8.773338382441606,-9.875574624100441,-106.61102527838392,0.6358468982503404,-1.0594764957851395,0.8787204558904307,0.49697021781086437,0.21205464524544643,-0.14437208179581487,nm,0.0
184.65485099999998,-11.3260589968751,-7.405322765200532,-107.08844209255213,0.871300767157956,-1.8748688001823763,0.8591729763950771,0.6060073836831351,0.33765662276179625,-0.17396972024739932,nm,0.0
184.66417600000003,-14.788176039979334,-5.208505622297543,-108.01580396114932,0.7932483626893765,-2.7208909436745468,0.2460336883769975,0.6131711420994732,0.5221188418990642,-0.2628703002174112,nm,0.0
184.67370000000003,-18.25104235438811,-3.8778637230482995,-109.61021826656071,0.681952881587604,-3.20075791225608,-0.187766579809569,0.4610226547161106,0.5666380869670606,-0.3745476478385995,nm,0.0
184.683212,-21.29621802670226,-3.606135699374526,-111.8186173244886,0.8748514518130919,-3.2461329937026484,-0.25293523918158567,0.25200286773621167,0.5487237161593027,-0.48171464102239653,nm,0.0
184.692711,-23.90979746067591,-4.378693127318467,-114.06717849933077,0.3620846421413275,-2.5481225285145097,-0.5464975075749767,0.04694085363781012,0.5404994345833589,-0.48576562578807464,nm,0.0
184.702237,-25.370296770095973,-5.524474193512454,-115.32328428536553,1.0665444196214224,-2.189827128301839,0.22479871351561403,-0.10084597337675841,0.36031146727646024,-0.2754958733703278,nm,0.0
184.740283,-30.820441760377943,-4.204933424233118,-111.36566534997611,1.4884755411487076,-0.6224036853569613,-0.5079972448776687,0.1714858043252381,0.015002917858643647,0.24030037830006176,nm,0.0
184.768949,-28.36387003303989,-6.9449602157166055,-113.57847729586675,0.041075987107005885,-1.3703992370822249,-0.0918442133179357,-0.4486449545018014,-0.1637236182302814,-0.31194408880892993,nm,0.0
184.77846200000002,-26.42994261750248,-8.993719725251552,-115.5312783377784,-0.5466370808237636,-1.1827879730616595,-0.13087332834708193,-0.5465801993200744,-0.1784996357298119,-0.33539313395942233,nm,0.0
184.78778200000002,-23.730637030879553,-11.021025703604925,-116.960300465957,-0.5234966338137695,-0.9082144705848999,0.07678582314492452,-0.613561043434715,-0.29774468407770804,-0.19065585988017844,nm,0.0
184.79730300000003,-21.036851468535037,-12.53609724509095,-117.43074395963941,0.009716971900876751,-0.3631556282741324,0.42345628416874054,-0.525301069416937,-0.33081695298158054,0.01696784546675798,nm,0.0
184.806992,-19.376753903182923,-13.357375030223396,-116.7830950449616,0.01729728367369448,0.3721237259235947,0.16663016897905575,-0.3081996049393593,-0.21344802263623922,0.20489186371102347,nm,0.0
184.826002,-17.06363378197811,-12.821268426069352,-113.44047679076827,0.7413671147701433,1.29824580060725,-0.0288193609375362,0.008310286997628789,-0.24141569809903318,0.4113683780702194,nm,0.0
184.835342,-16.162544761931198,-11.613952495142009,-112.0764316945565,0.6169191875606762,1.3815190416686476,-0.12599893871202417,0.1405621277585154,-0.25748066302159905,0.3111634098891022,nm,0.0
184.84503500000002,-14.86085944059276,-9.990434445792873,-111.5056370281456,0.4757566818008942,1.0978543823559441,-0.22147474277851273,0.19269769451399865,-0.35995193225401434,0.1625599159259026,nm,0.0
184.87355399999998,-9.024854705010762,-6.678404804738568,-112.07221360349364,-0.4779800295198894,0.14081876152288877,0.04695479173658068,-0.08112475015712856,-0.49003327201310243,0.04624493823956634,nm,0.0
184.88306500000002,-6.562775664907539,-6.351986109883556,-111.42929279971965,-0.5781658794056822,0.34946986907772515,0.09959732971732156,-0.13463217559436935,-0.48100049721663923,0.1818580856232997,nm,0.0
184.892568,-4.048497679245575,-6.306698579244106,-109.99691180966389,-0.5051614246983488,0.8190603677867286,0.15183012758011719,-0.18214136641897463,-0.47355515603007314,0.33891534331953693,nm,0.0
184.90208800000002,-1.5768551612668085,-6.580312604510379,-108.05474939698557,-0.26835332473727125,1.346456344858881,0.38037723139033475,-0.2255198922808888,-0.4499747015444943,0.4405213514069799,nm,0.0
184.91160499999998,0.49938184145117276,-6.920278768293166,-106.11988544071868,-0.2614242452948255,1.6833929506997667,0.3552503351105617,-0.1995294209023309,-0.3781048901809648,0.43202310363492386,nm,0.0
184.930623,3.667027736069208,-6.589998220896997,-103.77768227972734,-0.4493969511876438,1.473102022844256,0.4522289618973818,-0.011392594407199485,-0.2927875781921404,0.19795209484638365,nm,0.0
184.94012999999998,4.569330555956513,-5.97079342319906,-103.492114282174,-0.6843369776270605,0.9040343573090751,0.4036202389775272,0.06556327830574395,-0.20789386642024665,0.07183596300397857,nm,0.0
184.95915,5.1927271722239485,-4.771645967425584,-103.18714024264261,-0.898610148111688,-0.17453953699353392,0.23089848185273049,0.08222761790217747,-0.05524729388388666,0.04480179811132621,nm,0.0
184.97818199999998,4.762329553675577,-4.8421347983219025,-101.4859692724617,-0.584966521179724,-0.2002621051474063,0.0834728620848326,-0.04603146792700196,0.060426280180944945,0.2009611586592188,nm,0.0
184.98767999999998,4.362975488342385,-5.313699910784623,-100.27341173733778,-0.31847973877058916,0.15301677639806172,0.10282546862889369,-0.09005073372412505,0.09128454913865951,0.23054554021929272,nm,0.0
184.997218,3.9013939161003943,-5.787627520605597,-99.2496111904718,-0.14857708936153793,0.5397200007500574,-0.00882358722499714,-0.09024785540870955,0.10174763671804629,0.1910394343492872,nm,0.0
185.00671300000002,3.574090206086166,-6.053699556763781,-98.67532737887659,-0.045701725582514174,0.7440471638185989,-0.027068525329318357,-0.05477456314956353,0.06755436376472485,0.10331938172164094,nm,0.0
185.01621600000001,3.3285790458857782,-5.993231883508743,-98.61761084839708,-0.03894096922454035,0.7076642793458717,-0.04887390042620186,0.0,0.0,0.0,nm,0.0
185.03526000000002,2.7251918611152695,-5.24223598932252,-99.25461281927568,-0.26914489025026656,0.04265453305994168,-0.012916666020142735,0.08203062352310722,0.04622619676434038,-0.0793005066231751,nm,0.0
185.044774,2.2464984043477596,-4.809335216730168,-99.3489943318172,-0.3845630115136952,-0.2953325833837421,-0.049141673998461886,0.08851578494207528,0.07537550750348365,-0.032074871963922384,nm,0.0
185.07330700000003,0.49540833055516525,-4.450595293949278,-97.7477322391666,-0.2357794352765887,-0.25445732091723905,-0.07602274860971403,-0.010435581574375104,0.12261605995508024,0.12472725257817656,nm,0.0
185.092346,-0.4729921798903361,-4.503905048366718,-97.28272962183527,-0.0631615104334163,0.24213825898703373,-0.11580368037157408,0.003638841836448199,0.08147329868884995,-0.013296321933759413,nm,0.0
185.101872,-0.845122882915588,-4.469400703967303,-97.86614212297656,-0.07098614865265865,0.37369905939621567,-0.11142402862549786,0.004048702261453764,0.06767900496627013,-0.12682937689586338,nm,0.0
185.11137,-1.159823358091645,-4.413119732772551,-98.87071809671215,-0.1045379834429197,0.32330200230899886,0.022201731632788466,0.0075912499859287375,0.055703614135856776,-0.210144196228938,nm,0.0
185.14938700000002,-2.699078829448186,-2.739806960864786,-101.29245030920282,-0.168581661881597,-0.23644927371768637,0.10067455276894602,0.0889809582036016,0.05977986942898518,-0.0052020597583335585,nm,0.0
185.15889,-3.0689780798579,-2.3497695122879043,-101.0069084634759,-0.040189812255982206,-0.22879114424984678,0.08852991733418548,0.07795023203249973,0.05335108641468695,0.04989924532145388,nm,0.0
185.16843500000002,-3.3823819298217894,-2.074568996318223,-100.74587426050611,0.06418253412177452,-0.13080878245599517,0.06251114137559935,0.05296314925275023,0.04700555655423604,0.045892758317804844,nm,0.0
185.18749,-3.5013372433775287,-2.090824470670122,-101.25278648775313,0.17212730390892325,0.0022667689369407205,0.08109795980924525,-0.02583763534817175,0.03724843620649401,-0.09786080593895517,nm,0.0
185.19695199999998,-3.6654084387285204,-2.288191636822464,-102.09407161339279,0.16769761506031466,0.0185440182132641,0.10072745214487196,-0.04516514625621866,0.036267466082346274,-0.17355227056605887,nm,0.0
185.20642999999998,-3.8687689696894165,-2.5686685765407122,-103.10310566927822,0.11362406044948836,-0.01999687570960703,0.140048149013758,-0.05912535442583819,0.04829467522742113,-0.20753318237124205,nm,0.0
185.215952,-4.143905091274226,-2.8924192563125226,-104.00227283722072,0.024334729814159517,-0.07267227184299527,0.13366900614384025,-0.06339502000666332,0.06522479567025534,-0.18634040043179373,nm,0.0
185.24448399999997,-5.297031694140684,-3.5480732261352985,-104.56059548282279,0.13354190906846192,-0.1442886315202425,0.11198852460837919,-0.0255045330426941,0.0799405820772354,0.024963276473027107,nm,0.0
185.26350399999998,-6.099404470670508,-3.681735967409432,-104.19027402433032,0.2649429572499367,-0.15451000364403347,0.029536042160613386,0.0028516050572572073,0.08000487031260528,0.012880131436945979,nm,0.0
185.282523,-6.375183395983608,-3.7281593245009637,-104.95777849310755,0.3611312407914604,-0.2314798430193393,-0.03725545304320374,-0.019868847059732787,0.017565811409379743,-0.11741271706157363,nm,0.0
185.292115,-6.049834657803488,-4.128241902880631,-105.82081890588715,0.2514784848796538,-0.29234502764057557,-0.0867114620445569,-0.04023148342938596,0.0129670708989135,-0.17158710074816375,nm,0.0
185.301618,-5.591665277021039,-4.586104609628426,-106.76354450305074,0.2172752631801783,-0.3413380195019172,-0.008913365756388875,-0.05445876209715533,-0.01933438569910081,-0.18499630987783755,nm,0.0
185.31112199999998,-5.135692298155673,-5.008941428889235,-107.58716548787513,0.17309848852831547,-0.3462707137167034,1.997198552039177e-05,-0.04889380076778946,-0.02857925360581603,-0.16047421770042314,nm,0.0
185.33015099999997,-4.250716341687371,-5.619344233642895,-108.40989193183599,0.16715735174209964,-0.2608528067566994,0.0011604209175076906,-0.035167801783680834,-0.03975115873110417,-0.04720501830959198,nm,0.0
185.33965300000003,-3.8079997735858306,-5.776423084585079,-108.47663273774756,0.19784922940163285,-0.19134881019266803,-0.004594543124852139,0.0,0.0,0.0,nm,0.0
185.36817699999997,-2.442259430345242,-6.085876511845602,-109.07738215189391,0.17225424167648662,-0.11217450140782445,-0.05791527433610465,-0.03788083370800338,-0.038213438011755,-0.07281924591962567,nm,0.0
185.39648200000002,-1.478337999410446,-6.711776442064209,-110.94670130555181,-0.014933826227500396,-0.12912368634261062,-0.14746330605667682,-0.05947005292861391,-0.02473243890133764,-0.12158866005750937,nm,0.0
185.40599699999999,-1.375210452558744,-7.022599148855726,-111.40244929187853,-0.06466192274454054,-0.0787823890097138,-0.13667400480861508,-0.07897151469611147,0.0012602534664485176,-0.09255866439428816,nm,0.0
185.41573100000002,-1.3241151750890159,-7.5228578636112475,-111.65934637355845,-0.05075913840948713,-0.026516607608468183,-0.09113211830215802,-0.10400379765114996,0.012832514507001479,-0.053825857736789315,nm,0.0
185.43475400000003,-1.4309412063799767,-8.32384906081212,-111.78823663159444,-0.012510582949880245,0.12712067497589383,-0.0481383238701774,-0.1013010685700545,0.03678173134712738,-0.011592431250310904,nm,0.0
185.45377800000003,-1.684592650396013,-9.013389120166963,-111.97418941717906,-0.041791338721527765,0.1458092770076601,0.012236704110990936,-0.09986327916715232,0.04264003590829169,-0.03476467626930526,nm,0.0
185.46328400000002,-1.844153074365462,-9.350299899709947,-112.18548265547534,-0.08173056220818688,0.12110807316781974,-0.009421608999698398,-0.0913348664352799,0.03449991583126579,-0.05070476247548894,nm,0.0
185.47280800000001,-1.9402493705262351,-9.704885491335025,-112.4255117793189,-0.09489196060109117,0.10232434712470266,0.07799543950793009,-0.09318052036034867,0.02310870380931613,-0.054493889776667866,nm,0.0
185.49175499999998,-1.779463128248395,-10.37424853453266,-112.74113986712076,-0.16283611242427024,0.08190749257118342,0.23662334769177323,-0.07060742909669399,0.0014198890187765985,-0.019864515315076162,nm,0.0
