timestamp,roll,pitch,yaw,acc_x,acc_y,acc_z,gyro_x,gyro_y,gyro_z,markers,motor_input
180.013744,5.901284062568038,-17.774400039059017,-111.91683152653488,-0.8643524816760038,-0.4645882738565701,-0.033207623860093266,-0.07506744830987498,0.030107441818432848,0.06649974012369844,nm,0.0
180.02325399999998,5.713090647964378,-18.18638365890957,-111.64748508776358,-0.9196220211873577,-0.47947278444133123,-0.03943432027911526,-0.07661931280982891,0.06063442141452227,0.03855910532462141,nm,0.0
180.032766,5.34877693658392,-18.681967486888407,-111.47773551256067,-0.9908679173857681,-0.5504040548892434,0.0007558678535074765,-0.08020002220245805,0.09754112841684853,0.0073186991081985,nm,0.0
180.05177899999998,3.9775513798976196,-19.80589332571758,-111.24296899007612,-1.01763927221639,-0.5999910057255028,-0.07484679564157361,-0.06939637021819611,0.17819315343538092,-0.0329138928898289,nm,0.0
180.06130199999998,2.9865332896536323,-20.467745040718007,-111.1277553585261,-0.9282290289476226,-0.5093308648054741,-0.08664494260891127,-0.06976228147219639,0.21838109863864782,-0.048165024728599196,nm,0.0
180.070816,1.8572001266173328,-21.074637265510738,-111.03862059896557,-0.7801373925139521,-0.33651171689174764,-0.07944785575582318,-0.050923622954343904,0.23783382583161236,-0.06497282193543293,nm,0.0
180.08034899999998,0.7277582160777281,-21.438506161535607,-111.04838518674302,-0.5450535473066649,-0.11578241598096815,-0.1750290403456874,-0.005982438024127188,0.21981363902875903,-0.08630477636710408,nm,0.0
180.089822,-0.3443396609574434,-21.499787163225555,-111.2583927055589,-0.24156606316616017,0.16817952235431335,-0.22208855969154753,0.046919950947613316,0.1878397696202534,-0.12275531732802142,nm,0.0
180.09935,-1.3913919573321807,-21.260324323366238,-111.73144345056386,0.06567357978517185,0.4277393914776191,-0.19300852183647832,0.10235430694255897,0.16140628445127256,-0.17310454200993997,nm,0.0
180.108872,-2.4777579797426945,-20.697164967814356,-112.4267424712372,0.3474350549787907,0.669604521580214,-0.1556955793684005,0.1669799402733206,0.14344731809557837,-0.2189062155299484,nm,0.0
180.11835399999998,-3.764888685938468,-19.91557867773664,-113.18100388400777,0.7534213377153288,0.873536484704664,0.21470405106310567,0.22402148155105073,0.16011286475323971,-0.24211795235633124,nm,0.0
180.13740700000002,-7.171173650248743,-18.223887731657978,-113.78337833024646,1.1091365097433934,0.8855513758626565,0.2503378555950937,0.2615475320182802,0.20589548479229655,-0.11025512103839057,nm,0.0
180.156447,-11.260474080592795,-16.156140410226204,-112.09268567399873,1.9029821065054642,0.9566170875169551,0.5823560943465811,0.36020554377168956,0.31195211742106715,0.09026648710273845,nm,0.0
180.16594999999998,-13.079984835189734,-15.042012859386283,-110.64128401217671,2.5609642043318694,1.1457408844368355,0.7352228875206345,0.3215260630085071,0.2436647811340145,0.19221008924209357,nm,0.0
180.18479699999997,-16.813413537586605,-13.366937563342779,-108.23871901286968,2.8914470197996507,1.3477839179977842,0.32381162895690263,0.24976518353158608,0.3016212278873245,0.10704201702408657,nm,0.0
180.194305,-18.276257647466103,-12.88493429335219,-107.7971392793989,2.8598083590328236,1.2783401956203586,0.05566512657210982,0.16600388055185378,0.2391709134858747,0.02237631120896845,nm,0.0
180.20382400000003,-19.684873284140462,-12.953070791991992,-107.84699569654178,2.4243850333927877,0.9945140645124078,-0.2983929883459316,0.057144386102039,0.26373757984567786,-0.0722482526278187,nm,0.0
180.21332099999998,-21.019704488957238,-13.569813862953628,-108.20276751334777,1.6770432480647568,0.5951603608376581,-0.6252206700664718,-0.0509409441662555,0.2836056708423133,-0.13140060459142558,nm,0.0
180.22282499999997,-22.0266752867195,-14.533365922747798,-108.6068134355711,1.2167797867410894,0.21861566349283248,-0.5575492890890758,-0.1353175049105007,0.24468766737807238,-0.12839071193993046,nm,0.0
180.23254899999998,-22.955648742184813,-15.695343387549686,-108.78967998586997,0.7910138825830153,-0.018386431358372434,-0.48822233404071735,-0.17680766092107383,0.2429959740647309,-0.08334008548501246,nm,0.0
180.24204799999998,-23.86885190778283,-16.935617183610923,-108.532374631506,0.508181451947342,-0.10059118169194835,-0.36494728801340814,-0.1930929569630945,0.24406308773845936,0.002235295682493814,nm,0.0
180.27053299999997,-26.028194072085558,-19.17178908633565,-106.07537080577357,0.3268254705910007,0.2225197854411577,-0.48449231732008097,-0.05753757867333608,0.09858649956783681,0.14103828366806875,nm,0.0
180.280028,-26.237501889055412,-19.31540478970295,-105.52285017449132,0.4483634013203923,0.39805057491931045,-0.6125291382526187,-0.030649266572005618,0.04374354729594613,0.09966923263584106,nm,0.0
180.28956100000002,-26.36651985086988,-19.446942801735236,-105.34637551997994,0.05627637423715915,0.2875824516594979,-0.7771317042896656,-0.03263674985318189,0.028314916637080124,0.02966193262259736,nm,0.0
180.308569,-24.640401327429768,-18.949732822886425,-106.27455274865629,-0.1741349988590979,-0.1098626012736106,-0.5808471586164609,-0.0017512108657908433,-0.23401415551216648,-0.0480737493624859,nm,0.0
180.318097,-23.234129631348043,-18.516834866131312,-106.94684927717414,-0.5723424166306398,-0.39208141904529076,-0.49604227876794244,-0.007048505594385734,-0.2823776756657972,-0.04198641233689803,nm,0.0
180.32760499999998,-21.296468995399923,-17.99309468842071,-107.43578433623969,-0.7958136065317581,-0.6978311391387186,-0.24785229594455946,-0.022668071040374264,-0.3850861819208248,0.02536824601443058,nm,0.0
180.33711000000002,-18.84832078025036,-17.24488197678998,-107.68515640722863,-0.9105297557667549,-0.7954859667316295,-0.03401114000707357,-0.01213310976431481,-0.49285710668264415,0.09958080202608743,nm,0.0
180.356123,-12.495768715306488,-15.68874133468124,-107.46041802499843,-1.2020314452074568,-0.8313788645080742,0.21774199014284312,-0.07640153050281512,-0.6803190925009382,0.23589980192535137,nm,0.0
180.36563099999998,-8.828631288245955,-15.037726285413864,-107.13287128607115,-1.2503281538808562,-0.7447121764866808,0.47948360499423776,-0.099929490130377,-0.7178415349155834,0.2588523345071865,nm,0.0
180.37513700000002,-5.096653814806954,-14.304683356347505,-106.84395013829047,-1.5122614841505668,-0.6100649781173235,0.45150100318300523,-0.08454488351482146,-0.7376090128030713,0.24498380022581537,nm,0.0
180.384652,-1.0399828245925298,-13.521258252094931,-106.61157519001765,-1.6512568942629111,-0.5195104854903492,0.4725770976954294,-0.09016881000468507,-0.8039058110102523,0.2387931374184068,nm,0.0
180.39416100000003,2.98799763555314,-12.859569221948812,-106.35766935604737,-1.7482232305176753,-0.5571293729934319,0.7241585750222186,-0.1089126297528271,-0.7945470157831526,0.23094812650892252,nm,0.0
180.41318500000003,9.321419597878803,-11.95527745722034,-105.22923862595711,-2.1136392455700004,-0.8593582185560945,0.4431540431836399,-0.0966610486698034,-0.5708787586251041,0.26166272157221865,nm,0.0
180.42268299999998,11.382854842627204,-12.010980059736411,-104.17221181047067,-2.0226892743082407,-0.9723213561734529,0.47223604783650597,-0.1253473928213678,-0.3926783614957904,0.29169772303338104,nm,0.0
180.43220799999997,12.284918432219417,-12.51414444979508,-102.93682196959159,-1.868181453756611,-1.0332234510191278,0.26176248938283725,-0.15120579162030548,-0.15327351842459477,0.27999030557470755,nm,0.0
180.44153200000002,12.327330639083495,-13.27355842975236,-101.79973473496139,-1.6113576677737882,-0.9437910936407091,0.06418026505754303,-0.1621048560653134,0.018890328983649948,0.22393959740933408,nm,0.0
180.470244,10.155540004753266,-15.7415526124258,-100.59728037937208,-0.9918536342283332,-0.6911600462213224,0.016671255630171567,-0.1190677757869097,0.24665499702812413,-0.05681177889881132,nm,0.0
180.47975699999998,8.934503390400497,-16.350179441998993,-100.72651216344319,-0.8267296401275722,-0.5760810473567871,-0.12822427732704567,-0.08840510293869767,0.24763689535967923,-0.09803356020398422,nm,0.0
180.48926200000002,7.904631444744091,-16.77271992005861,-100.9295903133105,-0.5583824554372468,-0.3704090036705853,-0.05531993777113104,-0.058212726478342074,0.20429957215863406,-0.10377092506446471,nm,0.0
180.498796,6.864631331684663,-16.935093912594443,-101.15166028425205,-0.35979439747491365,-0.15211571046420677,-0.06361067834616067,-0.006112997870471284,0.19621475196710997,-0.10895722698114468,nm,0.0
180.508293,5.875532921621868,-16.780275946085872,-101.37944470512507,-0.1540966733090868,0.1123565108087725,-0.04266639067816474,0.05495210432888858,0.17434490669894817,-0.10699322704910698,nm,0.0
180.517801,4.844006760101789,-16.296416574813012,-101.67050868809501,0.16021314286211197,0.41006541847145916,0.25478616175372704,0.12190227245362258,0.1693392259706742,-0.12089375076202062,nm,0.0
180.536823,1.6007849638277516,-14.295170436337282,-102.8694378255522,1.036907865969528,1.0852955670987745,1.2046362184503292,0.29090293790453614,0.28970576268199544,-0.2441811481060312,nm,0.0
180.555868,-5.30938689969403,-11.923166136883449,-105.3174586624285,2.3341156491885284,1.638731968218711,1.8429385997026715,0.3932606836779111,0.7125243377051871,-0.4496783140005715,nm,0.0
180.56538400000002,-10.127400025586773,-11.303321128976227,-106.60907682794947,2.951843398021044,1.6480172186904558,1.7445139108999947,0.3653899726093714,0.8715687423636653,-0.4540957042780791,nm,0.0
180.584237,-20.909314493007365,-10.84573438167569,-107.60500291414849,3.0696126347610395,1.1999227723961199,0.3376481090457185,0.33693434209060014,1.0012125802921938,-0.23141964975007404,nm,0.0
180.612759,-32.34536115349261,-11.523373755339795,-104.6642718590695,1.9912138411300306,0.6056096871160207,-1.3237801983539752,0.011219646728784831,0.5672135390238204,0.1257505594157226,nm,0.0
180.641246,-34.15720259582791,-17.4297044367855,-104.3207981514282,0.6482870218224357,0.2193765170250892,-1.0423785660453873,-0.521393258561815,0.04537140038552081,-0.06793527030660242,nm,0.0
180.65095699999998,-32.84716144444301,-19.74584994041134,-105.0730527561902,0.38603084972082236,0.14016690696416956,-0.7067096364080883,-0.5251068316051168,-0.12467244063935694,-0.06274589301581565,nm,0.0
180.66045999999997,-31.210552177965692,-21.276514401219558,-105.68145878185084,0.05801884573425571,0.16739622934731752,-0.5292010531452246,-0.3904080632310894,-0.21635825274805112,-0.0029238240732894624,nm,0.0
180.66995599999998,-29.517844531986395,-21.84967633009692,-105.65059831383688,-0.18951092144605453,0.18561565973913532,-0.560618007801742,-0.20920215488296945,-0.27429370103736944,0.13452775672833622,nm,0.0
180.68898900000002,-27.13419204432221,-21.009885966522347,-103.41094598756521,-0.21937260717385793,0.11703329693099414,-0.6456580371993268,0.07294120765768555,-0.19558214532581703,0.3431808807696492,nm,0.0
180.69850599999998,-26.159114878321724,-20.160743695178745,-102.06435565894549,-0.3490112893474681,0.04127088165211835,-0.7469679415526825,0.11195283183535032,-0.21874730749413662,0.3411988753198923,nm,0.0
180.70801500000002,-24.64720903285794,-19.452861859210298,-101.23821665314968,-0.24201947150670525,-0.15538276296960818,-0.5650457976360452,0.06770757660134896,-0.31089718292227414,0.27054576421902604,nm,0.0
180.73655499999998,-18.080212490060205,-19.41474632270107,-103.17213275017572,-0.9880198512947291,-0.851955056768692,-0.10879881901779624,-0.1840305959325935,-0.48691708994343047,-0.05292287466933876,nm,0.0
180.74604300000001,-15.078224231516739,-19.754343972375207,-104.25148145837049,-1.0908991766352971,-0.8851003487451897,0.17889693714919672,-0.2140967778436462,-0.5373605704629472,-0.01396624785047929,nm,0.0
180.75555599999998,-12.03237237985434,-19.87866515652769,-104.8928777629355,-1.3484254517246137,-0.7713007164601313,0.07079848162744765,-0.18225081076068386,-0.5524348887617369,0.07836096764214504,nm,0.0
180.76506300000003,-8.746593328372805,-19.80956216623127,-104.88792762606379,-1.337571638765823,-0.6076992531118995,0.1218541691738696,-0.15938250910861013,-0.605307224661611,0.22364972596847846,nm,0.0
180.784097,-2.4586758584007025,-19.369853987285193,-103.51633973518013,-1.2907198453107853,-0.4911504313703458,0.21096280893340982,-0.09647179925279638,-0.5689412417247565,0.3596479541758815,nm,0.0
180.79359300000002,0.505397859398886,-19.008375839084415,-102.88052902974304,-1.2734610136255022,-0.6035558046278156,0.21281732392339298,-0.07061915323722143,-0.5671720085918249,0.3197352599265662,nm,0.0
180.80311700000001,3.32517735753968,-18.775108044151825,-102.76559798245903,-1.316925236962441,-0.8494216990964387,0.26917837490496477,-0.08589006375960274,-0.5363985915008073,0.20263230201926308,nm,0.0
180.831643,9.648400871268672,-19.14313792995173,-105.47186278847671,-1.4887120105431506,-1.16872159979744,0.373683662285315,-0.1395114443473845,-0.2966920578992445,-0.13667661586579996,nm,0.0
180.84115599999998,10.744152126955688,-19.627065716165713,-106.67614970897124,-1.3490078067115014,-0.9990876758270065,0.35180177956239583,-0.1629782860413309,-0.17700995979464904,-0.1727008135477682,nm,0.0
180.850646,11.260630116403881,-20.176640495578287,-107.73386341689654,-1.2516419511715258,-0.7970674145114371,-0.0006402873929668804,-0.14649715924793355,-0.06515136445379079,-0.18099232217482686,nm,0.0
180.860177,11.680651623384982,-20.781054127529877,-108.56528301467937,-1.127876392010627,-0.64774038990857,-0.07983855434195992,-0.15220313345539555,-0.0418843860950587,-0.1414505181144462,nm,0.0
180.888696,11.873254929574196,-22.312525464080107,-109.49644630821508,-0.7780041527212873,-0.30576481291671537,-0.18929726951716452,-0.07663458043616722,0.01673366604202249,-0.02072770989972128,nm,0.0
180.898226,12.01598838080987,-22.41405928516211,-109.53392520720614,-0.6445311943844867,-0.24932151164800323,-0.09450526349341523,0.0,0.0,0.0,nm,0.0
180.90773099999998,12.247817029158492,-22.26838679345222,-109.68506929638086,-0.577019183449972,-0.23037720130226064,-0.2125891663039444,0.00035113948617917606,-0.05487796581771997,-0.01690479944601926,nm,0.0
180.917245,12.705110240361432,-21.852514511282536,-110.04862717409647,-0.42567715859980737,-0.10087901224897228,-0.09262186883562601,0.036788184795990844,-0.11269389540325236,-0.04282421595386967,nm,0.0
180.926753,13.11684075149229,-21.170112663274192,-110.68504918236398,-0.2179996131801086,0.1129924453717458,0.07411891800514907,0.08872825457439727,-0.12389458129765532,-0.10178393346026944,nm,0.0
180.94577,12.452734859227705,-19.455774306882983,-112.8339280930161,0.4204771265052106,1.0152307929264417,0.7823811405890059,0.19839838279461985,0.04833425785436928,-0.2943436879486906,nm,0.0
180.955277,10.50052858875704,-18.55653064837569,-114.28640182867139,0.7984566498636665,1.5436848751863743,0.9985361989714752,0.2997201612670908,0.26371084620031615,-0.42261083514659215,nm,0.0
180.974326,3.622550147218913,-16.93967589722973,-117.30667890893663,2.5677872183448733,2.349434381061396,2.099149237972479,0.46411793928665246,0.6209934015430045,-0.5397253650715637,nm,0.0
180.98382999999998,-1.634942190854763,-16.401381038648864,-118.48066924052729,3.0145141742027777,2.1320635662129117,1.714624768167158,0.5531361909711302,0.8401882976362337,-0.5394508886622376,nm,0.0
180.993345,-7.129616708712479,-15.943624612432473,-119.01208892503236,3.372824694264124,1.6273650240645763,1.3141999807508766,0.5744354605345882,0.882243826441801,-0.41428230801801647,nm,0.0
