timestamp,roll,pitch,yaw,acc_x,acc_y,acc_z,gyro_x,gyro_y,gyro_z,markers,motor_input
147.04108399999998,-22.04520462831657,-23.224017695351545,106.96519848880958,-0.5560221017359193,-0.7708924247942975,-0.8565977476187988,0.4969267586614476,0.19775859179759053,-0.055260010809791746,nm,0.0
147.050583,-20.870763162104385,-26.087676539336023,105.99922297312546,-0.40854481316725505,-0.5475064604415935,-0.7933298821110277,0.49978251102946364,0.3768218941812192,-0.09276867341904949,nm,0.0
147.060265,-19.50038130726833,-29.081796980807184,105.00769309435056,-0.08840332967205979,-0.29391686694900365,-0.7271556080341158,0.523422712926072,0.4036310888648438,-0.06886398453564878,nm,0.0
147.06961900000002,-18.174386867755313,-31.442478402870538,104.42989891746336,0.24712173154818873,-0.2863937364825926,-0.8069057770512603,0.4096955570802419,0.35085007762981285,0.020671300346495614,nm,0.0
147.07906599999998,-17.087244815492664,-32.84606475970985,104.64890838768902,0.3033035412155442,-0.6021661920180859,-0.9722301577439981,0.23649100859278943,0.25802070206028704,0.1621209971846657,nm,0.0
147.088602,-16.716418644697466,-33.683897015443605,105.7633473115045,0.2603976887868557,-0.8259614484669644,-1.0845844114984131,0.15613691115861325,0.11318713280600148,0.26630911279580993,nm,0.0
147.107602,-16.989013528959358,-34.01112363504584,108.64400203740165,0.10154664835882127,-0.5011796539428892,-1.1713343842215733,-0.002935866289149025,-0.0081827037082761,0.25709975104626537,nm,0.0
147.117136,-16.76349771553875,-33.77028992811696,109.26110681287355,-0.013343975196451351,-0.19815713839038282,-1.0948283273999755,-0.04786005384623514,0.02965556534811367,0.15119709159234815,nm,0.0
147.145836,-14.280333797727057,-34.51123894116679,107.75333547080821,-0.11385826687421084,1.0605810121366384,-0.3065131460012551,0.014326974820309847,0.19752825330552315,-0.03185984535959577,nm,0.0
147.155177,-13.373178680647406,-34.64435864040309,107.27922297877821,0.016654964440929364,1.2263744167160209,-0.3415963399073435,-0.009541064294815488,0.1604881087587829,0.01012909418126481,nm,0.0
147.164685,-12.633559443640099,-34.690668959125865,107.45635053864493,0.06818400776429341,1.173964450332431,-0.35233548846160967,-0.017540305876525282,0.12898282017531126,0.12153236507515391,nm,0.0
147.174411,-12.102553692718114,-34.58537658048156,108.25939026801555,0.06264732037685924,0.9105558151408122,-0.39292890608663067,-0.03711075972959068,0.08697141153356973,0.2229270984791033,nm,0.0
147.183729,-11.713689383814193,-34.15186727029538,109.34807784198617,0.14077708258198626,0.7530074066707513,-0.5631149163779914,-0.09334285350531081,0.04326874409967239,0.26350885602678037,nm,0.0
147.193209,-11.01870139655214,-33.27816372851532,110.2921926172866,0.1800900376584499,0.6431660329726997,-0.6372487677533174,-0.19453716664622211,0.06023079166815905,0.26761668482716144,nm,0.0
147.22189699999998,-5.295333509628164,-28.119277602745477,109.94828908440495,0.2663019708395312,1.3752228526197483,0.2349673462697914,-0.538160419772513,0.28127926858862384,0.1207801664456382,nm,0.0
147.231417,-2.2529358900769414,-25.917481559016277,109.27457539774998,0.3728165720579294,2.0475129830023415,0.5485732926347371,-0.5887124011609142,0.37448984383986306,0.14073096608826885,nm,0.0
147.24092299999998,0.8138840947654691,-23.946506075497556,109.07908775515256,0.3372882311005849,2.300163302185527,1.1446248681445512,-0.547213056610866,0.4076490978224145,0.21772013884304076,nm,0.0
147.25042800000003,3.117369831423098,-22.32047260000908,109.58924527815971,0.4934399706453066,2.5714289144794726,0.9622413098325946,-0.4395749034577954,0.3038572326961487,0.28065044250001175,nm,0.0
147.278965,6.608175868476334,-19.806726652500526,112.2143444646759,0.7228118382041827,1.486954108143039,0.6500985767728491,-0.1318494145484568,0.08969082486487594,0.1398269946205793,nm,0.0
147.28848000000002,6.967538973680718,-19.400936281411976,111.8335622375362,0.7696678620413284,1.2311967974899936,0.6647538059743634,-0.09351796637454954,0.043992187257506095,-0.05588490513182875,nm,0.0
147.297987,6.8768670865996215,-19.130428220769023,110.69495796908402,0.7142986787499469,1.1542564112481084,0.5585244268709428,-0.03678061382137311,-0.024170162489703072,-0.23775887133452658,nm,0.0
147.307513,6.205163753070105,-19.118376659893176,109.27255661047948,0.6512401454576194,1.2075370489727548,0.5020775011039367,0.04901597986456299,-0.10902054024477674,-0.33252698221978183,nm,0.0
147.33604,0.7303245292656684,-20.11005258545125,108.4601057911898,0.06809111849573686,0.9818385113447243,0.2856213743048194,0.21044571171238652,-0.37588854487174195,-0.04508128564914147,nm,0.0
147.345544,-1.5944208671369782,-20.329101369679346,109.57499219949248,-0.1797646699726913,0.6987203566749974,0.17169300540484567,0.19243206023538764,-0.38759233023904194,0.06023648800127546,nm,0.0
147.38357599999998,-6.859238017568788,-20.620078436457216,110.09707321780479,-0.35801000030160957,-0.7862231122342542,0.2686659562797197,0.05220453438230572,-0.01932463615910099,-0.21961171846500052,nm,0.0
147.393086,-6.974815160604567,-20.662421969858872,108.48477818363769,-0.40046650550515744,-1.0168779335427476,0.3775647134010595,0.024471204187689808,-0.00697848287205449,-0.331899025419852,nm,0.0
147.402641,-7.288579800578339,-20.5741857456055,106.72502083319685,-0.24026419200969013,-1.0013782486894842,0.3214378216041865,0.010603450964616932,-0.05104708756301256,-0.3753402530724568,nm,0.0
147.41214900000003,-7.62116384983012,-20.404390880301655,105.3297015335019,-0.3431904349513753,-1.2111275489516253,0.6782129460199574,-0.0055208870293551576,-0.05925435363209299,-0.3035181624220987,nm,0.0
147.42167700000002,-8.390186372095236,-20.142139578264498,104.57300174795466,-0.3662274150647063,-1.2742618839082853,0.69030703506489,-0.003343838832008289,-0.14319176594461772,-0.20558696355050582,nm,0.0
147.431185,-9.437103871001302,-19.738666914558365,104.46886302896588,-0.4017689664690851,-1.2621591349857704,0.5178950207778188,-0.018581698771344635,-0.20118914201006588,-0.092915134814322,nm,0.0
147.44069499999998,-10.487428168243262,-19.17508120380256,104.7519823114072,-0.569792988457509,-1.4672107282247908,0.49576184082732133,-0.04894214200263924,-0.21053055549520255,-0.013802980445345182,nm,0.0
147.45972600000002,-12.263192459483525,-18.394633308196074,104.90614950360937,-0.6050616040403404,-1.621037066957481,0.13549642022736666,-0.005069822460482881,-0.13934790435791178,-0.06891095095339796,nm,0.0
147.47875100000002,-12.29114528904529,-18.909461700162627,103.12797236534205,-0.5063279527729805,-1.3480809581716433,-0.03696439296393382,0.08995814326763414,0.06986637033072064,-0.21051207113671408,nm,0.0
147.488241,-11.740755197193863,-19.728541659236306,101.86473962567152,-0.3747752670615996,-1.0174613356221056,-0.056832754140058055,0.14841939282922945,0.14625401854509626,-0.2165389661744594,nm,0.0
147.49774699999998,-11.01165402742759,-20.684548888611964,100.83474342831205,-0.26878044523381,-0.7309126746943437,-0.02630385458743462,0.17164331782333034,0.1810861862167609,-0.15590795089179207,nm,0.0
147.516833,-9.99934669447067,-22.428859523240998,100.53704930042284,-0.11281955081070436,-0.4418903841531275,-0.20737360019193724,0.1642819859345902,0.11005371058702076,0.06661296191469152,nm,0.0
147.52628,-9.86230014166866,-23.270937604280814,101.26714634999911,-0.13506129924311308,-0.45440487948355074,-0.3130814659249717,0.17157879429201914,0.06599015833548806,0.15677960604982683,nm,0.0
147.53580200000002,-9.899980023831956,-24.0883625823339,102.17617389297385,-0.14948106362514116,-0.4788494843203409,-0.46668929047370866,0.17231427667360474,0.03592246271264698,0.1790237725047933,nm,0.0
147.554831,-9.745439952935794,-25.618875674490162,103.04897572996454,-0.14877474697201803,-0.43481715576813057,-0.6484571427103383,0.151742887583307,0.07305334939963283,0.05214422421056241,nm,0.0
147.56433,-9.367515863217388,-26.37431401975572,102.69841528798696,-0.1008271666571237,-0.28815175643597146,-0.6284273523689478,0.14282754676229667,0.10956522931693702,-0.036776779182550304,nm,0.0
147.57383000000002,-8.787817886805202,-27.04862284170268,102.00092516302153,-0.043638355814668905,-0.11645784821463052,-0.5372717357435169,0.12031137277470427,0.13963701702264422,-0.08725341644258977,nm,0.0
147.61188,-7.146280191664073,-27.69677037564581,101.56575783343769,0.030184133857790195,0.2508127966733663,-0.2534907939884497,-0.02567155164091333,0.025037296672867682,0.12434226383522551,nm,0.0
147.621381,-7.091242778210764,-27.401570604012594,102.37336879110555,-0.011911190453868414,0.2778808219257143,-0.291769878880915,-0.04946367313154322,0.006992810873068204,0.16670581813042748,nm,0.0
147.630891,-6.862077124207428,-27.0555887457796,103.14508122016107,-0.07248949147676702,0.24001714757903325,-0.2299589794601815,-0.06634352601021501,0.03434610076032627,0.1753304292532373,nm,0.0
147.640415,-6.453268922139918,-26.73337681079775,103.62851908351237,-0.1307053299884248,0.18958357163558237,-0.10088815101879409,-0.0695483013375681,0.06604997640915301,0.13353101116145139,nm,0.0
147.649934,-5.968699892136828,-26.47021021160285,103.69953627941139,-0.04360529087851721,0.2534132267125472,-0.06086305204166587,-0.061630335923183725,0.08186287689389847,0.05725551458785978,nm,0.0
147.68793300000002,-3.931799131514765,-25.78750001246291,108.40446811028626,0.15205259395697326,0.35129506911710645,0.25066102151989533,-0.05105347376807475,0.03296312466465481,-0.012040206056983757,nm,0.0
147.716487,-5.1889474324967155,-25.063873118369187,118.2027052001859,-0.00793057408908917,0.32186071978292574,0.14895468914507365,0.035677834215300915,-0.10775379186256427,0.07556758724107418,nm,0.0
147.725971,-5.941883571779031,-24.931417336716112,118.81013830069847,-0.06407887838247732,0.24403397432166216,0.12080622441690497,0.04902815249895801,-0.12046134534950298,0.057278535479342495,nm,0.0
147.73547599999998,-6.644291351707645,-24.820252107359025,119.19266645888074,-0.10489944448675188,0.1974577636215948,0.058611058295514676,0.049505601908447154,-0.11010697820767652,0.016922388095576005,nm,0.0
147.744995,-7.179511556822609,-24.74146058147911,119.26972862489859,-0.16607087049086544,0.14672623308233523,0.03430806426226337,0.04089414989972849,-0.08035164453427734,-0.02989121736845496,nm,0.0
147.773605,-7.57709447973523,-25.301160174831086,118.35708148620992,-0.16381953645496147,0.12518265750768506,0.014117530087260695,0.010923694809488387,-0.006165988238363183,-0.06171651429174995,nm,0.0
147.783108,-7.52798148514461,-25.386348947682105,118.24756763869047,-0.153849639934752,0.09257495974306472,0.059837302840844556,0.0,0.0,0.0,nm,0.0
147.79261599999998,-7.477156245718925,-25.382092627177478,118.39326317096572,-0.13870946989376884,0.09098649959840828,0.0155752893024351,0.0,0.0,0.0,nm,0.0
147.81162099999997,-7.037619063504532,-25.186938966088775,119.08733478751543,-0.13936585814447527,-0.003750610780833366,0.013457855603915804,-0.03873128224504085,0.015704996464253784,0.09732960764244172,nm,0.0
147.82113999999999,-6.666140739477586,-25.080344283384537,119.34521211039709,-0.10933536303352971,-0.01919027576270228,0.059686669536606674,-0.0403294642754784,0.037827344420511194,0.08281541427660795,nm,0.0
147.830654,-6.159524594413072,-24.95930146318045,119.38545217285771,-0.06898926046697407,-0.02791803679880746,0.07224708183535132,-0.053372453205845334,0.06629769385932092,0.05042078374119721,nm,0.0
147.84018,-5.583118979175295,-24.84673568679271,119.20366527812175,-0.003983919214381109,-0.008381912081112318,0.08281966954998277,-0.061055201023326774,0.08961543214279705,0.011515162896437586,nm,0.0
147.84962299999998,-4.963389851790193,-24.791338376035544,118.8686128524332,0.03073228445747295,-0.00982500481646946,0.13061258310460508,-0.05735529403492691,0.10541723460020362,-0.015803852850315242,nm,0.0
147.868615,-4.064021346528269,-24.719229946042674,118.24656878151531,0.1352015770629676,0.005595601573454859,0.1941764692566467,-0.03225610172084213,0.06681908861643918,-0.021793430981493354,nm,0.0
147.878118,-3.8836680759127726,-24.66795044731845,118.18289984581601,0.1376318839952172,-0.038344704032355265,0.21512474702675016,0.0,0.0,0.0,nm,0.0
147.88763300000002,-3.9379050318622895,-24.63153971921547,118.30832406270142,0.12299256263302422,-0.05837121515486344,0.17467344786826355,0.0,0.0,0.0,nm,0.0
147.906671,-4.335107614614814,-24.611597514936626,118.7766957442426,0.0355636176611557,-0.0848188517005589,0.09826448445770786,0.0,0.0,0.0,nm,0.0
147.91617599999998,-4.510111807127194,-24.658161579515166,118.90301496352619,-0.015019460804338337,-0.039737229439720724,0.059965884713530086,0.0,0.0,0.0,nm,0.0
147.92567799999998,-4.562445148511386,-24.771979668015344,118.88034948584735,-0.026603077610761756,-0.03396882244648987,0.03661182925066332,0.0,0.0,0.0,nm,0.0
147.935284,-4.454282225610043,-24.95938337180715,118.71825226797408,-0.012725416088832405,0.017123167630443793,0.051356615246644144,0.028563164231000915,0.04141669227640019,-0.02423889438036321,nm,0.0
147.944788,-4.288731844811102,-25.167203432705456,118.52811136506652,0.008365251785941477,0.05062383304359886,0.021633395497578135,0.019698439451606667,0.06088292494944094,-0.02489595031677645,nm,0.0
147.954305,-4.082014071970199,-25.34854750847534,118.41275853170679,0.076229286327215,0.03827723301237725,0.005498784862681913,0.010126658608974269,0.07743295401341173,-0.006311875399079517,nm,0.0
147.963809,-3.8859738254202094,-25.486711585572294,118.44639669922738,0.12247017560337481,0.06178947214835235,0.008407532303535968,0.006761707415548724,0.08604370099494237,0.022675110195514717,nm,0.0
147.982828,-3.6919756966365282,-25.490744518515733,118.94783331960583,0.26230261849292297,-0.04886068260391253,0.027091657315962546,0.003546392377819162,0.07255738595445746,0.06546443427264848,nm,0.0
147.99234199999998,-3.678633033830134,-25.35581855081254,119.26870649101424,0.2897719520762327,-0.08498760714362615,0.042687989175235606,-0.00052632362462644,0.06159844153918891,0.06433537386685619,nm,0.0
