timestamp,roll,pitch,yaw,acc_x,acc_y,acc_z,gyro_x,gyro_y,gyro_z,markers,motor_input
144.530289,-8.649142126713974,-28.26774803368408,88.22460244396112,0.6461643250398581,1.33161131513236,-0.15703012677837952,-0.2804771166510561,0.2637055413869009,0.2003051455582043,nm,0.0
144.53998700000002,-6.407854952298136,-26.634389294777097,88.02500006470581,0.7820908708182271,1.5065487263268273,0.05976110073200103,-0.3014084288154546,0.4156477480225911,0.16662348115799208,nm,0.0
144.549495,-3.583014418662266,-25.036009589756354,87.444358790054,0.8820074551627917,1.645202564807922,0.42337808943531874,-0.28731933218081374,0.5283779601233861,0.12922178369760667,nm,0.0
144.559,-0.6624513262059326,-23.54854351108747,86.74376006211581,1.1935247913622775,1.9208753059731913,0.5987924092752234,-0.2582033726271225,0.554532154438453,0.09854632873878866,nm,0.0
144.56851400000002,2.129199805044913,-22.268977443771586,86.21811936699595,1.3228339583480782,2.049915483611461,0.9104421742636182,-0.21207146091013915,0.5368256671300417,0.1098758767155299,nm,0.0
144.578026,4.327742283367393,-21.35384185432959,85.970598933441,1.5360454298007442,2.2474244103980205,0.909481369080116,-0.14311918020018824,0.4274914792286004,0.1109827175666928,nm,0.0
144.587543,5.841945963942811,-20.876520604668183,85.97293397072859,1.5047145333129435,2.2092341381354377,0.9816779696389588,-0.0637743773315908,0.2961883594583195,0.10631768676647874,nm,0.0
144.597047,6.508286806144376,-20.78738187519273,85.99086981157086,1.4685738959829613,2.0254234478865087,0.8320962438326405,0.002559760438789416,0.13301808902897874,0.04753369302639731,nm,0.0
144.60654200000002,6.570123568803674,-21.013837657494857,85.75988203266397,1.2685026528556864,1.660788394658289,0.7082504642342933,0.057714815131160155,0.015608631952294467,-0.0453136720766137,nm,0.0
144.644604,5.6160061719810255,-22.33194100637753,80.86270255593065,0.8394177771274614,1.0917420913152118,0.24717740847570135,0.06874024742356791,-0.004173996315891643,-0.27846554090096404,nm,0.0
144.65410599999998,5.468522621586097,-22.545631083184727,80.14413360920979,0.8386562390796627,1.1172786462108963,0.19496472857924102,0.05013245052397304,-0.027845211499688903,-0.15821144498934692,nm,0.0
144.66362,5.1361587090935865,-22.690161490371157,80.3095915068155,0.6845301927154726,1.0611322072189848,0.2157511551375276,0.030536511281884327,-0.0592951493488824,0.004544046417942417,nm,0.0
144.67313199999998,4.488001386045652,-22.81938852662661,81.22515035685568,0.4789188759893112,0.8784191102471373,0.13454185660769424,0.018740341103997082,-0.11597462419119864,0.13025920172527616,nm,0.0
144.68263800000003,3.6381107455529107,-23.00618294186882,82.48877752283073,0.2777960391767504,0.6444287618388976,-0.01196537905282416,0.027159843858505683,-0.15395307693010132,0.1840717233813452,nm,0.0
144.70165899999998,1.9643804118910753,-23.46779543917881,84.23623522063842,-0.0691007840904045,-0.007086481841139684,-0.20449203837920277,0.042562519014477974,-0.14751700579232294,0.05589635905249787,nm,0.0
144.72071000000003,0.626748303793492,-23.843098565942427,83.53019371633513,-0.38717587934205566,-0.8185465610509856,0.06968869414710871,0.030908108918822022,-0.1164438634160311,-0.1831178231892183,nm,0.0
144.730225,-0.593268095607005,-23.880829165682243,82.59564313977523,-0.4165243575069057,-1.1089421246255915,0.06319691741539901,-0.0068224441079862775,-0.2165373738573336,-0.28770673958586396,nm,0.0
144.739748,-2.0896068918168185,-23.720339135282952,81.76487917004016,-0.5684249135996198,-1.497856847218245,0.09146410384936905,-0.056289551153510496,-0.2614001454986886,-0.2887583771583036,nm,0.0
144.749265,-3.753630377299862,-23.45454603828827,81.32451078141482,-1.1899179337085946,-2.118520262221978,0.523093022973824,-0.08454910602036428,-0.2886514371099452,-0.22272875008131965,nm,0.0
144.768095,-8.936070239784359,-23.091570258739758,81.69225559161684,-2.204005056993232,-3.215920519255478,0.9230785827085405,-0.09340504938587442,-0.4984832288750022,-0.14682420775090352,nm,0.0
144.77760800000001,-11.902054176806889,-22.800666224264916,82.19224352126633,-2.79719531122169,-3.6006826532258067,1.0954852154508428,-0.12105024224399201,-0.5283203915015823,-0.13116982817158737,nm,0.0
144.796591,-17.02253586605629,-21.709691832438466,82.75158570471258,-2.6405632282254414,-2.8675118820520105,0.19038105442565667,-0.15778699394156276,-0.3871278243469656,-0.1315237080141825,nm,0.0
144.806096,-18.676366916977397,-21.490207140407627,82.73316840701202,-2.2811697982403216,-2.180269327361216,-0.05975675072267954,-0.06914821671319492,-0.2952936768479531,-0.12407413924886838,nm,0.0
144.815614,-19.734578325527252,-21.86970624706074,82.59914556593446,-1.5488063788009554,-1.3298753653846944,-0.41341631354706204,0.06359397594136598,-0.2005288860483771,-0.10332912042256068,nm,0.0
144.83486100000002,-19.903730000250345,-23.885583487652184,82.16329132808114,-0.7754651916579662,-0.5920398844399871,-0.43244209369217707,0.2505922676553551,-0.011657698016761357,-0.03331047011227812,nm,0.0
144.84438200000002,-19.58335032743186,-25.334229204458527,82.16262071488478,-0.4874656685404284,-0.6387321828382835,-0.3933543522306412,0.30871666560399097,0.02249881867566441,0.028711642591679794,nm,0.0
144.853711,-19.075402074050004,-26.621873998590285,82.40360935949452,-0.370789777235693,-0.834240384272656,-0.48758617362982537,0.2811528937502795,0.06032113892716309,0.09496769242175344,nm,0.0
144.863193,-18.59207835548345,-27.49246759648401,86.18288613403097,-0.24907138803339499,-1.1408466452874129,-0.8105681279547999,0.19300572418945272,0.07894459496851018,0.1321811335744038,nm,0.0
144.872717,-18.36300471131253,-28.167338326051002,90.0696580930015,-0.17602453884051475,-1.2981883011065962,-0.938853751404999,0.14795373069103623,0.04613693190327228,0.14053011225571074,nm,0.0
144.882237,-18.417961506081898,-28.68392233068969,93.86600109602996,0.0255154794272747,-1.068549800340087,-1.0437032442123046,0.11607373068771139,0.003700844543789035,0.10998164230573065,nm,0.0
144.89173300000002,-18.459625883038825,-28.88662482652426,97.42991173495228,0.089101518382158,-0.6764410666657171,-0.971192234481997,0.05296187706953664,0.005496845991124946,0.06844920921018759,nm,0.0
144.901377,-18.48217012605827,-28.887096319665602,97.56761632797382,0.05373596007631826,-0.13794120979918362,-0.8152490837386158,0.0,0.0,0.0,nm,0.0
144.910903,-18.569637793118076,-28.937170161789595,97.6578455852781,0.10767156042088849,0.5421377867920493,-0.6691703527514784,0.0,0.0,0.0,nm,0.0
144.92040899999998,-18.567461899466707,-29.138187952002202,97.87692880800128,0.04595313062008948,1.0963446809843038,-0.35221958588733493,0.051549635961604265,0.013510806175021182,0.04639955162668454,nm,0.0
144.929907,-18.49211115992432,-29.34687097726474,98.26488479738335,0.038523871133027715,1.4583036301658654,-0.15117988496851126,0.05119041420146951,0.026676792784188993,0.08737800700582096,nm,0.0
144.939243,-18.2331103700737,-29.522224094276602,98.83463404112659,0.1733318355934614,1.69187685331087,-0.24607136960175757,0.03958949636587172,0.05780187165009213,0.14185949666447523,nm,0.0
144.95827,-16.421427377363,-29.695062971609573,100.21542119861026,0.2810369533419992,1.4959563796060913,-0.2667182874209456,-0.01667435489694678,0.20183977639815898,0.24866032233521512,nm,0.0
144.986972,-9.076156920241152,-27.48935119845276,100.71527197173971,0.6161234208813333,1.6217259840317613,0.1629483636189726,-0.3275562167455415,0.48729977830592985,0.25789072597409846,nm,0.0
144.996479,-5.664524930756279,-26.1787137945477,100.57616942847018,0.689499375947357,2.02132252637671,0.5857333536351477,-0.3599046336234815,0.5601176000667579,0.2800344257332638,nm,0.0
145.005983,-2.3727182350450335,-25.015953082405595,100.66805642948427,0.7875862230332995,2.5005366926063592,0.9774087342420321,-0.3280942664235254,0.5511137932783381,0.30189645495256084,nm,0.0
145.02500999999998,2.8712745817453875,-23.670395954195914,101.68039011130347,0.9487890336188082,2.63773417922406,0.9149738264811315,-0.1559954891509932,0.4173777077996455,0.30701137500619785,nm,0.0
145.03453,4.704242059279632,-23.96368317274582,102.07438387972832,0.9806195687594192,2.2574781266246418,0.7611319548825585,-0.0023364299382933294,0.35107125425094604,0.22437146212947084,nm,0.0
145.053555,6.530127277123202,-25.136958792240808,100.99196568113584,0.9885411173896322,1.509498818931731,0.04326517406826128,0.09026550426899128,0.14650685264942753,-0.13589942841563224,nm,0.0
145.06305999999998,7.451075089530791,-25.595677548998346,99.42014188944584,0.8865581922920551,1.2755807105918617,0.25208123243843156,0.07033001820392358,0.19044466319256523,-0.2386490914023541,nm,0.0
145.09158799999997,7.99347479226178,-26.438258175896248,96.21399604265646,0.6845484967750948,1.548588746731237,0.20518336507574209,0.048035145874141816,-0.010411773047342495,-0.06597987475123601,nm,0.0
145.110418,6.466293090845329,-26.90766905296794,98.03128128907089,0.34120822320279265,1.4327496003121976,-0.24835815790956536,0.08449828194195502,-0.12790431191691332,0.1562381617708389,nm,0.0
145.12011600000002,5.9741131557439475,-27.184998772419334,99.2191607886325,0.09969387049918918,0.9340255212695386,-0.14985205058677786,0.07771020735597849,-0.06831518300946787,0.19052972051153394,nm,0.0
145.129644,5.4511660717652255,-27.539044473469637,99.93728346905489,0.013506178806062606,0.5984927513557791,-0.4052972732814173,0.09495742159470152,-0.06967429762318267,0.09330795274319299,nm,0.0
145.13914400000002,5.116149114419562,-28.01262796082446,99.92672002488136,0.03786497032612869,0.2635850897194014,-0.4757804622427751,0.11326682088562558,-0.03189273506254406,-0.03558475766106493,nm,0.0
145.148652,5.026495256269471,-28.363458818059627,99.22782508751276,0.023087642010436896,-0.21854340556426186,-0.2768240451108812,0.08165917507307498,0.0061812942842565345,-0.15054794115172754,nm,0.0
145.158176,4.762116591159204,-28.339338409919026,98.10057511758728,0.05999570686577956,-0.6374647860387708,-0.2239823207851251,0.01222209730263935,-0.036914581032452744,-0.2529358484232238,nm,0.0
145.167698,4.019182886548742,-27.953640890567502,96.89708926541829,0.012124807119146793,-1.2274805960247515,-0.029456303772614552,-0.04919088518865348,-0.1305543352496793,-0.313170238526735,nm,0.0
145.177204,2.4919822131664437,-27.322046626008774,95.90668976314667,0.03845090971770441,-1.6142370089244218,-0.009840026346805732,-0.08488323983847444,-0.27408343909544264,-0.34201085515149615,nm,0.0
145.21525599999998,-8.357896445165382,-22.876927358632248,95.78266599440306,-1.5854892846536892,-3.6227044871404663,1.5132617229271694,-0.12901763078365303,-0.6139138059700728,-0.17309239882490107,nm,0.0
145.22459999999998,-11.950135905214161,-22.21657126529673,96.42501272875232,-1.8194075808988501,-3.330236229789419,1.144520934065915,-0.04916748682376285,-0.6664834978834239,-0.14701869479292745,nm,0.0
145.23410600000003,-15.325703053068771,-22.042324513545527,97.24019184847019,-1.8544227964045001,-2.8944290743675216,0.729839760037359,0.05152627533340753,-0.617783602064873,-0.09055943712797515,nm,0.0
145.243621,-18.08005798404925,-22.40181932078661,98.16172717387536,-1.890555816487366,-2.4493932975721204,0.3712383110848204,0.15138006216813207,-0.48830250222652255,-0.022619345915478373,nm,0.0
145.25312399999999,-20.269112947130736,-23.26219540112683,99.01587336966051,-1.604066250115579,-1.89912769109752,-0.2471666696926328,0.24224973368175182,-0.3657555736272498,0.0029386542946836,nm,0.0
145.262637,-21.80884205082061,-24.57319324399928,99.6726211026546,-1.2901174896386416,-1.529106660817481,-0.5880725583538099,0.3163185895457038,-0.22755539009405654,0.008965189805269747,nm,0.0
145.27213400000002,-22.740280660351775,-26.23532341527976,100.10058288044542,-0.9959013854466253,-1.343323808785029,-0.7337276906631651,0.3683196030122558,-0.10098200705849314,0.008504096861330938,nm,0.0
145.28165299999998,-23.210379763174117,-28.03586715414438,100.35234670562593,-0.653726971503411,-1.2219835362153781,-0.8373916140686957,0.3811923549316509,-0.010667721826881428,0.010583693645739314,nm,0.0
145.29117699999998,-23.284631642701317,-29.66128630150859,100.52426436485398,-0.40980803649854386,-1.1882202056002682,-0.8621463290819572,0.3339474574404509,0.053865799869061266,0.030534269266613196,nm,0.0
145.30065299999998,-23.16482538769607,-30.86357936040239,100.72232598209044,-0.2276052357587201,-1.1185745920803503,-0.9200215520623644,0.24428033239603783,0.07243853546123709,0.05512486577653857,nm,0.0
145.310172,-23.077550242087316,-31.606283524378433,101.04812320925278,-0.08109287391483397,-0.9318882704532556,-0.9698012929375841,0.1546588547313648,0.05048140901807671,0.0777250311091779,nm,0.0
145.31966500000001,-23.042228810714732,-31.96643118544422,101.5218002052853,0.040056162611594164,-0.6017017858566492,-1.0039717626496407,0.08091520741091011,0.0278104334565361,0.10201971148517938,nm,0.0
145.34838399999998,-22.349379191214545,-32.28945423595921,102.95488287312192,0.0021834416383979924,0.41811054723515256,-0.7082857803247709,0.02430918448522908,0.06893375689832736,0.11206329666298485,nm,0.0
145.357895,-21.664493422781735,-32.473059861646256,103.11726376636516,-0.020205588348161146,0.6539152439447374,-0.5874144630968451,0.020803299312220906,0.12936752945550345,0.109207692745599,nm,0.0
145.367427,-20.761140837279832,-32.667235055869696,103.09543103306358,-0.032209047783207115,0.8367856459984644,-0.46495206660123334,0.014387249589429225,0.1656151726846043,0.09611086886271697,nm,0.0
145.37673500000002,-19.789816151772005,-32.76206112793555,102.97991987376271,0.10210092273743294,1.0225783539724282,-0.461400059439872,-0.007351902427786807,0.17212182314057758,0.08492464386617878,nm,0.0
145.386424,-18.5906329657324,-32.62957465498936,102.91057561439494,0.16490939959385842,1.1132446543019336,-0.34313446542885456,-0.0600992881184345,0.19954157003042072,0.11852188689897061,nm,0.0
145.395927,-17.19962438364845,-32.12180528596496,102.93469343724199,0.2071858489488151,1.2054233116798836,-0.23603943203796007,-0.14075561404437603,0.2152703141644551,0.15635793393404493,nm,0.0
145.414952,-13.242397511618435,-29.819299911916666,103.12789901148805,0.4399379033264385,1.6447402159314146,0.0454386763352859,-0.3418180981480038,0.3319279591069048,0.25410866797514403,nm,0.0
145.433953,-6.629896087352226,-26.804233780798068,103.61407707803949,0.5662672084806907,2.387852641073808,0.8921528843853682,-0.4191797157032387,0.5502293609877772,0.39219068932226503,nm,0.0
145.44346199999998,-3.0910787821628944,-25.61407821083055,104.19024150468417,0.7415368797223927,2.7639579812390442,1.1361464311897174,-0.3743169374744585,0.5702431755541718,0.42721857202888114,nm,0.0
145.462502,3.234256909734836,-25.00862305485194,105.51896989603021,1.030238118826832,2.631965976552269,1.1392675781316837,-0.11756127099478096,0.536618139956093,0.36810298280297327,nm,0.0
145.471998,5.610240383470244,-25.694040953731694,105.59658975479675,1.1056330315578147,2.236712636767684,1.1628986533845214,0.02540770021903776,0.46208017893976405,0.2166284113389438,nm,0.0
145.481523,7.332698903745922,-26.443566916976085,104.86258882702302,1.2689544184726536,2.0457704865072395,0.6296420824991479,0.07186644506651027,0.3494355867585208,0.0018214553649710653,nm,0.0
145.49102000000002,8.9327388812904,-27.114481090672697,103.33013379815132,1.2354694253520817,1.7058858150340495,0.5506819713055566,0.06915895847433683,0.3210965540660945,-0.1654164321183779,nm,0.0
