timestamp,roll,pitch,yaw,acc_x,acc_y,acc_z,gyro_x,gyro_y,gyro_z,markers,motor_input
183.000096,-7.610696886998403,-11.869259594669494,-117.7487582172254,0.0,0.0,0.0,0.0,0.0,0.0,nm,0.0
183.009606,-7.646257458029995,-11.905766884207761,-117.72189347039247,0.013508727561194383,0.025706462892092687,-0.006122691087242511,0.0,0.0,0.0,nm,0.0
183.01911399999997,-7.678436191479657,-11.925319568949003,-117.75835358246748,0.018235034039253868,0.0346468390671534,-0.008268802246294884,0.0,0.0,0.0,nm,0.0
183.02861099999998,-7.705271254658475,-11.943540710707289,-117.83077092176975,0.018308284408682214,0.03467959362275697,-0.008295163917949022,0.0,0.0,0.0,nm,0.0
183.047655,-7.752601465980925,-11.954498432521218,-117.8864507093752,0.03729550797495836,0.07047925504184345,-0.01688283596303081,0.0,0.0,0.0,nm,0.0
183.05716199999998,-7.771925370182004,-11.92392511353465,-117.7582547993818,0.016861697343359645,0.1544677552085658,-0.048759609199918306,0.0,0.0,0.0,nm,0.0
183.085651,-6.916305422887186,-11.863790064306695,-116.55200227049987,-0.053099475927346276,0.4900697634977999,-0.005490560555779409,-0.09944124680931375,-0.0975165297698276,0.12036774504296684,nm,0.0
183.095134,-6.0586175929105845,-11.907794656345708,-116.08035493224602,-0.11290906016833628,0.5293488549075737,0.08017645007893091,-0.096407123691898,-0.1476778318236663,0.12757596944817862,nm,0.0
183.10464399999998,-5.0940354876325795,-11.818919940394746,-115.7232632109364,-0.1918998846899857,0.4740035929713677,0.15886659624529806,-0.08051868188861133,-0.1788978737534413,0.10876503420346767,nm,0.0
183.11412900000002,-4.213077058519341,-11.706023654132077,-115.53717964793772,-0.3286486762610476,0.3464695263680082,0.19045487639202377,-0.06823199044523605,-0.1666737493476675,0.07058919942182777,nm,0.0
183.133166,-3.1588603220274036,-11.983547002643755,-115.466307071501,-0.6017694404585691,0.1079517083656604,0.2236579059888715,-0.09173889153408402,-0.04825044595365981,0.01702918855912321,nm,0.0
183.14267500000003,-3.0513583221087184,-12.461093730626672,-115.36092944779486,-0.6122163763158501,0.14152019623603976,0.19780047375390744,-0.10926916118659914,0.020696091917855222,0.02287856357742007,nm,0.0
183.15217500000003,-3.2513988800481464,-13.116477399164467,-115.10613274233916,-0.5053840042001706,0.2904602971034695,0.20851425692769182,-0.11594609403767193,0.08986993988803883,0.03948914810800427,nm,0.0
183.161688,-3.7881335224248174,-13.815735198362228,-114.71521005378855,-0.3489196389008853,0.4649436754608181,0.11795704139366182,-0.09688219320066813,0.1522813900740468,0.05077351227834172,nm,0.0
183.171207,-4.645753824692736,-14.406208039083985,-114.26734390414983,-0.14619853019661194,0.6255360705718608,0.0052278430385300605,-0.05250046803476962,0.1990207149541358,0.045582912768995655,nm,0.0
183.20926,-9.788068673594212,-14.218479624449444,-113.7924469793713,0.2710350566434346,0.05732697062982192,0.08145543492911808,0.19473319514696527,0.20824852830038879,-0.10252050398299124,nm,0.0
183.228267,-13.382426741586912,-12.86568883805662,-114.16215501905006,0.18116657656235277,-0.6777129366144943,0.25425335645755753,0.27712412133045816,0.29898080073268396,-0.12679418743494453,nm,0.0
183.23777500000003,-15.304414954510223,-12.02113913212722,-114.23386630621194,0.1821550222866749,-1.002103949095035,0.1828290610096593,0.29412195714793476,0.272664543526555,-0.09752350016449306,nm,0.0
183.256792,-19.658329407662755,-10.599230265484776,-114.18244776876364,0.685098010518552,-1.511285236665852,0.36711739192817555,0.2938959888276572,0.3915126739324564,-0.08677418456994672,nm,0.0
183.27564500000003,-24.765882729780806,-9.832924815336714,-114.48070419056602,1.1325205922966761,-1.8226875088662977,0.1350097067581016,0.2522497760746027,0.44925476634439054,-0.13745173113557677,nm,0.0
183.285152,-27.605593397870454,-10.109042116077134,-114.73382357650858,1.020794995519623,-1.8083486130525024,0.08469410294072044,0.16891754564342704,0.5319650353784097,-0.1469230233754253,nm,0.0
183.294652,-30.12141965654531,-10.64975664136603,-114.90991721911676,1.3523223053107902,-1.9197175190442042,0.1410049383415612,0.09584769898545106,0.49509394190822903,-0.1232162261689126,nm,0.0
183.30417000000003,-32.83727711684924,-11.123494187334144,-115.08270312074957,1.3566512024099548,-1.7995479829295198,-0.07870716550146498,0.12592605753252945,0.5241202556459278,-0.1338681732519073,nm,0.0
183.31367600000002,-35.40498523605262,-11.56892904121144,-115.13249501588587,0.9696672903380597,-1.566575681714892,-0.4355367775885013,0.11953284392803783,0.49443071541531114,-0.1071011263502416,nm,0.0
183.33269299999998,-38.76328741456472,-12.463579992804977,-114.91648740768302,0.8373917957836066,-1.2214548284442193,-0.6103755318453152,0.029188354843735286,0.30383579590109594,-0.03664966224172842,nm,0.0
183.351729,-38.595336258350436,-13.481182272477842,-114.93339318658269,0.6552652277214649,-0.5169075848406095,-0.6204041586265939,-0.1743825347209948,-0.0796665287731652,0.028657047669934536,nm,0.0
183.370932,-35.61148962668948,-14.784045331974633,-115.46715697363702,0.5729021727058579,0.2010423500860549,-0.3514277746035953,-0.267993763823063,-0.2426828679784991,0.020166308368791127,nm,0.0
183.380441,-33.4883068620902,-15.217238441869483,-115.8268759280843,0.5688735338870481,0.40537934151977545,-0.32145599151919035,-0.2695553949432764,-0.3322104651627757,0.04200535170286831,nm,0.0
183.38995400000002,-31.407429427651785,-15.332974366368651,-116.0476114415335,0.41495785372979943,0.5024853638921342,-0.21439673971709228,-0.2103911317150803,-0.35089899331068575,0.06914361489384226,nm,0.0
183.408622,-26.738505984053738,-14.407149169987916,-115.50420529092125,-0.36094709978486555,0.802976227884371,-0.49621276708760576,-0.12546473169138128,-0.5105665822334569,0.2357645756330792,nm,0.0
183.437311,-14.877191403727506,-12.524331424234301,-112.31823249693514,-0.6414046811744151,1.2999240861054124,0.03916258358603792,-0.2615014715729465,-0.8983216012032859,0.4308792313826216,nm,0.0
183.44681699999998,-9.639257176719775,-12.075787617968949,-111.40729869241052,-0.7670323809352549,1.5965081417800253,0.26047015771793025,-0.3123446108838219,-0.9864177205067792,0.4042489103202827,nm,0.0
183.485044,9.753325293893289,-9.316224313458473,-108.91021599730468,-1.9489183751880272,1.5770291980943043,0.45027758321119304,-0.07347785028985285,-0.7805405263665208,0.2891932944284656,nm,0.0
183.504062,13.880519289814563,-7.980721357919688,-106.01072023233736,-2.0112817349898857,0.8185979544656341,0.3355051116977765,0.009646778501671482,-0.30254038586903487,0.3686887520004197,nm,0.0
183.51357,13.969745640243307,-7.720505787659977,-104.008637030838,-1.7604231950024043,0.5339935262145498,0.2994074448527645,0.034098170731343136,-0.03525971093832759,0.3966362015651611,nm,0.0
183.523083,12.924192160127893,-7.761092758339401,-101.96648912042868,-1.3914005446955524,0.354101619723768,0.4249303113146552,0.027101043063213988,0.19895846022356364,0.3741997570542982,nm,0.0
183.532585,10.931304369635939,-7.969496572712005,-100.20068434506264,-0.9686067698978172,0.3117990759030318,0.49097465393893996,0.02335636989985824,0.3906608203338294,0.29282759285959964,nm,0.0
183.54210300000003,8.258085176137094,-8.197561414991718,-98.97139355171281,-0.5858463598191636,0.36093933375560155,0.4828779870569348,0.031352007402689154,0.5247288212629454,0.16526594069549483,nm,0.0
183.56112499999998,2.4014415567234138,-8.861832009158277,-98.46071107756477,-0.028047436167435092,0.6399610493192734,0.19340803512048765,-0.009741636508549669,0.5715751838028141,-0.10107854043106498,nm,0.0
183.58016,-2.927543379418559,-9.805115171526493,-99.40514674337084,0.099880899651226,0.8023830554479029,-0.13793514525352046,-0.014495408241668783,0.5141532495912388,-0.1931644877921689,nm,0.0
183.589662,-4.868700874304114,-9.95620035224469,-99.74766983429367,0.2350361579153994,0.8416704188990457,-0.16030728185206483,0.020791841812908614,0.37783781759196844,-0.13797845774891454,nm,0.0
183.599162,-6.444694086926123,-9.775904855376723,-99.87261948800533,0.5016666221129434,0.83572562991118,0.008334029619296555,0.07536327720898499,0.29552691114530916,-0.08148762771976374,nm,0.0
183.608671,-7.983858482481351,-9.236220344382124,-99.92720946984404,0.42236853422271303,0.6950270221971137,-0.09411540762900146,0.14545058101478706,0.27628180498639343,-0.06396701104904905,nm,0.0
183.618211,-8.988621095903367,-8.342826493787797,-100.11347250446654,0.46270326133682654,0.5234863677567848,-0.24977434831883027,0.1974410618651792,0.16020254705940082,-0.07005916426242413,nm,0.0
183.627717,-9.622042912686936,-7.384725036905387,-100.6528101263399,0.5609062111970785,0.27583895155141686,-0.13409084710960806,0.19797593256285856,0.08472078651979194,-0.127330407450571,nm,0.0
183.63721999999999,-10.168256156691438,-6.57622166561363,-101.68195628746666,0.38331612220156003,-0.10122528897537322,-0.18662827448667826,0.16638925215346279,0.07115288942934539,-0.22131406410653562,nm,0.0
183.646741,-10.520653701021299,-5.91846159968962,-103.16334371066053,0.32952393076583125,-0.4371090664363547,-0.04214978566468049,0.13014549936411002,0.036552016228829635,-0.3062439147435225,nm,0.0
183.665742,-11.635170988487284,-5.162395508067024,-106.71842087930224,0.12010602492490403,-0.9046763530334853,0.11292250206126332,0.0748236054422137,0.10997241124916973,-0.3727956030337461,nm,0.0
183.67527600000003,-12.44805032276599,-5.041512199122735,-108.31375872050926,0.18592085291786792,-1.0008367309970956,0.2341283870526285,0.057979297902677564,0.14503655634087867,-0.33553706421415513,nm,0.0
183.70380600000001,-16.897544949404477,-4.549866734406903,-111.6885452891561,0.7172377305089429,-1.140640336903195,0.35870114264702757,0.16668734331745308,0.3227863910415262,-0.22665374976091504,nm,0.0
183.71332500000003,-19.117099730002533,-4.222948863293836,-112.69790530534502,0.8647061282909795,-1.3492198647682654,0.3626539653495228,0.21385272706394054,0.38456647932773763,-0.2363450596344863,nm,0.0
183.72284399999998,-21.583633802778856,-3.953236722746314,-113.89731495783792,1.007612683321574,-1.6788306962924786,0.35271921597750416,0.2307588176543536,0.4301647849315319,-0.24955321051237145,nm,0.0
183.73217300000002,-24.336732244442015,-3.9636397996447807,-115.09249983158185,1.1146827277312725,-2.0530675583477667,0.23121405611698428,0.2124747972742873,0.5007599761953154,-0.25361896937448647,nm,0.0
183.74167400000002,-27.180838907411978,-4.439655904482574,-116.1454801919285,0.7599336981977661,-2.322623797061791,-0.16809227972649876,0.14592496521027032,0.5531829979985001,-0.2354350389462916,nm,0.0
183.76069800000002,-31.563040582087744,-6.504330740708504,-117.43215960801568,0.6879461599878975,-2.4294016870579758,-0.49737231160093026,-0.046131547222045204,0.4652785319076159,-0.11862503606115023,nm,0.0
183.77022000000002,-32.927527597735796,-7.9879070166793085,-117.29609227917827,0.5184537376756938,-2.2181510550468735,-0.6036262999326751,-0.15308894020772357,0.37765859922098177,-0.004118900949726178,nm,0.0
183.789191,-34.28267736514036,-10.842352775949985,-115.4364064141441,0.9120598678742291,-1.5329122111929832,-0.599756728746912,-0.19946918881095413,0.23287617565228252,0.23707786438743297,nm,0.0
183.79869499999998,-34.85773744027676,-12.09751345955971,-113.87264433784739,0.8418340276030419,-1.022109135679042,-0.7640939946693383,-0.19502427228761698,0.2072465646731166,0.29409424092777225,nm,0.0
183.808208,-34.95962086330561,-13.302494648479183,-112.37676119691405,1.0291517037849982,-0.6763273203133369,-0.6795984077749699,-0.22771444637760274,0.1126241646745397,0.29906474853979365,nm,0.0
183.817737,-34.717374304923794,-14.422133758575166,-111.30179610473014,1.0132216886722347,-0.3651642462481521,-0.6184622949142595,-0.23922354535706902,0.03905444412292399,0.23096377078589964,nm,0.0
183.82723000000001,-33.95137560807961,-15.435754577796642,-110.75707830110868,0.6037241821255964,-0.15024836579322162,-0.6726555225682491,-0.25623045753857304,-0.06622745454438231,0.1526422963206159,nm,0.0
183.836914,-32.25541538394889,-16.269368083783853,-110.63478261824712,0.4283945721913266,-0.07625968165638883,-0.55058650880155,-0.28526132201749954,-0.24738806566749658,0.12105446175685061,nm,0.0
183.846439,-29.819511816331016,-16.839008849628925,-110.73509738825577,0.26516846182725284,-0.013875307848801286,-0.39339127742754776,-0.2856262137632138,-0.397955957523734,0.12225491037047306,nm,0.0
183.85594799999998,-26.811891993759545,-17.049894875877296,-110.83621401718003,0.15089057527229618,0.10481720462941727,-0.2768706286005887,-0.2578179218891966,-0.5245808513772221,0.1580371051851111,nm,0.0
183.87497,-20.530673907184067,-16.6119539987016,-110.51057992180812,0.16609563978066277,0.5889036299859115,0.015273086687270234,-0.15468219875567624,-0.5532975187897221,0.22363606494390592,nm,0.0
183.89397899999997,-14.224001563034959,-15.407492354302859,-109.73965902954082,0.048591443393631174,1.1191219533939947,0.24402464239688412,-0.10280445917375221,-0.6507081331741693,0.25821530206889864,nm,0.0
183.913013,-7.2843216511243005,-13.996651104706906,-109.32540829412001,-0.5568117386835668,1.5476957816790686,0.20047995042792824,-0.1229167998308927,-0.7144228134590349,0.2081396656307131,nm,0.0
183.922519,-3.0776047605651518,-13.34995772322508,-109.2623053271427,-0.7278561163427258,1.7466843916900539,0.4166217329924333,-0.16193773032405098,-0.8181586063447611,0.20910856342763282,nm,0.0
183.93202699999998,1.457480105717702,-12.683523360321225,-109.21830912273853,-1.025286117305222,1.9548656613234243,0.4981256151519045,-0.17900274524636062,-0.8824831785369124,0.20970724822788206,nm,0.0
183.941536,6.266546690474341,-12.07816918672471,-109.11870474154676,-1.3282862860358557,2.1691416069054776,0.6616644720337008,-0.2073764067678036,-0.9317145497810853,0.22175259530992536,nm,0.0
183.96037600000002,15.346516161497124,-11.009857344855977,-108.52288207794167,-1.786274341092969,2.1270364310762004,0.47391832675627227,-0.17750282229094108,-0.8324143572546749,0.23743824479333342,nm,0.0
183.969883,18.731386232661464,-10.578036466485832,-107.97676959491515,-1.9701542886959966,2.0102502074857465,0.42163770382272314,-0.13787850212689345,-0.6639015414577208,0.22917251959532073,nm,0.0
183.97940000000003,20.951528410221737,-10.386261263534081,-107.2735346385414,-2.004286343303614,1.6887013545949179,0.29824266776054437,-0.1068757870439075,-0.43304229229350144,0.21420369899320138,nm,0.0
