timestamp,roll,pitch,yaw,acc_x,acc_y,acc_z,gyro_x,gyro_y,gyro_z,markers,motor_input
168.002218,3.115786769614043,-29.630507046768113,-151.84125002401896,0.03699639929025136,-0.1436367406997245,0.06473333874520001,0.3361662300090182,0.18851407345213844,-0.25679677653071065,nm,0.0
168.011587,0.5641481079893823,-29.613247586530488,-151.98490167725237,0.059984913672654294,-0.23837904484194417,0.11912974616012471,0.3809540360028341,0.21261302147751707,-0.2825002823543728,nm,0.0
168.03066600000002,-5.306963066011246,-29.586429657300084,-152.03246716665438,0.06224729474099539,-0.5312278540013263,0.1439228608007931,0.45961522622476636,0.2578770078774704,-0.2962983982885586,nm,0.0
168.04969200000002,-11.979516367788184,-29.923113717675932,-151.38850901406073,0.05406204936240577,-0.821419253470045,0.11967246028391329,0.48448157018834936,0.327414173698259,-0.2505966953934986,nm,0.0
168.078221,-21.993258896972346,-30.758150017455012,-149.42999483397455,0.29984175199027246,-1.3199404746652514,0.18687655867318428,0.4571199150337273,0.34538311678367056,-0.19992365576135968,nm,0.0
168.08773399999998,-25.158710948535518,-30.956642234243464,-148.76598680876523,0.29827495202834703,-1.478954158324399,0.13737282032836595,0.4354677889614512,0.32170418960083724,-0.18845777868749927,nm,0.0
168.097253,-28.19219243649183,-31.11385621811203,-148.05168941081976,0.20645256009753904,-1.5249236998731905,-0.02065417083272704,0.4160667408788894,0.30763061467902364,-0.1658622605984109,nm,0.0
168.10655899999998,-31.02452386709035,-31.337610716231012,-147.10560335378952,0.15927732353072427,-1.5259006179825323,-0.11705763158982295,0.3747691243906477,0.30594595044645195,-0.0997627552735753,nm,0.0
168.125595,-35.774211803604516,-31.911587482361863,-144.19500109280213,-0.1202260727708496,-1.2193969176824175,-0.6355137536977442,0.2667838858215892,0.2705062128675504,0.09573362738533361,nm,0.0
168.135101,-37.04885692591691,-32.137904905529155,-142.34185681327102,-1.2363881911456815,-0.19489647487229125,-1.6744412375422606,0.13582645494272408,0.17320432806362032,0.24168018584103404,nm,0.0
168.15429600000002,-34.42581097719723,-32.53407703792889,-138.55379762866116,0.7118621707325842,-0.6627721568899698,0.1487616567831823,-0.24869801173844755,-0.17727976703772355,0.5293624626976234,nm,0.0
168.173119,-27.21306947021631,-32.023560331929865,-137.37076195298687,0.6340443726194456,-0.0683746800220571,0.2427221831776514,-0.5655134265289214,-0.5144789234682974,0.5778740070063969,nm,0.0
168.182651,-23.513503842218192,-32.80751935037026,-136.91047080975335,0.0806970496808276,0.13224259117719012,0.5716055352477819,-0.5777177300387404,-0.30469613900058556,0.49285018653993246,nm,0.0
168.19215999999997,-20.08909386578235,-33.39105048698462,-136.6396656930404,-0.754821447670852,0.7280666621401516,0.49112517161090397,-0.5114150210611812,-0.30296455944806855,0.43170626681607144,nm,0.0
168.20165999999998,-15.930689775344861,-33.425829970033455,-136.30621964640343,-0.0754466221153134,0.8803310121652529,0.7798424811367101,-0.5219611766891253,-0.468828044111805,0.5275125844645119,nm,0.0
168.211172,-12.65594535579244,-33.67872366858811,-135.699301745005,-0.2399083205922992,1.3089699709485452,0.5739117003297167,-0.44173924401560916,-0.33882884677539826,0.485625143338912,nm,0.0
168.22068,-9.92452485111377,-34.31738532373707,-134.8605554814445,-0.5298833553033694,1.5978716846931622,0.5534284869129921,-0.42582797776030007,-0.22436110937064785,0.47501470788622246,nm,0.0
168.230384,-7.225243659566517,-34.68548983426784,-134.02170009865043,-0.09631909976052129,1.7403572365336166,0.6411143191574902,-0.37833076227863777,-0.2631151992658913,0.4749380450570624,nm,0.0
168.249224,-3.755131756782528,-34.85530766117153,-133.1813892574565,-0.46288441463628166,1.9604184777868554,-0.007365066723082685,-0.20997806147790418,-0.1676672732750063,0.23124663608586363,nm,0.0
168.268411,-1.2132046642745036,-35.773580750049646,-133.50170109683796,-0.3355966065093288,1.957977253420503,0.5000722922642186,-0.19340146368190742,-0.049306153282268964,0.05959151032468432,nm,0.0
168.296956,-1.873102602978771,-37.2810534254352,-134.16291228317178,-0.09746095441224868,1.4412738687629227,0.39890554185560523,-0.0035354482008306556,0.19926124530351288,-0.1297812455309048,nm,0.0
168.31596299999998,-5.421144866869417,-38.64449770536236,-133.92868434075163,0.35703268355621687,1.0745026027317381,0.18919203389371259,0.10736378716157009,0.3205326253609464,-0.2131436821881743,nm,0.0
168.334999,-10.139586001677227,-39.949424398002876,-133.79710610742595,0.5638153212572201,0.6962454968931251,-0.11934126676015762,0.151649544789306,0.35621264228818134,-0.30306947465921097,nm,0.0
168.34451900000002,-12.490203950643783,-40.4289865243452,-133.96489261016103,0.6967398278249233,0.5044764533751658,-0.2048506210403068,0.16668095978022865,0.329889567816409,-0.3349266690638082,nm,0.0
168.36354300000002,-17.75224971199794,-41.118440771287815,-134.53470812105718,0.6482964928209277,0.11365935425405223,-0.21356629489368445,0.2376665104725208,0.3456654460747379,-0.41739530824688825,nm,0.0
168.373058,-20.80788357191576,-41.178994382489904,-134.72695172544655,0.5458560448215123,-0.15043920589516827,-0.1380787658365737,0.3025093232455936,0.34175077867955383,-0.4372231422832475,nm,0.0
168.392056,-28.12098197499331,-40.606020488045544,-134.61974932874995,0.5747233647934035,-0.7969098587861715,0.10695732838717531,0.4530116033623744,0.3753112242250486,-0.4729715467772019,nm,0.0
168.401557,-32.427169965730116,-40.200081937593026,-134.36996560514007,0.6382928874300936,-1.2350772616588879,0.2059493780434406,0.5067927046454352,0.41770084752744524,-0.5031409709351344,nm,0.0
168.41108,-37.09756490931188,-39.7231827073043,-134.31960598777462,0.7070998159693701,-1.6736888616639112,0.16725952956168447,0.5585118591371225,0.452444247008209,-0.584059458687069,nm,0.0
168.42041200000003,-42.09773679439749,-39.34940157071606,-134.6036964399291,0.5795639928889437,-1.9723513898531062,-0.05874436231802967,0.5841912229138208,0.505544958744626,-0.6868868182705782,nm,0.0
168.42992,-47.29018177271752,-39.31321699722785,-135.12003345252347,0.5700358977962552,-2.303532973638719,-0.22999636275097257,0.5632353495773813,0.572028057483494,-0.7541801409513015,nm,0.0
168.439423,-52.654307160954374,-39.647592461198315,-135.81474590702553,0.494036319392243,-2.5770969597358966,-0.38570594379020623,0.535849188978599,0.6364469931025643,-0.8130143648193177,nm,0.0
168.448931,-58.00360453953097,-40.259636160207535,-136.55685595504113,0.3142236789870696,-2.6825280801706977,-0.5869293392810281,0.5005592976361726,0.6643217336013445,-0.8266570943511267,nm,0.0
168.458449,-63.124365621431394,-40.974428189825,-137.15654448615115,0.053205869049911265,-2.6964242598493815,-0.780542454695475,0.46400086815991737,0.644131965665891,-0.7771602244941358,nm,0.0
168.48698199999998,-74.47125344491774,-42.10365570503855,-137.50606558693946,-0.7862959990952465,-1.7660243533534097,-1.2011822321647943,0.2788017989262767,0.2955232588115933,-0.3381118619557537,nm,0.0
168.49649200000002,-75.89548778157787,-41.99779141266492,-137.41915252416413,-0.8192639683873207,-1.5027085443265296,-1.251125666859811,0.16674168278474996,0.1345221671358836,-0.16176998490845276,nm,0.0
168.506005,-76.10238340155418,-41.808905013723255,-137.34846261516634,-0.7634081391487886,-1.266945159770822,-1.201624270440658,0.0,0.0,0.0,nm,0.0
168.515503,-75.16301642425748,-41.654458348935485,-137.26317478628496,-0.5885158975168049,-1.1155865435801495,-1.0639931860704892,-0.08601686088394768,-0.11093685163951654,0.15405026117933582,nm,0.0
168.52503900000002,-73.23719439005826,-41.58271186283022,-137.0869923900407,-0.3898727912769582,-1.0262780641191966,-0.895923340993233,-0.20587883939088236,-0.1994137680061862,0.30294903921811767,nm,0.0
168.534551,-70.55239754219556,-41.532884426241615,-136.84806144441825,-0.26944094927224893,-0.825456342751683,-0.679658005082696,-0.29198664069726155,-0.2745961182681437,0.4157247748672033,nm,0.0
168.553555,-63.10266695614273,-40.97482604755769,-136.21996278529852,-0.1916039063140806,-0.31281658270057977,-0.40848251916546763,-0.3926769268884795,-0.46969842028224557,0.6137635008864639,nm,0.0
168.56306400000003,-58.307678794702355,-40.34388468702843,-135.65672010894608,-0.04049810893360957,-0.16965676340766708,-0.4290914841032542,-0.4428639509344699,-0.5899766109052845,0.7481178636711586,nm,0.0
168.572595,-53.10983777439426,-39.64093434873276,-134.8501651814697,0.21061306048440753,-0.024300043590337668,-0.2916788292239681,-0.4756835832563452,-0.6541756893759788,0.8393905095404455,nm,0.0
168.58213099999998,-47.496881601401626,-38.98264093311648,-133.96049750084376,0.16070395171422328,0.37402074498965765,-0.10608482211690892,-0.5238607576733493,-0.7066627879188003,0.8982883011931655,nm,0.0
168.61061800000002,-25.255499865681752,-37.44298717217039,-132.64855124155974,0.2877447432394421,1.437503248878422,0.8635572475680467,-0.8276000743840963,-1.0123060966731237,1.0292035709844138,nm,0.0
168.620122,-16.150170608684874,-37.01162988184857,-132.7448956451284,0.2841175190279496,1.93270923056584,1.3771332035298127,-0.9344499822655712,-1.1212902247873342,1.0865530693118144,nm,0.0
168.62963699999997,-6.833259324562809,-36.61597419121682,-132.8678206129367,0.0881840782497964,2.4389828413385755,1.7201730098123602,-0.9708118489708241,-1.1465126267683234,1.0944607811454699,nm,0.0
168.639149,1.6935392011278814,-36.27044627594461,-132.8601544576033,-0.40054386726449925,2.779753159221751,1.6231780856871536,-0.8978691293741353,-1.0519759243232627,1.0154213667357137,nm,0.0
168.648646,8.73336861888226,-36.01095810919759,-132.55905249051065,-0.8384232387284191,2.920082043663525,1.317510683807029,-0.748197941779554,-0.8711239349585436,0.8900749839464424,nm,0.0
168.65835,13.618125995423522,-35.89010007602341,-131.88226185551446,-1.0877109706875345,3.010771542185307,1.0932438528231851,-0.5282522881186535,-0.6030195722731655,0.7073815660699116,nm,0.0
168.67719400000001,15.86845930771822,-36.233721436307924,-129.54191104308853,-1.2073361055775653,2.623960051006002,0.6003976519661686,-0.04713796365969644,0.03764710318279912,0.25472287039380764,nm,0.0
168.686878,13.653413329555516,-36.46210638540061,-128.05399160885574,-0.837942530190932,2.3768163142009886,0.7728861526029194,0.17422734333510667,0.30580486385612254,0.03270293513523265,nm,0.0
168.69639099999998,9.606003446327925,-36.5092217207112,-126.60777892379379,-0.4023840335650641,1.9465134142404457,0.8657672493185831,0.3735591318592239,0.5228691082252764,-0.19414269682661434,nm,0.0
168.70591199999998,4.34432955975666,-36.32946691030391,-125.4528118096964,0.09176843563876182,1.4297354384884688,0.9690255687673759,0.5136017129280355,0.6640513682389789,-0.395292198760841,nm,0.0
168.72492200000002,-7.9969309526849175,-35.664829821062575,-124.66629553672671,0.7310581627837184,0.3011364804590241,0.6525857790969443,0.6256128577039142,0.8086911377489598,-0.7166311525669268,nm,0.0
168.734426,-14.32966011128946,-35.51631683486362,-124.96533207557339,0.9496784542057803,-0.12766862939307697,0.35502207613842895,0.5993255768738218,0.8317823805334594,-0.7956499405202533,nm,0.0
168.74394299999997,-20.512007005862394,-35.6145332804311,-125.47284071634807,0.7109034393993564,-0.3551395935326681,-0.06706522634759497,0.5512766897851182,0.8370238196673925,-0.8182777307181422,nm,0.0
168.75345000000002,-25.890510049237133,-35.791210219892434,-125.99489777600101,1.1113782761555477,-0.5632488234513771,-0.18848376485955035,0.4690900764336426,0.7342505797702428,-0.7286954287561235,nm,0.0
168.76278599999998,-30.93860705642654,-35.88170654949299,-126.51149215124033,1.1046233539258403,-0.7654305178191697,-0.4612240553711027,0.4575223334828091,0.6757827918943521,-0.6899922145253528,nm,0.0
168.781799,-38.76845365407535,-35.234582498312065,-127.62947875956121,0.64070270843048,-0.9658682066482416,-0.9126783549770695,0.3947202886823734,0.3807171196364659,-0.4967400737701158,nm,0.0
168.80083900000002,-43.468591720917864,-33.71861378900109,-129.19456482090214,0.15891320203224885,-1.3801723817263962,-0.690251711238863,0.3301916094768252,0.16730763924528175,-0.3971566668107315,nm,0.0
168.81033299999999,-44.97840844099104,-32.922537265891314,-130.1417303600886,0.11784417999456284,-1.793656506676556,-0.4828425968081343,0.27327733968278106,0.09818240403447226,-0.3481247928657648,nm,0.0
168.819849,-46.703301402491284,-32.44728896124689,-130.91134625585875,-0.2778554834240237,-1.9782982254134633,-0.204751827315698,0.2508026303543525,0.16474579809444945,-0.33276718715117887,nm,0.0
168.82934200000003,-48.33853023949511,-32.22614981675805,-131.51627613617433,-0.32975778149608354,-2.3789370691761893,0.1467356009120042,0.20542503878574148,0.18468005742794236,-0.288171575558269,nm,0.0
168.83886500000003,-49.80278927295442,-32.14488419700537,-132.29983766626538,-0.5152850515065178,-2.400452815927814,0.0970722152725829,0.167975809259911,0.17968797966465322,-0.3047265647987819,nm,0.0
168.84837100000001,-51.199198362846126,-32.53794289428317,-132.97415471490226,-0.6163005357640594,-2.144253599655826,-0.2221621088455987,0.09254299157827114,0.2331579266528382,-0.27604170267319306,nm,0.0
168.85789300000002,-52.61235621832641,-33.60399366965893,-133.26905963901768,-0.4538851443901937,-1.9705810982062841,-0.2241225736520363,-0.002957231286980689,0.3252241417613826,-0.20468630872692997,nm,0.0
168.876904,-54.08408824317855,-35.77529966505485,-134.31414731938085,-0.010902303905519595,-1.5851331219740936,-0.4649092756885548,-0.08662147874774732,0.2086196354086796,-0.18106581363573296,nm,0.0
168.91496400000003,-52.28254115207295,-39.230293628162286,-137.56126855839332,-0.06679049568999383,-0.9434112031956051,-0.5269574789744208,-0.25668754976299285,-0.007717567575315972,-0.10378511252175769,nm,0.0
168.93414600000003,-49.071432848826696,-41.25248514204395,-139.85468959676535,0.13437657616303622,-1.0233776040074574,-0.20472900455334928,-0.32844830476495734,0.015774279455959845,0.012249902424249696,nm,0.0
168.94367000000003,-47.53113484641813,-42.11785925638845,-140.61973527235278,0.0032994726389546443,-0.7971248726993332,-0.18618396610107465,-0.2960685817778151,-0.005949607434671966,0.060168516892268625,nm,0.0
168.95319300000003,-45.850928449057555,-42.606561586042105,-140.96344961588042,0.1712634416291045,-0.7247010742924389,-0.18611941028739915,-0.26284348569579247,-0.07308895647613312,0.1658756916031514,nm,0.0
168.96269900000001,-44.34554290399385,-42.77474330122971,-140.64686640092214,0.2830396921799258,-0.5608280638055232,-0.25333643279342966,-0.20164516492699397,-0.10575658341162958,0.2755369209918733,nm,0.0
168.972204,-42.925223509195135,-42.673964746521555,-139.69024829780759,0.33940612412652055,-0.38356481301075485,-0.2858945071137412,-0.15656041002985607,-0.14136793087745617,0.3920327079401422,nm,0.0
168.98171,-41.198385505215356,-42.283439078734325,-138.42442515965251,0.5038749589772591,-0.25672487140128364,-0.3254687428033938,-0.150924250843938,-0.21854529351822652,0.4942157837171463,nm,0.0
