timestamp,roll,pitch,yaw,acc_x,acc_y,acc_z,gyro_x,gyro_y,gyro_z,markers,motor_input
173.004584,-26.79128539510276,-23.52098594665462,-127.57994181575302,0.12768244575316004,-0.14158849525186448,-0.321524555818666,-0.29880117911923215,0.24007849084530158,0.0027673384210133664,nm,0.0
173.014107,-26.971092666519706,-24.99704452401964,-127.12735841610036,0.2504866928518778,0.18150904409118515,-0.5508400941927639,-0.2283869349315438,0.20878314593358052,0.07933425801218617,nm,0.0
173.02343499999998,-27.37922752759776,-26.034173270836487,-126.26294226360339,0.4750308162779584,0.41014972789620896,-0.768030550841839,-0.13578753770726695,0.18647191036980065,0.14155899641041797,nm,0.0
173.04245899999998,-28.493886296238944,-26.49817139331559,-124.60486333352938,0.33399649659591735,0.38231300818720265,-1.0680192767718861,0.044936907142213475,0.0668428924078018,0.09764405103833841,nm,0.0
173.061476,-28.484656991690553,-25.586992957752418,-124.80699260972047,-0.307721119991863,-0.2917940533465574,-0.8671728456002908,0.04771232966494537,-0.07379022773909139,-0.051760765029978145,nm,0.0
173.07098800000003,-27.928092812997665,-25.304455710997182,-125.44107853589064,-0.7332647135255658,-0.6567848449830751,-0.6810266179606843,-0.024960862053836807,-0.11182972525029927,-0.07525800271140617,nm,0.0
173.08051300000002,-26.924433067461216,-25.20047983815626,-126.11706571225656,-1.2346698637704672,-0.9769815185520485,-0.4668669926874894,-0.10275629617546612,-0.1565181237300766,-0.046005861817065494,nm,0.0
173.090005,-25.389467677624026,-25.10916991089836,-126.55686345922615,-1.3607778895711011,-1.0657628686564977,-0.2853396005656511,-0.1635847515749994,-0.23183440512070477,0.04587784422723313,nm,0.0
173.09951099999998,-23.67220378474354,-24.988375053048337,-126.53165396266094,-1.2767643794911856,-1.0024707715373633,-0.07801250527065008,-0.17964799222155636,-0.2617045370662123,0.15355178197988986,nm,0.0
173.109027,-21.71709433298224,-24.667944972543857,-126.1869084393231,-1.3443270609317537,-0.6573530034474205,-0.2325509136687082,-0.17269983246355786,-0.3214433160907077,0.23589460166821674,nm,0.0
173.11871399999998,-18.84083176889502,-24.12963365874373,-125.78409883610921,-1.1357924409489566,-0.36772741084843885,-0.21037374517465812,-0.23488045135006186,-0.48536411151247316,0.3204082812709068,nm,0.0
173.137734,-10.76129089594095,-22.75837642169275,-125.85395922446008,-1.12572693968128,-0.08810373753246763,0.3453554390323683,-0.3541210822574178,-0.7253682131870741,0.2883257446107418,nm,0.0
173.16627100000002,2.2874180431502253,-19.734398049222296,-127.20729152879358,-2.4416079630423675,-0.43769799466470083,0.9506302162934709,-0.3021575479559152,-0.6685254174937549,0.2246789070744222,nm,0.0
173.175785,4.5265693796251405,-19.286454276748323,-126.87727894335877,-2.5370537925341985,-0.3730149513372753,0.6259674371865807,-0.19680861091547228,-0.39095634218268166,0.21245936637019605,nm,0.0
173.194805,5.247284442857706,-19.51735896590639,-126.40387808009315,-1.5844224554954451,0.16119341267379927,0.01710086412496518,-0.026296701835844562,0.06046040083564638,-0.02039817031415802,nm,0.0
173.20431299999998,4.817628230573683,-19.804600926192514,-127.2901357250408,-1.2786536564211157,0.3404349251173124,-0.08464923249928445,-0.011235656451950123,0.09981072896942238,-0.20971377101280608,nm,0.0
173.21383799999998,4.242295305104073,-20.04458016266724,-128.87212745976325,-0.9327924260876784,0.3699040374947388,0.2705030636694087,0.01517985927109276,0.11582414535018215,-0.35916769783922836,nm,0.0
173.22332600000001,2.948046264295975,-20.145172856404326,-130.60306007832992,-1.041255743736426,0.24928474303134568,0.08227763255304867,0.126307554567877,0.20153863614448814,-0.4385018209437258,nm,0.0
173.232856,1.2691953423712694,-20.04228523660338,-131.80901204748304,-1.0472112809282477,0.09115924390616562,0.05335839954514081,0.20968727095025122,0.22593329949472865,-0.35954921388974354,nm,0.0
173.24236,-0.8047747853980152,-19.755251988350686,-132.076287083235,-0.8006955721705385,-0.11716104421654719,0.2804555500514514,0.2899303369208984,0.2543122679190557,-0.19713375960185622,nm,0.0
173.270877,-8.780543435873872,-17.670145212329952,-128.854871173707,0.09879351016704095,-0.4583487928802294,0.07396306112559313,0.4488037315707421,0.2829099026427562,0.0874270133626735,nm,0.0
173.28990100000001,-12.656271178735743,-16.57707143710136,-127.86621953772777,1.2678024465766353,-0.27412542288380376,0.31069005634925767,0.23591352271274732,0.21455249590602354,-0.06342191832137484,nm,0.0
173.29941,-14.329589575297748,-16.707475311617983,-128.25168009698365,1.6426826678104776,-0.041881627209039644,0.3527609971936074,0.16338909542424643,0.27144034972215764,-0.1730455588622295,nm,0.0
173.308926,-15.781721265897692,-17.191317843336716,-128.71810992804862,2.17572954826249,0.23475844179815458,0.5711882553424694,0.08334424364480153,0.28080118718905894,-0.17770801277184112,nm,0.0
173.327772,-18.963030329633586,-18.08692263442131,-128.20146250043067,3.4036717438158512,0.6882519680925709,0.8920358717195213,0.15014893531579335,0.3071055341586339,0.00532900789087437,nm,0.0
173.33726499999997,-20.990433385883666,-17.73094802251595,-127.15160611344699,3.857543708587903,0.7897813111455474,0.9440134460463822,0.2786641868804404,0.2649147319947831,0.08692386413519451,nm,0.0
173.34678499999998,-23.088246157389356,-16.716962745747534,-126.06425190248409,3.9718696739903208,0.7505831034421635,0.6313890973268571,0.3883997889275744,0.20357298633618204,0.09522374598234024,nm,0.0
173.35629500000002,-25.189313409912227,-15.682553841341578,-125.28004113603274,3.373457334006989,0.566152561806366,-0.07427528228392083,0.3900412118818803,0.2098715522392847,0.041891855311530786,nm,0.0
173.37531600000003,-28.451639721830343,-15.563740557836605,-125.48055276630501,1.6216456809817947,-0.2058488835665023,-0.535157652194983,0.08387961568317008,0.26293589335217465,-0.15633158221472485,nm,0.0
173.384849,-29.251799849397457,-16.83410909564796,-126.30647520274918,0.8171727930139311,-0.5418301554684383,-0.5146821848361137,-0.1293789334726785,0.27667702590855126,-0.20681650458770537,nm,0.0
173.40402099999997,-29.760565259543295,-20.84366438937464,-127.61734820676631,-0.03433423425981627,-0.46548505451498684,-0.3798915651582652,-0.3289565188999636,0.2743805002922213,-0.09994556025476403,nm,0.0
173.41352700000002,-29.836328050635917,-22.62831904620393,-127.4464989548087,0.06264180411702905,-0.128578992916785,-0.43959060451524257,-0.288027783352157,0.2323556763465991,0.03246171524759182,nm,0.0
173.42305100000002,-30.10232967296131,-23.882797089782947,-126.59714600003382,0.17939142777413805,0.24843104512347272,-0.6715608775865785,-0.18430098151381644,0.19368592549581068,0.15305632531729738,nm,0.0
173.432377,-30.421395142062025,-24.46955418750438,-125.38072552635587,0.4613335522396043,0.44168056898935354,-0.8448015979662655,-0.07404602922876187,0.11933164444256418,0.22154710756308865,nm,0.0
173.441883,-30.755396860515145,-24.44957929089863,-124.32636817939307,0.4752051125428308,0.5042125374870768,-1.0430232602701943,0.02482287998330238,0.05056976359096255,0.1876640544529224,nm,0.0
173.46107600000002,-30.212795400700973,-23.75533229363569,-124.05804328110256,-0.048158584103270397,0.01596270108427531,-0.9702053360318524,-0.015225577588504714,-0.12456825089300416,0.0074248970062771895,nm,0.0
173.470422,-29.18226065158007,-23.603335651288138,-124.89764634541122,-0.5113224534786692,-0.3598311692839375,-0.7569718207253873,-0.09522778151863863,-0.1701249520306658,-0.08131808748617644,nm,0.0
173.49914500000003,-23.296071163333433,-24.059782666529717,-127.38304069858174,-1.4934563104220535,-0.908368063005704,0.07090646464854185,-0.2936777216255607,-0.3167457293829504,0.11046070428947193,nm,0.0
173.508459,-20.865114673446833,-23.8806871407393,-127.19410223767915,-1.5237582993778682,-0.5976790480398436,-0.06966155301814775,-0.2546795628169762,-0.3727214299998886,0.2378185183361975,nm,0.0
173.518154,-17.964206157787558,-23.438152427376743,-126.59214534252784,-1.219002250626966,-0.34139473331730014,-0.08189863028520655,-0.26246280822641166,-0.47622362699740595,0.3552065220052404,nm,0.0
173.52766499999998,-14.652406034860297,-22.83103089086316,-125.99180786087148,-1.0529263847510322,-0.050100532587007224,-0.06027472748223024,-0.27704668953461814,-0.5614345084203279,0.38158429864140675,nm,0.0
173.53717400000002,-10.99297569363744,-22.025243408781257,-125.72848411456009,-1.0686836741771446,0.08582684968434413,0.18907281574704418,-0.2801896220469756,-0.6418002803057714,0.33232035872307986,nm,0.0
173.54667199999997,-7.213996522310924,-20.85803547645013,-125.93346297229886,-1.2710306321318952,0.10457277557623833,0.39965877599543287,-0.23701208179714148,-0.7064624504034294,0.2347520706790564,nm,0.0
173.56569900000002,-0.2517810819428185,-18.042038958336768,-126.7590869079365,-2.1647425312142845,-0.33151005940927564,0.6965761377598771,-0.1705054171966367,-0.6679608549756662,0.14524046343065783,nm,0.0
173.575209,1.8799805766590114,-16.96287928426553,-126.61280630272208,-2.4032613332503634,-0.5065176029184884,0.6988714094562896,-0.08377649162238136,-0.45482006509616274,0.15450285033458586,nm,0.0
173.594236,2.7435764890801826,-15.782885797340215,-125.26720580583896,-1.6898766449043379,-0.27935605178005046,0.23457499857727185,0.05642584889772639,-0.03581353941756809,0.13378227610572413,nm,0.0
173.61326499999998,1.6054419667096955,-15.623077833876478,-125.28623776079351,-1.0563287279176816,-0.02842315366869598,0.3090579708955904,0.05310889707138085,0.08716970619809221,-0.08999021996150858,nm,0.0
173.62276799999998,0.47342629092658145,-15.542845714881553,-125.95870858782193,-0.950565903303195,-0.020719558088378776,0.15341483006277978,0.1264001247757282,0.1689382649787133,-0.19860244161110138,nm,0.0
173.63226899999998,-0.8718743601554669,-15.434241383850491,-126.68860008264345,-1.042757236125243,-0.07957076484369698,-0.05793374274251332,0.157432748576598,0.19739422920217986,-0.220889560035751,nm,0.0
173.641785,-2.064921604359367,-15.208955666555967,-127.1034788844824,-0.8307375378194821,-0.21260811862388074,0.15544391705036475,0.16051717842559454,0.1585115434032196,-0.14880512828041267,nm,0.0
173.65129800000003,-3.484555973212624,-14.797843130732407,-127.01401966620074,-0.7752700872842784,-0.364885788581373,0.11870253115193165,0.2172425637958053,0.1709579930753593,-0.05807248309743181,nm,0.0
173.670314,-6.228476772385769,-13.510838898753478,-125.51990485214684,-0.2884705469810251,-0.5090835651290684,0.1329849920422497,0.2420127516326412,0.12430268382629875,0.1160498140511598,nm,0.0
173.67982099999998,-7.5839588437311365,-12.901826139802434,-124.66849080152058,0.04604263725544253,-0.42483943658991447,0.23007511212080065,0.23766398674049508,0.1473515625712526,0.10665529659380056,nm,0.0
173.68934299999998,-8.937973656686266,-12.474144754938127,-124.14998227182589,0.29743129807902124,-0.2129628204890473,0.18018620574219038,0.20606355434513793,0.1710640787379427,0.04270017575759657,nm,0.0
173.69884800000003,-9.995641890714179,-12.292889152272954,-124.08864215878874,0.9084532321020973,-0.06016788669158884,0.5050001952445402,0.13200264756484972,0.15218699712835795,-0.03448861840569187,nm,0.0
173.71787200000003,-13.131516588877165,-12.501252295116727,-125.2550345065898,2.032610121625436,0.5740218659739681,0.7965915487130263,0.15880782666835516,0.31306025692685446,-0.22834528266862825,nm,0.0
173.72737800000002,-14.966025850070539,-12.631472753740972,-126.08286569697647,2.7322694535911203,0.836622140977687,0.9740682807822789,0.17385404750831676,0.30857347268336094,-0.2458957997357405,nm,0.0
173.736886,-17.008264173666646,-12.522945136338446,-126.82071189637139,3.414776865296618,1.0016552470028253,1.2199400495098958,0.24063290581570834,0.3105078865840057,-0.23657871401353112,nm,0.0
173.746233,-19.277164259622808,-12.157786803704099,-127.30266523859783,3.7072498993876573,1.0465940674600394,1.2006836020650655,0.3118923814429799,0.3127083584103516,-0.19294680253649635,nm,0.0
173.76526600000003,-22.901348851165906,-10.725692575914625,-127.42736804490166,3.1676917582769906,0.37069586583773245,0.4533512199012587,0.3046000668552687,0.15273816170676183,-0.05677228944655843,nm,0.0
173.77478,-24.636860914686004,-10.172958507833366,-127.44014824877758,2.2771836670552026,0.21043779224928993,-0.2824942659425908,0.2817830723785113,0.2068914370189453,-0.06401253422631639,nm,0.0
173.78429300000002,-25.910360428358562,-10.588047117040452,-127.34359918389545,1.3855508323727839,-0.0707888398939545,-0.5139122516356271,0.07249109560629209,0.2525679504285943,-0.024739269113576566,nm,0.0
173.793957,-26.469574607753927,-11.973038144681672,-127.19874680537983,1.0254000244054067,-0.45643040740070845,-0.34049526332413166,-0.16794986215507496,0.2581668675689931,0.009223889947482381,nm,0.0
173.812984,-26.990789735719897,-15.98484810239738,-127.07398516775537,0.4008773555583419,-0.04081556626778065,-0.5422092612882957,-0.3399725387480937,0.27538892501426004,0.01575972610141486,nm,0.0
173.831827,-27.137269445215658,-19.84603269210205,-126.082771868208,0.5856791220805875,0.505823060926249,-0.6461227677496367,-0.2668345205963951,0.237368585159326,0.11256865872046502,nm,0.0
173.841335,-27.37540020380217,-20.735054677495686,-125.40533845393212,0.5490528624326839,0.6707446283799433,-0.9045566691387622,-0.1319266255049988,0.14306282489864916,0.12230265793502962,nm,0.0
173.850831,-27.55628568561869,-20.937685765117042,-124.78805211134707,0.5749594532300742,0.5385006410956977,-0.9445149354262061,-0.027307159208577673,0.05366485620667676,0.1139895426133809,nm,0.0
173.860337,-27.743175017147383,-20.766045374187172,-124.39741184979431,0.24039816996459482,0.2668734273105292,-0.9620980079905653,0.03457093778250564,0.011822005182741674,0.06821247160788753,nm,0.0
173.87004599999997,-27.57646235046389,-20.46742649336325,-124.36432580148325,-0.08691908863125813,-0.1449379929241755,-0.8541430683014337,0.01811455610447646,-0.05703879380138729,0.021646412549071754,nm,0.0
173.888898,-26.135877133854606,-20.485744089146603,-125.18752251799796,-0.9260349939458179,-0.7932205575291976,-0.7098051715807022,-0.14009315281150456,-0.11201772783380691,-0.03589915292918084,nm,0.0
173.90807800000002,-22.816510634712117,-21.51549228522923,-126.00683404808072,-0.9393555966339372,-0.9744055671060661,-0.17180503631330146,-0.3056000193066014,-0.20794115857849152,0.07044431142233981,nm,0.0
173.917406,-20.973217365908177,-21.934860717919182,-126.19078727020377,-1.1485270448945417,-0.5801500457675163,-0.41372209901907747,-0.2836846855658993,-0.2249832422555674,0.10184271866067866,nm,0.0
173.92691900000003,-18.383073310323596,-22.199889718633727,-126.22067259597641,-1.0874577197388868,-0.3097552031669623,-0.40960188610655573,-0.3406523364919568,-0.35408657950367123,0.19041851619284267,nm,0.0
173.946115,-11.917581725847292,-21.643750222705133,-126.29306406900416,-0.9480537318195229,0.015146067633514981,0.01584057430820119,-0.2805426064413828,-0.5451945110331623,0.2231651085850637,nm,0.0
173.955637,-8.410851947714953,-20.499252006479555,-126.48077416232749,-1.1779934655493562,0.10003850715932783,0.045078165018806446,-0.21837614803899943,-0.6617970328593087,0.21424164154028189,nm,0.0
173.965141,-4.741925235825629,-19.05129211042193,-126.67565309824374,-1.376264625881175,-0.043813113547610395,0.39057444192247553,-0.19329024424464217,-0.7265839101552405,0.20799773379768022,nm,0.0
173.974657,-1.362012033518301,-17.548740131740253,-126.74705629731275,-2.095560541570778,-0.3170810855434988,0.31085063749586195,-0.15695004761762751,-0.6938756990632322,0.19578638596779127,nm,0.0
173.98415200000002,1.6604014669653122,-16.192442300284934,-126.4453706903949,-2.2725927563758996,-0.580349930178902,0.700893056393109,-0.14110975096662418,-0.6261309909188953,0.23280902246293073,nm,0.0
