timestamp,roll,pitch,yaw,acc_x,acc_y,acc_z,gyro_x,gyro_y,gyro_z,markers,motor_input
168.506005,-76.10238340155418,-41.808905013723255,-137.34846261516634,-0.7634081391487886,-1.266945159770822,-1.201624270440658,0.0,0.0,0.0,nm,0.0
168.515503,-75.16301642425748,-41.654458348935485,-137.26317478628496,-0.5885158975168049,-1.1155865435801495,-1.0639931860704892,-0.08601686088394768,-0.11093685163951654,0.15405026117933582,nm,0.0
168.52503900000002,-73.23719439005826,-41.58271186283022,-137.0869923900407,-0.3898727912769582,-1.0262780641191966,-0.895923340993233,-0.20587883939088236,-0.1994137680061862,0.30294903921811767,nm,0.0
168.534551,-70.55239754219556,-41.532884426241615,-136.84806144441825,-0.26944094927224893,-0.825456342751683,-0.679658005082696,-0.29198664069726155,-0.2745961182681437,0.4157247748672033,nm,0.0
168.553555,-63.10266695614273,-40.97482604755769,-136.21996278529852,-0.1916039063140806,-0.31281658270057977,-0.40848251916546763,-0.3926769268884795,-0.46969842028224557,0.6137635008864639,nm,0.0
168.56306400000003,-58.307678794702355,-40.34388468702843,-135.65672010894608,-0.04049810893360957,-0.16965676340766708,-0.4290914841032542,-0.4428639509344699,-0.5899766109052845,0.7481178636711586,nm,0.0
168.572595,-53.10983777439426,-39.64093434873276,-134.8501651814697,0.21061306048440753,-0.024300043590337668,-0.2916788292239681,-0.4756835832563452,-0.6541756893759788,0.8393905095404455,nm,0.0
168.58213099999998,-47.496881601401626,-38.98264093311648,-133.96049750084376,0.16070395171422328,0.37402074498965765,-0.10608482211690892,-0.5238607576733493,-0.7066627879188003,0.8982883011931655,nm,0.0
168.61061800000002,-25.255499865681752,-37.44298717217039,-132.64855124155974,0.2877447432394421,1.437503248878422,0.8635572475680467,-0.8276000743840963,-1.0123060966731237,1.0292035709844138,nm,0.0
168.620122,-16.150170608684874,-37.01162988184857,-132.7448956451284,0.2841175190279496,1.93270923056584,1.3771332035298127,-0.9344499822655712,-1.1212902247873342,1.0865530693118144,nm,0.0
168.62963699999997,-6.833259324562809,-36.61597419121682,-132.8678206129367,0.0881840782497964,2.4389828413385755,1.7201730098123602,-0.9708118489708241,-1.1465126267683234,1.0944607811454699,nm,0.0
168.639149,1.6935392011278814,-36.27044627594461,-132.8601544576033,-0.40054386726449925,2.779753159221751,1.6231780856871536,-0.8978691293741353,-1.0519759243232627,1.0154213667357137,nm,0.0
168.648646,8.73336861888226,-36.01095810919759,-132.55905249051065,-0.8384232387284191,2.920082043663525,1.317510683807029,-0.748197941779554,-0.8711239349585436,0.8900749839464424,nm,0.0
168.65835,13.618125995423522,-35.89010007602341,-131.88226185551446,-1.0877109706875345,3.010771542185307,1.0932438528231851,-0.5282522881186535,-0.6030195722731655,0.7073815660699116,nm,0.0
168.67719400000001,15.86845930771822,-36.233721436307924,-129.54191104308853,-1.2073361055775653,2.623960051006002,0.6003976519661686,-0.04713796365969644,0.03764710318279912,0.25472287039380764,nm,0.0
168.686878,13.653413329555516,-36.46210638540061,-128.05399160885574,-0.837942530190932,2.3768163142009886,0.7728861526029194,0.17422734333510667,0.30580486385612254,0.03270293513523265,nm,0.0
168.69639099999998,9.606003446327925,-36.5092217207112,-126.60777892379379,-0.4023840335650641,1.9465134142404457,0.8657672493185831,0.3735591318592239,0.5228691082252764,-0.19414269682661434,nm,0.0
168.70591199999998,4.34432955975666,-36.32946691030391,-125.4528118096964,0.09176843563876182,1.4297354384884688,0.9690255687673759,0.5136017129280355,0.6640513682389789,-0.395292198760841,nm,0.0
168.72492200000002,-7.9969309526849175,-35.664829821062575,-124.66629553672671,0.7310581627837184,0.3011364804590241,0.6525857790969443,0.6256128577039142,0.8086911377489598,-0.7166311525669268,nm,0.0
168.734426,-14.32966011128946,-35.51631683486362,-124.96533207557339,0.9496784542057803,-0.12766862939307697,0.35502207613842895,0.5993255768738218,0.8317823805334594,-0.7956499405202533,nm,0.0
168.74394299999997,-20.512007005862394,-35.6145332804311,-125.47284071634807,0.7109034393993564,-0.3551395935326681,-0.06706522634759497,0.5512766897851182,0.8370238196673925,-0.8182777307181422,nm,0.0
168.75345000000002,-25.890510049237133,-35.791210219892434,-125.99489777600101,1.1113782761555477,-0.5632488234513771,-0.18848376485955035,0.4690900764336426,0.7342505797702428,-0.7286954287561235,nm,0.0
168.76278599999998,-30.93860705642654,-35.88170654949299,-126.51149215124033,1.1046233539258403,-0.7654305178191697,-0.4612240553711027,0.4575223334828091,0.6757827918943521,-0.6899922145253528,nm,0.0
168.781799,-38.76845365407535,-35.234582498312065,-127.62947875956121,0.64070270843048,-0.9658682066482416,-0.9126783549770695,0.3947202886823734,0.3807171196364659,-0.4967400737701158,nm,0.0
168.80083900000002,-43.468591720917864,-33.71861378900109,-129.19456482090214,0.15891320203224885,-1.3801723817263962,-0.690251711238863,0.3301916094768252,0.16730763924528175,-0.3971566668107315,nm,0.0
168.81033299999999,-44.97840844099104,-32.922537265891314,-130.1417303600886,0.11784417999456284,-1.793656506676556,-0.4828425968081343,0.27327733968278106,0.09818240403447226,-0.3481247928657648,nm,0.0
168.819849,-46.703301402491284,-32.44728896124689,-130.91134625585875,-0.2778554834240237,-1.9782982254134633,-0.204751827315698,0.2508026303543525,0.16474579809444945,-0.33276718715117887,nm,0.0
168.82934200000003,-48.33853023949511,-32.22614981675805,-131.51627613617433,-0.32975778149608354,-2.3789370691761893,0.1467356009120042,0.20542503878574148,0.18468005742794236,-0.288171575558269,nm,0.0
168.83886500000003,-49.80278927295442,-32.14488419700537,-132.29983766626538,-0.5152850515065178,-2.400452815927814,0.0970722152725829,0.167975809259911,0.17968797966465322,-0.3047265647987819,nm,0.0
168.84837100000001,-51.199198362846126,-32.53794289428317,-132.97415471490226,-0.6163005357640594,-2.144253599655826,-0.2221621088455987,0.09254299157827114,0.2331579266528382,-0.27604170267319306,nm,0.0
168.85789300000002,-52.61235621832641,-33.60399366965893,-133.26905963901768,-0.4538851443901937,-1.9705810982062841,-0.2241225736520363,-0.002957231286980689,0.3252241417613826,-0.20468630872692997,nm,0.0
168.876904,-54.08408824317855,-35.77529966505485,-134.31414731938085,-0.010902303905519595,-1.5851331219740936,-0.4649092756885548,-0.08662147874774732,0.2086196354086796,-0.18106581363573296,nm,0.0
168.91496400000003,-52.28254115207295,-39.230293628162286,-137.56126855839332,-0.06679049568999383,-0.9434112031956051,-0.5269574789744208,-0.25668754976299285,-0.007717567575315972,-0.10378511252175769,nm,0.0
168.93414600000003,-49.071432848826696,-41.25248514204395,-139.85468959676535,0.13437657616303622,-1.0233776040074574,-0.20472900455334928,-0.32844830476495734,0.015774279455959845,0.012249902424249696,nm,0.0
168.94367000000003,-47.53113484641813,-42.11785925638845,-140.61973527235278,0.0032994726389546443,-0.7971248726993332,-0.18618396610107465,-0.2960685817778151,-0.005949607434671966,0.060168516892268625,nm,0.0
168.95319300000003,-45.850928449057555,-42.606561586042105,-140.96344961588042,0.1712634416291045,-0.7247010742924389,-0.18611941028739915,-0.26284348569579247,-0.07308895647613312,0.1658756916031514,nm,0.0
168.96269900000001,-44.34554290399385,-42.77474330122971,-140.64686640092214,0.2830396921799258,-0.5608280638055232,-0.25333643279342966,-0.20164516492699397,-0.10575658341162958,0.2755369209918733,nm,0.0
168.972204,-42.925223509195135,-42.673964746521555,-139.69024829780759,0.33940612412652055,-0.38356481301075485,-0.2858945071137412,-0.15656041002985607,-0.14136793087745617,0.3920327079401422,nm,0.0
168.98171,-41.198385505215356,-42.283439078734325,-138.42442515965251,0.5038749589772591,-0.25672487140128364,-0.3254687428033938,-0.150924250843938,-0.21854529351822652,0.4942157837171463,nm,0.0
169.01024700000002,-32.59717889955601,-40.83032638069405,-134.7930270560378,0.7734770250228914,0.14507025858999287,-0.027930524708480585,-0.3338816558017632,-0.42857405541156907,0.6811663540388231,nm,0.0
169.019753,-28.625903113038778,-40.411036325672335,-134.05701092005796,0.3136102035216096,0.5787236066683681,0.08962494915271138,-0.37446717008883196,-0.4839758293520529,0.6702256640078329,nm,0.0
169.04827200000003,-12.05269000959906,-38.59493581724188,-131.87372319841353,-0.06232570769671488,1.6380108095846662,0.817745006201031,-0.5311129348106041,-0.7609385409384429,0.9159048376822962,nm,0.0
169.05761099999998,-5.892866001685853,-38.15071570384274,-130.72067265977336,-0.16618351551333174,2.0800645613647375,0.9611617368725132,-0.5855131000224749,-0.7829223164994803,0.9975260948586528,nm,0.0
169.06728999999999,0.07603753560971166,-38.040247148938825,-129.42139048044896,-0.33655814702275744,2.4661161694958538,1.104522133692142,-0.6028903850685802,-0.732992745760056,0.9975102715144919,nm,0.0
169.07679800000003,5.282765812353333,-38.117761681719266,-128.1317970982418,-0.7425820515333258,2.6587438401686905,0.8327003781279069,-0.5403825609861055,-0.6301529450040292,0.9003894551087084,nm,0.0
169.09563699999998,12.682873855860548,-38.55045602222061,-125.87258576796745,-1.1160643015429716,2.663650287514685,0.40852011523233533,-0.34048139144620815,-0.3589120860603525,0.5918978497773386,nm,0.0
169.124356,11.984811168881787,-38.91193170918417,-122.6201709124434,-1.0299096074067013,1.8025915483754233,0.23289133217632974,0.1312454404203509,0.23402452029820275,0.015990527770071466,nm,0.0
169.13387100000003,8.911583961538515,-38.96721664064434,-121.3293566216718,-0.7194721247309438,1.4528758133318351,0.3650094072961387,0.2300867066721443,0.4096947441824084,-0.12956379369959126,nm,0.0
169.14336999999998,4.886243348984164,-38.973941344387754,-120.06155780741435,-0.3808158137509856,1.0868819527658606,0.4276138601825995,0.3046587798113591,0.5376867743673164,-0.2537653568386507,nm,0.0
169.15287800000002,0.3595734094917244,-38.858517952124444,-119.00459562474295,-0.04189173340366987,0.7553647830409979,0.34099142689041223,0.3535969860072791,0.6008204033948119,-0.357757882376079,nm,0.0
169.16240000000002,-4.215864686799607,-38.6745459613182,-118.38270091141258,0.2487259980080768,0.49465271106735786,0.1356157768188545,0.3611328104402862,0.6080990798264846,-0.44838532382210483,nm,0.0
169.17191999999997,-8.533385318579016,-38.527049100131826,-118.33302834046385,0.5285212487365263,0.33297935121976246,-0.022820956438154717,0.33280646607988196,0.5803399965955122,-0.5279130612555011,nm,0.0
169.181433,-12.591589916215986,-38.45889063968335,-118.8624519821916,0.6554339712828866,0.20667478603039746,-0.2103352560348999,0.3024413782428266,0.5524182056179343,-0.6095415887263667,nm,0.0
169.19094299999998,-16.17838004545481,-38.36978028476989,-119.83360579133766,0.47438819075153105,0.0845628094349817,-0.47970002515154014,0.2775541335125163,0.48303206532872633,-0.6378255754523948,nm,0.0
169.20046399999998,-19.04720490465028,-38.14287025804499,-121.0007278264167,0.7805834433286021,-0.09005074683707556,-0.3609105326641284,0.2539290380489332,0.3678697339911703,-0.5860099310671903,nm,0.0
169.219479,-24.6657430134084,-36.811636822949765,-123.3001753144278,0.4601527360531594,-0.5825821906497689,-0.313049300727963,0.3668930544188185,0.285623989348885,-0.550326061377524,nm,0.0
169.22897700000001,-27.140428018647064,-35.66680576560274,-124.18575079587907,0.5289849150697905,-0.8605961743782373,-0.17479819162264698,0.39962577048775677,0.20835128481749074,-0.46563878673945974,nm,0.0
169.238479,-29.53653404419352,-34.34245550894853,-124.93502207736826,0.4555408869969433,-1.1363726068664242,-0.045465650634898755,0.4285207475762848,0.1768528396531394,-0.42030949361346037,nm,0.0
169.248003,-31.742810497346863,-33.000018018181265,-125.62662036884367,0.29053905478538206,-1.3742883236436279,-0.10631102747030724,0.41917173552850123,0.14874437411729094,-0.3781695978738495,nm,0.0
169.257504,-33.70773583184409,-31.87252112105519,-126.30511774869531,0.14568182661157528,-1.6328739529604586,-0.015273886647568497,0.3653125773633105,0.1402357786120707,-0.3413757855532401,nm,0.0
169.26701699999998,-35.43540577861871,-30.961382145761018,-127.08053415745499,0.12867070134524572,-1.954327883756219,0.19181822405970475,0.31044241762427643,0.13197728200972644,-0.3298272379795971,nm,0.0
169.276531,-37.19634745146957,-30.22455088892559,-127.98582999212391,-0.025337246331210095,-2.2314483473427114,0.2967793396673608,0.28987348470380797,0.1553042806185403,-0.3546834538581498,nm,0.0
169.285849,-39.10595089818009,-29.744196659667235,-128.87647900100515,-0.13671490650602003,-2.5016940651995676,0.4282698344016978,0.26942227611488717,0.20438901591263497,-0.36308156820215665,nm,0.0
169.295358,-41.160077865447526,-29.585893867335287,-129.6867438609991,-0.166544417476892,-2.6899329162560277,0.4430906338657768,0.23932534916146742,0.261536741536439,-0.35910634111997425,nm,0.0
169.323902,-46.640376512391185,-31.620190362331396,-130.6334675544207,-0.18467922930664848,-2.1670393557822107,-0.00982269128542385,-0.0034664883459007366,0.3056574848324018,-0.13718900735514641,nm,0.0
169.333407,-47.70564837080294,-32.415185131810645,-130.4034419279681,0.0768073966182142,-2.0227431776615337,-0.15120005261657887,-0.01389709144357845,0.24646436322192108,-0.059121329730601295,nm,0.0
169.35241299999998,-49.48531049836216,-33.83541954605033,-129.0779180424673,0.10107661825046393,-1.5079324101890796,-0.5413859384973305,-0.048879742051257155,0.18733546808626225,0.08818985054367025,nm,0.0
169.38096399999998,-49.26431520624577,-37.31073269364898,-127.8464004775959,0.24138341910041544,-1.0409273523223828,-0.5930197678756386,-0.29962101672130265,0.08619412763423374,0.10372405971558643,nm,0.0
169.390479,-48.18285768598587,-38.83205174676377,-127.94434836099316,0.30119251869405095,-0.8547614431319284,-0.5046913411870603,-0.3551001911158604,0.05841692993377469,0.12210821332674804,nm,0.0
169.40966899999998,-45.152818217178506,-41.01754151659123,-127.70612184205775,0.3829527537872708,-0.3798493685569626,-0.3484170533862901,-0.29922066668144087,-0.09964427596335299,0.27794727260610846,nm,0.0
169.41917800000002,-43.285356965469504,-41.13129547218166,-127.08898963602074,0.46141206990108063,-0.1121942892398277,-0.3971184944452903,-0.1999258580116721,-0.20445896396588006,0.376804133462984,nm,0.0
169.438209,-38.62656783002746,-39.93313751674099,-124.38559236136788,0.42677044519396723,0.2935750536942177,-0.5988103022519207,-0.11848266569286206,-0.40874817323745777,0.6574407408595768,nm,0.0
169.457259,-31.398701379869635,-38.51432747127598,-121.5136994028508,0.49414769191827174,0.8002530807016371,-0.35909395945029693,-0.23241550283781715,-0.5775802472464854,0.7509242632136456,nm,0.0
169.466736,-26.26032086735942,-38.18299227249439,-120.68254209093467,0.4145003006622354,1.0730402022981684,-0.12577530710151,-0.3732623515993055,-0.7227311247298394,0.8093358074780395,nm,0.0
169.47625100000002,-20.005640381785266,-37.99868159394732,-120.34918959849016,0.4978418641453993,1.464583017530588,0.38155824360966933,-0.48246497522948967,-0.8662294761146679,0.8428633418762408,nm,0.0
169.485763,-13.188218652276394,-37.7403262907013,-120.38913176280198,0.046591292718940636,1.936870246864674,0.6335705026882081,-0.5142618115697544,-0.9550760897872543,0.8323379750022747,nm,0.0
169.49508699999998,-5.895083680098111,-37.29261220763419,-120.47422773695946,-0.30687335047238246,2.3834984785213496,0.7997169633507455,-0.5237140492699492,-1.0442911481115265,0.873371668099234,nm,0.0
