timestamp,roll,pitch,yaw,acc_x,acc_y,acc_z,gyro_x,gyro_y,gyro_z,markers,motor_input
162.001112,-16.158922818581665,-23.803445137822678,-123.60043944563125,-0.36740332853697183,0.004872099913078255,-0.1659686551113034,-0.07153945366715253,0.05289078401809864,-0.014308661664942771,nm,0.0
162.010703,-16.452395709858386,-24.4293284784531,-123.42164320315257,-0.4873273415113684,-0.05573556790114727,-0.0651260471969108,-0.07666836628022419,0.008824403793894762,0.01345009542128194,nm,0.0
162.039146,-15.1440913563854,-25.07821203678559,-122.66401181340906,-0.5763544325346367,-0.09973888485268124,0.19991346321814898,-0.10075234074584127,-0.052984965162289746,0.11539080586109429,nm,0.0
162.04865500000002,-14.75432778396394,-25.10074726303515,-122.395238995663,-0.5752623137702356,-0.0820990644142641,0.35664830378827933,-0.055922478873967854,-0.05593927785006413,0.08803801278912408,nm,0.0
162.058143,-14.337541243120896,-24.837973095040553,-122.33274603720737,-0.7151226707625379,-0.04582953910163432,0.17639500186564358,-0.010171887445878535,-0.09090273035414397,0.04877017448469366,nm,0.0
162.06765800000002,-13.696661979986681,-24.632486294850008,-122.43637197176443,-0.8273131764032972,-0.10672130160866138,0.013989063731919988,-0.04181026247732988,-0.11933545372844227,0.033828701855546234,nm,0.0
162.077169,-13.041300994478243,-24.63801615978677,-122.6421605571213,-0.8831006252909253,-0.23497794696034638,0.29887478595678496,-0.07923345066787132,-0.09884367937688467,0.014247840723519126,nm,0.0
162.086674,-12.546046679687215,-24.625414203119995,-122.89485269014219,-1.16434509019685,-0.32900314750333987,0.3056070922256644,-0.06081085954787671,-0.07603047600034568,-0.008611377535131534,nm,0.0
162.096193,-12.055639462829078,-24.619347716360018,-123.00823749861877,-1.3250366903432662,-0.47350847925169665,0.45368648200136347,-0.06168635243747174,-0.07445564493472805,0.01876101819362965,nm,0.0
162.10571000000002,-11.869648112401329,-24.826239625988766,-122.80368361261371,-1.3986480312778333,-0.5717679254587619,0.5665418987245325,-0.06731994056806094,-0.00484690982285605,0.05705379923503961,nm,0.0
162.134237,-13.581257144999052,-26.607107174239957,-120.5779491673656,-1.1403951802106156,-0.16240476447390456,0.19125068811767004,-0.056806188334654076,0.209840214486472,0.08729567415633294,nm,0.0
162.14373700000002,-14.455579346908566,-27.383989052748916,-120.04400036451386,-1.1825480685842233,0.040889098166763053,-0.06424180475716955,-0.06970068140620309,0.213855922193901,0.02873674963951709,nm,0.0
162.153245,-15.091642428218421,-28.132109909560402,-119.8351757119359,-1.0053696870514428,0.15150337058936206,0.04375711401143191,-0.08767174639866171,0.1731369938787928,-0.015991675018575388,nm,0.0
162.16277499999998,-15.881151119712062,-28.69204782748313,-119.86622847350505,-1.0184954555818244,0.221553450709525,0.041876990101931626,-0.04210905598020808,0.17721885403876206,-0.07969931977532879,nm,0.0
162.172268,-16.845718453107967,-28.96378167959048,-119.951944433146,-1.0995916604128366,0.22733387287884338,-0.0424424743229341,0.023175055658794352,0.17474345179004602,-0.10832775141638562,nm,0.0
162.18178200000003,-17.98153007549036,-28.981897846656214,-119.9186290289996,-0.9675975672507772,0.17211622161373938,0.007816120917845448,0.08215715903699113,0.17528285426246365,-0.10131056636982042,nm,0.0
162.21982599999998,-25.48033301190457,-27.97265028740112,-119.2450907395994,0.5993570474068426,0.07370624938910811,0.5259275476402306,0.2377991680315223,0.338205591281144,-0.22602211438325653,nm,0.0
162.229341,-28.168823555776623,-27.835775374882193,-119.63768646232342,1.272882739746671,0.09936803764927704,0.5932426897411597,0.2442492021476094,0.4027017736379556,-0.3264665173736634,nm,0.0
162.24840200000003,-34.47906534608732,-28.28386446040414,-121.2249955961723,2.069628006639049,0.37928570248448645,0.2875710839266397,0.21810740416773766,0.5375362451745448,-0.4741787985601938,nm,0.0
162.25772099999998,-36.84450527345283,-28.754616108585918,-121.99104617975827,2.757342041580856,0.36726654026964334,0.18004559256294767,0.1252752956656078,0.40690946618816787,-0.37371287307621404,nm,0.0
162.26722600000002,-38.5949641606469,-29.006623699068136,-122.7170631720252,3.445352826047664,0.2296810739495137,0.14772122289942852,0.10927803379614069,0.28961295165566303,-0.3084956580065352,nm,0.0
162.276732,-39.97925032014274,-28.957578617191192,-123.3836249749078,3.1344608422254656,0.41622908680338677,-0.2733854404637098,0.12831898710243164,0.2014262300441678,-0.2613439135752931,nm,0.0
162.28625300000002,-40.51006027075268,-28.8853441619106,-123.69200509593719,3.080597897876545,0.2555516909309927,-0.40040917722467045,0.05136388425090511,0.07317085713901479,-0.10663903837314356,nm,0.0
162.295764,-40.76860773805949,-28.973475250938275,-123.73918281353485,2.8541231615889213,0.037926827648368765,-0.34594906946739673,-0.0015919596638066702,0.05113301179283372,-0.027943753949530147,nm,0.0
162.30527199999997,-41.11859922441248,-29.34317698570041,-123.67474955430279,1.97174163338058,0.10875039599553656,-0.5116243837757862,-0.03963089658002776,0.09568250713203183,-0.014625470385322123,nm,0.0
162.324471,-41.39606203499993,-31.32440428092472,-122.86732880340077,1.0853226322785101,-0.007161243075975506,-0.30411747201198863,-0.19653895087569176,0.1477172109294899,0.09652092768922693,nm,0.0
162.333972,-41.63040835920739,-32.60971506973665,-122.19427809617427,0.6893886793867329,0.09827802745751987,-0.353989621212883,-0.2074498821744067,0.17570251417018756,0.11675514112175361,nm,0.0
162.36230200000003,-43.4463090106721,-35.182065033335405,-119.32477894250925,0.5898648491344236,0.4953667441530438,-0.7014280885012054,-0.01120693487729244,0.1860467770241309,0.08726874516669064,nm,0.0
162.371815,-44.425836148342704,-35.16614319690004,-118.58522079418776,0.5926551305416499,0.5263307192615272,-0.8474299663320619,0.06884581501121687,0.1421752463612488,0.042597342106077636,nm,0.0
162.381316,-45.440252011124265,-34.88449379756563,-118.12071058971775,0.5500901594224452,0.4077039204652266,-0.8702305457222954,0.1171622257633936,0.12297599539211958,-0.015889650541980677,nm,0.0
162.39085100000003,-46.41140479593313,-34.49418064550521,-118.01358732152612,0.2527689770418139,0.1973949061365807,-0.859841366388776,0.13284208274464038,0.1076871332325479,-0.08137834121541379,nm,0.0
162.400521,-47.118910517889695,-34.11348224610169,-118.24692312687242,-0.010957664402870177,-0.10343756847804182,-0.788177005292749,0.1111414707049613,0.07067316703711397,-0.11860172275954324,nm,0.0
162.40985700000002,-47.6012204193483,-33.86369758613252,-118.6731276773008,-0.43828368394023504,-0.36082858597704026,-0.7273569502932616,0.07094958224638986,0.0500548417869416,-0.131294400612583,nm,0.0
162.419388,-47.72998981260445,-33.77752980060773,-119.10515256492502,-0.8608002400491799,-0.5498527196024303,-0.6402471868522015,0.014308145322456249,0.013991796599846206,-0.09281415585240724,nm,0.0
162.44789999999998,-44.78493723084175,-33.501395563641715,-119.82063771737108,-1.3536195508455033,-0.5530493257727949,-0.390206426805368,-0.10877151185528151,-0.24843847223495477,0.1574796799150204,nm,0.0
162.457411,-42.31482477222082,-33.071322557406546,-119.94246494533371,-1.2909415656774068,-0.4108399711273156,-0.40213710107642087,-0.1431841415006296,-0.39805493990931684,0.2541632303174347,nm,0.0
162.466932,-39.05624426418607,-32.39573511289625,-120.148626232986,-1.2410473550566816,-0.36909853199051273,-0.2944558834613436,-0.16999953507813934,-0.5397331107833979,0.31805314990691785,nm,0.0
162.47642399999998,-35.05718370912549,-31.340898989533528,-120.59657513794147,-1.31416396413379,-0.3028295062606779,-0.13501244811714103,-0.17439858375567852,-0.6906607507162986,0.3388509473783544,nm,0.0
162.514468,-14.894703737640201,-24.74934271198911,-120.04883559272022,-2.4181858757386037,-0.9412397648034164,1.0524679128078944,-0.15900195852248847,-0.8605993951198224,0.6338019869892224,nm,0.0
162.533489,-7.706022510828927,-23.41348174839272,-116.61085081555491,-1.7682935335590046,-0.35287212433353277,0.8576889469883587,-0.23857786801047687,-0.5559067248932237,0.5923199355654544,nm,0.0
162.55269,-2.9428025327965,-23.776403293876367,-116.50959296419677,-1.794842287420098,0.14206736328481512,0.3907208358394653,-0.24177144731507577,-0.37913277648767707,0.0715185808887974,nm,0.0
162.57170499999998,0.722061422006274,-23.454969508499214,-120.23367066290305,-2.0741794112257224,0.1490793188675952,0.3151334688285103,-0.09946634684888121,-0.2687751484941526,-0.28947217804824465,nm,0.0
162.58105400000002,1.4726290905927786,-23.084598323681394,-121.73262719326945,-2.169709325154187,0.08196616922871341,0.25217580462565453,-0.02149377829783582,-0.1571673868640602,-0.2429661570583089,nm,0.0
162.59073600000002,1.2066769748023682,-22.71399439273304,-122.04075004678779,-1.838271678756138,0.08859231148247469,0.39952116622209893,0.07492030589175776,0.0019465259802676485,-0.08466730426619294,nm,0.0
162.600243,-0.3404179833087722,-22.289048416381075,-121.06652036260904,-1.457170231955451,0.10919505929608324,0.2782651790047056,0.20823480273623576,0.1988017882014714,0.07443855286895373,nm,0.0
162.61926200000002,-5.759580861856488,-20.791315652053584,-117.36429428829271,0.15609391085814253,0.4412327494810554,0.7309074585411708,0.40808710711287394,0.41783342195568174,0.15466138851831457,nm,0.0
162.666863,-25.923777251775324,-21.12636886644694,-119.15859315702261,3.259339974508594,-0.1660100260934721,1.4103730202771074,0.1909690138903425,0.7871116508472928,-0.5622879538589931,nm,0.0
162.676192,-29.969287554760463,-22.19628384570913,-120.2578373252167,3.4061739469663275,0.05042362703333382,0.7483703912610391,0.1736031684658559,0.761884919586258,-0.5151245812551418,nm,0.0
162.68569599999998,-33.16473724636993,-23.273620542847095,-120.8195773378349,3.9632638663208346,0.2622528541754465,0.3062833634456483,0.10087620602114883,0.6200515701599729,-0.35510396435729974,nm,0.0
162.695206,-35.7905457469678,-24.236268265554905,-120.9192864586145,4.284139032444136,0.4047524276923768,-0.14702331446737488,0.06851335032783686,0.5143508577015408,-0.2265428160964576,nm,0.0
162.704714,-37.80141819668256,-25.076674575107475,-120.82927426667398,3.5776245159606286,0.5489238853158895,-0.8794575456852998,0.030601582994847023,0.40297079919850737,-0.14427996366454357,nm,0.0
162.71424,-38.80814460928436,-26.034065410554767,-120.73169883458192,2.9880662858633964,0.37273729776901293,-1.3143080060433405,-0.08425150598685383,0.25699329706760055,-0.061485798290940016,nm,0.0
162.723692,-39.48105449435209,-27.53643649854935,-120.68800676517913,2.1388382075007324,0.09077525466945582,-1.3676985551607685,-0.2096943983605807,0.25985699697837517,-0.0458200741064607,nm,0.0
162.733211,-39.888688386550015,-29.633112432612755,-120.72693750001312,1.1569900246241267,-0.126012008678842,-1.1758132079447379,-0.33669172972731537,0.27906094625850564,-0.04050626623207909,nm,0.0
162.76192899999998,-38.47862711188722,-36.086327472138166,-119.98588873596775,0.30661128396665793,-0.01205903487073987,-0.32659019681869683,-0.3707417782979796,0.07595100061063904,0.2029255364151702,nm,0.0
162.77126,-37.83867585272723,-37.03117967985222,-118.92854694402833,0.07022465104169102,0.2998306543642906,-0.8228139127578419,-0.2276203374303431,0.006630369487095705,0.2944558542768543,nm,0.0
162.78075900000002,-37.53254296100876,-37.418060215488715,-117.32914613927448,0.38412601079596775,0.5601159054492305,-1.008695975947451,-0.10369462365775198,-0.003651619031664056,0.36373205141200154,nm,0.0
162.799768,-37.671866546625594,-36.80331656475315,-114.774160900974,0.17711819175057947,0.7130306393590782,-1.2041846126521791,0.08898634720196551,-0.039977776710009204,0.1883597010802956,nm,0.0
162.809309,-37.08913850607447,-36.012861840853304,-114.77406691512633,0.1416262968951905,0.516262357773255,-1.0347214590227014,0.09183758267753711,-0.14945010469118278,0.07563738970388105,nm,0.0
162.81900199999998,-36.226613359656504,-35.359990173864105,-115.5079355135623,-0.1634311496240917,0.1588896515459396,-0.7627469352265935,0.04614728963042291,-0.18035974141755362,-0.04000233562130654,nm,0.0
162.82853400000002,-35.178644571154535,-34.949381559995565,-116.66245067173827,-0.6219710923262066,-0.2630493516495378,-0.39840710216937447,-0.014268699869385676,-0.18794650007652552,-0.10435980343056411,nm,0.0
162.838019,-33.937624922271766,-34.57726506857248,-117.93815322934236,-0.8764632329988853,-0.5765877121967093,-0.10439478535224413,-0.04017930673548997,-0.2131438374154675,-0.10799886353357645,nm,0.0
162.84751400000002,-32.746933419213825,-34.16693407917316,-118.90291417002544,-1.3974421453259664,-0.7162316715042291,-0.012854153917266228,-0.03425567385141963,-0.2096680958654196,-0.05307656547365764,nm,0.0
162.86653700000002,-30.498480199096246,-32.98851797060978,-118.7471151403632,-1.248801948559876,-0.6723468720997414,0.12062312810276543,0.026956423032053103,-0.21208916591032592,0.1947665335993871,nm,0.0
162.875865,-29.272639946996676,-31.997127564468112,-118.08376415417658,-1.4391038391758115,-0.4534629323799795,-0.17968182563381255,0.0627686486220714,-0.27473908037392564,0.26933212736202133,nm,0.0
162.885546,-27.301642823949745,-30.934133855769225,-117.41376977987831,-1.1813858986053225,-0.3639202499585232,-0.14565953411387894,0.018114893959886573,-0.39562311772968123,0.34435743389153645,nm,0.0
162.895069,-24.856856414949718,-29.979866788951746,-117.00221239622215,-1.3696658790207188,-0.3483934588035547,-0.059488475553531726,-0.03672841484169877,-0.4616390142391924,0.33419367136948663,nm,0.0
162.90458600000002,-21.69177651450127,-29.070662366420834,-116.94693873190299,-1.6626220754410574,-0.48151614811206384,0.19581675806961188,-0.10181816081244836,-0.5733821320651764,0.3263594966653369,nm,0.0
162.91408499999997,-17.805683469621062,-28.142463475927915,-117.06051659351184,-1.9187774474558776,-0.7249415878339138,0.6296067199639618,-0.1587033845155532,-0.6927795069789769,0.35196063758467955,nm,0.0
162.92340900000002,-13.85908979846308,-27.290845869136056,-116.90412248265176,-2.14308543813624,-0.9677833558601617,1.03786781983965,-0.17966948461122825,-0.7009980955544204,0.4001049224759781,nm,0.0
162.94260899999998,-8.010777756899474,-26.45338066987777,-114.86858911066889,-2.190003422203832,-0.8255133798824711,0.9380393923210885,-0.1711386153176885,-0.4304943013140917,0.48592889676533685,nm,0.0
162.95211600000002,-6.351207264813582,-26.736971861592345,-113.52821242924762,-1.649372385484283,-0.3986207183441135,0.7838024347589235,-0.18770543987626462,-0.24963634054156789,0.41680193671706167,nm,0.0
162.98066500000002,-2.3665856653921487,-28.556562377939503,-115.15744611632886,-1.1642058118285241,0.490849115674883,0.08695167521321508,-0.2470256981270316,-0.22395508351061,-0.15516192188945127,nm,0.0
162.990175,-1.3780503251400276,-28.82078491282328,-116.94074281098472,-1.4165544416086011,0.4508403347984776,-0.0680012075878814,-0.13786375579363522,-0.1343568743246093,-0.2629403919992489,nm,0.0
