timestamp,roll,pitch,yaw,acc_x,acc_y,acc_z,gyro_x,gyro_y,gyro_z,markers,motor_input
154.55434599999998,-14.546851363876424,-14.953900617421498,127.41477452308062,-1.7668668505102068,-0.09334716589364167,0.6725081922291197,0.03306239889204927,-0.4330477095768295,-0.30160426726075,nm,0.0
154.56384699999998,-17.28933283958067,-13.78941537518851,126.44654839543509,-2.3533350270169255,0.1956273424017591,0.6818358239958935,0.13959818664096366,-0.5526525742749154,-0.3297289712304355,nm,0.0
154.57317300000003,-21.12074923067937,-13.091518212598475,125.46893182881877,-2.7993124572804016,0.44862213787125743,0.39745836223073366,0.331774972011972,-0.6736092977445621,-0.37285193643437736,nm,0.0
154.582707,-25.52568116005869,-13.02266526112665,124.38945400589876,-2.9793214296968147,0.6651360987227859,0.21708471679039645,0.4877227550095995,-0.7002408134074465,-0.4132223874171212,nm,0.0
154.592203,-29.920762135588014,-13.405418664059527,123.18606490277732,-3.2558567113324632,0.5028054120639415,0.21397541031487546,0.5475005423092814,-0.6577566153601498,-0.43893977381562743,nm,0.0
154.601714,-34.463519453871164,-14.13342007137448,122.1279077767823,-3.069356876117987,0.5415311630308984,-0.0298231688805094,0.6070040932681826,-0.6539652152176583,-0.42417184040031214,nm,0.0
154.62074600000003,-42.65836739945217,-15.486032524833224,121.80863493712332,-2.8194746397589823,0.0868648556689324,-0.4929784092111007,0.49870583914597977,-0.5786038111023839,-0.1651840110731037,nm,0.0
154.63976499999998,-48.84924938955016,-15.439872550106667,123.07510125303301,-1.9761534748747738,0.04842142244456493,-1.2253412269923327,0.24784881203522321,-0.42423642117639,0.007769406277784231,nm,0.0
154.64926999999997,-50.29286282916155,-15.266182422888363,123.48155663910109,-1.7692026032141492,0.010588133009343548,-1.3558349157623404,0.13071356608463874,-0.24207331817913985,0.0122013649738924,nm,0.0
154.658782,-50.75878827987891,-15.454894858976843,123.47242336606278,-1.4813478846170107,0.1917070187149938,-1.2538141257567208,0.08796488386001577,-0.044222989381160226,-0.019076285804957155,nm,0.0
154.668332,-50.11136098611388,-16.21348268485607,123.13859317600412,-1.3816827843961255,0.3376243997318184,-1.001043805196617,0.06543473788307427,0.1975557578045674,-0.024065651972578248,nm,0.0
154.67784400000002,-48.598029069707486,-17.424478943847323,122.57477146415582,-1.3600822836466904,0.4166780588733029,-0.618330426345628,0.05354533074866621,0.3850832442079371,-0.01799196819334648,nm,0.0
154.687354,-46.63415253134261,-18.756164019680135,121.95491394086241,-1.285673421139592,0.35408222917940635,-0.260648204622055,0.033424154603193104,0.46827347942811537,0.004952997055386965,nm,0.0
154.69702800000002,-44.67961015546297,-19.870440287871865,121.56798485094824,-1.0096571398072967,0.3201915283107322,-0.07825515924877098,0.0029978043046594094,0.4413678579174674,0.058623034817518335,nm,0.0
154.725582,-39.534823605243375,-20.307893434861196,123.39332359925601,-0.326411685188816,-0.44610479314316126,-0.23378919951498092,-0.19884495309216554,0.21744359222878706,0.3327022725371769,nm,0.0
154.735079,-38.19081443713149,-19.844333006225458,124.70596408289357,-0.051207139045185014,-0.5520504172432676,-0.3977282054712963,-0.21114874469972483,0.1684391028636741,0.3605351132799363,nm,0.0
154.744611,-36.6049441815726,-19.445767028565413,125.91459752659796,0.045367672009657696,-0.7121579417022424,-0.35458152628844364,-0.2309500268861014,0.20922525523741642,0.35373265355943645,nm,0.0
154.754111,-34.62822238889792,-19.188699647736676,126.71754200708511,0.11023896997807563,-0.6762164449623879,-0.30812148062012257,-0.25583661022283904,0.28207747882564965,0.2962651588568952,nm,0.0
154.76362099999997,-32.17616074836306,-19.105707099255085,127.04153472097302,0.3097230758301443,-0.5065034865804727,-0.3208904970223891,-0.28489333423866336,0.3728675254895896,0.22998310571402206,nm,0.0
154.773154,-29.05280825392015,-19.30118490074813,127.11791347562036,0.4173674520707179,-0.3827571154596801,-0.13516041921067662,-0.31818402000434487,0.5068401990707894,0.22445715291993482,nm,0.0
154.782631,-25.222189823914203,-19.639713858611877,127.16928443395875,0.5582622015522862,-0.2819262953114393,0.09318984249379396,-0.3760755809536499,0.629693089685863,0.2686447068413319,nm,0.0
154.79214499999998,-20.686882656385617,-19.849273028252313,127.38309448187356,0.8589007511553184,-0.2552070532276321,0.29328582800032366,-0.47799355167489194,0.718171962954803,0.3513549799792275,nm,0.0
154.811161,-9.18710487427018,-19.842799160942675,128.92318446537058,1.7885757696849434,-0.5286209803691261,0.7433036847807617,-0.7202745404798199,0.9193636846398128,0.6132025076759271,nm,0.0
154.82067400000003,-2.4253114169641314,-19.844352074630674,130.12348655832392,2.3775027592076095,-0.6099576919409552,1.0156049940716008,-0.8060975892419111,0.9961403490822128,0.6977293735123816,nm,0.0
154.83017099999998,4.586739073651759,-19.837568652743,131.2746032621792,2.9646722462711086,-0.48412001279005434,1.0880076804534489,-0.8591696629273957,1.0140051975513968,0.7034888614339753,nm,0.0
154.839691,11.486662290729395,-19.739948474888614,132.1720145659634,3.294737536517267,-0.08825533405961533,0.9438646511191414,-0.8777659545636514,0.9707131474858841,0.6427017068576714,nm,0.0
154.849035,17.813402865135096,-19.417051047831123,132.82544404529997,3.370991802328622,0.43836771948181175,0.8270329017772358,-0.8529490927669888,0.8494656207929481,0.5495932317088877,nm,0.0
154.858533,22.93162033369292,-18.86269575590209,133.42932334398736,3.1984756304769753,0.991468947527505,0.6090114113613273,-0.7426315263007984,0.6434668518970506,0.45034355983280316,nm,0.0
154.86803799999998,26.372447545198668,-18.32695504427381,134.17988544842402,2.847161197031141,1.4379286268904266,0.29857794183349234,-0.5298190579195287,0.40938283848318624,0.36283107342279797,nm,0.0
154.87747700000003,28.01583689169809,-18.1535723762074,135.15813772811094,2.4389805891816665,1.6168124684399219,0.035825257993384235,-0.2452282221587198,0.21000893493325837,0.29149578660405523,nm,0.0
154.88697599999998,27.94142572941763,-18.517322977460775,136.3276851697958,2.145501605117266,1.508727612137155,0.018603396477885125,0.05988340189199031,0.0544540948994049,0.22219041011772855,nm,0.0
154.89650400000002,26.277389722339596,-19.2545194369333,137.59803894750587,1.964496019796272,1.1643302790946093,0.1192879312084959,0.330011147756093,-0.09493087618864043,0.13953554348941796,nm,0.0
154.906196,23.340858325954326,-19.97251713266607,138.80418938610256,1.8220663806518638,0.6490906349123338,0.22876685666339341,0.507674155452459,-0.24938992753392142,0.037646689612246646,nm,0.0
154.92521000000002,15.152048146001313,-20.279386906981223,139.8605356531314,1.3357565331943932,-0.31679378683889287,0.20840618387039797,0.6166845782993374,-0.5265603604083696,-0.26713362300575993,nm,0.0
154.934722,10.651139504783815,-19.898336766941068,139.3354824966381,0.9770709513705325,-0.5212150572213841,0.10387734964800847,0.5957506008230796,-0.5932279647451991,-0.41901875181783355,nm,0.0
154.944226,6.296357473356182,-19.44169279727182,138.24665897537338,0.5943280276862707,-0.5937865513683805,0.05742924494035235,0.5589756543677298,-0.5961300973718844,-0.5150779330837547,nm,0.0
154.96323700000002,-1.8168082351976997,-18.718755494738637,135.71768223806794,0.05952443596080081,-0.3536905577658614,-0.26953956901365395,0.4833674729511664,-0.5373393228509014,-0.492402132145751,nm,0.0
154.97277999999997,-5.02112571195997,-18.342066813925197,134.81557209109314,-0.15368885226666734,-0.6365924871830098,-0.08030644905723208,0.3825980197510315,-0.4681122153948234,-0.3861141024803905,nm,0.0
154.982291,-8.047615201704227,-17.876041474810577,134.15169946141037,-0.21399455942326204,-0.6376729730751374,-0.2965238762311056,0.34097092100460147,-0.46274819018592855,-0.32233288585387504,nm,0.0
154.99179999999998,-10.448711455717442,-17.287636190996793,133.56997415774694,-0.21389692228923532,-0.7058576386583358,-0.4308343351645867,0.23689790932079371,-0.3985916305113281,-0.26234087261662514,nm,0.0
155.001295,-12.114225292409763,-16.590276526890626,132.83759830608608,-0.33637091187341117,-0.9373274159650189,-0.3068036816658559,0.12117832123774232,-0.3147174529018673,-0.24417315410714602,nm,0.0
155.01082499999998,-13.422766371495348,-15.869617432824942,131.7823810641063,-0.3350249721486941,-0.8393580339429634,-0.422501955100951,0.06752293547949188,-0.269875356531596,-0.2846792058012889,nm,0.0
155.02032499999999,-14.270871327576678,-15.291393485300508,130.50342221431669,-0.4113815408831882,-0.7490429200261756,-0.2467642491410168,0.02566868070375061,-0.1861923366767685,-0.3017434850422865,nm,0.0
155.029816,-14.91411696926498,-14.79032578542058,129.2287043107768,-0.6284641341993503,-0.6014628648222247,0.1107495787896504,0.008285608961356156,-0.14674537087552963,-0.2886309730429326,nm,0.0
155.04885599999997,-16.700500471343087,-13.131974931285555,127.73413570694365,-1.0521458044871508,-0.07275119554192447,0.42894070933461503,-0.02901737415266672,-0.25492361480753817,-0.14259003270281068,nm,0.0
155.077398,-22.153283558973477,-9.787986715777148,129.07469365866103,-2.2328465376708224,0.25832552784374047,0.4707701880066999,0.09815249773733005,-0.48395720898639694,0.043520721140029014,nm,0.0
155.086736,-25.061505791163718,-8.690874814664912,129.31907111049887,-2.7149744457297924,0.20875941132310272,0.27908150304773,0.19891364936650044,-0.571425390091169,-0.04308506552644555,nm,0.0
155.09625000000003,-28.613746075387823,-8.154111809481352,128.86924790508985,-2.9577730961458775,0.47118458683366565,0.09479081072280952,0.36630073481973,-0.6011854852792908,-0.19199007305825228,nm,0.0
155.105756,-32.148682595757016,-8.460629442799606,127.68023863222585,-3.132416037860239,0.4358022699231605,-0.08126482561492325,0.48827130208082425,-0.49948947708257757,-0.33722146558001415,nm,0.0
155.11527199999998,-35.4061812209133,-9.800719858691636,126.18560616867977,-2.8464643685377964,0.7181393705751892,-0.23016839813992215,0.6080033707835041,-0.34164691402500347,-0.3988052629525042,nm,0.0
155.13424799999999,-40.02683541703196,-13.344900949100538,125.13641496391095,-2.4726008052802,0.47399299233702097,-0.22251952385839027,0.5174409677765444,-0.1425878775710785,-0.09498710916877678,nm,0.0
155.143761,-41.91321971809856,-14.19645675137544,125.98666429600561,-1.7886450790830224,0.690902766806798,-0.5962617816941402,0.3587424615078541,-0.18806065582850873,0.08590507448552788,nm,0.0
155.15332199999997,-42.44814181847524,-14.168639541195681,127.19798694485702,-1.5801020609488234,0.1624365779560523,-0.8208741318276868,0.06385242953446581,-0.07537251209212492,0.2219940980441579,nm,0.0
155.162792,-42.288037438993946,-13.963695281818056,128.32451661245773,-1.5227603791249564,-0.354277296683786,-0.832549601084767,-0.04530417100849366,0.010933683406819219,0.2390074114300113,nm,0.0
155.17230300000003,-41.93502278581064,-14.239424286310006,128.9022643991874,-1.148149446812061,-0.29712422165901364,-0.8113958483347561,0.006447155386000547,0.09956787347331385,0.13851912457109636,nm,0.0
155.19139499999997,-39.549742556660874,-16.497783402427025,127.12061063170353,-1.24836399599544,-0.2241829020931896,-0.3282993129021605,0.0647948724654995,0.37725479356791747,-0.20522854120152084,nm,0.0
155.201084,-38.27651304831966,-18.059201569782132,125.22496153342678,-0.9254151120802852,0.16732303326636638,-0.1929026665753424,0.11577751841496431,0.3921773726457152,-0.29852527305137533,nm,0.0
155.21059,-36.785751751911086,-19.43396086321283,123.60968753067318,-0.810569620131175,0.2603694489262256,0.04256813454510673,0.07478587075205455,0.39972705849004025,-0.2223676180663166,nm,0.0
155.220108,-35.35383199612632,-20.124283597140472,122.76229899406262,-0.6066366569964151,0.12728440691681842,0.11597453099248044,-0.02432297951191083,0.3123817636458693,-0.0677917268852238,nm,0.0
155.22963000000001,-34.08489156703426,-19.96852190069615,122.95818700098569,-0.21930696670429667,-0.07353655883332609,-0.03909574721441497,-0.14807663926942302,0.19466483589346734,0.13086711174657772,nm,0.0
155.239137,-32.55775261208963,-19.205814702018944,124.18467657991454,-0.019632467724694107,-0.5293584674939604,-0.19456339550508622,-0.2792082490920317,0.16703563817896364,0.3522162026064518,nm,0.0
155.257964,-28.061889630544517,-17.435773034505704,127.61571644141914,0.4366278702218505,-1.2130625610905497,-0.4755813965348199,-0.41571493383549907,0.316305251607764,0.49481791336031655,nm,0.0
155.26747099999997,-24.631079720831703,-17.19816220314988,128.5942687044072,0.554033793544859,-1.318123452517029,-0.23885831220789233,-0.4359895793677313,0.49933799009509994,0.40265543945192017,nm,0.0
155.27717099999998,-20.352551839056265,-17.441450594670254,128.5909203405536,0.8477311264434572,-0.8507821905358668,-0.08307640231185642,-0.4661168332148751,0.6824407902577256,0.2558233677054434,nm,0.0
155.286682,-14.705267000651665,-17.835944389407175,127.79021423855846,0.9788320553983265,-0.5106498677655805,0.3401201463299642,-0.5983755260638549,0.9087129868519895,0.1827764435168787,nm,0.0
155.29620100000002,-8.138794421930124,-18.111788568040264,126.73985224616843,1.2121043882610731,-0.20756169975763702,0.985798765365172,-0.7077623257272336,1.041761191085045,0.19466314142212057,nm,0.0
155.30569899999998,-1.4089040745031285,-18.208676551452317,126.11659816330204,1.7390506071400782,0.32304512459044143,1.1414888066151982,-0.7396392599956662,1.0548120786702937,0.2930195799507358,nm,0.0
155.31521899999998,5.316958970734685,-18.26885343684435,126.4526075833696,2.2920026336643367,0.4916279926359823,1.3846968854238426,-0.7430201277173856,1.0513102821322273,0.48508833666351947,nm,0.0
155.32472399999997,11.402817140791994,-18.55500804654213,127.7911244141652,2.725222624045252,0.5125244644353323,1.2164061909200896,-0.6490482577313025,0.9696301299695369,0.6479622972350644,nm,0.0
155.334052,16.44379773035215,-19.232397470764905,129.71480261920667,2.9327647296146147,0.5568046297147776,0.4857988323985027,-0.4901617604160915,0.8427297596323232,0.7063257492224763,nm,0.0
155.343557,20.607493729718552,-20.241826111849875,131.61157238849455,3.0940391485422585,0.47955566107269965,0.37439534087947507,-0.35724757349404906,0.7399170239910522,0.6552137645172955,nm,0.0
155.362497,25.143779829398362,-21.589780466222997,133.82361638151883,2.886126147538916,0.8023244430322932,0.01568154604320291,-0.14476001431975316,0.28977176772275043,0.271684826923339,nm,0.0
155.381521,25.370187894323184,-21.44111056688206,133.9660312883442,2.152518875605083,0.9921974169353239,0.16482643940866534,0.036684588474626495,-0.0616485954338644,-0.06089678344747944,nm,0.0
155.391042,23.794792772074267,-21.444449066682182,133.86030362877847,1.7490398733054933,0.9933475180928901,0.0755853352947214,0.20400078342122943,-0.19829892183306672,-0.14271139251415618,nm,0.0
155.400724,21.431349267312083,-21.75134541742133,134.08687656210972,1.4910058504698567,0.7366629430831741,0.1459150736676888,0.34990275497130274,-0.26106544742664956,-0.13467781370568543,nm,0.0
155.41023800000002,18.33758111648872,-22.34972623295025,134.7638029306698,1.2726117155471597,0.3487196036886367,0.18844530438462695,0.487890683721058,-0.3130297021676151,-0.10234768857562627,nm,0.0
155.429269,10.822448775297833,-23.255888341034787,137.0002490021316,0.9440490469804171,-0.3960635556536583,-0.02015122338326378,0.5549527568221513,-0.42895370070124644,-0.07045877289165679,nm,0.0
155.438755,7.180455104946817,-23.25916298806091,137.86474760698985,0.7893226773678303,-0.6656270380332552,-0.13302934564805483,0.4950885914485998,-0.4389880964871386,-0.11823382889608548,nm,0.0
155.44826400000002,3.863299013325064,-23.07254469097699,138.10300855617572,0.6001914984537214,-0.7392381809736305,-0.25560555760904413,0.4302744117508248,-0.42266286271362313,-0.21633728781403275,nm,0.0
155.45780900000003,1.1312814295580724,-22.78044703490314,137.6595087406293,0.42273679094420274,-0.6013239054895756,-0.41087179454812084,0.33654576007091314,-0.36743784512970334,-0.3041310268421742,nm,0.0
155.47681500000002,-2.594838876227682,-22.10887806383632,135.54631681368073,0.09781046011345189,-0.5682823400487556,-0.1701561369506817,0.18965476930864267,-0.2581359364192826,-0.36761088825289107,nm,0.0
155.48631200000003,-4.185160161789566,-21.75610677338915,134.49582107467853,0.0339235723279454,-0.3938652666165831,-0.25634992975686516,0.16243594985353568,-0.24507186822157645,-0.330603428695843,nm,0.0
155.49585599999997,-5.491609239293774,-21.310776409947948,133.80093036931774,-0.0633987613957713,-0.49520505204288934,-0.06886739097546281,0.10921851681064135,-0.22307548185136195,-0.23629555066080962,nm,0.0
