timestamp,roll,pitch,yaw,acc_x,acc_y,acc_z,gyro_x,gyro_y,gyro_z,markers,motor_input
152.50008,-2.4918395583008146,-17.873926386230444,127.06511634070131,-0.11896076534195796,-0.9923516388121841,-0.008030284087174766,0.03818303982680385,-0.32487886149761763,-0.3072224198329189,nm,0.0
152.50961299999997,-4.090986577178985,-16.776910669765048,125.84179681664953,-0.3619021837134075,-0.9279708003347882,0.11418607815838934,0.010452641557857554,-0.3634871989241855,-0.3422736499357235,nm,0.0
152.51911299999998,-5.945509820491482,-15.541608448223931,124.60399924434138,-0.7758597404474583,-0.8044265692438495,0.5430783592303599,0.009630046624986252,-0.4213118115883953,-0.3529339755639723,nm,0.0
152.54764500000002,-15.414352423921416,-10.641967234571343,122.37312159894356,-2.8533854547301356,0.3051406057376156,0.7428847186470375,0.133715683862496,-0.8185609541481512,-0.23814706114987066,nm,0.0
152.55697999999998,-20.399621887670712,-9.428743264393303,121.98597367700832,-3.3885891131564834,0.6737948919437464,0.33194938101317467,0.32541470329381994,-0.9492094393191818,-0.2508483252592912,nm,0.0
152.57600799999997,-29.61545289816067,-9.677695142065664,119.91956150560381,-3.102714113693884,0.833763852718259,-0.47734157356817325,0.5439434190978688,-0.6387559988389463,-0.3902075755746412,nm,0.0
152.585519,-32.39285456631426,-11.263993832791545,118.76291708788455,-2.9487729544575467,0.6876469258637505,-0.1620936521958226,0.5529975630102358,-0.3100197108506556,-0.32923719021079795,nm,0.0
152.59504,-34.5440734107106,-12.84999960678602,118.22814028108643,-3.024021270670918,0.16488376369316193,-0.03424501392530179,0.48834269979139733,-0.20790592635490782,-0.19307008648381083,nm,0.0
152.623658,-38.614808747153475,-14.526750098008652,119.79408938290554,-2.1246017420437138,-0.2811559942496541,-0.6025324557329212,0.06925333096165699,-0.04334975116264597,0.1228880313741161,nm,0.0
152.633157,-38.705800332435615,-14.689453043484972,119.8966081030671,-1.6731473280624267,0.10368824546915166,-0.7774015221936262,0.044971963987861234,0.011578204270555498,0.020948288193735707,nm,0.0
152.642663,-37.92238777122351,-15.332724052168665,119.31268576681411,-1.687424003446966,0.26715891177591605,-0.6125675264535272,0.045229408292802406,0.2059503417330159,-0.07135857963134778,nm,0.0
152.65237299999998,-36.793047281432486,-16.705016523917468,118.20573260752192,-1.7759725208464636,0.48454379495469635,-0.37889554728215674,0.14467736072424467,0.3331620139437326,-0.1543972633555056,nm,0.0
152.66164999999998,-35.850630983301365,-18.488202952815055,116.79254699962893,-1.4466411756310615,0.793829957184207,-0.15284418180266512,0.2423712451598073,0.33456781242302924,-0.22108258362918534,nm,0.0
152.68083800000002,-33.72923004304832,-21.323544556615765,114.89144047836534,-0.9749814373244422,0.3699795518014231,0.08486119026523166,0.14114883033446962,0.284461317238438,-0.047551814653829065,nm,0.0
152.690347,-33.16533479825949,-21.843542749734787,115.17830098656405,-0.7288140979390207,0.014585457291021921,0.0768226867295327,0.05905360673581414,0.1490905998734998,0.10349423839818783,nm,0.0
152.69986500000002,-32.863310445611624,-21.56728017390164,116.24729389934416,-0.5453185651283778,-0.33054533387547086,-0.07964781029358078,-0.06527282463970258,0.03674467673713948,0.24082885584883584,nm,0.0
152.70938700000002,-32.6421675881656,-20.664369422942602,117.78900335525071,-0.49931369848987894,-0.6208510622316282,-0.21570906348534521,-0.17120111244279193,-0.03489101492325662,0.32892519085135025,nm,0.0
152.728416,-31.721636217850126,-18.291602447119722,120.75682641828033,-0.3697891720743398,-0.5528971202822095,-0.2654867933593326,-0.26032488569457124,0.0036876149394450327,0.31866232645035103,nm,0.0
152.737916,-30.428673598635037,-17.373002757388523,121.71909385844009,-0.3789467331538975,-0.45636811276468253,-0.14201030863801925,-0.277329150677676,0.12671749088795967,0.27548037439894363,nm,0.0
152.75695800000003,-26.092793397830377,-16.54693275703187,122.98971428024801,-0.11606525933456831,-0.233475870856378,0.0451378104053955,-0.30379488974770685,0.3874661349082396,0.267848850300278,nm,0.0
152.76644100000001,-23.096423131569733,-16.249439729277334,123.74075298631594,0.14593968213116204,-0.46702784741351344,0.08199335080654933,-0.3591507848653783,0.46011559618956926,0.32160289203402664,nm,0.0
152.77593900000002,-19.80858523470823,-15.982744443667215,124.89052043650473,0.8724334176490441,-0.4153540585140295,-0.1428017964965366,-0.39389927153189486,0.5047716698566925,0.4140377675920812,nm,0.0
152.78545799999998,-15.315439642880015,-15.87247635727649,126.56440762647458,1.3361049738262438,-0.8106928284866262,-0.009349680210123569,-0.5169863727638109,0.7023435229423326,0.5820530488041952,nm,0.0
152.794977,-9.746764886185682,-16.090302420521745,128.54890489212673,1.8184575857723537,-1.2422717619917996,0.42011502081257385,-0.6136084627475121,0.88965519851591,0.7030720394757343,nm,0.0
152.804479,-3.487433622068797,-16.605363538449957,130.43564855188575,2.4866384254916403,-1.1940626957340512,0.6491307191548131,-0.6811124176154318,1.0071794689963436,0.7280094934575208,nm,0.0
152.813993,3.593809439041332,-17.13732693213216,131.92482360217485,3.013052486958677,-0.8964635026784373,0.9537766928642989,-0.8102090207600494,1.1048639939545353,0.7058456633579109,nm,0.0
152.82351000000003,11.091132239364226,-17.365788919200085,132.94754311844545,3.3754971806726757,-0.3440772478536711,1.082042450092892,-0.931689434798386,1.1022684334127737,0.6449089720654302,nm,0.0
152.83283100000003,18.354701738429952,-17.244347691666263,133.663497674962,3.4521077712295405,0.4478879850642548,0.8318526575246166,-0.9691819172879671,1.0067397458068925,0.5697574113195534,nm,0.0
152.84233400000002,24.88168770825088,-16.964582470537472,134.3788989029801,3.2994338319206435,1.1606768670841685,0.5636287640718195,-0.9084390602927465,0.8717276864796574,0.5203961805668398,nm,0.0
152.851844,30.029129201701267,-16.789115045684852,135.36161359701396,3.03406941198497,1.6115989871513696,0.19923122314169692,-0.7218269481843106,0.6861091433121552,0.4880382147152447,nm,0.0
152.87078799999998,34.71357441555244,-17.601627701215758,138.1636355202735,2.515336563823733,1.6097227378137762,-0.4550092299709283,-0.10946296180567643,0.2816809922364837,0.3720047061524055,nm,0.0
152.880298,34.36240531492298,-18.526339642109914,139.62245253418394,2.3924727441253744,1.3109164024425093,-0.4408544484166778,0.1693890006667587,0.10694066308285392,0.26219527250522157,nm,0.0
152.88981299999998,32.52687327759251,-19.33150499464715,140.88942239302787,2.277626994926245,0.9214929847792009,-0.22138743320405616,0.36761557363904374,-0.08673540270142034,0.12668856071772688,nm,0.0
152.899326,29.47052283458675,-19.626386513699842,141.80460736484818,2.0599007293488434,0.4863258139256443,-0.050343811538793304,0.48490031163316877,-0.30236048375485497,-0.028190005120762838,nm,0.0
152.90901699999998,25.592948407364293,-19.394150106378657,142.13343942487637,1.705425798901614,0.12207786189388013,0.04251708547153187,0.5457944378058991,-0.47521876678801245,-0.2003238418354606,nm,0.0
152.91852500000002,21.255849778314882,-18.882518612252287,141.77765683345055,1.2715472440368574,-0.12040754692611486,0.1432978378159348,0.5817448627996417,-0.5736169428346425,-0.36219441957322446,nm,0.0
152.92803899999998,16.71664631356687,-18.322122392914334,140.90443615320808,0.8344310474223242,-0.24132841844813555,0.15607381001767978,0.60220418974819,-0.6127283762828254,-0.47032414993169197,nm,0.0
152.93754199999998,12.145307663603266,-17.840940796699563,139.81024309645812,0.4882158284260797,-0.358726242274908,0.18977317977724342,0.6090789619969985,-0.6160639847070973,-0.5079929902055245,nm,0.0
152.985107,-3.855634476142189,-15.927581845343761,134.8514154101228,-0.06525450419614356,-1.1681066398318696,-0.2841734811213008,0.17310305849482868,-0.3415372074460202,-0.3535662302595135,nm,0.0
152.99461499999998,-5.280222945819235,-15.032402935895709,133.24115246781753,-0.2076454669694204,-1.2191537048777144,-0.2567169981787824,0.06623513535444273,-0.30875797832052193,-0.40048318187193604,nm,0.0
153.00420599999998,-6.32478291753355,-14.010600100209976,131.28246269013295,-0.32389390018926295,-1.0096124473354693,-0.33988082091356947,-0.010746248297699575,-0.27416039904527445,-0.4464594839728941,nm,0.0
153.01371600000002,-6.8656468983853225,-12.962631899664919,129.16522558156169,-0.5487849806542832,-0.882713864900668,-0.10040825749052454,-0.08716465528765412,-0.20282981552961263,-0.4510348846787348,nm,0.0
153.03276000000002,-7.798169182315168,-10.851695808913956,125.34212069001536,-1.0249732243410703,-0.28114431762130504,0.34072235787061783,-0.10776504858267691,-0.19646261743195279,-0.37590251019303766,nm,0.0
153.05177,-9.931481866037013,-8.519212888887958,123.34152617125731,-1.8024039693285987,0.2047383392179586,0.7350402514363671,-0.037800028462241037,-0.34714705747371855,-0.1902093916923521,nm,0.0
153.06121800000003,-12.371733813051843,-7.220785858753716,123.02872064496367,-2.3568668253876868,0.4370570901726724,0.7353637497020542,0.054241598614927625,-0.5350574646735866,-0.13095667951928908,nm,0.0
153.09908600000003,-28.409481758745198,-6.315569532787313,118.59631231524352,-2.92890855111905,0.6131539426061597,-0.000972075700111293,0.525621492163449,-0.45525159743908067,-0.42291725989714674,nm,0.0
153.10858900000002,-31.219765576056922,-7.7457482343997235,117.10380400357548,-2.730856971338598,0.49624543786944647,-0.12670971004122297,0.5224923233278533,-0.3489813912517185,-0.36488854873731635,nm,0.0
153.11810499999999,-33.78216340814171,-8.981320022754655,116.29005599769157,-2.173794355699046,0.47564223695956026,-0.48412334313273464,0.45761700222022506,-0.33158927210279415,-0.23410787494617924,nm,0.0
153.12761099999997,-35.4531251999968,-9.725972407054206,116.14051528191403,-1.8873523160461845,0.33763292891177255,-0.6307414758944347,0.2881531655607531,-0.2196571034777071,-0.08047084275630567,nm,0.0
153.13713499999997,-36.21715694110632,-9.916585219241037,116.2591372501408,-2.036399788231077,0.032843736489777085,-0.4507501980621946,0.10931142819885412,-0.10777343921142636,0.0016856232113312635,nm,0.0
153.14671,-36.461802345553814,-9.829435487073741,116.16520484900512,-1.787148847084276,0.08720534763857823,-0.5819727325524675,0.0,0.0,0.0,nm,0.0
153.15617999999998,-36.14035619064586,-10.045000859753676,115.71789604515568,-1.6793837074353801,0.18612540850672002,-0.5701547605045124,0.019688573312346767,0.08643920511161088,-0.07441299392566261,nm,0.0
153.1752,-35.05206250685129,-12.444177870916317,113.89152839552223,-1.5503057792727593,0.5841941253629156,-0.12769839318490991,0.2345973768810996,0.22731674742148147,-0.18668452543364494,nm,0.0
153.194399,-33.4871263401687,-15.62199904295658,112.15250654490474,-1.0540083786524501,0.44856238532456655,0.029666767253918067,0.238262450275246,0.2758003685047328,-0.0801652152581498,nm,0.0
153.20391800000002,-32.78635566155924,-16.896414965572085,112.35432659957519,-0.7983802915446827,0.17841518797641265,0.05360197515734506,0.19465088440444875,0.23112490036482639,0.08367784131810603,nm,0.0
153.213447,-32.08973458377556,-17.55043941225678,113.35237810691137,-0.5473608388416036,-0.20471638335787523,-0.09175377394103694,0.07827989476905178,0.18363155465787548,0.2450237773363428,nm,0.0
153.222952,-31.277022477511267,-17.578823219362693,114.94136641451838,-0.31626829643833226,-0.6472654473059697,-0.3029765705025626,-0.04921757504988952,0.15421624876070947,0.3709740495605535,nm,0.0
153.23228300000002,-30.172877365362613,-17.28752831460737,116.83522725162955,-0.08276437017215849,-0.923368767550796,-0.46725610464315914,-0.13587215115513962,0.17501849890997107,0.4488754655368598,nm,0.0
153.24177899999998,-28.42194051019972,-16.892137070386823,118.62095148937243,0.045680520651245685,-1.0525832630937344,-0.42059785013508155,-0.21767395809169818,0.2709356444005343,0.46359846732268045,nm,0.0
153.25145899999998,-25.78407978230682,-16.455770096506804,119.93955684633328,0.12483413697480483,-1.0596179649869948,-0.2887505878305072,-0.31566843217457924,0.4101227927093748,0.4179835473924463,nm,0.0
153.26096900000002,-22.149063852879173,-16.11547427095893,120.74582009453627,0.27576256915432706,-0.9361212403085477,-0.1678593108305592,-0.4039998772094289,0.5803779814222381,0.36715821848852775,nm,0.0
153.27049200000002,-17.59831012888656,-15.99322041832653,121.23032088026831,0.35753908679620816,-0.8645083540119468,0.3288580811242054,-0.46439351461833495,0.750224656713941,0.34965307543277174,nm,0.0
153.279999,-12.364719630822927,-15.90723394604016,121.61294531527359,0.7993616151587555,-0.5256363267904071,0.46592000783968673,-0.5329275052913252,0.863239548456608,0.36412483911182075,nm,0.0
153.289507,-6.142074612265492,-15.714646813174328,122.19294663907695,1.1650510223479857,-0.5000608407868044,0.7082024081152573,-0.65983547816942,1.0100012692942426,0.45378257921055226,nm,0.0
153.299021,0.5963678407832932,-15.599654193122952,123.11839644748885,1.6619501266600307,-0.5488459854810677,0.9424411255357196,-0.7148183346207275,1.0942080730626103,0.5461400271948695,nm,0.0
153.318031,14.218658834714262,-16.493270942463127,125.54605299835536,2.897722103325435,-0.23413609158432394,0.8078647154684392,-0.6453863638439665,1.16872306092738,0.6250710774040985,nm,0.0
153.327369,20.979974764098873,-17.307585676404255,126.64300662075065,3.3377803857053028,0.005805048341818746,0.7922076338535193,-0.6294502609942602,1.1552938997421522,0.60653435034355,nm,0.0
153.33688800000002,27.09001729215305,-17.97227821085194,127.49931045494228,3.5236947401556042,0.3484675316939576,0.46397760254140474,-0.595809317335193,1.022715244083515,0.534825131686726,nm,0.0
153.35589000000002,36.07656036942271,-18.68085577185087,128.4216644654044,3.2294988766192834,1.0624233731558257,-0.17034582206636545,-0.41251977060383777,0.6229395850978587,0.3065794728745994,nm,0.0
153.365334,38.43679986287269,-18.916432480949968,128.65238886103452,2.851670870610777,1.2805267245033833,-0.384955400785971,-0.24307917427061201,0.3907138343569322,0.19005454001445193,nm,0.0
153.37484400000002,39.23077820823066,-19.280856207587888,128.9101537986464,2.4758997238160574,1.3455347232994999,-0.4772539446777977,-0.03866432271742358,0.17414587844600174,0.09518317427270791,nm,0.0
153.384357,38.6132766471811,-19.90554888955472,129.2893846846563,2.178924200670698,1.230405516390158,-0.3463088503720928,0.1690664931212492,-6.826424737999815e-05,0.02618832984014668,nm,0.0
153.403385,33.91726546528908,-21.700096708255078,130.52313606979203,1.6134994094541366,0.6043319491721844,-0.028856000477770174,0.4810468947953579,-0.2727190964250308,-0.07405740207759309,nm,0.0
153.413056,30.397176511811757,-22.41465238742716,131.2328503870708,1.351399534840908,0.1915000399319953,0.06472423371710699,0.5349855449623943,-0.3879581275410675,-0.1295818622486506,nm,0.0
153.42257800000002,26.516492900913555,-22.766917110778124,131.7068890500243,1.0655502365297191,-0.1532255688165157,0.01900353569885544,0.5277570917054849,-0.47820733247910996,-0.2100184208878277,nm,0.0
153.432085,22.68064399176647,-22.765020653089717,131.71785668307965,0.8192918130043302,-0.3789516330425349,-0.014980676109807552,0.4714195504707477,-0.516037252315455,-0.30088875521330866,nm,0.0
153.44159499999998,19.042603392875172,-22.485079949455084,131.1990660096608,0.5860295852994607,-0.4639836418779911,-0.019703938958755024,0.4043521354760114,-0.5279616504530145,-0.3894435835941017,nm,0.0
153.45112500000002,15.79753679512267,-22.017248033045146,130.2912407154031,0.36368417660770974,-0.3388870772886261,-0.26030658242918525,0.3234633017147045,-0.5036131179299178,-0.4326903445201059,nm,0.0
153.460633,13.227482688101336,-21.488322368732106,129.25136946795536,0.18312004346607968,-0.43681347639202023,-0.06375266876271002,0.2269019050771457,-0.4219506498673629,-0.4034633264444766,nm,0.0
153.470139,10.796226662753702,-21.024711920325043,128.29190857333262,0.053680162596282825,-0.4239785704421573,-0.16685836681102958,0.21485174056123924,-0.3986945058706862,-0.37280099840665176,nm,0.0
153.479639,8.606736789039592,-20.72195737388032,127.58767631847861,0.04546330245450987,-0.3917422066536573,-0.2552353118671494,0.2076181842263051,-0.3471776730524318,-0.30108639976736407,nm,0.0
153.489137,6.8563585742481274,-20.462707743321804,127.19027027475616,0.039664201044936453,-0.6206617991165073,0.01716313587209422,0.1618662874496556,-0.27904582866346933,-0.20645548263888988,nm,0.0
