timestamp,roll,pitch,yaw,acc_x,acc_y,acc_z,gyro_x,gyro_y,gyro_z,markers,motor_input
164.007597,-26.247716375355495,-39.55644061474359,-123.68971820243942,0.16209259520864394,0.531009511212988,-1.083595211313831,-0.13183957176757136,-0.05208280938141025,0.1548174053901223,nm,0.0
164.0171,-25.489813819103407,-39.13561113986511,-123.30468921327157,0.16785942087775702,0.30664518624118975,-0.8266860636682093,-0.007594803760384586,-0.14123774488693755,0.17784376978877064,nm,0.0
164.03616200000002,-24.483639558060098,-37.01297016006082,-122.38910733390074,-0.7508204019295391,-0.2613918380751177,-0.6067947605732209,0.12973572435280523,-0.19403536436285404,0.17030344339835904,nm,0.0
164.05533,-22.183392291381733,-35.40857781474001,-121.59786795169349,-1.2468683643005705,-0.7191798265665093,-0.12901239557656585,-0.015325919160989113,-0.251674445807731,0.2229353456443347,nm,0.0
164.06483999999998,-20.326957732850666,-35.10023852867573,-121.40676351380694,-1.2684923826016303,-0.7223343803862224,0.03073072076512152,-0.11968149512262319,-0.2891966507443068,0.25610188461018557,nm,0.0
164.083694,-15.768794804182242,-34.98235086162083,-122.07257377718891,-1.3155373533173897,-0.20095092830576086,-0.36790468951007693,-0.22347620381865047,-0.34158345512428406,0.16667311744352922,nm,0.0
164.09337200000002,-12.36181156695013,-34.988581212956504,-123.108491162038,-1.2039165647447354,-0.016383020434634264,-0.19680724926030432,-0.31612376604259723,-0.46889470685501844,0.18564566206674468,nm,0.0
164.10288,-8.627340888677857,-34.70176133419825,-124.38586303370566,-1.1520526326546319,0.1450065537646572,0.15660786682196232,-0.3072897116573834,-0.5410004172589027,0.17274093534322466,nm,0.0
164.11238999999998,-5.2293370101637375,-33.93652465835877,-125.50133430333099,-1.5804894264398164,0.11536105857283104,0.1456147584146257,-0.21045533295925395,-0.5473952949693847,0.16082009031018513,nm,0.0
164.12190999999999,-2.150072949235078,-32.89856255253669,-126.01978542414716,-1.9162083282606193,-0.048229749087782624,0.17823285127709937,-0.14633011295134724,-0.5383769670850947,0.2355975027818277,nm,0.0
164.131402,0.3530896000009077,-32.057452872841445,-125.70285985180193,-1.955496483166421,-0.28736095833791475,0.5461395635070497,-0.12542131921291522,-0.4410871767346642,0.3318132808979671,nm,0.0
164.15994700000002,2.860145125500902,-31.536175651791982,-122.06800061303069,-1.6459288375179222,-0.33657138741773035,0.09438640255981623,-0.06857023904210209,-0.036063815223839,0.26685083532730997,nm,0.0
164.16946499999997,3.3023653927737064,-31.97776118428902,-121.65021338628668,-1.501128803235749,-0.16983297185187465,-0.06945246291734493,-0.1289534828027666,-0.018404952647918745,0.12891512682138473,nm,0.0
164.188476,4.227716278236859,-32.646995710198404,-122.78779307381724,-1.131158463688032,0.14606020734538847,-0.1164001493302685,-0.08401979375951936,-0.013541304553900483,-0.13348679477065042,nm,0.0
164.197803,4.216589096320654,-32.71066024436187,-123.67532623777059,-1.1545875523952542,0.1500170062307269,-0.40015492423895976,-0.023744889550446964,0.007804612423580407,-0.18025566289917633,nm,0.0
164.207502,4.060604523845944,-32.57146819507867,-124.24214890535828,-0.9625680180497381,0.14767078325029276,-0.24689219868008846,0.023694165709121147,0.005653506542847306,-0.13168595289795829,nm,0.0
164.21701299999998,3.4324847638990894,-32.14204739632985,-124.3165504875718,-0.7916637081207882,0.09959066692767357,-0.3206226503154485,0.11676911984221137,0.03887798753369847,-0.0835293707719577,nm,0.0
164.22652000000002,2.4492575374763232,-31.503903593078146,-123.98105168014318,-0.6460232031272051,0.00012828498133770028,-0.4054252515126199,0.18552303778990112,0.06629474929260515,-0.03789508355311093,nm,0.0
164.23603,1.3968595532223949,-30.721984228338215,-123.51127699869005,-0.3791697651737741,-0.07684384017780956,-0.3316211686534465,0.2162748286189886,0.06266373073185214,-0.016020813835225904,nm,0.0
164.24553899999998,0.29882179636788825,-29.842358382737523,-123.25607596895921,-0.10459949986548792,-0.1105094141751325,-0.20698965388425655,0.23740350039020336,0.06135008865513447,-0.0608871919550593,nm,0.0
164.25506199999998,-0.9295427639684193,-29.021800834973828,-123.47098935067585,0.22378252380656827,-0.0497781464261569,0.045722783648125515,0.2408905252932854,0.08851724071270782,-0.16488809540101185,nm,0.0
164.293124,-7.963978514910104,-27.752155137612043,-127.69192999651709,2.3318123801099753,0.610783317722239,1.2362324256165358,0.2532882076853909,0.31799462865233213,-0.445747387545286,nm,0.0
164.302626,-10.505386653682542,-27.7723893464548,-128.53497412489133,3.0858110983452516,0.7872678249202599,1.4193060406662656,0.26079474590463814,0.35917951184859864,-0.4051897121140921,nm,0.0
164.31213799999998,-13.07001227831491,-27.61784191190558,-129.09226105836822,3.9916801491744107,0.7696866151603396,1.6245673665763507,0.2952517934316743,0.33767908757382087,-0.349142785026188,nm,0.0
164.321492,-15.91395108151514,-27.186001856418937,-129.45293760317088,3.8898258892524953,0.6506198759534085,0.8469110609636962,0.37322570170782104,0.33978581165103877,-0.33268716512741314,nm,0.0
164.33098900000002,-18.476501493384966,-26.891241977177945,-129.47984344784317,3.339283735749886,0.38935583983663885,0.13216512548304102,0.3224309956909093,0.3186701209352048,-0.23658224274968145,nm,0.0
164.34048299999998,-20.543293325791886,-26.99495091146136,-129.1442541575898,2.660671093715448,-0.05855055366687189,-0.11112826912077385,0.20411455866324382,0.3020439359265504,-0.11786572775813975,nm,0.0
164.350022,-22.27847905759828,-27.47063797786435,-128.58571058766643,1.70892046424633,-0.398244021804536,-0.21219555191567988,0.10621588804075045,0.3037842005357048,-0.04432919338143718,nm,0.0
164.36921199999998,-24.22308583928129,-29.75305649304036,-126.78389139966872,0.5359973023610682,-0.6426140316647904,-0.1005092326811593,-0.15659153912629792,0.2733934617678513,0.13901312599014978,nm,0.0
164.378701,-24.695417876764935,-31.41955540115969,-125.5531633530729,0.33119795235819094,-0.44875835106355855,-0.081058724300224,-0.23473023657313957,0.2658178135138542,0.2019012218180931,nm,0.0
164.38819500000002,-24.834403162853537,-32.96884476776628,-124.2978001559813,0.3238673750299686,-0.11747375474455274,-0.27834503657791015,-0.25426811296872925,0.19987014491189747,0.24030261527499416,nm,0.0
164.397711,-24.726615942725967,-34.22104536030275,-123.17065308443905,0.35838805863704026,0.24809153621715127,-0.6733450445349695,-0.23191299840435942,0.12703896987619429,0.24151281955167245,nm,0.0
164.41654000000003,-24.029724393362933,-35.91864046619307,-121.6931512616047,0.4338231481037102,0.5333354267111468,-0.9686775327071669,-0.16672718883303053,0.01959554194225083,0.1648617728050282,nm,0.0
164.42604400000002,-23.59631722956445,-36.11906875123926,-121.59842260342866,0.0652824873725366,0.410742663962123,-0.9403550273454153,-0.08444257402625378,-0.03633683528687975,0.07392896831468068,nm,0.0
164.435774,-22.878996445010454,-35.83258035631571,-121.85112552564063,-0.29652811146731284,0.13910475021184607,-0.7914751292697617,-0.025812648736999642,-0.12671158627905701,0.03758672627617657,nm,0.0
164.44526599999998,-21.930400918849415,-35.35606092668525,-122.16406926795902,-0.5486596034619892,-0.2396831363767263,-0.47241550397284476,-0.014503975703907806,-0.17928443189582544,0.051501632406442795,nm,0.0
164.464099,-19.82589675436903,-34.505382672712464,-122.29307425987007,-1.3762655597872695,-0.8117451033901798,-0.14290087783768035,-0.05104008835115661,-0.20383966322380256,0.14829803903868086,nm,0.0
164.473782,-18.323313284119838,-34.28485866252214,-121.95661028219021,-1.2475951170646427,-0.8158908404022135,0.045862385355006786,-0.10844831499695265,-0.2319914195040859,0.24014726629596175,nm,0.0
164.483284,-16.671198931641523,-34.16109041813998,-121.58050114020551,-1.1284261366647315,-0.6056076992490402,-0.06706221391846748,-0.13686362846646674,-0.24414646457859251,0.2638615682520257,nm,0.0
164.492628,-14.555020222118912,-34.030507708951454,-121.56816894793513,-1.1692953251425726,-0.27614439833474785,-0.4905729762429106,-0.17546270237693748,-0.31144231788790055,0.24212373959627106,nm,0.0
164.50215599999999,-11.432320964719342,-33.98376263858054,-122.1409149525865,-0.9877105079833924,-0.03860601890789355,-0.4295231151458466,-0.2797034683938676,-0.4442483899013641,0.23662691176243753,nm,0.0
164.511832,-7.657900139383916,-33.71583882186713,-123.32819392990541,-0.8582592582666543,0.1924094701280505,-0.11285394706463947,-0.30845161350757966,-0.5562095851643284,0.18420914403121433,nm,0.0
164.52134400000003,-3.7254483275416597,-32.83352734515451,-124.87845186391753,-1.1993991993936248,0.23861207890900654,-0.04510774825155901,-0.23705616656333342,-0.6434905509148438,0.12182527592128294,nm,0.0
164.53084099999998,0.2530808963016801,-31.329794111859666,-126.29201912236388,-1.4007035777776853,0.18993024088020696,0.1009804118849581,-0.1621756048633401,-0.7236430711406862,0.13940821413844512,nm,0.0
164.54036499999998,3.7581620117651724,-29.625594106227698,-127.18118213144527,-1.7515212847404045,-0.050498865828780756,0.30176998895821283,-0.10250701076139959,-0.6885945453677221,0.17634422055948454,nm,0.0
164.549863,6.534696813224842,-28.116693686702206,-127.30099078558843,-2.034414977041161,-0.3582019441807106,0.4488307376942105,-0.06814815537311006,-0.5705285134568818,0.2420623534651672,nm,0.0
164.568884,9.386822100399982,-26.56557832786745,-125.6403877254334,-1.9475617300908445,-0.5742393467570415,0.4093157235551682,-0.0351959427522859,-0.20981708588675627,0.2986803479729037,nm,0.0
164.59741799999998,10.72773957015188,-27.303907131135126,-123.87543767921179,-1.1550630509729771,0.04387191505040509,0.23552660176761162,-0.1263956437943803,-0.011287223659806419,0.07221156260558656,nm,0.0
164.60691699999998,10.515747382512282,-27.642602636612352,-123.91908639000172,-1.1115560323287659,0.06445461872676803,-0.048644561234781766,-0.04905943612335739,0.06765750077769864,-0.03150830116592282,nm,0.0
164.616436,10.107081803507217,-27.815113334295006,-124.002979044567,-1.046968315282926,0.04044427222252031,-0.3092868641164593,-0.001983451007827915,0.07801727302879105,-0.057962613137425296,nm,0.0
164.635482,8.917011675876244,-27.45298451910992,-123.76938997606378,-0.7350686763844086,-0.037387727009520484,-0.15280694362378208,0.11454925332392397,0.07398013984155384,-0.03418714071946387,nm,0.0
164.64498999999998,8.133247894448171,-26.882514516483926,-123.48217944416011,-0.5922478304470282,-0.1031143728799564,-0.11933258608360944,0.1585914639236256,0.051824998901903445,-0.017060582062317205,nm,0.0
164.65449500000003,7.41037959452414,-26.21397872388744,-123.25506444883534,-0.3466764879476785,-0.16745818785655997,0.07761176166105617,0.1691635063238557,0.03339793800018199,-0.02210355015108239,nm,0.0
164.673503,5.243266719611638,-25.180609892733003,-123.51846478164626,-0.15484871303425182,-0.3081582335522176,0.16515469505747465,0.179166026529698,0.14031378421877108,-0.16326503153353406,nm,0.0
164.69253,2.906743261176518,-25.641051571788253,-124.48300462919222,0.5284876652898877,-0.14691904087055777,0.4326490941576577,0.01789455344930205,0.22721456353129196,-0.20046896093013447,nm,0.0
164.711578,-0.7861545657045245,-27.506196157666327,-125.07330991456311,1.8032002516860883,0.6829976497034025,0.9231692592767574,0.03479226116702988,0.41121321723449816,-0.2260003868897012,nm,0.0
164.730599,-6.199321935347767,-28.481566725004456,-125.49465330736574,3.79390348673474,1.4632506559061556,1.3632105604144331,0.2517443026878219,0.45429399047100705,-0.3457371237631638,nm,0.0
164.73994100000002,-9.257939974884154,-28.113808218535,-126.21444245308133,4.4135409858393055,1.4273704612958715,1.2655935704136292,0.36147749619252834,0.39563373431667287,-0.43399664715186925,nm,0.0
164.74945599999998,-12.220062570850748,-27.38514962662551,-127.33912706139425,4.432298836220448,0.9074649665403623,1.126284421293792,0.417179391464083,0.33538323694064914,-0.5003801271202283,nm,0.0
164.76847899999999,-17.243197008520333,-26.07742471546035,-129.86056804387138,2.149132237451255,-0.4731263457544764,-0.5635282968148954,0.3084219332684728,0.2745366954464202,-0.4311770886381129,nm,0.0
164.777977,-19.255312631815144,-26.982946525493613,-130.18480824764904,1.116323025530614,-0.8912856756658886,-0.549553027088695,0.07942513641660703,0.39624427625216346,-0.24267059512143865,nm,0.0
164.79718699999998,-21.52221569279089,-30.516899501256283,-128.3840747665415,0.3004037653257158,-0.8239743454807593,-0.0712383507139487,-0.2064319195845547,0.32775017373605964,0.17248171793195133,nm,0.0
164.815979,-21.59635165097631,-33.996128399900975,-124.76586052450776,0.6021769553954723,0.2781246361815114,-0.6575565962735404,-0.3171482714378989,0.18564474064368186,0.40594413532208184,nm,0.0
164.825504,-20.792480355336824,-35.41038831367076,-123.24512635843634,0.7916934386405426,0.7198998230135133,-0.9778990872767545,-0.322429954247869,0.05107358457013746,0.39939242186085233,nm,0.0
164.83499300000003,-19.270423547983455,-36.13703647416665,-122.6514593342325,0.8382108122356676,0.9560509295376528,-1.2454341398108775,-0.27030290679881724,-0.12625943490093222,0.3001591037275457,nm,0.0
164.84453,-17.410119222359288,-36.26898354527456,-123.05024384692392,0.6177437235691952,0.8969383399330562,-1.0940179527238745,-0.1990207295712576,-0.236185989418006,0.1430455008442318,nm,0.0
164.86372500000002,-13.3358599913842,-35.06441724892609,-125.24934307597653,-0.5139912920593431,-0.020763829132297074,-0.23862028107795422,-0.07453553241432595,-0.37394359054550497,0.019160053397805264,nm,0.0
164.87322200000003,-11.788285322505882,-34.12456192081708,-125.9408304218284,-1.3594139740214632,-0.6130116775743818,0.02114100568375863,-0.009415496739881644,-0.31502534313164915,0.039167220690813354,nm,0.0
164.882738,-10.607070173285711,-33.49212732973185,-125.70329406039015,-1.8017660960772015,-1.0751137648435214,0.2614430492791194,-0.02637943309460443,-0.23175408461121075,0.1805051789405055,nm,0.0
164.892238,-9.949936151725487,-33.41612073041254,-124.52109022738422,-1.7779613887322276,-1.1574442759810286,0.5044340877270812,-0.06480579331195639,-0.0972207688382852,0.31040606947669025,nm,0.0
164.920606,-6.385937175974568,-34.09095605869898,-121.59519945715442,-0.925175598741815,0.08598012626381024,-0.6079565434903891,-0.24418876199974487,-0.21738935878365429,0.24097968870327693,nm,0.0
164.930286,-3.730661357408792,-34.4457462811558,-122.61005297612802,-0.937759731004299,0.3086241212192001,-0.3577906518858104,-0.30788354663219936,-0.33437788871235125,0.09646806083521595,nm,0.0
164.94911599999998,2.52662655548811,-33.07427313907748,-126.27312046937242,-1.3952024788056232,0.25908640441407504,-0.1821540208179567,-0.14445822905160113,-0.5363281615513841,-0.03078256505865261,nm,0.0
164.95861900000003,4.97598057693416,-31.82801370593558,-127.43409773497375,-1.765450097749185,0.016407539774937047,-0.032877336211799814,-0.0626766170388136,-0.4807623044825656,0.02919531811762956,nm,0.0
164.968149,6.631730453117007,-30.658232338204492,-127.46043136383084,-2.0978630107598923,-0.3541010440265253,0.18880236486737242,-0.00045044660906881856,-0.3676222429766907,0.1646410797217952,nm,0.0
164.996677,7.876950904144091,-29.32892997824447,-123.12780888910517,-1.6557205561435921,-0.6425295480770272,-0.18008031770083527,-0.03188770036631486,-0.034485653176088475,0.3242177361170271,nm,0.0
