timestamp,roll,pitch,yaw,acc_x,acc_y,acc_z,gyro_x,gyro_y,gyro_z,markers,motor_input
151.006943,-8.279372601843535,-17.501867260969984,123.25154696254378,-0.7421548638011443,-0.8448216627360116,-0.0022916190333718174,0.031705696893781096,-0.4773439201033907,-0.2680451664287933,nm,0.0
151.02598300000002,-12.357196265944578,-14.095375427208308,122.51673104887827,-1.6586512754514013,-0.37838986336792274,0.32457751519696565,-0.09268382265582774,-0.5220023178356896,-0.17033274259257725,nm,0.0
151.03547899999998,-15.138804735689511,-12.100038536606016,122.11571206120855,-2.302017974095269,-0.011738407362099704,0.5358867345989486,-0.040416804503746954,-0.659814247461208,-0.20676788964247061,nm,0.0
151.044836,-18.958094686206,-10.309338577476561,121.45121429116898,-3.0862202932438243,0.42876977768640745,0.39196446845288935,0.09791285728202598,-0.8144810201759312,-0.28124078012683995,nm,0.0
151.06385200000003,-28.373424895203172,-9.394402295007424,118.63227321623536,-3.7258767477537043,1.1065589398083193,-0.2081073777624183,0.48419695094706006,-0.7915689290793575,-0.4848650758753287,nm,0.0
151.073367,-32.86736727222488,-10.640140046329792,116.7140071613233,-3.3121234785349993,1.2852249887770406,-0.5593261613293251,0.6409249804479984,-0.6582533406265645,-0.5369862247748887,nm,0.0
151.08287399999998,-36.31917192841171,-12.637913975313003,115.26054821767507,-2.893788876172204,1.195448459596579,-0.30414377281153465,0.6649302032319103,-0.42307248017483123,-0.4260219280252748,nm,0.0
151.092389,-38.665638043458806,-14.51348858181641,114.87633722361933,-2.977583913171948,0.3769415323666574,-0.11257642155888817,0.5425122355346681,-0.24468518275948362,-0.18222681725585071,nm,0.0
151.10187499999998,-41.12251673031892,-15.689005647337666,115.53663699546928,-2.2707946047936898,0.26948911996225056,-0.6941823124404423,0.42392247123440535,-0.3197607263694209,0.009586625106470056,nm,0.0
151.130478,-41.8879035371899,-15.426304987778085,116.69409916909957,-1.839070357897146,-0.6951552051371543,-0.959125472398746,-0.04034749032213912,0.11560495008874005,-0.007229167914477739,nm,0.0
151.139984,-40.67754751193664,-16.434828672542622,115.61077281401525,-1.77400007858343,-0.1724173478907558,-0.7113577208013099,0.08725056964509496,0.3079227635606868,-0.14478351241609747,nm,0.0
151.159005,-36.917505172290454,-20.58886727488438,111.20671102709098,-1.5287221059509895,0.7755387590178879,-0.06312414045139168,0.3023139821016544,0.5151320309279828,-0.350072245435261,nm,0.0
151.17820500000002,-32.65484772538201,-24.75994230597799,108.55616632580518,-0.9628060342223019,0.5526216535010378,0.3980677327984159,0.2261573249141975,0.5040725760991379,0.02879421233536675,nm,0.0
151.187719,-30.842056463927573,-25.698460428382564,109.15650916572721,-0.6034746979391897,0.04622342289395608,0.32971480737555003,0.08194980867085648,0.380320002506103,0.279308161355556,nm,0.0
151.197232,-29.15329855855839,-25.710392700520597,110.96069752319372,-0.27832360613914087,-0.6477394148450132,-0.03898140030499487,-0.09231719755588756,0.2963893347705895,0.5119287307393855,nm,0.0
151.206564,-27.27232501656476,-25.186497466041804,113.446571210489,-0.04622065915107157,-1.2844955192621212,-0.350378831001418,-0.21618550133030387,0.2852593256612737,0.6631410530339872,nm,0.0
151.225579,-21.11668163372114,-23.89303094076754,117.14442939732716,0.3571839244109183,-1.8015094493181583,-0.31420529240145634,-0.3995462289618107,0.5550615971783036,0.5787604150374352,nm,0.0
151.27332800000002,10.414713142747258,-20.170353953630993,114.33732280003083,2.0705648600057094,0.6033746254068502,1.211707806749545,-0.6510415673318616,1.12432101431497,0.533337097769224,nm,0.0
151.28283000000002,16.848258897320587,-20.17348292448372,115.74558793485849,2.516191375456889,0.530615435307242,1.0474169662375274,-0.5063501572688286,1.1081552360264106,0.7205651334922213,nm,0.0
151.292334,22.46612151819504,-21.06244538051094,117.76421010955949,2.8992814741842765,0.4322273874687123,0.7186539353103018,-0.3115972753862699,1.0327319857479857,0.7939136360919813,nm,0.0
151.30166499999999,27.246729294141453,-22.461263596386633,119.75941909044892,3.175322510283919,0.30885947755234405,0.3849991725281898,-0.18012053095523214,0.9266439887299941,0.7476594787972475,nm,0.0
151.311165,31.14612619970847,-23.7774834479482,121.22312878467973,3.3317609269486783,0.2706615022023736,0.16987700530830782,-0.1361457627109969,0.7649952584943475,0.5927726640961074,nm,0.0
151.32060499999997,34.006049408073565,-24.534781073205977,121.93157861104594,3.3045680305078062,0.4651362048523808,-0.07490044986256564,-0.14395048337576977,0.5369346890429961,0.3691987991693143,nm,0.0
151.33962699999998,36.66865233793284,-24.250482051810387,121.76445860673101,2.794406966787074,0.9962950502437006,-0.16746941837930673,-0.1359826003232156,0.09809989146555197,0.009837225458956168,nm,0.0
151.377847,28.751975067497778,-25.944481229704035,124.21016925980268,1.5446545562311984,0.35718709344574795,0.1687768908465034,0.5070411353584717,-0.401807375415853,0.006321078207270207,nm,0.0
151.387349,24.666361015228542,-26.725808790811225,126.04185219760409,1.2882553961924073,-0.11412744629924204,0.06456665460366613,0.550878996480444,-0.4966155538231347,-0.0018090791659522779,nm,0.0
151.396875,20.492155731355563,-26.980331617499143,127.59984004135971,1.0804192269547421,-0.5211346730313455,0.024198681090835127,0.4891379278142051,-0.5531338376847773,-0.07060228166283132,nm,0.0
151.40640399999998,16.582478947848458,-26.601457904090932,128.37096641384323,0.8526948888186433,-0.7693167017730169,-0.05640988073717229,0.3722665375584119,-0.5840896696072484,-0.20288115970829562,nm,0.0
151.41588299999998,13.0796841204901,-25.780887902723613,128.11744446076668,0.6632674133889311,-0.8617205328271055,0.022498674226855708,0.2631822111393748,-0.5826116954789748,-0.3642433591609003,nm,0.0
151.425403,9.870192118363057,-24.77226937531552,127.01545989068956,0.50237461701624,-0.7098085754832605,0.15897311040978626,0.1976355481449601,-0.570465015080848,-0.49852205064518895,nm,0.0
151.434918,7.008026546191115,-23.721901878944724,125.5940949951813,0.23527016490586714,-0.5486671510871451,0.024137538856658716,0.14406818341816868,-0.53248523634295,-0.5230684313542442,nm,0.0
151.44441400000002,4.17922566899861,-22.913851769367447,124.36809759689434,0.06609582701625398,-0.6378716974866313,0.35063925959001563,0.17047440526392751,-0.5059284177209369,-0.4724189742840086,nm,0.0
151.46344200000001,-2.359957282124546,-21.6990097598823,123.6098906398396,-0.24382582309224993,-0.9029568823340676,0.528700702421534,0.241646576672213,-0.5770379234399705,-0.26835796802928735,nm,0.0
151.48245999999997,-9.040802568035327,-19.87725570157197,124.0023652647708,-0.6368211524815981,-1.072882388638575,0.007744009559014913,0.1923630397399026,-0.599492564155204,-0.19696193760874892,nm,0.0
151.491977,-11.910390500365319,-18.99304014488482,123.75047767099149,-0.9753424794492098,-1.0316776110770185,0.06467198297255901,0.16166506554259305,-0.5360019124260456,-0.2417763480598206,nm,0.0
151.50148099999998,-14.681600896485868,-18.178202555399068,122.99082427859796,-1.3534858138601038,-0.7888046335288666,0.17423693209374388,0.16002470387309933,-0.5166425771206615,-0.32859634620477035,nm,0.0
151.510999,-17.54672186078436,-17.444586173711766,121.91451871850381,-1.7997925836545685,-0.3601528262674336,0.4658707577367483,0.17650772225163774,-0.5276469124964676,-0.3900857847872553,nm,0.0
151.520545,-20.556060690135652,-16.69070609429742,120.81484464206362,-2.40301660143555,0.11970077543324786,0.8552789856577931,0.17865546923128903,-0.5586290067649315,-0.39557402667417757,nm,0.0
151.548888,-30.25775206212543,-15.504054248253048,117.81636272496377,-3.0655649500555167,1.3372072488299787,-0.3640436580450112,0.330386137191903,-0.4620032157772135,-0.35415793438520965,nm,0.0
151.55840400000002,-32.5769708871772,-16.951939262900385,116.86305355188402,-2.55797031077957,1.3385863243635712,-0.5027269403791015,0.4709932860477954,-0.25246729388583655,-0.3166608266815757,nm,0.0
151.58694699999998,-38.131824198523006,-21.542439411499345,116.52072070991004,-1.58685516981978,0.4430918349142242,-0.8436338782375848,0.4420425413755451,-0.3074336085581205,-0.08182617321587625,nm,0.0
151.596439,-39.719264867547956,-22.34113711201616,117.18656801368802,-1.8886465540729733,0.013791198735043695,-0.7860960011425293,0.28461627732180583,-0.18126669252961797,0.020384897796927873,nm,0.0
151.60597099999998,-41.10031345929728,-22.805719909140738,117.38376811486741,-1.9705000693363213,-0.030459237484510283,-0.8892955191997274,0.20843875910087345,-0.17492050106762683,-0.06050095170953195,nm,0.0
151.615484,-42.30795959495779,-23.383487717720893,116.9616236959587,-1.3769725478106878,0.6379156808360202,-1.054479567866767,0.21326738923349253,-0.1359419102576563,-0.172914176109276,nm,0.0
151.634537,-42.01622949590384,-25.792160918474064,115.04192521386236,-1.724869392581424,0.9100432674275256,-0.4660641050002494,0.238914513613292,0.18408344343060087,-0.18239635281243213,nm,0.0
151.64404199999998,-41.652360561233955,-27.266796966862888,113.91769800677557,-1.2788629329971757,1.1342106288154687,-0.33115148979212555,0.25116439346766223,0.18998817177688465,-0.18592641886129113,nm,0.0
151.682292,-39.728886646066165,-28.80394299796922,114.8986018517908,-0.8282896128409264,-0.386849426966461,-0.41077931394502026,-0.11364913272716072,0.017673974112150555,0.2551897684561189,nm,0.0
151.691587,-39.35899390161497,-27.903061136493015,116.09953686384041,-0.8085436598058515,-0.7129319928645982,-0.4664845910635978,-0.1817033703449773,-0.009929006971881097,0.28182386162349515,nm,0.0
151.72030800000002,-35.8761648137051,-25.841384564180885,118.38699141359984,-0.47635869083574106,-0.3477352822927078,-0.2656821631211445,-0.2182635694159188,0.2563047896686013,0.2622021697054538,nm,0.0
151.72982599999997,-33.37446359038699,-25.652742660637053,118.80225538890774,-0.3236770664051485,-0.11985500607119422,-0.10601997364154986,-0.24047433657342923,0.3882657273806927,0.30563651832208305,nm,0.0
151.73933300000002,-30.06819970501565,-25.50972083540566,119.38299480665185,-0.20146549572681718,-0.1066838737189972,0.08098365764783835,-0.30689438679705716,0.5184991134703523,0.406344836044694,nm,0.0
151.748835,-26.052152900975646,-25.213772214814178,120.30280809069075,-0.1341361662009026,-0.49139784764836764,0.3980767761529139,-0.40483617483604023,0.6119909454062578,0.5319554270753175,nm,0.0
151.758343,-21.774713982576415,-24.69659045158863,121.60764196527845,0.37582916894419943,-0.7332483051174029,0.4345211558388684,-0.4805337287081106,0.6244486460718663,0.6250086172174026,nm,0.0
151.76785099999998,-16.910994510894533,-24.066908758079812,123.27974057874819,1.0049171873510945,-0.9721566266581341,0.25141373816226137,-0.5752455315126727,0.6933661225863005,0.7380951232214034,nm,0.0
151.77735900000002,-11.177254906245627,-23.678010119359104,125.13907450873904,1.5015304156800175,-1.4534733994362379,0.4756038530612701,-0.6485342245030491,0.8374620052654805,0.8368988369446105,nm,0.0
151.79638400000002,1.8825294816390465,-23.903413604542354,127.9109729458671,2.658555454926635,-1.0648455932673442,0.728305898290936,-0.7154246352620681,1.0318611281924859,0.772442917294779,nm,0.0
151.815412,16.488242130703853,-24.339430448786747,128.89550013625484,3.512818549943869,0.1252221184130131,1.0591637741333855,-0.8030776035475365,1.0707331769119723,0.668079913071719,nm,0.0
151.824737,23.143411809682203,-24.385240012579374,129.42036124375852,3.6519679792830355,0.6981053822636073,0.6955432400396547,-0.7587725072882938,0.9601923971009959,0.6490720461012585,nm,0.0
151.83426,28.609715050229816,-24.45683804919992,130.32549229678722,3.7038987163929664,1.0270898821137062,0.33165154951274944,-0.6283697188850218,0.7868426851218888,0.6272826876810281,nm,0.0
151.84375500000002,32.45495112385657,-24.690808636516817,131.56221392060368,3.6157626494721664,1.1503711614462544,-0.1121387251295237,-0.42485967384529433,0.5720749134208911,0.5609409997772885,nm,0.0
151.872199,34.097155327349626,-25.349132975229267,134.98019859877186,2.7211823430503155,0.9064912438332494,-0.5195403972592993,0.12153711516106933,-0.11430591868910903,0.08749871877059169,nm,0.0
151.881717,31.942281625406693,-24.987625791814413,135.4650000671165,2.2849808501958435,0.7820240991100954,-0.33582600365284276,0.2241493557236502,-0.3140916600534719,-0.09314958361580114,nm,0.0
151.90091800000002,24.980371149312777,-23.705501915138615,135.28509300662108,1.2887281583334835,0.4596322069177351,0.08563054147247229,0.409834212057099,-0.5820421794287463,-0.3725339355191965,nm,0.0
151.91994200000002,15.86766533825081,-22.85000877872531,134.23954996251499,0.6161538848942884,-0.046304657424970454,0.2620619312072781,0.5575022220322234,-0.6509979608469817,-0.4854259329790398,nm,0.0
151.938975,6.302309645764757,-22.162845747627216,132.93727475839194,0.34904312306023794,-0.5895569958026302,-0.25524416758582197,0.5535718327559424,-0.6786046004352492,-0.5069347599861146,nm,0.0
151.94846800000002,2.357104382827614,-21.70206359905749,132.0459910145527,0.27946375458019956,-0.9776905363500843,-0.19159464639606893,0.4302827031445362,-0.5891434666303696,-0.47607700621550714,nm,0.0
151.95796800000002,-1.0936755010826038,-20.99673278148911,130.8588210706803,0.07176405503881557,-1.373912030601991,0.014868005183624923,0.3241948713081495,-0.5624101124937356,-0.49123586818824677,nm,0.0
151.967504,-4.408217533217571,-19.956644170493785,129.36102096126285,-0.08916656103666985,-1.1975701363343385,-0.20730590453469738,0.24603203732461368,-0.5964394168231103,-0.5335225919675523,nm,0.0
151.98651800000002,-9.554022239215302,-17.05650501240267,126.16109924881182,-0.7947800351423366,-0.9926874535369701,0.23661965864983606,0.03836373031843029,-0.5470986625112757,-0.46560644426635944,nm,0.0
151.996031,-12.025185177129721,-15.421297196736157,124.83786496804026,-1.0714880527423052,-0.5801093545976288,0.17882302082686857,0.015724183051909504,-0.5642785813407313,-0.4037912269557355,nm,0.0
