timestamp,roll,pitch,yaw,acc_x,acc_y,acc_z,gyro_x,gyro_y,gyro_z,markers,motor_input
129.504139,-5.1695033865857685,-25.951395065464762,81.12123860777496,0.4952179648351697,-0.18484490608105075,1.8799256454116482,0.19474794625703748,0.03903113373929568,0.07729416205142461,nm,0.0
129.523151,-5.545343792752489,-29.199101235261768,81.9542750882532,0.4952165699874357,-0.0069380318690322774,0.787221982725352,0.37680054598838947,-0.13665002597321146,0.05160954354897441,nm,0.0
129.532665,-7.07360509254795,-31.373159351402865,82.58576525867527,0.7004524495434613,0.05520250242231195,-0.07863788119628412,0.4088925188958207,-0.3148422735833637,-0.02747927416128649,nm,0.0
129.542,-8.96913758176,-33.48175257801398,83.31237001218386,0.583907724914775,-0.07588523747000986,-0.8107604733009075,0.39275692289881853,-0.36430860671966436,-0.05704128535845432,nm,0.0
129.551591,-11.25769860001551,-35.485858981819064,83.99904375481493,0.4990010732193642,0.004295455750129569,-1.5399901578894857,0.3701508634533778,-0.414478347054144,-0.12032101169578503,nm,0.0
129.561108,-13.793423913256223,-37.26810279749927,84.50487820619179,0.6732038841428635,0.352984833919032,-2.2135001572925668,0.32719207908811854,-0.4374880196670679,-0.1975718835474856,nm,0.0
129.570613,-16.062665060620223,-38.51581986213068,84.70705256261705,0.684799315095362,0.6873145766454225,-2.4628940771759456,0.2281165977442193,-0.3758057934043299,-0.23576351293643696,nm,0.0
129.580125,-18.01656554439944,-39.00643190856676,84.49434790910576,0.7269875201445987,0.9956735670457623,-2.6331747647894876,0.08222309504921747,-0.3086382664199929,-0.28431931559360996,nm,0.0
129.589633,-19.684365595427213,-38.87768208305034,83.92577766525713,0.7685577004692165,1.226422971627466,-2.5941718739233357,-0.03869431027182549,-0.2518507536268706,-0.3202551854241226,nm,0.0
129.599132,-21.07414273682158,-38.29813550986023,83.1331936984013,0.9536437382490663,1.4217786919642885,-2.4910687755266374,-0.12663008616381852,-0.19942890137586172,-0.3285910472537726,nm,0.0
129.608654,-21.726455420113204,-37.27806991290394,82.23258864824719,0.7548678213572878,1.398820612902165,-2.1726516965593445,-0.20250714041117282,-0.07295893903467474,-0.25665932463845353,nm,0.0
129.618167,-21.90111064854709,-35.823587053846985,81.26922056681974,0.24334152650814722,1.1947099342154344,-1.732954729566234,-0.27897099436646366,0.01724686319138897,-0.21011314594630812,nm,0.0
129.627598,-22.031403685921816,-34.09566774056161,80.31595253898362,0.1989751925988173,0.9955518928138104,-1.4991509863388763,-0.331605987888935,0.03739070493593948,-0.20234662215687327,nm,0.0
129.656299,-19.188069079852298,-28.346106003072435,78.80841061570668,-1.0216084861703383,-0.43257948093583387,0.6961612850340032,-0.323552394865392,0.32607721194014644,0.09843707819769056,nm,0.0
129.665819,-16.991463063233404,-26.520227952372146,78.90500522197101,-1.3466849238645242,-1.012249917510396,1.718470372904663,-0.2696507763346347,0.4574349928637326,0.22372496117082663,nm,0.0
129.675321,-14.393031286527538,-25.081413898780365,79.26097305168713,-1.4058194941610649,-1.4961314845950893,2.8336921636381702,-0.1805815968874065,0.5186572692899962,0.29878800391620064,nm,0.0
129.694334,-8.348023976663368,-23.602126725230697,80.1476886083226,-0.8537550693932834,-1.7507790702714514,3.5727636077749207,0.022105621568123728,0.5830090564528276,0.3368384495099715,nm,0.0
129.703846,-5.913772003680027,-23.780260270117527,80.40169052878568,-0.6873143734195927,-1.5433629853272137,3.7135892372123642,0.12376053070779171,0.4391221655997167,0.24594914475721674,nm,0.0
129.713369,-5.020425112344396,-24.47963071526573,80.45276428201602,0.3151057560680453,-0.7704301688159079,2.3591779130267314,0.1784017987076582,0.14298738764332808,0.08251872025134747,nm,0.0
129.722868,-4.419762369653659,-25.63430702938583,80.54589065208563,0.5469024305844801,-0.23187211797383095,1.6338350563619066,0.25915521696803495,0.07469133200440645,0.06878945029854681,nm,0.0
129.732375,-4.610876248438326,-27.25463292505044,80.81218857699103,0.3807094008399364,-0.04646845659949638,1.2726565452468592,0.3277464570007506,-0.0809173629954006,0.03572937214677945,nm,0.0
129.741901,-6.123534643631738,-29.23601609322158,81.29622429286279,0.7181934238907324,0.25772154658342056,0.28590415103614486,0.36357077054939374,-0.31989231942970353,-0.04645491334708767,nm,0.0
129.751419,-7.921218891961025,-31.299232464689766,82.02168835950378,0.5122927239931029,0.0960439983932228,-0.20549483077722694,0.37680548979317563,-0.36220410584093027,-0.035633131092209724,nm,0.0
129.760732,-10.11017451382663,-33.320083933497735,82.81041298320658,0.30679448488200267,-0.023019272111251057,-0.8496898391909976,0.36535072155240605,-0.4153962083039346,-0.075172162801574,nm,0.0
129.770353,-12.577046906428402,-35.252099905765974,83.46396494959187,0.5695733744624095,0.23645321057821284,-1.7759754034725295,0.34845026039371835,-0.4464303934772499,-0.14555638764911016,nm,0.0
129.789353,-16.294604170696683,-37.945406237160945,83.87197357373252,0.5903570916027686,0.7748544012168206,-2.3689925330126673,0.19350605969010048,-0.28765066109333864,-0.2028855155922803,nm,0.0
129.798864,-17.650709969427503,-38.36009061619945,83.5557046808567,0.8140763884568786,1.1758209544848865,-2.567468249285111,0.07235701576211596,-0.21713482307481363,-0.22797698420510068,nm,0.0
129.808361,-18.6738874342062,-38.28091574873103,83.10180018954172,0.7702530575199501,1.3852634637482342,-2.3774371884554,-0.021194024470259788,-0.15384114982357316,-0.21465848214343258,nm,0.0
129.817874,-19.530540808186867,-37.737156982133044,82.60230920667058,1.01968954057503,1.6669225834791253,-2.30557249692536,-0.11160338724747267,-0.11678815569750539,-0.20228300945296307,nm,0.0
129.82732,-19.73625068552998,-36.66407090840185,82.1009003931335,0.7471264257139472,1.592415948425723,-1.9460943143868048,-0.20405336722824025,-0.0002224640374473796,-0.12201097347583696,nm,0.0
129.836824,-19.619074453799485,-35.13450169665497,81.5665611541189,0.3834611414606943,1.341214522013777,-1.6192296280244525,-0.28715782676394086,0.06599756341107835,-0.09010635524067981,nm,0.0
129.856021,-18.631029981744703,-31.726586495677424,80.54889510385686,-0.23624265906974504,0.38233822746383866,-0.6788216542532978,-0.30262150817743483,0.18095277200173965,-0.01426519676334586,nm,0.0
129.865532,-17.562549234277256,-30.04222743879069,80.10864114992395,-0.6863425706217767,-0.2820006996856522,0.10273502264945576,-0.2881586732241563,0.24149867735777594,0.023906505713103817,nm,0.0
129.875037,-16.18924786943522,-28.393303506435885,79.73274078676032,-1.0358419111010373,-1.0004938836070285,0.9989808703583277,-0.2695620201432546,0.2980384212785143,0.060758964681060616,nm,0.0
129.884544,-14.436379406540189,-26.928478576545327,79.50157929495983,-1.3757865616122587,-1.6626969366218227,1.971610227691074,-0.21894611688251955,0.3627781370125772,0.11794708902983052,nm,0.0
129.903567,-10.683035204610661,-25.190844859596233,79.52035449525914,-1.2574828451820603,-2.2415530361061493,3.093258392640116,-0.05536059171615903,0.37011693456211536,0.18077373785512107,nm,0.0
129.91308,-9.095745580580386,-25.077475569404847,79.64000402443754,-0.9101740603673135,-1.8722781341446453,2.9140653101331546,0.043118950210139256,0.2918237778954429,0.1589763636444546,nm,0.0
129.922591,-7.949080169356111,-25.480769796485742,79.74227258885658,-0.5500497098815117,-1.1835792021982396,2.2708798438526423,0.1299622229641648,0.1946711661092117,0.11837789147183891,nm,0.0
129.932095,-7.4769898020545895,-26.237973706758297,79.82087088628599,-0.22987034461979655,-0.47265622925245765,1.6018463967003675,0.17764347886426177,0.06173405765698048,0.056825896667907556,nm,0.0
129.941621,-7.754434758295406,-27.296751211369212,79.93173898522542,0.3249093380023532,0.14479616157996023,0.5693677556864971,0.21333084918400566,-0.08119035347856479,-0.0027770863706634372,nm,0.0
129.95113,-8.175465677168452,-28.66975058102695,80.17254103896323,0.35104296401893115,0.35980593810232403,0.18267840257796103,0.27127474207953284,-0.11591420236697754,0.00895175136261361,nm,0.0
129.960652,-8.968832868252731,-30.095435669036384,80.44973299667227,0.32955579753223735,0.2992625517056764,-0.23050369801468282,0.271450077949032,-0.17962749161648814,-0.021826712493668222,nm,0.0
129.989077,-11.576961321942207,-33.41570299345241,80.3294030378706,0.3953101727854124,0.21475294868458514,-1.4105885421441593,0.17545458768921074,-0.14998838778141277,-0.13700884704624455,nm,0.0
130.017523,-11.551594093418332,-33.338940522910576,78.42249694257036,0.8579354412322349,1.6010686822531728,-1.2487290581267199,-0.07320973945127199,0.07653117892500877,-0.0962398165069094,nm,0.0
130.027026,-10.927328098291584,-32.600074837805714,77.9479758162995,1.0920169498937855,2.1007858548309977,-0.9587973423754723,-0.10979506438989556,0.13696211235557448,-0.0257160359469587,nm,0.0
130.036552,-9.919733187114758,-31.724353281499187,77.79016387032297,1.2409924672034554,2.5312409147931,-0.6596825253107934,-0.12199883918854472,0.2079659355382307,0.07678276620289272,nm,0.0
130.055558,-7.948930848477456,-30.09470548206592,78.6046483849833,1.1533996221979772,2.200981205445983,-0.0014586490754110156,-0.10334113161594141,0.18815903931520064,0.20798728209592027,nm,0.0
130.065069,-7.283357172715051,-29.654961239219134,79.27752030081798,0.8372832224761304,1.5728631520679994,0.008918635225823148,-0.050888847180741506,0.13513139768166652,0.2013460779919841,nm,0.0
130.093783,-5.488186160935878,-29.61311643071232,78.11207063493845,0.2057416081121476,-0.5387743442175394,0.35850389224162316,0.046171922368482096,0.14261058160864515,-0.126908743349997,nm,0.0
130.112803,-5.508985706382724,-29.08231878506117,75.77885470360677,-0.07875843818140785,-1.369913767502058,1.0411890299444642,-0.05790247661420627,-0.00825628865509756,-0.21851285935098436,nm,0.0
130.12231,-6.494297850663361,-28.90822519433413,75.49755870313236,-0.5972960338366693,-1.708177658477024,1.7667728873699986,-0.06295557443576799,-0.1545365703351228,-0.15196621195531604,nm,0.0
130.131822,-8.593809989692502,-28.852525806135894,76.14042332531461,-1.137453423720587,-2.036823781953667,2.0481524654534717,-0.08734868765582228,-0.3502553087892294,-0.07396564823621647,nm,0.0
130.141332,-11.698654177529441,-28.924632663667257,77.55690131822928,-1.4816471397044204,-2.3736567565609583,1.9943795944974996,-0.09616347545283024,-0.5294395050814563,-0.01582524875728501,nm,0.0
130.150843,-14.782033754003756,-29.151213049907565,79.35958126272754,-2.0400630875240653,-2.7346699783256914,1.684228295441327,-0.050005694345321726,-0.5339649507452009,0.06277231622610996,nm,0.0
130.160175,-17.750833786739115,-29.66950801514944,80.99621327973064,-2.556860535609031,-2.917277507070725,1.0985145016345497,0.02735753626353033,-0.5239316463378796,0.03792482653561995,nm,0.0
130.169675,-20.675947950276598,-30.57599816078066,82.01620240801182,-1.8790601861809568,-2.4258222388621937,-0.12931961702631478,0.11802812413048218,-0.5239741454129284,-0.08689683141225896,nm,0.0
130.179202,-22.377387852452248,-31.681117580182462,82.26365956624889,-1.4385637111636556,-1.760902991584792,-0.8115737768468289,0.19263627612916104,-0.31547090801928607,-0.1232826862780013,nm,0.0
130.198296,-23.31311581191035,-33.263750368840185,80.64233506642512,-0.2822795764048554,-0.12375063153937259,-1.1968958617377035,0.12594791324383547,-0.049920284236677395,-0.23449812230556913,nm,0.0
130.217244,-22.341127807879275,-33.04833596661344,78.8113291989888,0.3612936646673679,1.1109988344177615,-0.9195624935233389,-0.030620171658478617,0.1036940864458593,-0.08394361827297556,nm,0.0
130.226735,-21.668103300523235,-32.51421050818682,78.58836983328136,0.7675582649662642,1.583040591289865,-0.935068154469969,-0.06916404343503894,0.13494291091507218,0.03157988594314995,nm,0.0
130.236261,-20.42307802236675,-31.965031251160394,78.74281525080339,0.9238263043669298,1.9912886462873074,-0.9067727290535489,-0.05283857969789265,0.2314682886974272,0.16688494482126792,nm,0.0
130.245768,-18.52318829015458,-31.5496310666206,78.97232103120146,1.3102590841448323,2.478097237921139,-0.9891683306899798,-0.005540020860388558,0.33685662908873587,0.2487538671595345,nm,0.0
130.255281,-15.656386896578095,-31.42198012192859,79.10639740049459,1.0999933178615864,2.701956086166536,-0.6334043881548592,0.08154046918426062,0.4892417189310463,0.32868594398845796,nm,0.0
130.264776,-12.46822586921573,-31.628013540639117,78.98961645964971,1.4002499139921825,2.797861993626243,-0.46320956598755203,0.1574095069331764,0.5305505346977515,0.31188146583819143,nm,0.0
130.274302,-9.275121690789943,-32.015718466782154,78.82656824861547,1.3837056081494261,2.564365440408411,-0.2499706963222163,0.19415329308768978,0.5226613157011719,0.3054193408208676,nm,0.0
130.283817,-6.515375092528763,-32.41327369164442,78.62701924421089,1.2532408581369316,2.032486570266613,-0.17625352887017567,0.18284860476730874,0.4477066892130552,0.25511570136192935,nm,0.0
130.293317,-4.180583432508556,-32.713979596053335,78.19540903043602,1.2637354377056302,1.5204971263592926,-0.4063059609636975,0.15146201286716413,0.37881961006709747,0.16531814295978445,nm,0.0
130.302824,-1.8935307831934953,-32.80696063022679,77.41174913839168,1.1966591298788416,0.889866161655296,-0.3989379428533808,0.11283938847314044,0.3775141726534713,0.09062025319611375,nm,0.0
130.331541,0.9268903808154039,-31.419858795599325,75.16177448913976,0.8186805557986135,-0.7264529496902996,0.3655140300699494,-0.15319122993648893,-0.0015219951970831538,-0.11559426908160723,nm,0.0
130.341052,-0.5469512397318504,-30.40297534049176,75.26324099833735,0.30320480954573487,-1.2708426742335899,0.7971472048488201,-0.24812520525881504,-0.1881936200552201,-0.13220594011490747,nm,0.0
130.350556,-3.258952529293562,-29.46833742179208,75.7542120037252,-0.4032661971890817,-1.8148897647273778,1.3904144163784289,-0.28545794903488947,-0.40437266294322977,-0.17326468386139446,nm,0.0
130.360063,-7.0673223985095435,-28.806357032921056,76.40747894478132,-1.087414293911771,-2.389001919615397,1.8041189473632246,-0.27526823201195527,-0.6105044565154554,-0.24048091689458473,nm,0.0
130.379093,-16.365373762755496,-28.827348920046912,77.60897927713017,-2.3814977313892545,-3.050459846738174,1.4821551347267654,-0.12589846072359262,-0.8410381049280001,-0.35640245861335124,nm,0.0
130.388419,-20.573692114093873,-29.386736626188735,78.08106169676635,-2.753877641271723,-2.8635746477610806,0.8458454398381986,-0.03196189858823627,-0.7402955263870304,-0.31270061518226056,nm,0.0
130.407448,-26.63890755075442,-30.768111652738927,78.49243451026277,-1.692766824776502,-1.3565561176730245,-0.9747253010478218,0.060388111394799215,-0.4615629049479947,-0.23850662112841287,nm,0.0
130.416952,-27.79242037621936,-31.28432015517053,78.27017230594758,-1.263794623043091,-0.5726856928170934,-1.1881915088134747,0.07474394442205726,-0.21251794543956237,-0.15926538110144411,nm,0.0
130.426458,-27.864296961277432,-31.495184336877642,77.60867032507366,-0.7669634095902638,0.11441438778028167,-1.2160975144666226,0.05209555573224761,-0.018836322540679407,-0.1356220043695814,nm,0.0
130.43597,-27.007796558749913,-31.4162281087559,76.62416406772103,-0.13627097705942084,0.6226328351958517,-1.174448544374507,0.030643259244422415,0.14801421529812817,-0.10346224575900963,nm,0.0
130.445493,-25.16515546748921,-31.133779999704654,75.62284365595465,0.12184589736548627,0.934468185898382,-0.8829323811965522,0.034274055845609885,0.32156888722715105,-0.0051377069509409914,nm,0.0
130.464504,-19.849473145325963,-30.098326105183865,74.37254872841237,0.7320664388544028,1.4301931164103172,-0.40601669885054864,0.02977270898534003,0.5142746866717638,0.20265965979429199,nm,0.0
130.474009,-16.36701622657745,-29.3331323204958,74.27996562046968,1.118377753730081,1.7823302651874706,-0.32600920853081833,0.029963844443798918,0.6271050852275195,0.3290633497117399,nm,0.0
130.493026,-8.831305294882494,-28.135751624834835,75.47498851551346,1.5718992437072576,2.4619538154023934,0.3125296831527217,0.08328203582596705,0.6183323576152937,0.4997790067190209,nm,0.0
