timestamp,roll,pitch,yaw,acc_x,acc_y,acc_z,gyro_x,gyro_y,gyro_z,markers,motor_input
116.50349399999999,-43.43226726440448,-8.387240290707952,76.9548420645018,-0.10146457766765203,-0.1295890912610303,-0.22276138907232126,0.151232657632122,-0.35857867221521134,-0.06355096133936465,nm,0.0
116.52255299999999,-44.01679087465569,-9.792725434057452,76.80292085725593,-0.07861742003663859,-0.3352639576249247,-0.05943597699445392,0.13200614635303903,0.032492215543268484,-0.010092468017526947,nm,0.0
116.53204,-43.5956610321098,-10.157646467815155,76.41185307380456,0.08386848032058204,-0.2469231454159479,-0.18835166127878655,0.10311847257341343,0.06641094758457482,-0.05810058403057816,nm,0.0
116.551049,-42.72355852972594,-10.756831310842044,75.26921672036441,0.24456516849727553,-0.013826229930146062,0.13127279164845454,0.08785279119746818,0.08866685992341035,-0.09283527714347267,nm,0.0
116.560561,-42.513208074081234,-10.74617749234617,74.70199131781173,0.21572007087175427,0.013967846850213165,0.272572661191863,0.021597502056575613,0.042644839447771414,-0.10028160270128617,nm,0.0
116.570044,-42.69592578813279,-10.438676267597826,74.3172816109414,0.2077999314798222,-0.11215119573083097,0.28119822039298575,-0.055996174890836733,-0.016150272811925364,-0.0783102169019389,nm,0.0
116.579579,-43.19892941090014,-9.937765771228001,74.28368343193284,0.20533305225481474,-0.15039710149370464,0.10817648153683306,-0.1104602386201492,-0.06620006548296033,-0.01903981255304151,nm,0.0
116.598646,-44.889349872610644,-8.146198296296362,74.59132844317716,0.041683862225527134,-0.22397675729578917,-0.13042566919213497,-0.23440118464124454,-0.11036806345142645,0.005930674040736474,nm,0.0
116.60811100000001,-45.72354863212784,-7.0351318934220695,74.60029022714026,-0.07742462189899682,-0.23143739415207784,-0.20685147599068876,-0.24570168225275668,-0.09811049269831554,-0.014528142833759344,nm,0.0
116.62713299999999,-47.029983409250455,-5.4736022314309905,74.13462577665507,-0.0844282803391407,-0.0663536669173029,-0.35412368233565933,-0.14179653970609446,-0.07105764317578489,-0.07219592902001826,nm,0.0
116.64613700000001,-47.557969497014206,-4.959994133348999,73.06544109469245,0.02026641842930817,-0.10232418239835822,-0.4200032642491717,-0.022026840655692183,-0.018881774263675297,-0.1077974627969141,nm,0.0
116.65563900000001,-47.44518825473128,-4.912648523924643,72.53661603669181,-0.058974729202405596,-0.13982119551015174,-0.3223599596364255,0.010340287935535552,0.026472391848406863,-0.09808522546950837,nm,0.0
116.66516899999999,-47.19497160412979,-4.712779582418621,71.96598231911474,-0.17584807820195394,0.01490565392432591,-0.1286175488614004,-0.010103981363621362,0.06181688667497452,-0.10426435377793615,nm,0.0
116.67468199999999,-46.86095994146671,-4.088178126742558,71.26457693786126,0.047527480757777324,0.18685474913000588,-0.06846063537681442,-0.08479188715370024,0.10469329951625553,-0.12964128621863313,nm,0.0
116.69371899999999,-45.695484245994294,-2.306597255710516,70.6278319384696,0.21206362674520043,0.49523004038974017,-0.013306440624040912,-0.11162001875472882,0.17174522967555647,-0.008063041987589087,nm,0.0
116.70321200000001,-45.10107114762449,-1.5244596663145258,70.82179015620733,0.17925375254136838,0.5729321418057908,0.08913359159793713,-0.09543977907721538,0.16604215157534863,0.04784899142349405,nm,0.0
116.741289,-43.65275218956406,-1.5469833407054598,71.1059362732901,0.1630478826748816,-0.13381461954929746,0.05166757356216537,0.13778745596167608,0.003444672749678547,-0.04058667022406589,nm,0.0
116.750812,-43.44404492167463,-2.272315401701595,70.63540109795821,0.27259374562735045,-0.24777695346158568,0.028394258066625173,0.1641476526270693,-0.006217138238767102,-0.08807364457808425,nm,0.0
116.76028600000001,-43.14519281182391,-3.0276111465986624,70.13124475136094,0.42384500371042555,-0.26060654488585766,0.018641529222760144,0.17578788206673693,0.007267705983840698,-0.0934122814372588,nm,0.0
116.769781,-42.68282837276525,-3.6616371369858256,69.74582666960941,0.5332789598847524,-0.19999153185739335,0.04706469013305452,0.16424570332229402,0.04485786273833197,-0.06702757217038124,nm,0.0
116.779304,-42.05249257103026,-4.07323635167795,69.56578315558531,0.6563109914251978,-0.20002723067125444,-0.015875117069028815,0.13438718991590565,0.09092876835187685,-0.022878896267286675,nm,0.0
116.78878900000001,-41.273657702568464,-4.377034648535127,69.69724902765839,0.7067259647723677,-0.25545765980417806,-0.07360083129171976,0.12454079669739,0.12613709198246068,0.04234120714889172,nm,0.0
116.80780899999999,-39.3723518388607,-5.143385176109019,70.688222213861,0.48893226049344063,-0.4743921441926117,0.057066822556923635,0.16101821780406225,0.1595897767588875,0.13380993639639177,nm,0.0
116.82682700000001,-37.46705907474218,-6.494408393639702,71.46035674378011,0.23821401604231235,-1.00636341023212,0.15156024375537255,0.21583388270574214,0.12518468215636847,0.07666516644871958,nm,0.0
116.836334,-36.66741001500722,-7.255408659219021,71.32857511763157,0.13608590238480178,-1.06995404175974,0.23032884047223073,0.20870286717167857,0.10373392345174198,-0.003367600032361945,nm,0.0
116.85536099999999,-36.424176338236705,-7.932314161856593,70.01765572770996,0.2021209908252154,-0.5419636495819713,0.38443321394502994,0.03196268648332707,-0.04192756077162853,-0.15280273062128882,nm,0.0
116.86486199999999,-37.08380611236123,-7.744635335620524,69.40045689514744,0.017855666121716553,0.015328757591581133,0.6406952544867306,-0.06706345376384557,-0.10849983249117394,-0.13758892369114525,nm,0.0
116.87437600000001,-38.434827812832076,-7.296596506970226,69.16972092814288,-0.2406360710344631,0.5829643314024606,0.8036525320012905,-0.16528251566067864,-0.21796582845994106,-0.0773579128399972,nm,0.0
116.88390000000001,-40.51882235056078,-6.6777978757761,69.37316166878279,-0.5044981323034806,1.0442389084719914,0.8427519562119401,-0.2491042591927845,-0.34228302218662965,-0.005408125477042311,nm,0.0
116.93126799999999,-58.89001949690827,-5.50182341149771,70.59022782326147,-1.9478141637711095,1.4832685446040317,-0.4234979484054968,-0.11943998626354468,-0.7505801458861876,-0.08677738091725111,nm,0.0
116.959814,-65.92230963812003,-9.722644035962096,69.79748586205359,-0.8129560303363091,0.7729100768674019,-1.0955270995054065,0.21035031416482838,-0.31873061097291705,-0.07456753753771395,nm,0.0
116.96930900000001,-65.97807961728337,-10.826693368760361,69.61829591910222,-0.5670453779268187,0.5473628890214494,-1.0487980326702384,0.2138066420893135,-0.08585054926833052,-0.028139797670844718,nm,0.0
116.978815,-65.05152819016854,-11.291561089403706,69.42280130651696,-0.023548491249187224,0.1659847838451052,-0.9070284623152887,0.16127989212370353,0.139001035247505,0.00608050628159992,nm,0.0
116.997839,-59.0040604982977,-10.344491265400961,69.16767761413413,0.5569273972069719,-0.48167442335649074,-0.9179488487507543,0.13906163517450576,0.7432474775105858,0.13255731645482008,nm,0.0
117.00737000000001,-53.91375241709657,-9.428375199328427,69.13286099529732,0.053488859325090544,-0.5702495031852722,-0.7003681563314184,0.19805046103958385,1.0046316948427554,0.175603692679272,nm,0.0
117.02647400000001,-41.722757017298115,-8.174902990929674,68.86312959302066,0.5613440270063409,-1.0182799372286464,-0.2780832029324608,0.38802580319266006,1.2316591861551711,0.159761753598779,nm,0.0
117.035977,-34.45663017147683,-8.158005395935541,68.69663955679846,0.5454344770590167,-0.9111019149630157,0.2890510179207246,0.5318657654483006,1.344814702267988,0.17686767470830708,nm,0.0
117.05500599999999,-19.261914616722898,-8.520175600241647,68.60244042391601,1.3119149036121731,-0.8701605787598273,0.8983900574501813,0.6006683786575235,1.4028088238359973,0.23571247454944352,nm,0.0
117.064513,-11.861305594193157,-8.691720566046357,69.08750838834655,1.5171825429364738,-0.9111297866866936,0.8730474948730317,0.5748288854060818,1.3559296768597136,0.31737034521978513,nm,0.0
117.074029,-5.548632349893941,-9.027077517159059,70.1218050550833,1.6924507501873673,-1.0321254764257748,0.83558263151793,0.511928860831788,1.1497330862043482,0.3988940268206491,nm,0.0
117.083605,-0.8853582622199395,-9.510071035128227,71.63621980703961,1.811726092446397,-1.2291424621275093,0.6451752643549549,0.4066607031974937,0.8421591636140066,0.4498848302473025,nm,0.0
117.093041,1.9094498460546396,-9.983521500071403,73.41189598811206,1.689531463053888,-1.3637008638381791,0.424662122624986,0.2691893606399762,0.5012938387798492,0.44613259785757203,nm,0.0
117.10263699999999,2.604721515993648,-10.224883879892753,75.13425921852502,1.438204704913533,-1.372742726035059,0.2673836290661144,0.09663049062051732,0.12290283860421523,0.3650945172018926,nm,0.0
117.112147,1.2766001198905215,-10.053696509238163,76.5068099583503,1.1526532251760695,-1.181010501869544,0.3626362509311789,-0.08440864937281828,-0.24114641430972586,0.22403843643219812,nm,0.0
117.121648,-1.7057490765539756,-9.38869547887081,77.347852367015,0.6248935988496782,-0.7286931403428701,0.8193463034075589,-0.2497177671621251,-0.5389927728505243,0.06408515261462261,nm,0.0
117.14066199999999,-12.689857123537147,-7.217992074692625,77.31864098534754,-0.6814793118537283,0.7220375846934546,1.4470740470522199,-0.47858266131667143,-1.1736297572822432,-0.22660169243055286,nm,0.0
117.150173,-20.205377531464954,-6.35682551333399,76.80396655153966,-1.3656589127907344,1.5471282484490616,1.4802477588409322,-0.4886480564806565,-1.4145986908583374,-0.28058716257608035,nm,0.0
117.159693,-28.51892602522076,-5.786656510897107,76.25042155261882,-1.8025185180588257,2.1951846355487317,1.1187349410187502,-0.48279853372080256,-1.580281286016081,-0.2847811756368721,nm,0.0
117.19754900000001,-57.420824750676694,-8.045384826468563,75.31895698530514,-1.5937731212830346,1.3171281746736305,-1.7102417131154264,-0.01744960823170916,-1.0789409511757326,-0.13648431578709486,nm,0.0
117.20713900000001,-61.06300259413257,-9.436071869671984,75.29556966764618,-0.87648243838597,0.6281734680143406,-2.0300476423344147,0.09733900532144096,-0.7655502875074637,-0.10670874829775852,nm,0.0
117.226168,-62.04278840472399,-11.592258895061688,74.93260214108594,-0.5181819978594648,-0.19000189746148605,-1.8144409453015082,0.20724209467217344,0.06811422996034862,-0.031636747724960064,nm,0.0
117.23567,-59.767184448278556,-11.872635845259094,74.24609664097123,0.008275393551733436,-0.5132715587909803,-1.5940499866689466,0.18365346973725363,0.4169181734545192,-0.03597970602066543,nm,0.0
117.245125,-55.49994944456605,-11.600677435219264,73.40222968556628,0.26394559857115363,-0.7470689563886871,-1.3841156484479333,0.19235841670459775,0.8202366018063522,0.01295442983948859,nm,0.0
117.26422299999999,-41.37658169706295,-10.345841818846983,72.16235934924512,-0.22554482034781503,-0.6551082168795589,-0.5452737787943831,0.35465242716064543,1.5173052716381843,0.19219102263133447,nm,0.0
117.27373499999999,-32.620298758826664,-9.931979651197887,71.85193831266619,-0.03362989353062345,-0.6580627000435113,0.21461593803227777,0.4681900716738539,1.66883112416359,0.24989375600147795,nm,0.0
117.283251,-22.959265166273525,-9.845845828637145,71.71558013733375,0.44804852403649914,-0.7569587401413872,0.8500753206667956,0.593432419706009,1.8176497176514999,0.3061640092874498,nm,0.0
117.302276,-2.458150969062142,-9.981387501347767,72.04726274639062,1.6226855491826968,-1.2425094645867383,1.503033848574654,0.6432216515822727,1.899512474533728,0.4063319414711786,nm,0.0
117.311781,7.076841902168803,-10.110641714894529,72.73816757504407,1.9616819563413292,-1.4335665885746516,0.732909517029069,0.6060582868734877,1.7880400559041079,0.466026963385737,nm,0.0
117.321292,15.422845076128976,-10.482204302630201,73.76709880109648,1.99325426726354,-1.7347300923235947,0.7671211332932147,0.5567142364047448,1.5578850442274006,0.497864078312513,nm,0.0
117.33061900000001,21.312893174388435,-10.880431338275839,74.97227612080053,2.226314462620202,-1.8495862069903184,0.34699321472075434,0.3998930839168017,1.1000497485202052,0.4522742136822013,nm,0.0
117.34019599999999,24.65180043018645,-10.946535673259868,76.28294663738879,2.160993391082283,-1.5619354173912092,-0.5019379060091235,0.1860430476267469,0.6384777729178943,0.3810038278192913,nm,0.0
117.35923500000001,24.111576981800997,-9.43533278174021,78.76240070456875,1.7583592250031437,-0.6171755622153058,0.01788862394740542,-0.26004980196934985,-0.2677726118124181,0.1664927532472997,nm,0.0
117.37841599999999,14.558620509921763,-6.3926283615630295,80.13270091086389,0.6322966274019474,0.847511201107089,1.5571492537092313,-0.5010840767216048,-1.0462666222522519,-0.04876806630757163,nm,0.0
117.416291,-25.151015054423848,-3.471989016346289,77.680573263031,-3.6304277320254834,2.456907265930212,1.1810268776482273,-0.38166858069347503,-2.1472872445646636,-0.36284189086600543,nm,0.0
117.42579799999999,-36.01063177863143,-4.788405922159236,76.35343963286192,-3.4275517647591776,2.0349580480729035,-0.4699636985135344,-0.21777622432076454,-2.169629915586264,-0.4180995965381094,nm,0.0
117.435314,-45.30299662299036,-6.9026857713346725,75.15781385615728,-2.733301420035836,1.449728006710849,-1.5380580543218225,-0.03325906667001035,-1.8956906161363236,-0.42277505764285234,nm,0.0
117.44482400000001,-52.40738936342014,-9.267163334705337,74.29597216060907,-1.9673355194809707,0.9266168738643811,-2.203459556041651,0.09715498930988901,-1.4812760256483049,-0.3651985621791594,nm,0.0
117.45441299999999,-57.288091523150555,-11.279855348285512,73.8132482056927,-0.6485763674107253,0.3394961368426263,-2.522927783431055,0.13446890624578156,-1.0335859141442056,-0.2626039614576634,nm,0.0
117.46392399999999,-59.139617111785846,-12.389226207424716,73.53326092349288,-0.55950667372121,0.19556726127623836,-2.3715435860083036,0.12224704762573375,-0.4091401224431582,-0.12336588012117346,nm,0.0
117.482957,-55.65907888142424,-11.360805397516943,72.03289663924818,-0.21997636184080935,-0.14754242493972816,-1.9990389911572484,-0.014497900827574744,0.5669120917669771,-0.06653656123691083,nm,0.0
