timestamp,roll,pitch,yaw,acc_x,acc_y,acc_z,gyro_x,gyro_y,gyro_z,markers,motor_input
113.003604,12.807117458916,-8.511330467695446,100.24698028492848,-0.2868442081699663,0.7050291022260253,0.6552239845600258,-0.06653346928910683,-0.9232079369777082,0.06381033962817648,nm,0.0
113.01310699999999,7.652979098829666,-7.455846666489465,100.78113434609934,-0.6562553639283063,0.8303729049635766,0.3355005079476648,-0.01173354856199822,-1.0344008513624043,-0.042003881530289264,nm,0.0
113.022628,2.690441938792648,-6.747295157191623,100.79572688432997,-0.9376459530299442,0.8952938993717516,0.16047434526243004,0.055254821905886764,-0.986227363015196,-0.12457522149075072,nm,0.0
113.032205,-1.8217946817703958,-6.227666634035213,100.41845944228665,-1.3752085399157026,0.8695622616621667,0.3729500580123468,0.07346459516754585,-0.8927236147129273,-0.1813726079123103,nm,0.0
113.04153099999999,-6.164777111439002,-5.710704887723437,99.76904628324526,-1.3878713901846285,0.8870656433698807,-0.21142764424104643,0.06057575940323879,-0.8610406562727796,-0.22333958338115834,nm,0.0
113.05104299999999,-9.803743227624935,-5.3792044187073875,99.06933749498786,-1.4025766459789768,0.8093104328207483,-0.44592562514798545,0.06440400240608571,-0.7178897343892909,-0.21265752339746735,nm,0.0
113.060562,-12.669139645276495,-5.339830422445822,98.48342247264792,-1.4795795891343213,0.7363596706140368,-0.47464930778936804,0.09076427464195504,-0.5574672646831489,-0.1724653162462118,nm,0.0
113.11782,-13.72926806967236,-5.528264034005844,95.03919169820333,-0.43492768842429913,0.13380118739869074,-0.18091288393566785,0.009599525646879959,0.31787132189744677,-0.1331616249910331,nm,0.0
113.12731299999999,-11.895180195989473,-5.711713623448838,94.18669992230836,-0.21984686687554847,0.07614762917024033,-0.11056927586132877,0.019165605271553362,0.3747507428248139,-0.13641402155905363,nm,0.0
113.14633799999999,-7.698759174369075,-6.025427915389037,92.75502433987282,-0.024094212775901475,0.03279307355480907,0.1708716755118568,0.0074861303854357525,0.4355889719712972,-0.08746874748630018,nm,0.0
113.15584999999999,-5.891845892673142,-6.0094546562391535,92.26836599348677,0.13087916801188867,-0.00793832149613488,0.12455760766251563,-0.007090048785745944,0.3665523760984039,-0.06246024433433968,nm,0.0
113.17486,-2.728362426722338,-6.0847906893276535,91.76471338796082,0.23478819033663048,-0.016911268767184552,0.22639247412436375,0.014445311679401919,0.3164679841053216,-0.009434282403550659,nm,0.0
113.193904,-0.8075397928952285,-6.183999883433424,91.31783110287702,0.3589177613737096,-0.06362663383353535,0.06401816005557773,0.01800438436040241,0.1668576380679156,-0.03795088039749462,nm,0.0
113.20339899999999,-0.2089578281580762,-6.299448309948975,90.98388847461328,0.299437126161779,-0.09003189497323867,0.1554106142693163,0.03233085375879461,0.12666748368156128,-0.05793403810149418,nm,0.0
113.212906,0.028731994489002162,-6.4278632218387735,90.5928226919812,0.28967580463155546,-0.08873837413976786,0.1497153262494856,0.036699664660732566,0.05466113305349465,-0.07716378366855843,nm,0.0
113.222451,0.016281622691310817,-6.508949614970978,90.22553802244909,0.24662570218984453,-0.09341654302728485,0.06604403875152233,0.027938607778591217,0.00457780775798484,-0.07794417662310185,nm,0.0
113.241456,-0.5159962067154547,-6.64505217047459,89.86582590024489,0.10170363694575095,-0.08094208995832852,0.06579596289470868,0.025122807611747705,-0.06323795923704631,-0.032215034914592613,nm,0.0
113.25096099999999,-0.8718810556719188,-6.656923903926305,89.93473755476472,0.029464862784467156,-0.07159901480901142,0.07188621616774628,0.014047491604593048,-0.06391859935644606,0.0016121958903955068,nm,0.0
113.269984,-1.3798519567454026,-6.6391993353119565,90.35878938748512,-0.07646856889241808,-0.09985598635166583,-0.013436513256683779,0.013871703627048856,-0.03532923751908954,0.03806969006016166,nm,0.0
113.28907899999999,-1.058671766261473,-6.454607680069641,90.68894728446386,-0.07338358706237767,-0.1736206357784397,0.05993627037295044,0.02600187638948411,0.040312528080644464,0.028083421962336798,nm,0.0
113.29853,-0.7601707750184461,-6.492008527458439,90.76833172678964,0.0011926628803309398,-0.19256671029468256,0.08349956201246608,0.018416583654570315,0.06651592977676958,0.01866050776736306,nm,0.0
113.336536,0.7221201281091214,-5.697238604704697,91.49182983284201,0.2215123457247805,-0.0830643643869182,0.15051302362290483,-0.04013450786378681,0.06936644532905135,0.06481812659689633,nm,0.0
113.34605199999999,0.9415642955615869,-5.405820918815781,91.85824002511522,0.21326664955805713,-0.009989592547797476,0.17858837268896685,-0.04820606849914855,0.049218426377999475,0.07316354661696362,nm,0.0
113.35557800000001,1.0109499770139447,-5.16020808850466,92.2037380923793,0.20543771561104152,0.03063903814756626,0.09931926388190672,-0.03828882591184361,0.019339895423401712,0.06596138856712444,nm,0.0
113.36508900000001,0.9517118993440066,-5.02634904875749,92.46705936703528,0.1807602587360942,0.06289040673776164,0.09780764987310249,0.0,0.0,0.0,nm,0.0
113.37459100000001,0.7668562841409662,-4.985426800117529,92.61907325234016,0.15224284390852036,0.052286408888635144,0.08405777176080306,0.0,0.0,0.0,nm,0.0
113.38409999999999,0.4909729914207153,-5.012664322846217,92.67063413098337,0.13045821059447152,0.0023098000033883407,0.04299716758632752,0.01932912700647696,-0.047395156060426304,0.0011049826443729823,nm,0.0
113.40320299999999,-0.3134419765787765,-5.075942479135422,92.65792851432617,0.05144909216608712,-0.09144279530919332,0.05507970270614084,0.0387722870955723,-0.061387478228200586,-0.013702447802249633,nm,0.0
113.412709,-0.725769170949964,-5.030425230334879,92.67994208520565,0.035611539827287035,-0.11592904797720073,0.04216115066690102,0.030791230454496603,-0.06770596492273916,-0.006932880428497864,nm,0.0
113.45074600000001,-1.6714470409479691,-4.452049070525738,93.22149102992381,-0.04729550632403375,-0.002554568953043829,-0.001377945869574051,0.0,0.0,0.0,nm,0.0
113.460271,-1.7663829710227579,-4.3935826535320714,93.35800205653662,-0.029179905740420432,0.06438803737909374,0.004285635788790772,0.0,0.0,0.0,nm,0.0
113.46976599999999,-1.8062128628630814,-4.4318732809170065,93.45708283489726,-0.004970836247261338,0.095557013355778,-0.01804104693582704,0.0,0.0,0.0,nm,0.0
113.479289,-1.848435247517931,-4.520831061905391,93.52478760877064,-0.007608296571490985,0.10348064289053902,0.04649374539672228,0.0,0.0,0.0,nm,0.0
113.488789,-1.9188788094181104,-4.604560956816511,93.5831561227365,0.0202839654638083,0.09075422149535631,0.07325433826437949,0.0,0.0,0.0,nm,0.0
113.498242,-2.0113122505647345,-4.594735334213123,93.65804989307958,0.025998609511009022,0.07026535759013772,0.130838840176649,0.0,0.0,0.0,nm,0.0
113.50775300000001,-2.199305636853372,-4.569321795175449,93.77176602563179,0.03155359188209815,0.054420902332894344,0.12278136910396342,0.0,0.0,0.0,nm,0.0
113.517268,-2.4718451150038745,-4.505710671586884,93.92925471921538,0.018704374127329393,0.04141239470901376,0.10382163135072477,0.0023691860719355856,-0.047630309704901716,0.023358736469793192,nm,0.0
113.526768,-2.815657544354948,-4.399240694922835,94.1165100941537,-0.00767940014890287,0.03412793115560554,0.10890135597399518,-0.0050250806987775665,-0.062433103758272,0.02834909905588407,nm,0.0
113.55535599999999,-3.863778736885669,-4.099929380361846,94.57114375223327,-0.10449361696866474,0.04997993809629432,-0.0026151031368049278,-0.009621838733844191,-0.08302049013081812,0.012705541853788627,nm,0.0
113.56486699999999,-4.155277168494537,-4.037208909250337,94.61933423413083,-0.13424002015582176,0.08928899169376407,-0.002176873578175656,-0.015456768092149518,-0.0808449126447312,0.0019103259740530425,nm,0.0
113.574377,-4.40661167193934,-4.028214085025873,94.63608671399749,-0.1446760810736677,0.12664210629150963,-0.034036854233052,-0.015041112797173673,-0.07545790424197787,-0.0037591875001186806,nm,0.0
113.583901,-4.5834720229037575,-4.126677561449179,94.66218737145057,-0.15829181777802223,0.15287151417501715,-0.05219593108571054,-0.0012308416496991461,-0.06249339977962654,-0.0008393790746498601,nm,0.0
113.59339800000001,-4.6837269344278605,-4.309684830515275,94.72474237951052,-0.16683280950821802,0.16406495702694723,-0.037030418306043734,0.0,0.0,0.0,nm,0.0
113.60290800000001,-4.69370630726931,-4.481517502681225,94.82524226044735,-0.16298808356750744,0.12699243949360334,-0.044753348816865816,0.0,0.0,0.0,nm,0.0
113.621947,-4.432927761760664,-4.773001999490609,95.05335502919972,-0.14108302753327606,0.024774826130060938,-0.007664708951893862,0.0,0.0,0.0,nm,0.0
113.64096799999999,-3.936434405249208,-4.919155683844941,95.12055990000525,-0.09566351676644827,-0.008003636258586168,-0.006581355094997613,0.0,0.0,0.0,nm,0.0
113.65996999999999,-3.437554679181265,-5.016551871154756,95.02278635733188,0.0,0.0,0.0,0.012845538187278238,0.05627912864848432,-0.010320937014681716,nm,0.0
113.66947400000001,-3.190652653984543,-5.054437115363171,94.98349310825613,-0.0035865787023901426,0.041131260429881654,0.0036517048032114682,0.005067229968344992,0.058807863663860205,-0.0071489384975100285,nm,0.0
113.688493,-2.7479035673954777,-5.080276683766762,95.03571290072948,0.046378522777230334,0.038040240335272514,0.005393906829985549,-0.0012188845412999575,0.06449470562147386,0.010354335287073538,nm,0.0
113.698004,-2.5447936801544215,-5.087418997976433,95.11560226315994,0.05882811099522669,0.049444969993612815,-0.06908527667585122,-0.0026848247898113658,0.062266744844109254,0.015846678799554374,nm,0.0
113.70751999999999,-2.3772446356457304,-5.153185346608337,95.21253131214004,0.0719602336374334,0.1105851788493296,-0.07877985980238242,-0.005174964778257295,0.059495197935441495,0.018651003148535624,nm,0.0
113.717038,-2.224340758964128,-5.27193675802777,95.32911667286767,0.07203756241354585,0.14736939782634262,-0.013649242882626493,-0.0008430809885185049,0.05643715928325351,0.02236913124551916,nm,0.0
113.72654700000001,-2.14973946231655,-5.531760204883263,95.47444024319644,0.08279137704021701,0.173690756443816,0.019713034461537052,0.025385358400544338,0.0448749605586409,0.026771927968527766,nm,0.0
113.735995,-2.0591189265458962,-5.776918436193216,95.63580370851652,0.09408421846743972,0.15945050187220366,0.11651647770695946,0.05826908135009176,0.0306580525521799,0.03030564706265104,nm,0.0
113.745498,-2.0639728552485095,-6.13242746792608,95.80507652455847,0.0870094196848046,0.08106499361681963,0.14467784224144362,0.08206151934883031,0.014122438962459773,0.030043464527637002,nm,0.0
113.755022,-2.209160795879815,-6.571816139053579,95.95129676024368,0.0679737284398087,-0.009944680384567146,0.14703123948767619,0.10160120456217679,-0.011689159266094177,0.022395300472713247,nm,0.0
113.76453599999999,-2.510984471150232,-7.069687897302639,96.03946181392725,0.03839822893900837,-0.15007573064344046,0.10496202487030479,0.11654631353439375,-0.04118410271511289,0.006930352256964689,nm,0.0
113.783603,-3.3199189589919778,-7.685284328108967,95.91849799507183,-0.04785300363257076,-0.29903002899654707,0.03985988237204134,0.10548504710757181,-0.07524277693588118,-0.03725667195708153,nm,0.0
113.79311799999999,-3.609547060200293,-7.718003631850639,95.6889571671097,-0.08829788909589037,-0.29316024582836514,0.006718936771046639,0.08639231900448216,-0.06756101074127377,-0.05682195754202283,nm,0.0
113.802629,-3.7567918382416536,-7.703923106317233,95.3803787798206,-0.12764678558241985,-0.2428347804949802,-0.002183018266239654,0.06404435268273667,-0.04929338218581601,-0.06887860735298339,nm,0.0
113.812142,-3.7804171750919204,-7.664535240358483,95.03939374508464,-0.12950669166396916,-0.1579212255382978,-0.029165193667735005,0.03956725757679243,-0.027122151857361557,-0.07209598154762954,nm,0.0
113.82164700000001,-3.63412624818098,-7.619160525204491,94.72125073598569,-0.1235650683671215,-0.06747341917499397,-0.01588158507812108,0.014637273175877404,0.007918199683270517,-0.06304904501667698,nm,0.0
113.83115799999999,-3.3333047574852115,-7.551099801771541,94.46694143213294,-0.11451392434847885,-0.008064683571097311,-0.0066279626214837415,-0.0038242452704110477,0.04103777972480514,-0.046269095153196695,nm,0.0
113.84068300000001,-2.960585263016852,-7.4939451555741075,94.29602089463069,-0.0735764185679617,-0.009406467278142332,0.029407942374069268,-0.008193079897961107,0.06450498934580556,-0.027828188740073343,nm,0.0
113.87862899999999,-0.9799948351017231,-7.257965851235063,93.97019018303983,0.15675075383930367,-0.04413578380346553,0.1395883561732981,-0.0062198989535822615,0.10636261811732693,-0.007635281489250592,nm,0.0
113.88814400000001,-0.5915463748496136,-7.2210837372676595,93.89764554519547,0.20398960118263407,-0.00531528199588755,0.15129080859449426,-0.0013979413704978615,0.08418962414147758,-0.008640204106483439,nm,0.0
113.89765,-0.3705053424466323,-7.2026940065367695,93.87577209735765,0.22301347831682952,-0.005495877148055237,0.162668242658853,0.004597898447130503,0.0512737973378057,-0.0027880386331277265,nm,0.0
113.907152,-0.3783543104630254,-7.226262617961068,93.94410286819279,0.18248385946842838,-0.009668173412913468,0.17506280867920482,0.0,0.0,0.0,nm,0.0
113.916674,-0.652510739634618,-7.315254817558588,94.11841740484805,0.11122550898656189,-0.059051976242570844,0.1954243831546939,0.03284376531475463,-0.045307890714877896,0.024056654940606,nm,0.0
113.926175,-1.1317007596733282,-7.468172840122801,94.38900074940587,0.006595307726212746,-0.1474667513775716,0.22109123584773746,0.04883679527093513,-0.08480958785455575,0.03805226648969715,nm,0.0
113.935679,-1.755469902320395,-7.667725364453417,94.71546850626495,-0.15272927455544832,-0.2536154200178726,0.22074577541733365,0.06090796567557592,-0.1123777140851177,0.04528639528268209,nm,0.0
113.954715,-3.3964220830254943,-8.115237783070844,95.3532108853096,-0.06844356171690438,-0.2726163818801873,-0.19405724842497632,0.07101316032514583,-0.15488891052694861,0.03503828715407713,nm,0.0
113.964234,-3.6024054231436184,-8.369124095156682,95.68594040896443,-0.2530051465257004,-0.3153548028651311,-0.01988330457050945,0.06578302857974759,-0.027670422507673192,0.05754189256612758,nm,0.0
113.97371999999999,-3.72192047281386,-8.664132029821065,96.0081943419636,-0.4540006567885549,-0.32082406020344745,0.4028213290851151,0.07239260174002393,-0.009379198341690247,0.05787412918436889,nm,0.0
113.983236,-4.122508108437514,-8.84977210176789,96.27120474261247,-0.23691189697061077,-0.10028531841198124,0.13366860262478186,0.05664498456968909,-0.06665126418430813,0.03744956409432422,nm,0.0
113.992752,-3.979692635949481,-8.888813807967459,96.51479306709278,-0.09626577431929163,0.0028708216355308094,-0.0880750812787235,0.015782387542285125,0.03720367692530599,0.05015882899411298,nm,0.0
