timestamp,roll,pitch,yaw,acc_x,acc_y,acc_z,gyro_x,gyro_y,gyro_z,markers,motor_input
105.50002900000001,-23.06728966973072,-55.274281544059555,119.04051066989831,0.2316716148759441,-0.09917430789918893,0.138041140167197,-0.044285158648767295,0.026051297161252603,0.019728590784626385,nm,0.0
105.50952899999999,-23.164405921364672,-54.96591272459898,119.21095581459244,0.2113892332428999,-0.0043656505984984405,0.17414704436926987,-0.03921114455368218,-0.030469056675857652,0.0234527656197856,nm,0.0
105.51903999999999,-23.56798972502603,-54.6355448631094,119.67983091542563,0.18974618752849273,0.04081727450766631,0.13736194344832683,-0.02544975462958823,-0.06373958963166734,0.03313666152415069,nm,0.0
105.528558,-24.041295844928722,-54.33988930939088,120.21003383361665,0.20084395195907132,0.10096171849670495,0.09778802063551353,-0.01461690069098642,-0.06787032173863107,0.03434741400016819,nm,0.0
105.53807699999999,-24.312991994650716,-54.10112321504858,120.55905395209577,0.22220776188755453,0.19466744138031858,0.05159173183352207,-0.015995768555207717,-0.04220939062234555,0.031113435838754967,nm,0.0
105.557088,-24.141830077643167,-54.13200675875037,120.58283276023973,0.29691191223526864,0.39561350599999595,0.09431246326993352,0.0,0.0,0.0,nm,0.0
105.57609099999999,-23.597166327618826,-54.96078373608865,120.6716897992733,0.5661485043669631,0.37527564345847325,0.1868499862155855,0.074752346858303,0.08865808336700305,0.08375644441458895,nm,0.0
105.59510900000001,-23.005288437572727,-56.08290934185666,121.9528152054627,0.8632235646088819,0.16423131951373676,0.0642557504822511,0.09036018504720665,0.09632305474585516,0.21240485035697096,nm,0.0
105.633159,-20.212179782534033,-57.929045299804656,125.01480280432598,1.341470517302187,-0.21325732709438483,-0.1060690392250203,-0.009595544708372573,0.14795879805306883,0.27217586556557244,nm,0.0
105.64268200000001,-18.910280606971178,-58.22065722237893,125.04070432092226,1.367121450363322,-0.1954787293334073,-0.10872656705945768,-0.023266113352071335,0.1570277778928218,0.23148463635242936,nm,0.0
105.65218200000001,-17.657213639983354,-58.57746418073229,124.86524754308567,1.3504372628575623,-0.12876755723283118,-0.019628003605165822,-0.008817050863652667,0.15944342595585614,0.18350589831569572,nm,0.0
105.661701,-16.59229795795146,-58.96486067012342,124.61405954802439,1.3023065455702125,-0.20248417521380072,0.10080950731568876,0.008634882703933802,0.1458892382274127,0.13688675716030932,nm,0.0
105.671209,-15.909945093956116,-59.36361962046165,124.39804879285057,1.1637946252418403,-0.2013727963997126,0.10472806207753294,0.03399078435659053,0.11382101612988338,0.07885128827527843,nm,0.0
105.68070700000001,-15.748023059399225,-59.830783294093855,124.26421925700419,1.0015217712628932,-0.3224190477896643,0.10680889783339922,0.07589898858896867,0.07715484299803753,0.005958245938934729,nm,0.0
105.69023100000001,-16.05501536088698,-60.262923917115714,124.05564013666542,0.7229954738316227,-0.3844063052687274,0.05094764468801164,0.0968439170948579,0.03392448539335035,-0.09018004170261895,nm,0.0
105.71874600000001,-18.496589518775195,-60.4301216929339,120.22675155075486,-0.2482612607657739,-0.5082386299735904,0.10499958903133774,0.043654148503898114,-0.08689532782897201,-0.5651673988764093,nm,0.0
105.737762,-22.22265373710973,-59.888034513600566,115.0516965445056,-0.9111356041302486,0.3409523106983524,0.3624113679050866,0.05579900452312987,-0.22329147963227094,-0.923375067581746,nm,0.0
105.747285,-25.512007250808654,-59.584947577662355,112.66611427844092,-1.4846442045728343,0.47817287317913515,0.6084740085589216,0.08947179132097555,-0.32103167790454035,-1.04071077686721,nm,0.0
105.76630499999999,-36.80218516423462,-59.91679242652701,108.50202641394122,-2.688379333280382,0.752583368261613,1.0877286061944116,0.29410529058252993,-0.573168416139823,-1.5102881310876322,nm,0.0
105.77562599999999,-42.8912144007989,-60.59625353151373,105.93708369217853,-3.1327734714796125,0.9558346803420033,0.8497222492637513,0.3207412575970723,-0.5353776600278365,-1.5644003443727679,nm,0.0
105.78514100000001,-49.226449948475704,-61.93028324262671,103.68541168206501,-3.20678258471104,1.1590689220824693,0.45966453886967396,0.425690782792707,-0.5210723507385222,-1.554793344761186,nm,0.0
105.794645,-56.413471941071336,-63.70795650225274,102.85419602300995,-3.0454034530438605,1.2553269560388207,0.14462065559386172,0.5082486213152875,-0.5594841912149263,-1.437840972091241,nm,0.0
105.81366700000001,-72.0571523939614,-65.62852811587888,104.64963991266313,-2.1613624486086764,1.6142124901439805,-0.8441537699865495,0.2695604553124722,-0.6186269522876896,-1.1802261757650778,nm,0.0
105.82318799999999,-79.00169146230917,-65.24592133747659,106.26202973034614,-1.1482712141794449,1.662298830785661,-1.1888557008246794,0.08892002068462163,-0.5819678189414726,-0.9317523364011527,nm,0.0
105.83269000000001,-83.43931246812546,-64.22995926114204,107.59804328105099,-0.5894440131644219,1.7356498806675151,-1.4643886540344162,-0.07613890497330554,-0.42686380491114734,-0.5255541749705441,nm,0.0
105.84221299999999,-85.03158092269224,-63.028100361366576,108.050880606775,-0.020215957061763604,1.666841821963299,-1.6376490361927085,-0.17809151117746005,-0.21344582822795352,-0.18417334593700344,nm,0.0
105.861222,-80.7225651513476,-61.42551492708967,108.57507592974585,0.5335351808770225,1.11832496836761,-1.4754937291557084,-0.20812797994061447,0.2654049193831222,0.6870674732040214,nm,0.0
105.87083000000001,-74.81527992171297,-61.23066823254946,108.68745359372006,-0.03858631401533772,0.4395657367144966,-1.2656239538263088,-0.20906723684949433,0.5223965983965493,1.0706962213502493,nm,0.0
105.880256,-66.16074651357631,-61.19597081904955,107.97300353669985,-0.029061347499620253,-0.3062412317803217,-1.0871650047374606,-0.2588354202659112,0.7883113097387644,1.3856362851177089,nm,0.0
105.88975500000001,-54.68224225264863,-61.06336413762796,106.77551338416676,-0.7522778052764058,-1.5174027074735659,-0.8224524496842353,-0.3454635271758814,1.051300421018709,1.7821621029629247,nm,0.0
105.908782,-28.758260410641046,-60.38914599236969,104.370202427472,0.5278805945670305,-3.6354900339147056,0.5723289915373532,-0.40601051148834477,1.2312198971131043,2.0692659349463103,nm,0.0
105.91827900000001,-15.238531100037639,-59.74445854514844,103.63762433294745,1.5684045346478472,-3.7935831764447308,1.0442732104336492,-0.44044009478390334,1.2869675514774317,2.2046267595765605,nm,0.0
105.927805,-2.6010299587347463,-59.089001696501015,103.57642135882338,2.537578878172514,-3.1438843939117618,1.2386363624287695,-0.420109960561697,1.230408878999442,2.1698557886908385,nm,0.0
105.94681600000001,16.024926754027828,-58.24603061010928,105.98025847700852,3.239954907207091,-1.2886691569479554,0.9112208253771559,-0.2747077175261778,0.8036456590998962,1.694146588168332,nm,0.0
105.95632599999999,20.728031005173968,-58.349778249642156,108.30513752448167,3.0865638612843767,-0.3810849909044068,0.3727713127920464,-0.12076548239407565,0.4924607863061646,1.2675999876908424,nm,0.0
105.965846,22.357740180055547,-58.906757024383396,110.94317902520423,2.5792306196607364,0.2845097935968157,-0.03281861371329418,0.05241869805918797,0.21112016720023324,0.8076920257430362,nm,0.0
105.97535500000001,21.174138582386682,-59.38674333889956,113.83409226693625,2.186301509362798,0.36008381584366644,-0.056779827585346464,0.13913627042647037,-0.062071669473748405,0.37632485971544805,nm,0.0
105.98486199999999,17.557751337110176,-59.203061728967064,116.68604069433943,1.6248192437130207,0.3883004460821722,-0.1538966010768589,0.12848343175888438,-0.33643845736367456,-0.050574153752496125,nm,0.0
105.99454700000001,12.893802724568713,-58.34173236784555,118.71177210657777,0.98551124337332,0.34025453235566006,-0.03770653182998983,0.07677521415235304,-0.49536022507569355,-0.39180962386642776,nm,0.0
106.00406000000001,8.146416464985265,-56.994224692756255,119.39043705951264,0.17851498822588063,0.30188296468523196,0.19025918196502226,0.016193652151969044,-0.5623444680809537,-0.6658647668047644,nm,0.0
106.013575,3.2256543501433366,-55.258758046655494,118.7830832720252,-0.5948300007883246,0.4554028544282499,0.4527091992539143,-0.0304988504452687,-0.6363063229789886,-0.9378494362258156,nm,0.0
106.023086,-2.2310650701188686,-53.40621867396767,117.26811386095096,-1.233539094675475,0.347792186050199,0.7424220548388466,-0.020680792644858628,-0.7249384597542385,-1.1886623842868496,nm,0.0
106.032587,-8.53582817362998,-52.067518734899636,115.27968913160073,-1.586624192387787,1.340109814815732,0.6948277864419615,0.10668971089201373,-0.7934130624580916,-1.3997408517407675,nm,0.0
106.05162100000001,-21.09561731222539,-50.01190267514947,111.4804441391723,-2.784199543375837,1.5495331299610073,1.2330023492965718,0.14467095336883828,-0.8274314824159614,-1.3653279149471693,nm,0.0
106.060937,-28.104397149718114,-49.83171761600581,110.24629340989044,-2.3472373252902283,2.253927128373901,0.5294552558890978,0.2989469470277395,-0.8500940226586279,-1.3152602954935377,nm,0.0
106.070445,-34.443445269392406,-50.537239704501545,110.14839242459699,-2.3348542503637018,1.8304639683138708,0.5035478115285253,0.42408172349886575,-0.7079403879295336,-0.9880729798408568,nm,0.0
106.07995500000001,-40.10451295356048,-51.18958163499944,110.81052508125217,-2.199820288416978,1.5309353622585071,0.23097080327909147,0.38357133650088476,-0.6193032656199907,-0.7394309433405486,nm,0.0
106.08947599999999,-45.08851823346406,-51.12332631042958,111.97423125970151,-1.5657559518495676,1.449567410882469,-0.500853692519925,0.22675478040979696,-0.5829788497531816,-0.5364190468978822,nm,0.0
106.09899200000001,-49.30267490800882,-50.53872197883424,113.99519208985996,-1.192714145579547,1.1812000320107445,-1.2315551733923988,0.11088554310338401,-0.5319464644780925,-0.24118530458984835,nm,0.0
106.156226,-24.00129745106091,-53.043331492664876,111.88123941625274,0.08463413464580397,-2.3049660551812594,0.8148197551583773,-0.26292446630838723,1.3768860579142883,1.1591291437860047,nm,0.0
106.165726,-12.376130720795624,-53.659285405810664,108.59014774456243,1.1863072620640307,-2.325281030500957,1.4116803132691735,-0.354978604144404,1.354715113892681,1.2136340042293072,nm,0.0
106.17523499999999,-1.6803333358641046,-53.76313374089947,106.6438031809804,2.205134841534305,-1.8825820514916762,1.4041764039658502,-0.354530738572718,1.2245619270571104,1.3397641190864809,nm,0.0
106.184755,7.0542801571424585,-54.02922261353079,106.83447752202896,2.7939809999852323,-1.702783667346915,1.4178658103444832,-0.23794630258954172,1.0140844850262003,1.4529565464702898,nm,0.0
106.203607,15.471593483104497,-55.79570397604121,112.33884035238574,2.9050213523089865,-0.7619512955959478,-0.08098160766573233,0.10085648592260009,0.38718464074089576,1.126482837623643,nm,0.0
106.21311299999999,16.050477762846683,-57.09632445434671,115.83301582617774,2.6743414113697876,-0.7454992065486954,-0.39381919499046664,0.2161475491220706,0.1784189924402162,0.7972837157777459,nm,0.0
106.22261800000001,14.692676767976591,-57.92390114337367,118.74669042007922,2.239341767663394,-0.5547086320563123,-0.5165372747452658,0.2182964736383627,-0.04015512729600146,0.35531670193952997,nm,0.0
106.232123,12.132915261130785,-57.78817128401525,120.71761613189746,1.638230235995813,-0.30568310900665463,-0.4553114796776787,0.11570123940781964,-0.23672638693450715,-0.03799666597679249,nm,0.0
106.25133,5.675238721132584,-55.53861420629507,121.45553299550798,0.07732255265095919,0.2501631759511108,0.1565636754980983,-0.014640125874654752,-0.45087235648663165,-0.5959295943020223,nm,0.0
106.270342,-2.828587084908536,-53.484779833385566,120.47087385215833,-1.0214671955447057,0.7570271609699505,0.6503927166610179,0.12736485824200314,-0.5387127135528265,-0.8187256063329421,nm,0.0
106.289364,-14.221595519286806,-51.93803517825126,120.79672041464622,-1.9543049607211171,1.3281663557192533,0.5937264518823948,0.23583658909801095,-0.688389983586166,-0.8606304083464825,nm,0.0
106.29870299999999,-20.160363680024126,-51.248653779755784,120.99100210730481,-2.434122182768785,1.3670179198250552,0.5850260012887242,0.2695650903811836,-0.6945164355415834,-0.8884825674255276,nm,0.0
106.317737,-30.29825216913506,-51.201737704565794,119.64312528863631,-2.4689328425262134,1.6697272133368648,0.11772984610780868,0.34816308693125103,-0.4607798729331333,-0.8977859485601435,nm,0.0
106.327238,-34.066094580986515,-52.23022084511738,118.59891348926509,-2.2500873631839866,1.6438235064424735,0.04145971509340446,0.4174435295544595,-0.30061665627277423,-0.794691789774002,nm,0.0
106.34625399999999,-39.58463703724736,-54.12333051413046,117.98215870303751,-1.5559270094987354,1.2612927805733194,-0.212888342202555,0.2687064821614977,-0.18453736131378812,-0.3713734324610669,nm,0.0
106.35576,-42.021224074236464,-54.22327652636082,119.3087318117444,-1.2800969705585368,0.9229620815151086,-0.5877497132433341,0.1647570386452825,-0.23485334308492842,-0.12241889050397121,nm,0.0
106.384308,-41.0168476810565,-53.26010421144844,124.82036668959329,-0.17843912923433763,-0.9227556406929184,-1.1303601778220291,-0.2113811801902295,0.27802781137685606,0.7157842272017108,nm,0.0
106.393813,-35.320620594257676,-53.99352984728764,124.86363468560997,0.2603389195460313,-1.5761111820280855,-0.8187681132480104,-0.25671984423796324,0.6473857853492997,0.9339329021183982,nm,0.0
106.403336,-26.59291709043831,-55.4718139888806,123.34063139262992,0.5874327181022734,-2.635690671502411,-0.13413742943711068,-0.3120267972842652,1.0104269142699123,1.1281775855842904,nm,0.0
106.412824,-15.83546376864922,-56.83589542915818,120.00523107752247,1.5164742977880468,-2.992625157021894,0.5736594536034841,-0.38933334740112147,1.1738196342345655,1.1268112763611202,nm,0.0
106.422339,-4.559641048214296,-57.29675527418618,115.93447071532965,2.672222679701146,-2.5218410452199596,0.7099344875885395,-0.4861695847223487,1.1378000613604287,1.0844533052477672,nm,0.0
106.431849,5.442347112878634,-57.025666629971944,113.09153285493427,3.2970610927294888,-1.9053001844728163,0.7251346941879503,-0.4926713036774242,0.9774581497299184,1.1163910051680994,nm,0.0
106.441363,12.209453423300795,-56.52720320302689,112.69564351820655,3.4789252596793547,-1.264964226182473,0.5586805441817614,-0.37479957243847534,0.6580541927096855,1.0557781013426029,nm,0.0
106.450875,14.822467900858744,-56.31385852279956,114.85258722625505,3.1972076875643367,-0.48719627893571493,0.21748930403584735,-0.15091486876730023,0.26104378444462806,0.868771311607583,nm,0.0
106.479322,4.501609891693092,-56.86175456172549,129.1915588345476,1.4666793136104648,-0.3976986046131158,-0.15306144547885597,0.3494212267283818,-0.4707996105551099,0.09119415930025516,nm,0.0
106.48900900000001,-0.9189204715022061,-56.20219554851277,132.6301916962373,0.7816385484458667,-0.4537561130116351,-0.27316166165143313,0.2957468029010128,-0.5251707496044596,-0.21475176247762692,nm,0.0
106.498602,-5.311932909413885,-55.233921098154205,133.7364711234649,0.10239062608098086,-0.3337891752557401,-0.26708453755136696,0.20181996190422385,-0.48068460764969984,-0.5025009838046048,nm,0.0
