timestamp,roll,pitch,yaw,acc_x,acc_y,acc_z,gyro_x,gyro_y,gyro_z,markers,motor_input
121.00186199999999,-24.86094737904764,-32.42196647439596,72.15419166920624,-0.42807736396681595,-0.404987989521667,0.3963105404535564,0.18627404587531055,0.20031784005177505,0.004776611796650246,nm,0.0
121.011368,-23.782760811650938,-32.879520540525476,71.29541998919791,-0.4870232288000765,-0.773445871084025,0.4021879901892972,0.1576835967810584,0.14474987632619168,-0.05177805393876349,nm,0.0
121.02089000000001,-22.73147501199279,-33.09591873982241,70.68322565851204,-0.7143078468748981,-1.15256097344524,0.6325300533736818,0.11221850130338597,0.15365970421775774,-0.0044489227665676714,nm,0.0
121.039908,-21.08532082916289,-33.19620508837977,71.17936250023268,-1.3814383703210982,-1.8324567863120564,0.7939809383860346,0.055659503702409144,0.07934301277578205,0.17387387121698056,nm,0.0
121.04941500000001,-20.99734635971705,-33.50996037908867,72.25737700291124,-1.584291526914629,-2.247222730060752,0.7039273522267906,0.07805793292538647,-0.004329340844655098,0.22876122409037217,nm,0.0
121.08728500000001,-25.620622959418892,-35.79076423314085,74.90163060445047,-0.8516940774969181,-1.364289374289864,-0.720857388749331,0.03479757654114524,-0.28678165312462306,-0.17824803117149118,nm,0.0
121.0968,-27.604560098220727,-36.05043580308117,74.79728350084012,-0.29023747799619265,-0.5920334501900064,-0.8080757963231475,-0.020518581738378377,-0.3231037582245203,-0.24931344209894718,nm,0.0
121.106483,-29.626102325699932,-35.93635651273363,74.75372135582484,0.05224967160208683,0.07843292587420461,-0.7439199263970565,-0.09478150048766908,-0.3092379197299081,-0.2416287479169553,nm,0.0
121.11580900000001,-31.669895822540308,-35.38555804239476,74.8780301441403,0.18507325338645975,0.5848926126094766,-0.6815759080976105,-0.18038023076858842,-0.2913851982322408,-0.20838784200181845,nm,0.0
121.134829,-35.559747931359475,-33.44026251856622,75.44606874845434,0.9185293641815347,1.0004620356238236,-0.9678670799487646,-0.26246937581887175,-0.21767299223754427,-0.12168406500137506,nm,0.0
121.14434399999999,-36.11782959061508,-32.321701846244736,75.57333507177928,0.47205299457346506,1.0558023292590748,-0.8046633968309813,-0.2274568136277323,-0.03420105738091483,-0.029271842578565983,nm,0.0
121.16336000000001,-35.013750006996325,-30.195962044799007,74.490050619144,0.943171774849649,1.3753221296895077,-0.4251369394124114,-0.13893554132306352,0.22857416201385103,-0.04021427811739424,nm,0.0
121.17286999999999,-32.73312063176321,-29.221507776784893,73.5241344717063,1.2318635105905142,1.8523896851057589,0.019859232474318495,-0.06504425055475846,0.435802916879763,0.038018071392425676,nm,0.0
121.18256099999999,-29.931428839425475,-28.335207582999722,72.77830432426707,1.0017759041241179,2.3412418370691004,0.8454827890966099,-0.013860894029064633,0.5229518331499744,0.12523668139466287,nm,0.0
121.201573,-25.956745586344333,-26.835955670900123,73.61530664032564,1.1401066026727453,2.2165638162910226,1.3008214885279237,-0.027819833091529272,0.3364451403420606,0.3437514615360767,nm,0.0
121.211093,-25.26279803766045,-26.63218809973931,75.11517961344492,0.5994009254530909,1.4402044218710892,1.168838229141181,0.007823860258526754,0.1325373437688031,0.3662044495049724,nm,0.0
121.22058899999999,-24.995504290291425,-26.90819228354399,76.2058228457582,0.4800805615363512,0.4120240400668757,0.5419828096923203,0.07901476894060469,0.034896861209556006,0.24583894417036617,nm,0.0
121.230121,-23.670668409363717,-27.908723916341135,76.29819132573743,0.0010483378779143297,-0.2880425449785143,0.5278724852996863,0.26422063038950977,0.18352538873287572,0.14381305060463515,nm,0.0
121.23961700000001,-21.858691478413423,-29.51427241014124,75.30786476472713,-0.7275459519793892,-0.9648156801878003,0.6821736304720994,0.40340870511041177,0.23189447186326617,-0.020944128099194034,nm,0.0
121.249132,-20.454942015269225,-31.508355586343598,73.63262585176845,-0.4308151153109188,-1.204175047122257,0.5849897932438571,0.46332068688374456,0.12829819644195598,-0.18971889430006683,nm,0.0
121.29649599999999,-24.117648364744888,-37.14618997851047,75.1932122841261,-1.9883343843609569,-2.6844452854810923,-0.6149448332353777,-0.06441534186456899,-0.42745323672030894,0.05867568327728003,nm,0.0
121.31553199999999,-28.16389666389589,-36.47689997349627,77.05021772861048,-1.4283929650930605,-1.6711692425666156,-1.2254294878585839,-0.1147547427731067,-0.20586998013099123,-0.07370830123353347,nm,0.0
121.325077,-29.243530652559457,-36.11622572660977,76.36890786352686,-0.7397257464907234,-0.7188725452471986,-1.1300768623078896,-0.09710455191568729,-0.15178812112623688,-0.2594501716276566,nm,0.0
121.33454599999999,-29.74379154063289,-35.75689430307136,74.90878996743794,0.12868682459523526,0.20864243921405282,-0.8683707810916058,-0.07659711788478968,-0.05991849693067197,-0.34614006459550273,nm,0.0
121.34409199999999,-29.659034950951845,-35.34707122500039,73.35918113390952,0.38797063043443875,0.8896555966587989,-0.4475849287827042,-0.06190468513156991,0.036214988717528485,-0.29544274429482226,nm,0.0
121.35356200000001,-29.7313621408729,-34.75839997285563,72.2364818923466,0.983469316368179,1.4835383184879543,-0.1554359717445421,-0.10282878564548402,0.023820122068168033,-0.2281826874900666,nm,0.0
121.36308299999999,-29.555658306782284,-33.593855147160696,71.68106693443663,1.390771433577776,1.753521972881291,0.005222758635381983,-0.19938046603314993,0.1001782818661599,-0.08663429801179813,nm,0.0
121.37259499999999,-28.790683564117497,-31.98195908835823,71.87200224174343,1.0368474175110558,1.933761482282561,0.2615986808908693,-0.25287668154684473,0.2238046478754015,0.12571998125060913,nm,0.0
121.391785,-27.24522447639503,-29.033820951780985,73.85749860224952,1.155830530606186,2.122938609143722,0.710835737208533,-0.20539535855501845,0.2207588921074577,0.32204931387857305,nm,0.0
121.401297,-26.30194437743629,-28.122722037536327,75.01243115604896,1.2076779175447614,2.1223749446992253,0.7623170507497118,-0.11764373385500856,0.21056224302738108,0.32532317445674985,nm,0.0
121.43934999999999,-24.517397467428314,-30.674084077821256,75.96545040410263,1.0293644490935125,0.5046409975347996,0.1723013574105202,0.25413146774274364,-0.030742884560484754,-0.1202138584676602,nm,0.0
121.44885300000001,-23.39519566954228,-32.06856800985836,74.83254780805532,0.2740672958052703,0.03542887972994779,0.5128411423525537,0.33221485820839325,0.11707650043895466,-0.10629213528209161,nm,0.0
121.45836,-22.768730098012533,-33.43966670959055,73.71914572642146,0.06325810317811881,-0.3346004797579873,0.522930163721935,0.3065405053173,0.028666552509539662,-0.1514947281071816,nm,0.0
121.46787699999999,-22.788646442411668,-34.56561625502942,73.15048858510535,0.14584223870579702,-0.6168591088243562,0.32437929450939706,0.22883309413078262,-0.06613367063397575,-0.11242707738726171,nm,0.0
121.47738000000001,-23.160732940443545,-35.39346476657013,73.507129893055,-0.6592838214246329,-1.0295972272497176,0.37138108299257,0.1549317929287468,-0.10471994911821088,0.03249298623985048,nm,0.0
121.486896,-24.687704791592896,-36.13968124863398,74.79685169114394,-1.1508376752058331,-1.461715202404627,0.0823732015066146,0.08953362687374072,-0.27807388369107267,0.08363929556955287,nm,0.0
121.496218,-26.990384407035396,-36.902246869724905,76.68035647862419,-1.607192088553075,-2.0501505047643285,-0.21883675989862564,0.07008388822733383,-0.39523508089290116,0.10728127037155392,nm,0.0
121.505728,-29.357435144118124,-37.542458766479726,78.45506172977313,-1.976238825261312,-2.6322742661260854,-0.6914003820081472,0.057137640468383974,-0.3946029886806924,0.07364869039609681,nm,0.0
121.524746,-32.21867395442686,-38.6483118867188,79.62528973557353,-2.130576692172513,-2.767144287136378,-1.5258760003456158,0.09235381878296661,-0.18355234605884538,-0.10732733613694448,nm,0.0
121.53426200000001,-32.8326585305173,-38.90009405820586,78.57450400484399,-1.4421477447998816,-2.0562545322598984,-1.4805324803218394,0.04431032132371215,-0.10267295966868915,-0.281629299383103,nm,0.0
121.55346399999999,-32.486293810513,-37.82179406239878,75.0036027845701,-0.20374244515776346,-0.10661604686152637,-0.7649544865221386,-0.12589153706268097,0.07334757553798874,-0.3191524417602218,nm,0.0
121.562984,-32.61974598086178,-36.70676858041996,73.80998972755793,0.5961856776862329,0.8215792975084226,-0.41132278665017186,-0.2077683392959522,0.03968373098718392,-0.24958698872446972,nm,0.0
121.57231100000001,-32.60091594270223,-35.12871951875281,73.24159344481068,0.996008960717536,1.5717722136580083,-0.03599272259056131,-0.2890913617930551,0.09272171420366317,-0.10611933313558691,nm,0.0
121.58181099999999,-32.13623615561225,-33.002267872835404,72.99665370294622,1.2962560567819728,2.160821976699379,0.123756342495211,-0.37191349245327776,0.1977845844752989,0.008322895220382162,nm,0.0
121.59132600000001,-31.150003918783167,-30.91494299184095,73.10593573176212,1.3343284494516225,2.448987251695487,0.30223851201252916,-0.3376716692844046,0.2828081491318247,0.13131192284021886,nm,0.0
121.60082600000001,-29.680457821859115,-29.463226003715505,73.49952586783706,1.5169664690357765,2.5966398497870102,0.5309747981601589,-0.19191987693152407,0.3281865207605078,0.23127817704410422,nm,0.0
121.610525,-27.65424682369549,-28.64404616745432,73.9540435711921,1.5637461169124174,2.5083389007603114,0.7314349757449663,-0.0445119640781527,0.38782811683762203,0.2920760280534122,nm,0.0
121.629548,-23.652070705889816,-28.91747115527842,74.91349745042172,1.2195829247751726,1.9209485624168916,1.0387620138297924,0.1832573902002276,0.2831453748897754,0.2745650864559059,nm,0.0
121.64857,-21.72653039255716,-30.37664488149692,74.72129434114086,1.0435299891643957,1.0586682390711983,0.6914833523262588,0.19925792483165924,0.12026710985327933,0.01732277295359624,nm,0.0
121.658083,-20.45587793391423,-31.25118358921192,73.64635955782906,0.6972806048299242,0.6351755089536091,0.5738846395976803,0.2418113167223823,0.16441352893924813,-0.08197108582814074,nm,0.0
121.667586,-18.972095668075752,-32.342880975831775,72.1111024785401,0.5715776435696496,0.2558797725851464,0.5386500100986478,0.2970832638925115,0.17861788300809361,-0.14807619466015007,nm,0.0
121.67709500000001,-17.41673130478682,-33.5230534367751,70.63342137934129,0.07644020758176759,-0.17228370666776,0.8173378968809446,0.3213193934974136,0.1736398256418187,-0.12394114330636616,nm,0.0
121.68661700000001,-16.550997870064982,-34.60164010788513,69.72223759293334,-0.26488140479002514,-0.6291065957822459,0.7745966406014406,0.2658039053256279,0.06312213685090329,-0.08280507933418568,nm,0.0
121.696123,-16.627869694791556,-35.54959854408593,69.76923562784462,-0.6325644445425592,-1.3003159605986023,0.6264025958660995,0.18764156493590906,-0.07630686153939478,0.003206180133030117,nm,0.0
121.705457,-17.43808260061697,-36.51349486283911,70.91468421289167,-1.423094998275215,-2.1890757775111247,0.4880215646385797,0.15149903187213856,-0.18711828952897022,0.13679208899711462,nm,0.0
121.71497,-19.07255094006932,-37.564668702795856,72.82707832466397,-2.1111097005171735,-3.1135549855757656,0.044754149058890115,0.13251575135399216,-0.31220731508975397,0.18901064253696184,nm,0.0
121.75301400000001,-27.002792352407884,-38.68321318242862,75.09509946910619,-1.5529990608425395,-2.095752299144455,-1.217139980422219,-0.11551651077583608,-0.2022791122281728,-0.37743377543769574,nm,0.0
121.80055300000001,-36.267043220782405,-35.27457517791809,72.00527473902545,0.9028650511011512,1.842258798084624,-0.4701877945687118,-0.26679547389652736,-0.2212989545141413,-0.14101687216955106,nm,0.0
121.81006400000001,-37.314751605115795,-34.24591088052897,72.46005298709258,1.1641691202016493,1.7878819762719682,-0.5813166943763134,-0.236008155821984,-0.10166969371822132,-0.022307225925845116,nm,0.0
121.819571,-36.998267215984754,-33.31542264299836,72.78841478481782,1.1509711767213855,1.8040648881347834,-0.4787587152395793,-0.14929158158410694,0.10572846256037476,0.10712439039284095,nm,0.0
121.82907900000001,-35.554715327631065,-32.51880042195783,72.84654867835295,1.380358316125772,1.9594322080635773,-0.15595918175085968,-0.06776136600154284,0.27898979446567357,0.1745542784916522,nm,0.0
121.85779099999999,-27.79982606502177,-30.853921921315216,72.86880867718203,1.8599362082493878,2.780454493048648,1.1293268443099267,0.066863892634729,0.42391401183561234,0.31194625439389123,nm,0.0
121.87680900000001,-25.22341862389994,-31.359525825703376,75.29522746047046,0.6861338174024889,1.4582847611469305,0.9780453044520829,0.13753220236834596,0.08871251106920947,0.35132345290976214,nm,0.0
121.886313,-24.84681877155475,-32.10551700497627,76.06819329754076,0.760278517354041,0.46964278848094454,0.15772281067668814,0.17417156062440284,0.027153677808957125,0.19824280045584625,nm,0.0
121.89582899999999,-23.181507522110415,-33.34017592245909,75.91826583697832,0.12511442342162235,-0.33365217436975336,0.14028611370917776,0.3213716851165184,0.2143913265295275,0.15387429549929557,nm,0.0
121.90536,-21.267966201277382,-34.922160487204906,74.98295815229758,-0.7421024237198518,-1.2281263736035941,0.38558940358579163,0.39993541232003094,0.22935686235545175,0.031178278625958133,nm,0.0
121.92418900000001,-19.429039347457355,-37.325055064259466,72.81181444718925,-1.1872003054802882,-2.5654089772983215,0.3961477388481041,0.22284504706237018,0.07071515651671119,-0.0796035469579871,nm,0.0
121.93370100000001,-19.83566886502112,-37.7012288584176,72.96286807474891,-2.050710834846632,-3.3094984026856022,0.5622834244771147,0.06670310472263416,-0.08242033717267216,-0.01592074170831445,nm,0.0
121.943207,-21.831711867377866,-37.71314504468911,74.30205431601307,-2.1513959963615887,-3.603586492887277,0.20599668240855087,-0.07319070089711815,-0.30252512553882793,0.027416566893169292,nm,0.0
121.971743,-30.824899156192906,-35.10754814773358,78.89424229236955,-1.3546289335694912,-1.8311439870960302,-1.0946515523085465,-0.2890824184130277,-0.44566969157956987,-0.17208024572144467,nm,0.0
121.98125200000001,-33.02221104863783,-34.51603217539204,78.8984926756441,-1.0645275540248789,-0.7359725980393081,-0.9532178485305479,-0.17278975740743477,-0.33020451391314654,-0.24483850467686424,nm,0.0
121.99076299999999,-34.83806758476689,-34.39328589479739,77.9721656359233,-0.37734504168952604,0.24364216453824228,-0.8238886507467269,-0.07130022574534094,-0.2877597667839272,-0.3853593442374494,nm,0.0
