timestamp,roll,pitch,yaw,acc_x,acc_y,acc_z,gyro_x,gyro_y,gyro_z,markers,motor_input
125.50007199999999,-26.366320365252573,-34.81431271695621,72.94892444593721,0.8287942476539155,1.2687044320647176,-0.6872963543507312,-0.07130171131223015,0.018339129413883038,-0.07192390298484214,nm,0.0
125.528592,-25.004905407505518,-32.84143404412721,72.16429683694426,1.7181209548034229,2.960704438390297,0.17245817574523076,-0.08414923229472736,0.1613579032821799,0.09529410291928772,nm,0.0
125.547618,-23.874851254450405,-31.34282620159792,73.97394487672973,1.588985353215758,2.9648192484581783,0.23031805393858548,-0.09039285190907838,0.11146577532001145,0.2961445399504097,nm,0.0
125.557129,-23.68068016962326,-31.076805731127653,75.62545804148178,1.1996900725096982,2.224795995564531,0.09824969571731507,-0.029048698669294118,0.04811175439187728,0.3543176362932351,nm,0.0
125.566823,-23.471912561694342,-30.784997450238176,77.03158313089965,0.604365224927344,1.3088547617254904,-0.06017601736244207,-0.034713976611052834,0.05107975323389954,0.30645349511298847,nm,0.0
125.576169,-22.997993912210983,-30.49653161696835,77.72059622747285,0.6283787705448483,0.5281177097362398,-0.5396683166554974,-0.02495651766274908,0.09494543389552054,0.189633298186568,nm,0.0
125.58584300000001,-21.889934396944668,-30.32489423682374,77.68731402547748,0.09184259072070348,-0.15981689883253603,-0.22157288069235145,0.020758262815184066,0.19704421275070025,0.1087371648363003,nm,0.0
125.595351,-20.82005329077642,-30.012010426797385,77.02811651756134,-0.12782830805812928,-0.5263438198838453,0.12481256184122505,-0.006962378084693087,0.19716760563163785,-0.02147097005863171,nm,0.0
125.60486,-20.010984287716905,-29.15402456348429,76.05798209010581,-0.11806209539261572,-0.6937389260358159,0.37655675784072806,-0.12060869420317641,0.17962635604246519,-0.11165327732612962,nm,0.0
125.614364,-19.436160446150243,-27.991991576545477,75.41420305641803,-0.40732564126624526,-0.7123278272701297,0.684223861022983,-0.18686462465792988,0.1578829824412512,-0.07147366687260089,nm,0.0
125.652422,-21.546837513012825,-25.939811856637238,79.39928893467922,-1.8287495185579723,-2.738818551229093,1.0327465929612742,0.019382636805889534,-0.1447405498031427,0.2254487847607747,nm,0.0
125.661741,-21.489425101135676,-27.092300476107862,80.5256032440447,-2.7563475525610555,-3.823211386472732,1.0597443194834018,0.24253533191401624,-0.02645261728537839,0.23332532649579077,nm,0.0
125.671254,-21.575288032510425,-28.92398541520709,80.66744411611857,-2.55958428869081,-3.9588479077530376,0.49665071506674313,0.37283778192910616,-0.07134056102788065,0.023213763387238306,nm,0.0
125.690271,-20.59304687167673,-32.1559033617528,77.58756821682118,-1.1614166307730787,-2.1217096040922576,-0.48494922259956397,0.327000854528479,0.0709689859400682,-0.307168599568563,nm,0.0
125.69979799999999,-20.363575727226554,-33.27955572961618,75.58268563753867,-0.18818672553752527,-0.8138086019634121,-0.6137150739949475,0.24150634992338385,-0.012355014656609495,-0.3734840366364451,nm,0.0
125.709461,-20.5896955929037,-33.96051306532119,74.23801160319883,0.3553383651922311,0.2114838785152493,-0.4455140687451907,0.13554200716787748,-0.07003962122351398,-0.29110879631295666,nm,0.0
125.71879899999999,-21.197893340843226,-34.045028706497455,73.77311781525425,0.6051135296837447,0.894720961844928,-0.44687920361615574,0.0021469674156399587,-0.10002684192489028,-0.1578806192781654,nm,0.0
125.72832,-22.160782026057714,-33.7071556115949,73.98360418104257,0.8004037383404069,1.2145179190473894,-0.6184727023914942,-0.09577244399148946,-0.13334328723535727,-0.06187784017997592,nm,0.0
125.737829,-23.04323742540478,-33.27275529315148,74.44834447363405,0.7793231995104117,1.2338306745919838,-0.681659059259266,-0.11014971908020982,-0.11645851627346723,-0.0008789646445862653,nm,0.0
125.74732800000001,-23.598265428391986,-32.939684059873265,74.66068108519643,0.6235980836755829,1.162891678290555,-0.6010893035384749,-0.07546208682977221,-0.07027613150280754,-0.014540556953132973,nm,0.0
125.75684100000001,-23.766088209756912,-32.668855514002644,74.2190137317775,0.8849676901615791,1.236463778401315,-0.7128216634889548,-0.046201213305543616,-0.011082096846827934,-0.10298193570148563,nm,0.0
125.76635200000001,-23.299668058556133,-32.421367785891654,73.14194111158714,1.1680847422909573,1.4523054650534668,-0.6939994833771198,-0.01177804874004062,0.09087131809343409,-0.16186318013310924,nm,0.0
125.785379,-21.759062621267734,-32.026170617423816,71.13073574148027,1.7490398793214856,2.346996359471908,0.18505763198402583,0.011615470558817367,0.12484670649913104,-0.07176800847185184,nm,0.0
125.794884,-22.034878871350166,-31.5006968796804,71.42857218995377,1.9183692587379155,2.726067772332221,0.48114321063088944,-0.1009483275276118,-0.009516673597133346,0.03378159164136057,nm,0.0
125.80439899999999,-23.324855101320317,-30.502666674337597,72.84404002443932,1.623562859063304,2.637528601288646,0.24717866279535874,-0.24439557997211184,-0.1479837121899491,0.15371987586555783,nm,0.0
125.813905,-25.268795142843473,-29.387541945629383,74.87729114489073,1.2108718581126727,2.1424861661538777,-0.24828449389518706,-0.29460702817810974,-0.26013760065915226,0.21639271579743805,nm,0.0
125.833123,-27.209897230113025,-27.118865073818355,77.67064410835592,0.12633593743505572,0.8294752076692206,-0.2830760267608544,-0.22829328228986726,-0.02410831923397511,0.16835371782515662,nm,0.0
125.842614,-27.6859065996166,-26.223040290835694,77.95006231007982,0.19454772930708994,0.44802865730349917,-0.37794144539196667,-0.17987463824296,-0.04289963496087249,0.016985493554878623,nm,0.0
125.871159,-26.656398727498186,-24.127047428525607,76.77270181659365,-0.5700754859637588,-0.18831530332458787,0.5999546080774759,-0.11092104538554144,0.07400647111071504,-0.042907304612178676,nm,0.0
125.88065700000001,-26.61861258189677,-23.545006298408754,77.19136597142527,-0.7348532823961703,-0.14788434888932728,0.995304977532517,-0.09843256054591235,0.03555644711507177,0.09024518309712758,nm,0.0
125.890177,-26.511138398600245,-22.86489371600364,78.35740402191463,-1.0519865477510317,-0.2863411611596253,1.1684927207471474,-0.11538197523182443,0.051060680301723935,0.24522052872372724,nm,0.0
125.89968300000001,-25.95771435702425,-22.152340252355188,79.92911358817041,-1.200042669618652,-0.8607128589441142,0.8416988744045378,-0.10737532772316755,0.13077227154462626,0.36020271863481274,nm,0.0
125.90919,-24.56952200888582,-22.121835537779116,81.57428003392079,-1.9132981734095422,-1.9445987904488236,0.7970411913529762,0.04876461085303397,0.2589819201676312,0.4369358588095655,nm,0.0
125.91854799999999,-22.844654366793986,-23.294591560932414,82.74760288928799,-2.3076663964611357,-3.1667794931044755,0.9310054871126654,0.2894406854194677,0.2878400337998376,0.3708074493612633,nm,0.0
125.928064,-20.69606228135351,-25.34116065135723,82.72838492074469,-2.398123578137726,-4.049853118935738,0.9206391108678315,0.46938943614795153,0.3414472495914464,0.1756865568318064,nm,0.0
125.937559,-18.081342906358756,-27.604905256752325,81.06414903227319,-1.7451789811837604,-3.870934766658584,0.006352055003790989,0.5282107955504508,0.4042001407000968,-0.09762954654187903,nm,0.0
125.94707299999999,-14.93446143182396,-29.730974670524848,78.10697710651797,-1.2182114020274033,-3.006229271617571,-0.23823241866065287,0.5321770338600509,0.4704991454623007,-0.2878790900413009,nm,0.0
125.956594,-12.321320534212976,-31.36948821243807,74.69809705662674,-0.6718316512179183,-1.8608439991719123,-0.013833271889737053,0.4385868314884944,0.36395637262278324,-0.41501713889045627,nm,0.0
125.96627799999999,-11.118652408411963,-32.43841852911159,71.90562361520703,0.5148254481664258,-0.5778963190637014,-0.40016181495208103,0.2776687166761036,0.1368415188019052,-0.4305140243521609,nm,0.0
125.975799,-10.858882665894965,-33.20550289603553,70.59428912342231,0.6934664135322496,0.19892647604706049,-0.17789070754521355,0.17346278781296665,-0.005759028792257764,-0.2330233566383642,nm,0.0
125.994633,-13.956341664217328,-33.66724066609388,71.82133071347195,0.8573479497474781,0.8815266456488818,-0.48523133711546984,-0.093047636705133,-0.30733391778416896,-0.006398790817299849,nm,0.0
126.01383100000001,-17.54277848237285,-32.69014224554464,73.18766425214505,0.27933324104037616,0.6073425790366286,-0.5736630913461991,-0.17571014979958832,-0.2452428400772743,-0.12334385929151975,nm,0.0
126.03286,-19.43729056272128,-31.99031146801199,70.94989185754342,0.5102442849590848,0.9555218519700402,-0.29011050806399435,-0.08185174218761553,-0.08038540907169493,-0.3752745040661407,nm,0.0
126.04219699999999,-19.838590568197077,-31.546385460982563,69.08123258580599,1.1012016281377217,1.4811087096422821,-0.24244973112849016,-0.09303555804890531,-0.032995198670072085,-0.4136517608790372,nm,0.0
126.05169699999999,-20.13139884134767,-31.022535574351387,67.78749299697766,1.7399019305725432,2.1260436026498777,0.09729674844716414,-0.10209193530276536,-0.007524943636300941,-0.2866756044636435,nm,0.0
126.06119100000001,-20.91355335552346,-30.456075530980005,67.87690313669395,1.6587910892672317,2.6575492781401735,0.7162140737295705,-0.141950737896072,-0.08136980047606016,-0.05924842053711844,nm,0.0
126.08022299999999,-25.088235487696856,-28.576122830364927,71.83234918333913,1.0774644990972766,2.3711578714877266,0.049796016908288665,-0.31674577944974414,-0.31567945088538396,0.2568156369099571,nm,0.0
126.08972499999999,-27.028307845377814,-27.874320520263723,74.14880181173599,1.2009204030081415,1.8057886128172018,-0.4927137035283706,-0.22088910828154723,-0.2846648148694221,0.28388564468222866,nm,0.0
126.108949,-28.57389100459844,-27.209777071240243,76.70271967896753,-0.2098490057603454,0.6024342590007025,-0.18155404713070117,-0.0648338070795287,-0.15201760176072512,0.09180493192396899,nm,0.0
126.11843999999999,-29.221388114183995,-27.18132609663208,76.86762357429541,0.10883229759026737,0.179176147700839,-0.48005151988814765,-0.018494299528370443,-0.10895010493997172,-0.02202734855274897,nm,0.0
126.13745399999999,-28.756081393722994,-27.55620197836846,76.83247724010184,-0.6606424514771982,-0.13347403001373223,0.21454492401430453,0.05532611608997711,0.019057797964226447,0.02034761792580386,nm,0.0
126.146985,-28.561377850899426,-27.593323331827197,77.22551209871412,-0.22700961071315803,-0.11416927967902653,0.07065778111841006,0.02843249734854646,0.034146157224339384,0.10086296475180065,nm,0.0
126.156474,-27.53642770805477,-27.50595379938449,78.18300526401583,-0.8930245538118916,-0.39716551498630914,0.2582710831930449,0.03510400207247146,0.18399701905612711,0.2905486058474713,nm,0.0
126.165999,-26.471123547989208,-27.5676447333877,79.58182292069459,-1.3295746184362494,-0.8613681409493786,0.34075723255632756,0.062021617683619794,0.1861368902606543,0.3824007706695333,nm,0.0
126.17533499999999,-25.211034413873726,-27.840116535319037,81.00329089005932,-1.3339453763864992,-1.6251521129877629,0.1681368012405479,0.10483509494642367,0.2143587629411026,0.40539456007903746,nm,0.0
126.184833,-22.971711857167794,-28.383677762729185,82.03472604837864,-1.8304182669789817,-2.629912642631578,0.32292847227254073,0.17933783024775038,0.37893687830161354,0.42089045903009203,nm,0.0
126.194345,-20.397028015196266,-29.385087198401436,82.33142543842762,-1.9498656463473703,-3.5563172266787073,0.45708982800413983,0.27338572627950963,0.42404285207736014,0.3111524877074277,nm,0.0
126.222881,-13.14611442485795,-32.806315367702176,78.15892032231096,-0.2609749686503725,-2.0080011572627448,-0.09078051179207454,0.21105315352846016,0.2470473293927547,-0.23178412745731936,nm,0.0
126.232562,-12.425471758983283,-33.09191530913884,76.46962299509163,0.5325260486363191,-0.9239964805529505,-0.21638230170465092,0.09605306354291708,0.10902368445706437,-0.25813927867506997,nm,0.0
126.25159099999999,-14.496695570190667,-33.42774099004553,76.17061262684231,0.8769519776167229,0.6520329631727155,-0.05297908548594796,-0.03596921030633941,-0.3040466662903504,-0.12933079668234768,nm,0.0
126.261098,-16.947434366863526,-33.2617740272632,77.15291364322762,0.8593967839630537,0.9512534801200555,-0.14292279326681795,-0.11324874074474878,-0.38815602219061174,-0.07064912912009443,nm,0.0
126.27061499999999,-19.405112932903815,-32.86860620821997,78.08332504427403,0.5879109489719502,1.0604017927141784,-0.14476222923438778,-0.15173381641245892,-0.38294287324701803,-0.07938107001360069,nm,0.0
126.279945,-21.617783450675827,-32.44595034136292,78.34074024901422,0.7661220155903062,1.215264122969674,-0.5052674134727163,-0.14551117769532054,-0.34505006317156534,-0.18432619570804157,nm,0.0
126.28944100000001,-23.00827221466441,-32.203955103964695,77.6576725809038,0.752686599674114,1.3137117688301034,-0.48846369700333225,-0.08279656009564917,-0.21757055306563783,-0.28217924884335516,nm,0.0
126.29896099999999,-23.69826435459251,-32.20367205913491,76.12728870223762,0.9959909715563201,1.6318486470228177,-0.40178842082984534,-0.013013745696455237,-0.11180544717214265,-0.3764493494146973,nm,0.0
126.317981,-24.283264855816455,-32.424877618929116,72.75872744161371,1.427535712984373,2.405501240265837,0.16098160583906704,0.01566338521495491,-0.06115545219871499,-0.3340436261979009,nm,0.0
126.327481,-25.259887792498,-32.35306432765737,72.12898045355008,1.4934458573870566,2.5964442012949833,0.288725876406075,-0.049914588399208676,-0.1521796109530619,-0.22693988683154553,nm,0.0
126.33700099999999,-26.820998899683214,-32.08864929635853,72.43026708625918,1.1299160702109072,2.401503519517025,0.0765089699764845,-0.11737832976827875,-0.2349341922831411,-0.10217760202146685,nm,0.0
126.346507,-28.609254277454557,-31.837575039143488,73.28715920161115,0.9804604948988496,1.9962008356877592,-0.21861522845219178,-0.12411908441819351,-0.274581442286262,-0.013511239954894842,nm,0.0
126.365737,-30.23435790514164,-31.211614165274057,75.2510426417348,-0.09267890132642746,0.9108822130853045,-0.3234655402857688,-0.07260595493078065,-0.06781216359022409,0.14593850393597146,nm,0.0
126.37523200000001,-30.901629462389565,-30.9324960167312,75.95873432088638,-0.051296906497088464,0.4417429633854685,-0.4655486999230578,-0.0692979029394315,-0.09559575281175832,0.07758220186002404,nm,0.0
126.384726,-30.67015055080394,-30.572394617508873,76.28557227201556,-0.14073534542624785,-0.03718575294710335,-0.5745303823245976,-0.047153041465459,0.05745366935687647,0.09391799174676124,nm,0.0
126.394241,-29.357820285368174,-30.088090083504145,76.28778928328971,-0.8590016583404511,-0.3889319623478205,-0.2598850903430344,-0.027072224812304126,0.24499910887634474,0.13763616923197505,nm,0.0
126.403752,-27.84733366934226,-29.543702721806245,76.14442851874863,-0.8048205888605066,-0.667969189986347,-0.1878475522173665,-0.029885249075473946,0.2826551375950774,0.12584275027701522,nm,0.0
126.422773,-23.20873559941904,-28.20351077157753,76.4444606698183,-1.7456744265589332,-1.711595010642493,0.9873093930327752,-0.018262217633789633,0.48019962156795937,0.3136108152346758,nm,0.0
126.43228400000001,-20.665317584612747,-27.573273243354457,77.12920018795235,-1.764620103012727,-2.4045048394185646,1.102983478395938,-0.006274190767951261,0.46999527271651753,0.3778834290341804,nm,0.0
126.44180600000001,-18.096683362392266,-27.312079869157568,78.11738141689452,-1.8054648825015365,-3.062622654494453,1.188254293955813,0.0604149609757748,0.4605085179145891,0.4369192240183381,nm,0.0
126.451132,-15.649880552100377,-27.59811933074146,79.07208933235206,-1.6679189767479172,-3.468397658090495,0.9635645388170166,0.15570790566218717,0.4187676059819682,0.418626703759783,nm,0.0
126.47013799999999,-13.616871930543226,-29.24356647701055,79.0858592273468,-0.6728697611492019,-2.2529761185940047,-0.20222061801422203,0.1936315871304641,0.006539820550339588,-0.06467853431146998,nm,0.0
126.47984199999999,-13.828903322626113,-30.075077175861793,78.10134778123579,-0.1650291363600668,-1.3060056766758892,-0.19091113458439138,0.16953015374365094,-0.06534568308066405,-0.21660026859375353,nm,0.0
126.489372,-14.60450543229266,-30.844011519538306,77.01304239318665,-0.14061317720582278,-0.46001404322787137,-0.002427196080209513,0.13518821089814848,-0.1605346296849457,-0.29487078381544807,nm,0.0
126.49886799999999,-16.57968794879577,-31.70356306261954,76.23860669081274,0.4816248284262191,0.38314957037369773,-0.28888412586349843,0.10295692902544773,-0.3657729805605963,-0.3581523438219879,nm,0.0
