timestamp,roll,pitch,yaw,acc_x,acc_y,acc_z,gyro_x,gyro_y,gyro_z,markers,motor_input
107.002667,-8.484047563440205,-51.134123572935124,132.8690188070491,0.35972278787458517,-0.3360617104354092,-0.19640388655469176,0.1332408037200101,-0.04158772936723051,0.24272175141821317,nm,0.0
107.01215099999999,-8.624383230266428,-51.37541457532971,133.67955650839195,0.09795236386659585,-0.06285413037849884,-0.43130670531002085,0.051724466586465054,0.03346544177855773,0.14341536407630814,nm,0.0
107.02166500000001,-8.15128263911481,-51.841190261593596,133.53512312360724,-0.15963865064677177,0.13336955815001456,-0.43390682310256135,0.031445799397522047,0.12007298901872876,0.04842173063364031,nm,0.0
107.031195,-7.355251463028775,-52.3417590359589,132.8801869584399,-0.3218863668185403,0.5145860348809133,-0.22611134317630044,0.010551197918200557,0.15313641674355988,-0.0022978169857338416,nm,0.0
107.050018,-6.066132277912569,-52.36558375585707,132.0187915721631,-0.9394921889161008,1.000420578062088,-0.22856819058890407,0.0,0.0,0.0,nm,0.0
107.078544,-8.067304531628169,-50.72165753385882,134.32440222985574,-1.8037397021121229,1.7139847620056474,0.07803820141488288,-0.025927459816683703,-0.17193193938264145,0.05411047453353335,nm,0.0
107.08805100000001,-8.909257137932407,-50.35358567385809,134.8094226595189,-1.733539098374547,1.827671298784082,0.04005649724874784,0.026914944458582765,-0.11484696385384953,-0.030099374772505814,nm,0.0
107.09757400000001,-9.280556374533932,-50.41648911624322,134.5763590222824,-1.3914454068745457,1.4054805504102215,0.07189448740481603,0.046664335433305316,-0.011680952249302271,-0.10088144859267494,nm,0.0
107.10708600000001,-9.444512834315093,-50.56621761711444,133.69532971447586,-1.053104182707623,1.1036950565010362,-0.25750594450230413,0.04067835484940581,0.018946412708137524,-0.19860398954301156,nm,0.0
107.126282,-10.231379265241657,-50.84930195627493,131.23355052566075,-0.18137084747133037,0.3715025539036428,-0.46187653036128024,0.04895792428859767,-0.02139149315532277,-0.3181527336843241,nm,0.0
107.135794,-10.75668443222805,-50.41777330885859,130.06962895431738,0.9681034646640257,-1.6527729390604373,0.8665733331163087,-0.016491793554538395,-0.09432540844407038,-0.3110845124247359,nm,0.0
107.145306,-11.585503874563404,-50.01419889634951,129.26601162759908,1.2665409620536054,-2.5485157666173754,0.7021424424971008,0.011462544012696535,-0.12088325874432759,-0.2851031473960666,nm,0.0
107.183371,-8.418584221731752,-49.69892777619672,126.75233911627997,0.7399368589675392,-0.27521214142182904,-0.2152926977043215,-0.0898455823677744,0.07568200254164811,-0.14191686554216612,nm,0.0
107.19286,-6.722212881777593,-49.879100732736724,125.27041305405892,1.059559158452914,-0.7857648671864288,0.44916735676956304,-0.09367981841600977,0.21115178756239167,-0.03457593561591518,nm,0.0
107.202371,-5.048046236477965,-50.17618572950608,124.06660953880517,0.8786039873123552,-1.0677058622405828,0.6802516978636839,-0.06747638153698067,0.22354635016325738,0.018415500404560598,nm,0.0
107.21188599999999,-4.627253286545647,-50.537483010054174,123.4837536219689,0.8785363960461122,-0.17132440911703006,-0.08781177542899887,0.03643001289958833,0.0974654823833357,-0.04934007108880046,nm,0.0
107.221386,-4.6508691508541045,-51.09747605069371,123.92624790631406,0.7436452953083476,-0.4245113632848618,0.024748113873071836,0.10103709701411118,0.07235887755877962,0.08744954911259895,nm,0.0
107.23090300000001,-5.781424401611504,-51.48326784263558,125.31397195956993,0.637124310860295,-0.512795228125284,0.006167331409561997,0.14995198087862163,-0.05996675126397977,0.10384973861803504,nm,0.0
107.259434,-10.817891169827979,-50.93511817364969,130.96330194101296,0.18466678697429983,-0.35046474555982066,-0.33951520178093386,0.09048532286742549,-0.15484514262965093,0.09672328526362568,nm,0.0
107.26893799999999,-11.534059999545452,-50.68539214410926,131.67730300284495,0.06553468549764685,-0.1691857700899903,-0.35007192053042546,0.027616217953318034,-0.08835691422761895,0.03515688742858567,nm,0.0
107.28796700000001,-10.661607852208974,-50.49800382131569,130.67711062958188,-0.14657830742307001,0.07775795176091516,-0.2556944867277129,-0.053272420461617065,0.07618003755969203,-0.05449807508464869,nm,0.0
107.297496,-9.763275005035405,-50.41586207569081,129.7078980305084,-0.10865201909501836,0.21212349802948632,-0.19231830710809403,-0.08093615883164278,0.0895500208571021,-0.05217264964816191,nm,0.0
107.307027,-9.001473100398243,-50.09221588782902,129.15321756073422,-0.18580882568177293,0.3103959402788305,-0.08256899940999367,-0.10648090924902366,0.04689322564113174,0.00923186243381755,nm,0.0
107.31651,-8.728443455940722,-49.36301107742935,129.38855609183082,-0.282744060692833,0.5068940834949449,0.04371069385152642,-0.13002845941425709,-0.052263131389670515,0.09166559871342299,nm,0.0
107.32601299999999,-8.954893119435509,-48.176623367986245,130.39603167664367,-0.4906581586773719,0.7070643318976573,0.15250149255359616,-0.15797662758956618,-0.16236802177077117,0.17029176961839623,nm,0.0
107.335532,-9.406587291730295,-46.72218996712024,131.78000613368906,-0.5182477132202363,0.6354794895622495,0.5446986951988027,-0.17448133369364058,-0.2244478990857098,0.21301957086233544,nm,0.0
107.34501800000001,-9.731194307182578,-45.44610614682773,133.00130814024715,-0.7847185750342284,0.615045532817678,0.69541322369697,-0.15376313353798662,-0.1923887035452041,0.20018396500196317,nm,0.0
107.354524,-10.04222680115208,-44.59861304053334,133.45725199779085,-1.100577484667717,0.8812516322040646,0.597078159197807,-0.08899311225754025,-0.13509620758692092,0.049707900453208886,nm,0.0
107.383073,-8.29330295664426,-45.81562825977129,130.0828995936326,-0.5208216275959571,0.5653988237145514,0.3838221042813308,0.07873617574485638,0.19010560379198022,-0.22400646406786884,nm,0.0
107.39256599999999,-7.972842346139863,-46.709277008004435,128.8463001450079,-0.21427939252729547,0.4196300696886656,0.09261036672846115,0.11534977320752204,0.1609075464619782,-0.19870974751812825,nm,0.0
107.40211500000001,-8.27932062817457,-47.54203499393047,128.51273552922828,-0.10182785179226919,0.09595656152080928,0.011821225318166892,0.16179861543313503,0.08446484543541585,-0.10914453295337193,nm,0.0
107.430631,-14.243489474056396,-47.4992079594351,132.9360121269829,-0.11601054170343031,-0.20994281764921816,-0.42469990670927,0.15210682941589307,-0.2939058097296,0.04111553393080012,nm,0.0
107.440133,-16.282790179180726,-46.88906735065125,134.6096963875142,-0.20820877024746468,-0.12508268262593636,-0.3969050791874351,0.10891923303730798,-0.2721680030027423,0.039101034441184804,nm,0.0
107.44964999999999,-17.42163498756344,-46.38721003744188,135.52945513808717,-0.2800388509663111,-0.13528837965187235,-0.24154787570414052,0.04497939168787912,-0.16903550451375196,0.022130066170994226,nm,0.0
107.459184,-17.59049167912393,-46.17430602095552,135.55608316517728,-0.2830802210207879,-0.08214597872238784,-0.13877339329874133,0.0,0.0,0.0,nm,0.0
107.46870000000001,-16.924577354350422,-46.366185425300024,134.8766227403196,-0.2253587799841804,-0.03179611618994615,-0.0636021087326274,-0.03314920042004002,0.10486726305595542,-0.035900602924435476,nm,0.0
107.478207,-15.697264164405217,-46.859457160264476,133.8294094194223,-0.06631240051059752,0.023487646128179458,-0.0023781893167651976,-0.04207774198578647,0.2024286361250254,-0.027396979275471023,nm,0.0
107.49723700000001,-12.256583294126314,-47.84036657520413,132.16966164536993,0.2682784437440099,-0.28914614879439676,-0.04329765647782639,-0.09567522518327289,0.25410791175403846,0.14605385715938124,nm,0.0
107.53528600000001,-9.08198332620887,-47.66319831469209,133.4513948682211,0.5368586140245766,-0.24149030003773175,-0.08085371612930366,-0.08487248438395753,0.01332347529733148,0.16961129505660105,nm,0.0
107.54477700000001,-8.550751645259743,-47.33776196211586,133.66047531219928,0.45164603873742754,-0.03891649747683497,-0.020913604377125732,-0.09241068569864028,0.02044629587701218,0.1228843546298266,nm,0.0
107.55427700000001,-7.814250324029181,-47.13558199960358,133.52912896624994,0.35853243377390803,-0.09185154008944915,0.19330870996615454,-0.09410948309720286,0.0579208745597249,0.08445792772721632,nm,0.0
107.56375700000001,-7.182613186054231,-47.10033568421587,133.10656291668712,0.3228523540056308,0.08701888554696684,0.21203126528385843,-0.0599089375365337,0.07110789683988991,0.010472768604282017,nm,0.0
107.573274,-6.539519147974488,-47.201338842004084,132.57690904672782,0.32852191406417,0.08865297535183642,0.2266383468357751,-0.040412051042357434,0.09130095327954578,-0.0093120362805723,nm,0.0
107.59231199999999,-5.853686133572207,-47.553867293758614,131.85610795456773,0.3760805942892661,-0.031019694655922327,0.034496780461170475,0.014652583892971313,0.055315464107256,-0.02386478034215595,nm,0.0
107.601834,-5.883691141489462,-47.63328397310991,131.84005887797198,0.38855951342941936,-0.17682570845638185,-0.02736481005969021,0.0,0.0,0.0,nm,0.0
107.611334,-6.147798837065598,-47.52628381580737,132.00059887917266,0.36290082446946953,-0.2577648083629376,-0.071196894762212,0.0,0.0,0.0,nm,0.0
107.63041999999999,-6.864916539218932,-45.9988121012956,132.39767744916077,0.19863982920557174,-0.2589006279844932,-0.0033383889796570546,-0.035501810057738135,-0.07288031349235284,-0.010777589915380555,nm,0.0
107.63987700000001,-7.017903381795294,-45.50560166829071,132.34297699795866,0.11822591047467355,-0.16910972351492534,0.09915408304299693,-0.05418919529433437,-0.06902787257962963,-0.030746933202051272,nm,0.0
107.64936,-6.995121165731437,-45.04705283629537,132.08909476169922,0.022713844032348496,-0.055045294869059916,0.17500430736399744,-0.065743905054067,-0.04600502723852268,-0.045492084512968954,nm,0.0
107.65887000000001,-6.799543397897237,-44.725808126539654,131.69417398671754,-0.06731851935210366,-0.02565869584227947,0.26105293564952575,-0.06193591697952148,-0.008989762613481077,-0.04939395602060834,nm,0.0
107.66838000000001,-6.573599034491594,-44.58014720662848,131.24869995040632,-0.09584648632859821,0.038193755568535166,0.2810908328648054,-0.038618274553088215,0.01809670688631557,-0.05539955536282945,nm,0.0
107.67790099999999,-6.353553946837053,-44.57643054155803,130.8555894971388,-0.0670838439310481,0.058204443506494584,0.24629617531256082,-0.016560520359628177,0.03646517861693575,-0.04581991079751755,nm,0.0
107.696923,-6.217337279618713,-44.846983242362754,130.51139247916413,0.0004065858105439118,-0.01222480200533624,0.08930496148390286,0.0,0.0,0.0,nm,0.0
107.706433,-6.402999382661229,-45.04170083460907,130.5897067958792,0.01661205229413251,-0.0960112415630409,0.08359645930812125,0.051425545329258214,0.01861449552480163,-0.008569838064124485,nm,0.0
107.715938,-6.733040125475341,-45.16666731738024,130.77491632850266,0.009033933473949755,-0.10037429984777414,0.045022891625352564,0.05408032573158904,-0.005814272325979931,-0.007663917726898551,nm,0.0
107.73503600000001,-7.362720044646063,-45.13029478822538,131.090561507904,-0.06332824682858224,-0.045771610995549966,-0.007093457587473568,0.0,0.0,0.0,nm,0.0
107.74454700000001,-7.560159573955092,-45.187715232133826,131.12067356608875,-0.096221913993851,-0.012272993215830414,0.03921959929036726,0.0,0.0,0.0,nm,0.0
107.754062,-7.7146780893235904,-45.33922714613746,131.07900645250908,-0.13436811887231673,0.0544292228965616,0.04388529305206387,0.0,0.0,0.0,nm,0.0
107.76357999999999,-7.829800154350922,-45.54917038488398,130.99619602678692,-0.1285174642285508,0.07476334248536562,0.04546563577590224,0.0,0.0,0.0,nm,0.0
107.773076,-7.916710431094745,-45.84233937615034,130.91439667571555,-0.11685973411177061,0.0719051223858452,0.028105879261189164,0.04167480573120188,0.017345353271466496,-0.026523198368816638,nm,0.0
107.78259800000001,-8.030307850594498,-46.17868481051209,130.8801863596149,-0.09146332982813829,0.06980935698219438,-0.006788576319410174,0.05056897336095954,0.024913733864434268,-0.020846413914862028,nm,0.0
107.79209,-8.135704847325938,-46.44890774111178,130.8878683874425,-0.05414451344020272,0.028671078272522896,-0.054298952383836765,0.04804842033270217,0.024326659106037558,-0.011297414898712839,nm,0.0
107.80162100000001,-8.250579594732862,-46.64230231040933,130.93105056015173,-0.03014216595720041,0.00037316620859777845,-0.08881314274872308,0.0,0.0,0.0,nm,0.0
107.81112300000001,-8.38722263307807,-46.77668088265451,131.01044719098044,0.0075402703430451825,0.006311228376102664,-0.0975623386101466,0.0,0.0,0.0,nm,0.0
107.82062099999999,-8.491147432525532,-46.85781065126964,131.09582339961054,0.00531201510701447,0.00927314899688189,-0.09518942147023758,0.0,0.0,0.0,nm,0.0
107.858676,-8.464101315676277,-47.1027881729005,131.2620640792913,-0.022743097293690714,0.039744458938541095,-0.0416964600093521,0.0,0.0,0.0,nm,0.0
107.877691,-8.184252579978121,-47.185541566993265,131.1523183745117,0.027800230867993696,0.031213923290543462,-0.05433308233254844,0.0,0.0,0.0,nm,0.0
107.88720599999999,-8.000162773147325,-47.18816354026699,131.027583278705,0.038969627008578436,0.02244901788802921,-0.0551757906872735,0.0,0.0,0.0,nm,0.0
107.896725,-7.821611614889329,-47.16134537838548,130.86693576511303,0.0429270487398256,0.022040932270069095,-0.04819604247731859,0.0,0.0,0.0,nm,0.0
107.90622200000001,-7.652102838023976,-47.10936457139094,130.68414574583946,0.033725300064664024,0.023669435554786726,0.003749491778105789,0.0,0.0,0.0,nm,0.0
107.91573299999999,-7.518158729560477,-47.05408155531157,130.50881546711963,0.030988890198606303,0.021691291582886803,0.0033854051315415573,0.0,0.0,0.0,nm,0.0
107.925252,-7.419761323442841,-46.99793956151666,130.35762046433405,0.00755621186748612,0.03483229762825429,0.028621176329130842,0.0,0.0,0.0,nm,0.0
107.934756,-7.3424058340969465,-46.95102750102334,130.229173170502,-0.02555811145106378,0.0302127235838527,0.04236423815153584,0.0,0.0,0.0,nm,0.0
107.94426999999999,-7.281218622827523,-46.91275653793388,130.11745351630742,-0.015357227400044852,0.012830411839994667,0.06090244084711914,0.0,0.0,0.0,nm,0.0
107.972793,-6.804134690595282,-46.8095561884148,129.5921122386693,-0.0225722364133764,-0.062477927716039466,0.03169202647941777,0.0,0.0,0.0,nm,0.0
107.98230799999999,-6.518657980164426,-46.74810262735002,129.32284899311054,-0.011464177897189006,-0.07097934333961961,0.04482198227146718,0.0,0.0,0.0,nm,0.0
107.99181200000001,-6.195476846157403,-46.66689695517401,129.03981599136662,0.003619603490047444,-0.07515593533647058,0.057223725843587085,0.0,0.0,0.0,nm,0.0
