timestamp,roll,pitch,yaw,acc_x,acc_y,acc_z,gyro_x,gyro_y,gyro_z,markers,motor_input
126.01383100000001,-17.54277848237285,-32.69014224554464,73.18766425214505,0.27933324104037616,0.6073425790366286,-0.5736630913461991,-0.17571014979958832,-0.2452428400772743,-0.12334385929151975,nm,0.0
126.03286,-19.43729056272128,-31.99031146801199,70.94989185754342,0.5102442849590848,0.9555218519700402,-0.29011050806399435,-0.08185174218761553,-0.08038540907169493,-0.3752745040661407,nm,0.0
126.04219699999999,-19.838590568197077,-31.546385460982563,69.08123258580599,1.1012016281377217,1.4811087096422821,-0.24244973112849016,-0.09303555804890531,-0.032995198670072085,-0.4136517608790372,nm,0.0
126.05169699999999,-20.13139884134767,-31.022535574351387,67.78749299697766,1.7399019305725432,2.1260436026498777,0.09729674844716414,-0.10209193530276536,-0.007524943636300941,-0.2866756044636435,nm,0.0
126.06119100000001,-20.91355335552346,-30.456075530980005,67.87690313669395,1.6587910892672317,2.6575492781401735,0.7162140737295705,-0.141950737896072,-0.08136980047606016,-0.05924842053711844,nm,0.0
126.08022299999999,-25.088235487696856,-28.576122830364927,71.83234918333913,1.0774644990972766,2.3711578714877266,0.049796016908288665,-0.31674577944974414,-0.31567945088538396,0.2568156369099571,nm,0.0
126.08972499999999,-27.028307845377814,-27.874320520263723,74.14880181173599,1.2009204030081415,1.8057886128172018,-0.4927137035283706,-0.22088910828154723,-0.2846648148694221,0.28388564468222866,nm,0.0
126.108949,-28.57389100459844,-27.209777071240243,76.70271967896753,-0.2098490057603454,0.6024342590007025,-0.18155404713070117,-0.0648338070795287,-0.15201760176072512,0.09180493192396899,nm,0.0
126.11843999999999,-29.221388114183995,-27.18132609663208,76.86762357429541,0.10883229759026737,0.179176147700839,-0.48005151988814765,-0.018494299528370443,-0.10895010493997172,-0.02202734855274897,nm,0.0
126.13745399999999,-28.756081393722994,-27.55620197836846,76.83247724010184,-0.6606424514771982,-0.13347403001373223,0.21454492401430453,0.05532611608997711,0.019057797964226447,0.02034761792580386,nm,0.0
126.146985,-28.561377850899426,-27.593323331827197,77.22551209871412,-0.22700961071315803,-0.11416927967902653,0.07065778111841006,0.02843249734854646,0.034146157224339384,0.10086296475180065,nm,0.0
126.156474,-27.53642770805477,-27.50595379938449,78.18300526401583,-0.8930245538118916,-0.39716551498630914,0.2582710831930449,0.03510400207247146,0.18399701905612711,0.2905486058474713,nm,0.0
126.165999,-26.471123547989208,-27.5676447333877,79.58182292069459,-1.3295746184362494,-0.8613681409493786,0.34075723255632756,0.062021617683619794,0.1861368902606543,0.3824007706695333,nm,0.0
126.17533499999999,-25.211034413873726,-27.840116535319037,81.00329089005932,-1.3339453763864992,-1.6251521129877629,0.1681368012405479,0.10483509494642367,0.2143587629411026,0.40539456007903746,nm,0.0
126.184833,-22.971711857167794,-28.383677762729185,82.03472604837864,-1.8304182669789817,-2.629912642631578,0.32292847227254073,0.17933783024775038,0.37893687830161354,0.42089045903009203,nm,0.0
126.194345,-20.397028015196266,-29.385087198401436,82.33142543842762,-1.9498656463473703,-3.5563172266787073,0.45708982800413983,0.27338572627950963,0.42404285207736014,0.3111524877074277,nm,0.0
126.222881,-13.14611442485795,-32.806315367702176,78.15892032231096,-0.2609749686503725,-2.0080011572627448,-0.09078051179207454,0.21105315352846016,0.2470473293927547,-0.23178412745731936,nm,0.0
126.232562,-12.425471758983283,-33.09191530913884,76.46962299509163,0.5325260486363191,-0.9239964805529505,-0.21638230170465092,0.09605306354291708,0.10902368445706437,-0.25813927867506997,nm,0.0
126.25159099999999,-14.496695570190667,-33.42774099004553,76.17061262684231,0.8769519776167229,0.6520329631727155,-0.05297908548594796,-0.03596921030633941,-0.3040466662903504,-0.12933079668234768,nm,0.0
126.261098,-16.947434366863526,-33.2617740272632,77.15291364322762,0.8593967839630537,0.9512534801200555,-0.14292279326681795,-0.11324874074474878,-0.38815602219061174,-0.07064912912009443,nm,0.0
126.27061499999999,-19.405112932903815,-32.86860620821997,78.08332504427403,0.5879109489719502,1.0604017927141784,-0.14476222923438778,-0.15173381641245892,-0.38294287324701803,-0.07938107001360069,nm,0.0
126.279945,-21.617783450675827,-32.44595034136292,78.34074024901422,0.7661220155903062,1.215264122969674,-0.5052674134727163,-0.14551117769532054,-0.34505006317156534,-0.18432619570804157,nm,0.0
126.28944100000001,-23.00827221466441,-32.203955103964695,77.6576725809038,0.752686599674114,1.3137117688301034,-0.48846369700333225,-0.08279656009564917,-0.21757055306563783,-0.28217924884335516,nm,0.0
126.29896099999999,-23.69826435459251,-32.20367205913491,76.12728870223762,0.9959909715563201,1.6318486470228177,-0.40178842082984534,-0.013013745696455237,-0.11180544717214265,-0.3764493494146973,nm,0.0
126.317981,-24.283264855816455,-32.424877618929116,72.75872744161371,1.427535712984373,2.405501240265837,0.16098160583906704,0.01566338521495491,-0.06115545219871499,-0.3340436261979009,nm,0.0
126.327481,-25.259887792498,-32.35306432765737,72.12898045355008,1.4934458573870566,2.5964442012949833,0.288725876406075,-0.049914588399208676,-0.1521796109530619,-0.22693988683154553,nm,0.0
126.33700099999999,-26.820998899683214,-32.08864929635853,72.43026708625918,1.1299160702109072,2.401503519517025,0.0765089699764845,-0.11737832976827875,-0.2349341922831411,-0.10217760202146685,nm,0.0
126.346507,-28.609254277454557,-31.837575039143488,73.28715920161115,0.9804604948988496,1.9962008356877592,-0.21861522845219178,-0.12411908441819351,-0.274581442286262,-0.013511239954894842,nm,0.0
126.365737,-30.23435790514164,-31.211614165274057,75.2510426417348,-0.09267890132642746,0.9108822130853045,-0.3234655402857688,-0.07260595493078065,-0.06781216359022409,0.14593850393597146,nm,0.0
126.37523200000001,-30.901629462389565,-30.9324960167312,75.95873432088638,-0.051296906497088464,0.4417429633854685,-0.4655486999230578,-0.0692979029394315,-0.09559575281175832,0.07758220186002404,nm,0.0
126.384726,-30.67015055080394,-30.572394617508873,76.28557227201556,-0.14073534542624785,-0.03718575294710335,-0.5745303823245976,-0.047153041465459,0.05745366935687647,0.09391799174676124,nm,0.0
126.394241,-29.357820285368174,-30.088090083504145,76.28778928328971,-0.8590016583404511,-0.3889319623478205,-0.2598850903430344,-0.027072224812304126,0.24499910887634474,0.13763616923197505,nm,0.0
126.403752,-27.84733366934226,-29.543702721806245,76.14442851874863,-0.8048205888605066,-0.667969189986347,-0.1878475522173665,-0.029885249075473946,0.2826551375950774,0.12584275027701522,nm,0.0
126.422773,-23.20873559941904,-28.20351077157753,76.4444606698183,-1.7456744265589332,-1.711595010642493,0.9873093930327752,-0.018262217633789633,0.48019962156795937,0.3136108152346758,nm,0.0
126.43228400000001,-20.665317584612747,-27.573273243354457,77.12920018795235,-1.764620103012727,-2.4045048394185646,1.102983478395938,-0.006274190767951261,0.46999527271651753,0.3778834290341804,nm,0.0
126.44180600000001,-18.096683362392266,-27.312079869157568,78.11738141689452,-1.8054648825015365,-3.062622654494453,1.188254293955813,0.0604149609757748,0.4605085179145891,0.4369192240183381,nm,0.0
126.451132,-15.649880552100377,-27.59811933074146,79.07208933235206,-1.6679189767479172,-3.468397658090495,0.9635645388170166,0.15570790566218717,0.4187676059819682,0.418626703759783,nm,0.0
126.47013799999999,-13.616871930543226,-29.24356647701055,79.0858592273468,-0.6728697611492019,-2.2529761185940047,-0.20222061801422203,0.1936315871304641,0.006539820550339588,-0.06467853431146998,nm,0.0
126.47984199999999,-13.828903322626113,-30.075077175861793,78.10134778123579,-0.1650291363600668,-1.3060056766758892,-0.19091113458439138,0.16953015374365094,-0.06534568308066405,-0.21660026859375353,nm,0.0
126.489372,-14.60450543229266,-30.844011519538306,77.01304239318665,-0.14061317720582278,-0.46001404322787137,-0.002427196080209513,0.13518821089814848,-0.1605346296849457,-0.29487078381544807,nm,0.0
126.49886799999999,-16.57968794879577,-31.70356306261954,76.23860669081274,0.4816248284262191,0.38314957037369773,-0.28888412586349843,0.10295692902544773,-0.3657729805605963,-0.3581523438219879,nm,0.0
126.508355,-18.84374783444654,-32.40244761269769,75.9865752091254,0.46109221554628493,0.7117274968315084,-0.1435696274559784,0.0573126508482919,-0.40403155494370036,-0.28834635586701785,nm,0.0
126.527207,-23.258452920659895,-32.4129952763768,75.99842224801321,0.6397931908669638,0.914026602385282,-0.6774141195854961,-0.11392337591115716,-0.3258780797439569,-0.22564083710633315,nm,0.0
126.54623799999999,-24.848824095507464,-31.71775372566196,74.74753310350306,0.6011973696250537,1.0011362664176244,-0.6389124013405744,-0.06338213964997436,-0.05917728112650365,-0.22022519331690585,nm,0.0
126.56523899999999,-23.799002068276224,-30.800820925616986,71.53443863405867,1.5698270560668277,2.02968618783199,-0.25706726334038554,-0.04523174365730759,0.17337868717142513,-0.2580745252984346,nm,0.0
126.57475400000001,-22.90784363557322,-30.404638984469848,70.27427128368323,1.7147216415531608,2.639976245084152,0.3205004989662008,-0.010952077033077991,0.17195345621885372,-0.15818404114655135,nm,0.0
126.593772,-23.481528967208355,-30.078226893974065,70.66147283163735,1.5039634468676437,2.730971534244767,0.4116393212584912,-0.054364935933923525,-0.0910012588707916,0.06955223675526269,nm,0.0
126.60328899999999,-24.48030308231624,-30.21041844625322,71.74150648124932,1.152978239066974,2.048837150146015,-0.12752912852618314,-0.01694886405817081,-0.17117944929527304,0.11938131597708958,nm,0.0
126.612799,-24.84312696244976,-30.53719956059238,72.61703427418196,0.7946350866111453,1.2772219602047592,-0.35693177490100125,0.056798819295013576,-0.07847280454403664,0.14223480645699582,nm,0.0
126.622499,-24.611863590363818,-30.922728794659548,73.07729760516978,-0.16605017788080714,0.5576923760013666,-0.15777697891980014,0.09917812138765776,0.016602996687669323,0.11947962228603551,nm,0.0
126.651016,-22.532189828201176,-30.832536893554064,72.4191173541064,-0.6991542245924696,-0.5378803477354621,0.024180953198894545,0.01788098931277441,0.21098862763662307,0.07535734382566053,nm,0.0
126.66051300000001,-21.664786123609776,-30.302061910817383,72.58317183687687,-0.5634300823761469,-0.5141302581857632,0.3014646929542334,-0.04255418697240449,0.17614305577462935,0.12421579914237399,nm,0.0
126.68904699999999,-17.548516606774488,-28.01035374315544,76.36158468626121,-1.6359163024701115,-1.9988111845526826,0.9399133632415037,-0.023288299132645636,0.25719821704123835,0.47436638639478595,nm,0.0
126.69855999999999,-16.269430589350417,-28.099902380963034,78.09124657731256,-1.899391198560997,-2.975746937394057,1.0479604255298773,0.08112570691905674,0.2200689054936248,0.4685444303340303,nm,0.0
126.70789199999999,-15.039469030011468,-28.53254745588902,79.26172744124382,-2.2314573554472994,-3.808233899435937,0.9031053583238032,0.1410901590634794,0.1995700021393306,0.3527585422958804,nm,0.0
126.71741,-14.553161181104677,-29.1418267951778,79.43023615321826,-1.7266769767790526,-3.6944886268302555,0.19590702606971766,0.14921149964539845,0.06530871659689805,0.08226702648353074,nm,0.0
126.72690499999999,-14.39330494781538,-29.78626096677086,78.66036026132548,-1.0799384612150218,-2.742231281158976,-0.3568364943895596,0.14556815799282782,0.006672917232837183,-0.13679900377382864,nm,0.0
126.73642699999999,-14.72432679987014,-30.315992181486664,77.42025948777138,-1.0428166091507682,-1.6795876883943424,0.01843335108895997,0.10553560449738947,-0.07463636585790295,-0.27976708984311177,nm,0.0
126.746107,-16.546556379732042,-30.632982631151613,76.30106736826946,-0.024343933980788345,-0.1964517603236594,-0.3984996741103283,0.004028841271027927,-0.3177051676342658,-0.40703597456948276,nm,0.0
126.75564,-18.880819767477167,-30.71878779527038,75.89488272444125,0.46248441159278686,0.6650043624737261,-0.41476136621039184,-0.06620137458753537,-0.39174179106203055,-0.31724731741656603,nm,0.0
126.78396900000001,-26.26353340795894,-30.022384840034874,77.69181104865726,0.6651769393109188,1.0308686368951838,-0.7812309954209664,-0.14754464028724024,-0.2920512548137974,-0.07170255931008254,nm,0.0
126.80299299999999,-26.48767593316996,-28.71075780209128,76.21009285317461,0.8368873021991903,0.8891894678995136,-0.7924539909816115,-0.08215806602646307,0.08111515939030343,-0.20125788375507517,nm,0.0
126.812499,-25.168559246644897,-28.31321154416573,74.371156117251,1.005831155465881,1.2623895708012425,-0.1786063408314319,-0.004442107836907203,0.24643794235310268,-0.23857411486967706,nm,0.0
126.82200599999999,-23.24851619313835,-27.61462413475518,72.27637055099096,1.925349907951508,1.993648913720587,0.192785651375257,-0.022794311263186266,0.36689420194603356,-0.23602410402531407,nm,0.0
126.831706,-21.243040013219016,-26.708533034259474,71.0667715892437,1.9642310787808839,2.6489517216574794,0.9332520377578837,-0.045989498684974886,0.3976232842276346,-0.056244973381138944,nm,0.0
126.84121999999999,-20.702002890318017,-25.961947987175733,71.47309705853613,2.15985209892691,3.0680003915982987,1.1697641891705843,-0.09649647846319961,0.1415544214590652,0.13182967326851275,nm,0.0
126.860233,-23.056924494345147,-25.040778312789374,75.3281215040224,0.9885142188557104,1.6882732225184272,0.28996663601196193,-0.1140403695199587,-0.25054700345880204,0.28916482501851964,nm,0.0
126.869765,-24.18907483019031,-25.238673539082665,76.55069810092029,0.7910322327560194,0.9497994353848264,-0.1048743899370893,0.0022409239438923637,-0.2061794750872678,0.15150605950141788,nm,0.0
126.87928099999999,-24.411504477651675,-25.84993282051215,76.53589693906979,-0.23421711490382466,0.24614826610143625,0.1600593516270754,0.12332371764491014,-0.06510483890310063,-0.019030053910956003,nm,0.0
126.88880800000001,-24.794954334575753,-26.77323016688403,75.43478076093248,-0.13524480765573163,0.03271244874689074,0.004658569493460134,0.17635634756765503,-0.10945463826934351,-0.25119533872430844,nm,0.0
126.90779800000001,-24.375969821307628,-28.342947133357878,72.78255202672695,-0.4483454463607574,-0.09865947638097694,0.20591360943643236,0.15879053357732276,0.030245929270450733,-0.18307069687493194,nm,0.0
126.926819,-25.35041665072568,-28.386015220969416,73.93628665762162,-0.32029518376217414,-0.4294304477851018,0.02964912432399848,-0.05967184566463376,-0.06948527574201623,0.19923947264934727,nm,0.0
126.93633299999999,-25.197062932505837,-27.725496201486465,76.1325712915771,-1.891243278992128,-1.2063938257122915,0.3810049574580182,-0.10716345966908793,0.06255715461204028,0.45766290821128747,nm,0.0
126.955186,-25.572684506105126,-26.929239354404825,80.47797282736131,-2.42822433682525,-3.308374765248981,-0.22223257514553094,-0.020573590637006773,0.023567705059762686,0.4001546625232627,nm,0.0
126.964686,-24.4599286387974,-27.204396739063846,81.29480739255534,-2.9342836954873537,-3.9995729569510683,-0.15564174184992288,0.09921148833256614,0.19070985056767417,0.2682163928414274,nm,0.0
126.974176,-23.16467280495714,-27.68599602598949,80.5201530501444,-2.0893943545780505,-3.6163988005070764,-0.574762878035428,0.1450269265341658,0.21546416359919793,-0.03247690554229646,nm,0.0
