timestamp,roll,pitch,yaw,acc_x,acc_y,acc_z,gyro_x,gyro_y,gyro_z,markers,motor_input
99.00453999999999,-34.327539142121665,-69.5731791218225,-89.04618132707202,-0.6278803132475108,0.9570476161344503,0.3235042108757636,-0.2055391417087479,-0.338388660915371,0.22657067369081715,nm,0.0
99.02355600000001,-29.806226569846235,-69.89972124337355,-92.4366611191848,-0.2408272662203671,1.00191884641733,0.5568439281541953,-0.00019258935520639133,-0.07540290725131352,0.041803554828520675,nm,0.0
99.033072,-30.220855643738364,-69.28394760873944,-92.50133043584242,-0.07485256615037195,0.8576161573957646,0.4310670189613971,0.11197696799508042,0.023481633278328827,-0.08400287837441887,nm,0.0
99.05208999999999,-29.20040491209772,-67.36456174579226,-95.64166820251162,0.5390937786270713,0.7995589419701009,0.09342638734103406,0.16606216743006533,-0.10160751452590053,-0.25419125377580254,nm,0.0
99.061599,-26.602735040858676,-66.72018861638993,-100.06387094733789,1.4690177520598415,1.2499452236456252,0.5644547733834006,0.08752345012835894,-0.21784476684957044,-0.399860882212799,nm,0.0
99.071099,-23.104364691842008,-66.05954802340594,-106.55959225412796,1.5682279768562593,1.0141088842228723,1.115277029408703,0.051496035519837696,-0.3019271814863246,-0.6522944435460052,nm,0.0
99.080603,-19.530463138774692,-65.02284613541788,-113.88403961539096,0.9559807685852355,0.4065330934192858,1.3392751016084445,0.07975786635443802,-0.34740360976368895,-0.8088753548872415,nm,0.0
99.090125,-16.878571856189957,-63.923005167226854,-120.01118540724119,0.42322313664075106,-0.0758137986353399,1.1413150907660154,0.08002343239727125,-0.30071854561958045,-0.741816413785042,nm,0.0
99.109141,-16.102316418909705,-62.62203200676002,-125.94866897464323,0.6364681714958952,0.1182591721736561,0.44974579098638257,0.09998360320722785,-0.03575199367153773,-0.4543559404996881,nm,0.0
99.12798900000001,-16.750883649607978,-60.61161611385252,-127.16555224553353,1.1213955306248606,0.39969306440528196,-0.7455768185334094,0.16972701594739759,-0.12777707247247846,-0.09272096289437606,nm,0.0
99.13753500000001,-15.980716881312045,-59.609417669384634,-128.11448930967356,1.1100805716403501,0.49312861390377,-0.8853012012045252,0.09938795575755917,-0.17920039734780085,-0.05134368733747737,nm,0.0
99.14704900000001,-13.909781271176433,-58.84186017587511,-130.05182835379253,0.8442180907038916,0.3560524919166679,-0.773223149758647,-0.02715504052375507,-0.25729745904066964,-0.02689064383427411,nm,0.0
99.15675300000001,-10.791766212888707,-58.303078658055526,-132.3673567723868,0.7456352578001133,0.2891093516815898,-0.37985912023572455,-0.1443665433026985,-0.3124022122272155,-0.05542223055413539,nm,0.0
99.166255,-7.2966605242205524,-58.12867639309925,-135.27025518268593,0.09335961168328784,0.09248301473562327,-0.21135799707459849,-0.2413609772454206,-0.28699310474030754,-0.10793882961890193,nm,0.0
99.175771,-3.783850072012353,-58.532015177445984,-137.87903676401655,-0.19169574766693145,0.010739859952497287,0.09642370077367378,-0.3355138507940679,-0.1928038464437498,-0.06384806435547169,nm,0.0
99.18527,-1.137382900817817,-59.49934410304662,-139.71258287938912,-0.5046902384631881,-0.09498689941175917,0.08938860316194201,-0.34578398544937283,-0.03130699752052635,-0.029371556596587738,nm,0.0
99.194794,0.09204250722673621,-60.96738085189905,-140.22073998793783,-0.8391453151405843,-0.20805356306858352,-0.17423830893030917,-0.2964157471478225,0.14983563366484753,0.03297942591348653,nm,0.0
99.213637,-2.6979308747700492,-64.79809185163163,-136.10603645149808,-0.8815778495223893,-0.7133865264314677,-0.8954667382840121,-0.12315885305371475,0.4379025985145893,0.11436548327766603,nm,0.0
99.223139,-6.534236030459228,-66.38446998138454,-132.17574492786449,-1.1386128606595758,-1.1238503620893074,-1.2181217263658495,-0.0205886586627962,0.45283303793687707,0.06201400070761261,nm,0.0
99.232643,-10.468285669860993,-67.25583050986702,-128.5521320571947,-1.2121393453422202,-1.5384998816819266,-1.2394329279886198,0.054436869243769906,0.3531106289230167,-0.02473420851375284,nm,0.0
99.25167200000001,-13.278084592851668,-66.63806348923137,-128.10913002677398,-1.3464241988769292,-1.8600746631026264,-0.4985999265867763,0.10019286566933616,-0.06698247681155539,-0.3519126703763783,nm,0.0
99.261177,-10.798193646202975,-65.51328321396423,-132.3320090050091,-1.462046819707009,-1.9814607838765692,-0.049888349533055674,0.03121961385849408,-0.2942389018830817,-0.5035078254704966,nm,0.0
99.270869,-6.515923669128822,-64.68059648489346,-138.43578758974448,-1.6771396093994846,-1.8145620489972984,0.4489701498065854,-0.14979007893069238,-0.3677306807551817,-0.5824692153708152,nm,0.0
99.28037,-1.7627914284104955,-64.27029583680375,-144.91667757553384,-1.2329161251713303,-1.3654805355066548,0.6476069349720545,-0.28079467938463093,-0.31451224653735527,-0.5841476897692499,nm,0.0
99.30868899999999,2.58619916694983,-64.96515090595334,-154.80748369924984,-0.11771590162312272,-0.36314748045096024,-0.8907664578550285,-0.0526998162155712,0.11625202944684183,-0.26928456199841666,nm,0.0
99.31819200000001,0.24259165970194416,-65.38062940369888,-153.48352935773303,0.49252978006602516,-0.19835360590092876,-1.2969307333028681,0.12936680690989058,0.1680925956341621,-0.15730967247425803,nm,0.0
99.32779099999999,-3.30215090213551,-65.13829091638105,-150.6016599773979,0.6362447517990829,0.020100341906706013,-1.5097252273912174,0.27347379755587786,0.10356968324327255,-0.06397959856474081,nm,0.0
99.33721700000001,-5.903342642646141,-64.35194920063603,-147.731194814277,1.4404317950803425,0.11030197803400693,-1.1111092535961498,0.2598245753177888,-0.014386691549875338,0.10756293628071997,nm,0.0
99.356414,-5.380953465199445,-62.75387618468622,-146.89387154317544,1.0811691088828537,0.559673956772905,0.47003387784169576,-0.04616517629955035,-0.18595833466496375,0.162461959371488,nm,0.0
99.36591899999999,-1.4270302354737645,-62.20208523006772,-148.7285649926721,1.309100772949991,0.6160586170141744,1.3934537928969062,-0.2628484003454235,-0.28190798543107276,0.3386338392047308,nm,0.0
99.375437,2.8271802530640477,-61.791069378938744,-150.8263438252446,0.9379367140016988,1.0079327541810854,1.925794610934353,-0.31651579376385597,-0.2661958372384164,0.3355042877097812,nm,0.0
99.384942,6.594036390037012,-61.62482383931811,-151.82283765689047,0.30386769472922714,1.3238517707168267,1.705444163971642,-0.3103781577995357,-0.1949890164465992,0.46754287128196903,nm,0.0
99.394455,9.615587249884532,-61.93251153463393,-150.8038769811182,1.2647761382097507,1.7264582863151532,1.7393435025479238,-0.2937648103948908,-0.07834930886042567,0.7395997742126172,nm,0.0
99.40396999999999,10.14474732080213,-62.74868300034992,-147.8795749721023,1.2100193980922351,2.0422263482847014,0.9721160317647738,-0.1391785210093027,0.11972691529359424,0.6816875610360771,nm,0.0
99.422797,7.691048249493111,-65.14617883979754,-139.15237826581543,1.452014462080112,2.153077392412024,-0.42583231814841294,-0.08458772744887577,0.27077174736286974,0.6583621491041242,nm,0.0
99.432321,6.516548467966342,-66.16594368164706,-136.08868803421427,0.9685446807980105,1.8701481309022134,-0.8023389615057666,-0.07987004081343067,0.21844508873216645,0.40214451067242607,nm,0.0
99.460846,11.900938164071757,-66.58408906087041,-139.02789456158004,-1.150606754675983,-0.5148993007356347,-0.31753466611916537,-0.1691040573441509,-0.1558214823211489,0.0012202452057504952,nm,0.0
99.480054,15.92773129733281,-66.27138321471391,-142.69141195222736,-2.3721087966610868,-2.2523127774528637,1.3541278776995693,-0.06875572860086226,-0.105621886419699,0.03048485026022058,nm,0.0
99.48957200000001,14.656930880421974,-66.0817243340216,-141.99922015272338,-2.864457441942739,-2.917191295771385,1.8647504059432496,0.09078484700143645,0.03472108833852836,-0.09156588956261988,nm,0.0
99.49907400000001,11.944429329282285,-66.45127400912874,-140.5692025687024,-2.392563193111714,-2.975586628813648,1.5152436807241154,0.11051962931559961,0.19671871912534028,-0.20816735958308466,nm,0.0
99.5084,10.624696269232285,-67.6048655842954,-141.06822073374136,-2.2770748620683885,-2.651422703136538,0.7591921354422887,-0.07962529342071875,0.2470980334234982,-0.34008863406887946,nm,0.0
99.51792,12.936322057400485,-68.37786474782911,-144.52577935550048,-1.7209002544526089,-1.8977664772129423,0.29206668781773826,-0.24515400950457036,0.021710196201617776,-0.2595919479979831,nm,0.0
99.527422,16.806209117520783,-67.81171443884524,-149.66441833647863,-0.4278294537980835,-1.073564182181948,-0.6696330413349604,-0.19431204882639494,-0.24857859575870853,-0.30636978931602,nm,0.0
99.536933,19.915436341296637,-66.54273098692681,-155.21980643439372,-1.0767279026791803,-0.8516673938728919,-1.7183551829804857,-0.10956681128709575,-0.33281816727515184,-0.5353321778804783,nm,0.0
99.55596399999999,21.912433070372273,-63.28311754897953,-160.32532351883032,0.6851262492252834,0.503021947341857,-1.3397661459880097,0.14109178007018797,-0.31590101231214507,-0.2854212449624914,nm,0.0
99.565483,17.70010155940247,-61.16709043590407,-158.39346896609854,0.6572346495140767,0.6878661790527713,-0.9838983071715482,0.5040205388523213,-0.252779327978419,-0.3582696503296808,nm,0.0
99.574973,11.686821994188323,-58.958966448788395,-154.46684581884915,1.0221165186482055,0.9139558616415696,-0.2723519469411121,0.7141992645169688,-0.15939781316884274,-0.2562119002936238,nm,0.0
99.58466100000001,5.74234895987376,-57.03703303894388,-150.01242361131733,1.5567101108948032,0.8324111467129288,0.7265246830906997,0.7241046425323656,-0.04119384259466468,-0.11620609946358276,nm,0.0
99.594158,0.4996713197756509,-55.45393538495522,-146.17692206812637,1.5235027617982042,0.5315611439924883,1.1416634450991365,0.649540931834492,0.04462395820351714,-0.10296201547043327,nm,0.0
99.60368299999999,-3.3310550168183,-54.526077182072775,-143.62194317886073,1.283254859960038,0.3053890512761627,1.0084999462126356,0.45395364361604784,0.106440696349599,-0.1141934337904248,nm,0.0
99.613194,-5.186558402094447,-54.59730720593064,-142.50439237194877,1.6158238589264173,0.3550680472736702,0.7016330011242108,0.15084085884340098,0.1463212816442259,-0.07606130355854077,nm,0.0
99.622706,-5.492383589506464,-55.80020490026628,-142.59905702859984,1.7375126018115543,0.7155243488054281,0.3907744646428749,-0.13142333101353038,0.21812487355899796,-0.06612911262894984,nm,0.0
99.632058,-4.305532343085028,-57.449710905299284,-143.31960319770252,1.8583881707768273,1.2452910878746826,-0.08868574567898935,-0.3160234349461189,0.19058588190845685,0.057414936350971,nm,0.0
99.64157399999999,-2.178752242869978,-58.78862872567546,-143.82995852855487,2.135364089497046,1.6869852233034301,-0.5224448194707354,-0.3529772080256879,0.08763462301489904,0.26262275033372495,nm,0.0
99.651063,-0.3574456697760872,-59.59845882904229,-143.3816140881866,1.7820930942117934,1.9116306165243317,-1.0277466563500177,-0.2595742264948071,0.024748984703358436,0.4060614641386246,nm,0.0
99.66057,0.9630599091901654,-59.894591431922606,-141.58248738401585,1.278768319535592,1.7944104400952554,-1.0898940377196376,-0.15507413971968004,-0.029763473632395655,0.5915279456508321,nm,0.0
99.67979199999999,1.9679930749646817,-59.26000415393338,-136.08532707753255,0.0804726573908829,0.8690343493771961,-0.4905417547634073,0.033615069096647916,-0.06520520835790804,0.5723616221820419,nm,0.0
99.68929,2.686094963089466,-59.31929024046146,-133.90359610693397,-0.7780219529752961,0.037644588368795646,-0.1080207300227611,-0.07416593980688337,-0.041383638677832485,0.5630931952220177,nm,0.0
99.69881799999999,4.098424414166352,-59.96896704487038,-132.54290713687746,-1.4022162936723361,-0.7170150223560869,0.44504501489810844,-0.20664060915771484,-0.013419292032126095,0.5190756749214843,nm,0.0
99.708328,5.539989887491884,-61.321687231734494,-131.63907206578506,-2.2596114998079186,-1.5321797400745456,0.7458907659733824,-0.3098991251181065,0.07779732577086337,0.4351939564406248,nm,0.0
99.72714199999999,6.63580671185516,-66.35918174352543,-129.57242801460066,-2.457518052430686,-2.408567931784318,0.32678880452490494,-0.45538944159702394,0.3534597436094228,0.2467866024997199,nm,0.0
99.736651,6.871252131845472,-69.08514759666859,-129.08875264959272,-2.1678396579761547,-2.3790827747772347,0.020822283565324777,-0.44765831572993664,0.33307870821518026,0.14382812428309213,nm,0.0
99.74615600000001,8.241712947830473,-70.74614798906039,-130.15827316040495,-2.144540221721602,-2.3812744013860243,-0.19134330087763676,-0.3301752833988782,0.14052116889960334,0.047389097217192484,nm,0.0
99.755673,11.045517586253899,-70.87802335268086,-132.9714274079133,-1.709573844221881,-1.7314163122284159,-0.2732536128274286,-0.15576679486894807,-0.11955895999305875,-0.028928545454418975,nm,0.0
99.765175,14.318326645341001,-69.74816044524914,-136.79968517569512,-1.4849477082199467,-1.0869995219962294,-0.3609451452639817,-0.00897121447815567,-0.3150176712200559,-0.14545522233960018,nm,0.0
99.77469300000001,16.88727238849643,-67.69959844842973,-140.31030873668308,-1.2909530560615592,-0.6765747775248055,-0.6506842751505477,0.11808687805369802,-0.42990640111135187,-0.22005624004929542,nm,0.0
99.784209,17.945955149167357,-65.22525950283388,-142.81024322183265,-0.6915047523163462,0.004867409834721666,-0.7311592053464527,0.22813211810689832,-0.4393943010184561,-0.30341481691959743,nm,0.0
99.803403,14.619326871165972,-61.411587974784474,-145.49979831769426,0.7204644391282299,1.1447440667481703,0.013830764805061672,0.35771505436942524,-0.11314805240539334,-0.6591718690976153,nm,0.0
99.81290899999999,10.510773850365933,-60.576486101874,-145.80958351685544,1.4936457926468896,1.2484052301934299,0.6461882207374154,0.41025307975939246,0.09067515849971086,-0.7794657677320345,nm,0.0
99.82242099999999,4.802386940180427,-60.30062538608273,-145.4285608503778,1.9156361073214319,1.0905567705318593,0.8092459931509127,0.48346736168500964,0.2775072556336661,-0.915525970527902,nm,0.0
99.84144800000001,-5.4932655875343706,-60.98106397751883,-143.44104802985166,2.309513800871963,0.5965549673543804,0.5916012742844051,0.28618033743148846,0.33147584142046965,-0.5485100243954806,nm,0.0
99.850766,-8.517064046198684,-61.331440837589035,-142.6928722649635,2.068039547322583,0.34138496324869183,0.014875888274375698,0.1792668498189011,0.23790764693793098,-0.37663172613572815,nm,0.0
99.86979199999999,-8.38750539670487,-62.3746278059236,-142.0937044961114,2.1688987383603617,0.7538390826574962,-0.3490564493099331,-0.17708910396927674,0.03358786308924439,0.2656396761233905,nm,0.0
99.898323,1.2220014969813817,-63.86425482187174,-141.48104318828806,1.023135947757848,1.163167852551392,-0.26035836832057346,-0.35868790786411703,-0.13534459167141596,0.7952220121293483,nm,0.0
99.92703499999999,12.278174040446878,-67.03412315732899,-141.03790896537492,-1.7772114244390924,-0.8082736035643439,0.22137877420943217,-0.38889356094058214,0.01763345083174447,0.6569250587840605,nm,0.0
99.936563,15.230214015343966,-68.44883015839582,-140.42803734196335,-2.464666582027665,-1.8496558794565539,0.99599079135961,-0.36665263166857703,0.07929536581076164,0.6722583687521985,nm,0.0
99.94606200000001,15.472492347972432,-70.05653401640059,-138.1386818471528,-2.7881772047295748,-2.5025507204200066,1.883529462609273,-0.23717271244314025,0.23400247185391942,0.5067682907885298,nm,0.0
99.965081,6.602450375246419,-72.72986733419145,-128.0272591562789,-2.2148799012935223,-2.6574120160899537,1.1607653624200223,0.01325359676890834,0.40760098390678456,0.07417501755488114,nm,0.0
99.974412,3.637861808272765,-73.54139888769342,-125.5418625057995,-2.1142079685056174,-2.504711346857247,0.017663102365877658,-0.040756377736858716,0.23597041462079468,-0.06655407957476348,nm,0.0
99.983922,6.004564521663662,-73.24390178335904,-127.96495763908774,-1.4211295724694564,-1.6248916793278587,-0.8843574168448112,-0.046626944358107464,-0.1432489517218916,-0.026220690780352194,nm,0.0
99.993449,11.42068142168864,-71.93798823066417,-134.39853306834377,-0.5280175754412563,-0.6468790203596738,-1.2970185209026102,-0.030016517217416366,-0.41490564088827026,-0.24814615556655253,nm,0.0
