timestamp,roll,pitch,yaw,acc_x,acc_y,acc_z,gyro_x,gyro_y,gyro_z,markers,motor_input
114.51571200000001,-37.11388305736749,-11.77543855631191,96.86134998240685,-1.4509347981672593,-0.4426659277095593,-2.13378793606466,0.09600518146741012,-0.8132045136376891,-0.20386146304172587,nm,0.0
114.544265,-36.98547036586431,-16.209887590929064,94.03768426287475,-0.17696507131848893,0.7748853740088463,-1.466879390500165,0.33304128683885315,0.4558941850671463,-0.1396583206797865,nm,0.0
114.553687,-33.15316751340123,-17.20322784448504,92.58587773738115,0.051072989712011276,0.847803189781352,-1.0007730243617492,0.16824129848760874,0.7512079500458078,-0.06586624774975532,nm,0.0
114.56320500000001,-28.226073326545286,-16.980996926442526,91.50378286322233,0.3703650692746703,0.8823734526962074,-0.6520412448681521,-0.06563528262936003,0.9468937193844538,0.07649837633763382,nm,0.0
114.57288399999999,-22.208908171880196,-15.67295932525098,91.2996759725895,0.3772198479375988,0.9682463589632272,-0.3335209992663818,-0.277356118766679,1.1560384874354552,0.2995432856054189,nm,0.0
114.58239,-15.66925712594992,-13.778332454307904,92.02218244307412,0.2686519849832171,1.1763320018340138,0.2613559159925339,-0.4031903717553458,1.2621226440993616,0.4774181436640648,nm,0.0
114.60123200000001,-1.8533099531598407,-10.55936277830898,94.97777559327588,1.2895877845308423,2.442941689900928,-0.051546623668248796,-0.3612092848942241,1.4166661859450709,0.6056827173892496,nm,0.0
114.62043499999999,11.861123763314765,-10.710281436266744,98.32868496691309,1.4313816883325436,2.000316718665491,0.731208018576822,-0.04113716085896567,1.1838645570319397,0.5212909415261439,nm,0.0
114.629774,16.005336276165714,-11.559552437442413,99.06092211188597,1.69836903393182,1.1975624551580295,-0.32502261651403774,0.053495389711331755,0.8399129002580492,0.3003335589329145,nm,0.0
114.648969,22.513034806396213,-12.356753304859108,97.15088559765566,1.5569631184357322,-0.2454686557294643,0.1149542058964747,-0.0316303467913865,0.5307933210331756,-0.181361453335697,nm,0.0
114.65830199999999,22.272640491406552,-11.995979964895305,95.40454824950385,1.5219574236455722,-0.3617512034778589,-0.30465875290132455,-0.05846134549237784,-0.04576954988596433,-0.367231606549345,nm,0.0
114.66798600000001,20.085450092391515,-11.532503663072145,94.20136553695237,1.2398478403637057,-0.844656788680564,0.25993132468327607,-0.04784566865474267,-0.42642512662089366,-0.3373254143774741,nm,0.0
114.677492,15.471853789150863,-11.784201580977967,93.98169167223564,0.5460274061937381,-1.3608478910795183,1.7652679781133713,0.12422335891446772,-0.890380488308931,-0.23700227692127523,nm,0.0
114.687006,7.593231088613419,-12.704264110848628,95.07676170636854,-0.3442668529959539,-1.6572069400528573,2.4301662274249782,0.315359561801615,-1.5138306912776804,-0.12049537273639566,nm,0.0
114.696516,-1.8431114404896596,-13.319312133022105,97.47000337128644,-1.3515943049152361,-1.9610073926909084,2.5008879518628118,0.3341317989876017,-1.807792443110871,0.04977230982950796,nm,0.0
114.70603,-11.148858953545405,-12.893293733122489,100.21953234933622,-2.7889020148462476,-2.562226616608282,2.0146450950119266,0.20598567397996084,-1.7974218701424098,0.12574814699905434,nm,0.0
114.724854,-27.7573767476183,-11.19715575299111,102.183946829372,-2.4586565960379083,-2.1659245533850173,-1.2684667724179204,0.19251956044779914,-1.47285239519666,-0.26598798825483283,nm,0.0
114.73437100000001,-32.967631409923996,-11.559772175718063,100.77955758433362,-1.822292682476216,-1.446451080220533,-2.0840080425696796,0.28588158375990075,-0.9799457090044092,-0.4833146649842431,nm,0.0
114.75348399999999,-36.67664754615055,-15.021720262305957,95.34179379464736,-0.7413253024065248,0.2215204219724301,-1.8899926712711068,0.4326549975695415,-0.11000251065111477,-0.6204627812425587,nm,0.0
114.762924,-35.63383887727075,-16.72275224904822,92.7684881203555,-0.3539727939056058,0.7998050234783155,-1.32213400737811,0.3376335368050623,0.23031453359616683,-0.4534939656456297,nm,0.0
114.77243200000001,-33.305104730450545,-17.22721952564334,91.0145647367004,-0.11585545061628413,0.9188661231031471,-0.8941725984863113,0.09857230354108441,0.4546929455634405,-0.2108403252483614,nm,0.0
114.78194300000001,-30.260654733016743,-16.374759319909618,90.48851988749892,0.15375743121223046,0.8664039046243306,-0.7340347779931093,-0.16578413559116917,0.5870695461293888,0.07434274952116973,nm,0.0
114.791436,-26.373413894666395,-14.611803178360033,91.22366041102154,0.24530505846453485,0.6650583316706964,-0.7178345750287136,-0.35153165491635,0.7510450772852478,0.35748591240174754,nm,0.0
114.80113399999999,-21.294598634638437,-12.597847722908261,92.75070948549745,0.022621964743659764,0.5146290955816958,-0.392287652386403,-0.4247107258581376,0.9809303299515247,0.5458709855857721,nm,0.0
114.810632,-15.291278801733169,-10.753215526338183,94.25781911463066,-0.08983943314683311,0.48454454758081694,0.29264662716941264,-0.42827635142911324,1.1601426406784456,0.5443462092676657,nm,0.0
114.839168,5.998207995275022,-6.7209624598025375,94.61068701792362,1.4016385009094667,2.3477374630414247,0.9403602528896747,-0.35000403495395205,1.469740862571367,0.08314502146957863,nm,0.0
114.84868599999999,12.947163591911233,-6.0250330050667324,94.35282593364742,1.7172563902566669,2.7288658121019593,1.3621333762915502,-0.23707045585849176,1.3756851354885036,0.09621997758448123,nm,0.0
114.858191,17.846315649847227,-6.021552488630606,94.7379136377732,2.0061106308655723,2.412360351130734,0.9810589256838782,-0.06898980257703562,0.9804852083408218,0.17247767018532503,nm,0.0
114.86751799999999,21.012601124556536,-6.668409999814502,95.60691093420063,1.987767639116485,1.8120310386153988,-0.3661395692413924,0.08057380184411846,0.647491781666354,0.23606332620841838,nm,0.0
114.877209,23.54885577417039,-8.171325567882123,96.5415964251805,1.7740456327593541,0.9646223139230373,0.3391173210668616,0.253778983525718,0.5412289824265284,0.24455420317180862,nm,0.0
114.88664800000001,23.86853559764967,-10.188005713950142,97.26575807075747,1.6779712548952384,0.264352576977633,0.9121589989148442,0.4009692420244409,0.12023349797440576,0.14729043390523924,nm,0.0
114.90566100000001,18.355538752985893,-12.918740762605447,98.4779728855932,0.8058432307659422,-1.1347134311032654,1.6626156762479387,0.3148539778641688,-0.6461643526681795,-0.04402896399030022,nm,0.0
114.92475400000001,5.501647215637831,-14.92166796570619,98.8214816915559,-0.41451403433929096,-1.9147405233068573,1.6049729121833927,0.4411326356556453,-1.3424438361962174,-0.3504179078195632,nm,0.0
114.943783,-9.39207223021063,-16.72063712319562,99.15069448568121,-2.1938307859641886,-2.9056063942990815,1.4357099900047763,0.3862602142232094,-1.408838166617095,-0.39178237666342286,nm,0.0
114.953104,-16.86189976269805,-17.16896384745469,99.30185815088193,-1.963358309013437,-2.417602458520018,-0.18386024059856318,0.3293186129129461,-1.389549044837472,-0.40506126308337,nm,0.0
114.962624,-22.885339152972335,-17.388392928410738,99.38540811366667,-2.007137420008714,-2.0855636444536003,-0.8969078726415373,0.24183700852284915,-1.1212646069065362,-0.33957907346462324,nm,0.0
114.98165,-31.35223494222785,-17.364785334113737,98.59532051923058,-1.2394158540278555,-0.7206719574773846,-1.5890001194343792,0.10249792081727482,-0.6747497527755989,-0.333405660053093,nm,0.0
114.991175,-33.31377872809033,-17.49367905528717,97.77832214647881,-1.0084954887978335,-0.20687126212784973,-1.5126100899491943,0.0905250424388119,-0.3602577850004605,-0.2770456755415363,nm,0.0
115.00074000000001,-34.181563827717014,-17.94112149739929,96.93076905599101,-0.639375632959667,0.27749869067784017,-1.4618750981770778,0.12174093373596992,-0.14595818565777313,-0.21818621064740962,nm,0.0
115.01968199999999,-33.39224323849217,-18.532734040818017,95.49380702720468,-0.023397387023476404,0.6249309202039962,-1.2004530967430456,0.023085706830533147,0.1615848533415758,-0.07038270779187579,nm,0.0
115.03870900000001,-29.840001103832947,-17.172530790552425,95.25131504773199,0.35236825450098136,0.7329139403591085,-0.9179319882231257,-0.22199781978823746,0.3924957834579891,0.1437074137050595,nm,0.0
115.04822999999999,-26.649183606844918,-15.655422366626935,95.62952353934278,0.2828577068739614,0.7972869181470149,-0.7096077978041634,-0.34844683734964066,0.588491383009569,0.2588444357128337,nm,0.0
115.076922,-12.503964599636452,-10.937664397990998,97.46242581331074,0.47592108724506127,1.818618234612771,0.22118735559036945,-0.3853803456738972,1.0448255112079077,0.34380433462318394,nm,0.0
115.08626000000001,-6.477310577881213,-10.102601436303877,98.10482775125834,0.7693077339375637,2.275239009148079,0.31177266801022296,-0.3151350632498029,1.1615659345278502,0.34648834770066755,nm,0.0
115.095944,-0.4668473263120906,-9.98963665781489,99.0376008010608,0.8227409856023891,2.2666072229316354,0.7984062202010948,-0.18849643648479092,1.1774385427526668,0.39293304167943494,nm,0.0
115.10546099999999,4.304142266629286,-10.499260367863778,100.22194313232141,1.1117141610747798,1.7840049122227162,0.8397176906592289,-0.04688616487851146,0.953223090856469,0.4024149825295434,nm,0.0
115.114801,8.06179184770486,-11.361546716317601,101.33288966557048,1.4852562286802027,1.3719000182845187,-0.20392417154609435,0.04062526449946337,0.7676214490046135,0.3599398625435197,nm,0.0
115.12448499999999,11.649077021702738,-12.499273185519966,102.1589238156013,1.3691246466413545,0.6088338797943385,0.10515519648938648,0.08851491991616754,0.7443168643009579,0.3082441455413722,nm,0.0
115.143318,14.067115637605232,-14.541521196807,102.69746274095128,1.3815106398734636,-0.10595110259785916,-0.34838696603416675,0.15601505718284503,0.122486769579925,0.04086128533785784,nm,0.0
115.162519,10.2066357591671,-15.331993346394777,102.58218760264342,0.5118578717628707,-1.3357772655033104,1.0923827015782224,0.1997222017292093,-0.551852254556225,-0.1916512909886167,nm,0.0
115.18154200000001,-2.252967973094781,-15.485562142183046,102.1128243184376,-0.8228465182715834,-2.494940014130549,1.9184234668559494,0.2986940039944124,-1.3286363302199475,-0.43124439541079185,nm,0.0
115.19105099999999,-10.018866591505436,-15.40279205737353,101.88616930726698,-1.6457323932194319,-2.9881338678215696,1.6852177195921065,0.30615003557207365,-1.460365177138347,-0.4604114523164659,nm,0.0
115.20038400000001,-17.670492519243062,-15.277144535754905,101.6861878594004,-2.285836820986975,-2.7595131190158924,0.7271011747822029,0.28830129990177616,-1.4427498385623743,-0.44469772367546684,nm,0.0
115.209893,-24.75973856287817,-14.94574693487642,101.42109468069768,-2.118638712310713,-1.9188466568121287,-0.5172524232245077,0.22078944903452125,-1.3475938529865892,-0.420989528461109,nm,0.0
115.21939699999999,-30.355992270376497,-14.501233589260469,101.06529128268669,-1.6806920391887399,-0.9971816574492924,-1.3926920330268233,0.13531363292971857,-1.0723256813522855,-0.35273785940933333,nm,0.0
115.238507,-36.13951368347821,-14.653989941084982,100.24028344568431,-0.880262055609953,0.3954428083488225,-1.8271724389731956,0.14846350943489964,-0.36504701450967547,-0.1826111182237085,nm,0.0
115.25745699999999,-34.784095383936936,-16.543187726219017,99.1378994369714,-0.3494700338272491,0.8162474060209348,-1.4090289545242156,0.17454666124712298,0.32914729633286677,-0.031223204923745976,nm,0.0
115.276463,-27.705881094438123,-17.867222723945442,98.0268966312139,0.009711336580330859,0.584008519366226,-0.6927224153554461,-0.02769423896886193,0.8078278579885481,0.1563264622556552,nm,0.0
115.28615500000001,-22.38960983554603,-17.424340413905934,97.77853948511691,0.15294224332790324,0.5101620976995749,-0.4090574632920035,-0.2155176699325478,1.0004047951787198,0.27487492587493245,nm,0.0
115.29567700000001,-16.20389327723422,-16.34229257719133,97.9463841433771,0.022599441159432094,0.478795886699034,0.1370302018233669,-0.36499231038559615,1.1527543029934977,0.3937545789778098,nm,0.0
115.30516700000001,-9.859126147216255,-15.035937112145003,98.48859999082444,0.3847254965779685,0.9020510215497155,0.3838867321965148,-0.4222681675436766,1.1819782507175896,0.45097749849721214,nm,0.0
115.31467699999999,-3.137909760004517,-13.787468558304434,99.28692956285792,0.6257359761158797,1.4253146677573494,0.713892504870242,-0.43749771188844466,1.2584462959348117,0.49204752740843216,nm,0.0
115.324199,3.7393735955665774,-12.792883895654517,100.21595518381052,1.0112956685821346,2.1421545572093836,0.6694914955383854,-0.4132219192423741,1.2966714760031364,0.49828489352116256,nm,0.0
115.33371399999999,10.628332170221983,-12.567960856864692,101.38390984290577,1.1673971838679804,2.5095812944043905,0.7440911536071023,-0.287527024083825,1.3233528588828745,0.5309808341455414,nm,0.0
115.371564,26.026644175556093,-18.19786405425513,102.73878872865943,1.573585534758635,0.025814390142872706,-0.16031699144506503,0.2050365775398725,0.590639836762215,-0.03985511412630332,nm,0.0
115.39058800000001,25.58827889275114,-19.76381026480875,99.03752318398047,1.2988555455011412,-0.9983309775540053,-0.5501517311389492,0.11958237351272649,-0.15860270628793977,-0.45937971482425427,nm,0.0
115.400285,22.735052343356337,-19.705290730786864,97.15995831442879,0.9209871584521085,-2.0036521046767812,0.6630971216851739,0.07191238259931061,-0.5240499214939093,-0.5751120046956585,nm,0.0
115.409787,16.939551728427627,-19.430393843873862,95.43392079648775,0.3213024858833948,-2.633102945937241,1.4508850691663386,0.07420586385868656,-1.0834967758875023,-0.7395033147755286,nm,0.0
115.41930400000001,8.841333904170467,-18.938295716389213,94.12239757286027,-0.45790397306940106,-2.9326680411851838,2.030024625421414,0.03975914369552278,-1.5257080852111755,-0.799282742346889,nm,0.0
115.428811,0.00015450365844290307,-18.164464903664506,93.41380359553538,-1.6267287298285453,-3.0357750840737574,2.2883104120199844,-0.03277447695792432,-1.6768165907483794,-0.7075484621229869,nm,0.0
115.438323,-8.857972487455848,-17.24899377662633,93.22714385031199,-2.533424685768293,-2.333540909608474,1.5341695056800355,-0.07286560817267611,-1.6899172944814749,-0.577805139555075,nm,0.0
115.45715799999999,-23.310575739859843,-15.49201822722203,93.26472763147675,-1.9733697709532623,-0.19262804343919532,-1.2151032889289108,-0.07846656645571981,-1.2171736921561067,-0.3510231044353673,nm,0.0
115.466667,-27.16125550023629,-15.201873888007032,92.85639972393395,-1.5883065113358428,0.34042573276550925,-1.7377943008116916,-0.005962065661265992,-0.7391176170522442,-0.283155747894787,nm,0.0
115.47627,-28.81325793015425,-15.872074656732469,92.07141943029477,-1.0773602882865063,0.7191211608202437,-1.9516609591330358,0.16016460202162908,-0.3064492221200809,-0.24270511195022992,nm,0.0
