timestamp,roll,pitch,yaw,acc_x,acc_y,acc_z,gyro_x,gyro_y,gyro_z,markers,motor_input
132.014679,-15.994997350669005,-26.697951396753584,82.51467826208875,-2.709297812463447,-3.7777804528709056,1.2799687100530186,0.1254330822149212,-0.406280808953265,0.14487270413594866,nm,0.0
132.024201,-18.791919458308517,-27.82623837875633,83.34502841836405,-2.1564632059993962,-3.4697990714870293,0.0913888172240632,0.17618124907193855,-0.5173396362818475,-0.08809491828050432,nm,0.0
132.033718,-20.592777494250768,-29.177142893066424,83.15910744047852,-1.1513017305888096,-2.1928407657256233,-1.2455944741274056,0.24466890555013754,-0.34227411763074717,-0.2065784127770815,nm,0.0
132.043221,-21.15692569293073,-30.303563853854893,81.95734940001604,-1.237043527702033,-1.4918716296237877,-0.9013592321485279,0.22430921230698017,-0.12265997440327606,-0.2937022242324478,nm,0.0
132.071759,-20.725017404580235,-31.49373397030907,77.44040275104274,0.5397094135173753,1.1957974651630654,-0.983355594483341,0.04528306877383656,0.07204047017992758,-0.15456540300960908,nm,0.0
132.081259,-20.67063698976801,-31.127396511739754,77.13234635776118,1.070564089012818,1.7750620801863057,-1.1032558079586543,-0.05589120144466989,0.027935012590892153,-0.053093366731228935,nm,0.0
132.090768,-20.365890323165335,-30.301327491499375,77.3773422155211,0.9792253046850206,1.9982817503152661,-0.9329894727471292,-0.13613964313223598,0.090522306506826,0.08300911720452833,nm,0.0
132.109791,-19.150063891353735,-28.49364599247534,78.44163315365765,1.3238803252886817,2.551449301261171,-1.0739087809976393,-0.11868052592843918,0.17390862012602334,0.1893277486695467,nm,0.0
132.119305,-17.537445836213067,-27.932769755551895,78.80942868959083,1.08820690370924,2.696053034735797,-0.8643090191485169,-0.04038516888282409,0.30472300938543,0.2282964844519343,nm,0.0
132.128804,-15.54036601694305,-27.574507473905232,78.93440766693796,1.3770961509049782,2.8070927414392437,-0.7694200029229618,0.011501535562892674,0.36494511655869116,0.21281641811731408,nm,0.0
132.138316,-13.422093577130854,-27.27458016315491,79.17899542454913,1.1917140786961853,2.576657278752569,-0.4240901189001293,0.026057916639112083,0.3852037606805415,0.24545738039677226,nm,0.0
132.147832,-11.85438235706791,-26.83730612650836,79.64827409876165,1.1471031092877806,2.20192049881981,-0.48291401265508604,-0.02122554547449146,0.295329102862844,0.23751412324340004,nm,0.0
132.157348,-10.428132979225929,-26.176943096893073,80.14836960089278,1.12834583637295,1.597699558636171,-0.6963703540804038,-0.07195061823124302,0.2795094391912182,0.22799851743987543,nm,0.0
132.16685,-8.573733615165667,-25.47446683650803,80.45071050458898,0.8506417510678155,0.8782448126551129,-0.513133542561532,-0.06901338429464644,0.3581291514436272,0.22225897253100477,nm,0.0
132.176555,-6.877029283945396,-24.84055190025815,80.47413819499434,0.6026877839974624,0.2692738234002409,-0.08803788719207446,-0.06098053015772849,0.32943361641617647,0.14867873971729603,nm,0.0
132.18604,-5.9167937461595335,-24.056386166433686,80.25375173298816,0.7145617561815251,-0.15404099010323233,0.06911423154641312,-0.11229610447523544,0.2040089992858015,0.03471966846052431,nm,0.0
132.205079,-5.5827057691288235,-21.840081924253774,79.73890213288928,0.2901336710255717,-0.829511327925871,0.6923918534204795,-0.2189918081419658,0.015774523791411445,-0.05850463896176674,nm,0.0
132.243124,-12.618857014727242,-19.832374974218688,79.62091070255401,-1.7432365077478158,-3.183257875460471,2.3867812089384572,-0.018199484140194323,-0.4532331251298228,-0.15870004628508935,nm,0.0
132.252636,-14.81571428568513,-20.67200629316106,79.61498425460088,-1.7947955812266676,-3.1747014784390712,2.017936066099707,0.10453682355502553,-0.432055451258003,-0.15282127891014963,nm,0.0
132.271652,-17.76396033502751,-22.456536361880396,79.07994866051786,-1.5511298263222142,-1.7839827226872067,0.40552729351852984,0.14302476763525496,-0.3027232813693973,-0.18524222243476351,nm,0.0
132.281166,-18.94820041760368,-23.591818449622064,78.64268616642919,-0.9152941510072989,-0.790831009252712,-0.16061798281374748,0.19451427406301788,-0.25450677751996836,-0.17848414321380573,nm,0.0
132.290692,-19.529735375114676,-24.769514089568812,78.1929480934599,-0.737863063646766,0.05978853859148076,-0.2791258603565428,0.2233449290656107,-0.148067439739152,-0.1356878203331732,nm,0.0
132.300201,-20.078144963942176,-25.71335995944849,77.66613024774831,-0.4381748191757995,0.5062729844480213,-0.42520575193113774,0.17771358284589595,-0.13352016125769053,-0.15004448970006873,nm,0.0
132.309698,-20.516246419852973,-26.479020349728376,77.19355466414747,-0.2870746620966291,0.6309577524740212,-0.5298544018592465,0.14617417073465092,-0.10730999299919129,-0.13077951562626194,nm,0.0
132.338238,-22.639413868575176,-27.513192459368902,76.41688097184435,-0.6734618275077321,0.37389577732033674,-0.39410155061564284,-0.03452569354054384,-0.15919263658548702,-0.13380325602278081,nm,0.0
132.347753,-23.920328442445715,-27.146864377900148,76.16083930653343,-0.6936981364515504,0.5523048730962155,-0.42451900108992674,-0.11163645451770537,-0.20164010088921158,-0.16585831233549247,nm,0.0
132.357066,-25.49588009884747,-26.667526146792163,75.95668987803724,-0.5229845528372339,0.9215037379822983,-0.42456245285341737,-0.14733474168288,-0.24775436580028826,-0.18021877325280244,nm,0.0
132.366566,-27.062123180354753,-26.134801739034202,75.81924262493754,-0.3802605714581769,1.3521701633653025,-0.4100625301279715,-0.15838877873361312,-0.24440269719977453,-0.16328465404807113,nm,0.0
132.376079,-28.556519664959723,-25.621877137962546,75.74477167964285,-0.278362868914939,1.6997058828442406,-0.4428477012639728,-0.15218370471151915,-0.2338471741110858,-0.141575750194713,nm,0.0
132.3951,-31.306918464033565,-25.250975628999175,75.9783261868782,-0.01227142241028464,1.870068200883599,-0.684021879730362,-0.04917196414331889,-0.22181334820798784,-0.06564869690097964,nm,0.0
132.414114,-32.289854484576516,-25.72126298753851,77.01516869637881,-0.09438125396627435,1.3405208778203768,-0.9280213217562688,0.058319077225265685,-0.06495811690334978,0.10726472010339828,nm,0.0
132.423652,-31.858597711970667,-25.9433086605026,77.80904464558714,0.20470236571119443,0.9699089674332322,-1.1787137083299009,0.07361631351053634,0.06827140086493776,0.20120406319498108,nm,0.0
132.433147,-30.10001420205823,-26.008134366120586,78.65668041074022,0.06848609822273337,0.5388823824703302,-1.110508444641978,0.09060525087058258,0.30972855426284823,0.3282259071949587,nm,0.0
132.452183,-22.352362338784907,-25.92984830696801,79.9851782007967,0.45547251812484896,-0.11484294241960513,-0.9315720087316238,0.15553459913764117,0.8405837196842861,0.5291884384974905,nm,0.0
132.461896,-15.501840326313019,-25.994955615422565,80.3373686749785,-0.06738454628904182,-0.5514544705813621,-0.04803437671716891,0.23708181501284797,1.2172555987284923,0.6723803686854684,nm,0.0
132.47138,-7.929998575814691,-26.176400409016818,80.36235022781611,0.4589707319387516,-0.8905140926493754,0.8646848132402494,0.27734750056230745,1.3414444622702073,0.6716429596861375,nm,0.0
132.480894,0.3792680299949267,-26.238656790436586,80.23445166188642,1.5661886417654252,-1.0729741232685441,1.014618939219534,0.2766920278520625,1.4752274413073425,0.7076332335643617,nm,0.0
132.490386,9.906249155054807,-26.128818890819733,80.32775661655425,2.037057503688178,-1.5144310946699977,1.6730875613510394,0.2793966238216069,1.6979661101886372,0.8571349477282267,nm,0.0
132.499904,19.003159930320265,-25.990079854968677,80.75089759909174,2.6730622961519925,-1.7929371266771705,1.3520101742464374,0.25252229012274224,1.6266115649477044,0.8800501538747991,nm,0.0
132.53775,37.28552407579233,-25.960676274467783,83.02482108534592,2.5100871759682137,-1.144438882069289,-0.7294690651296194,-0.03657351600414177,0.12000090585041437,0.1324401163067749,nm,0.0
132.547274,35.439037069217484,-25.345524618293197,83.39879939541379,2.0782691866903735,-0.8526480250607009,-0.5423000867580116,-0.15385015332581306,-0.30686173143841744,-0.0922196947139949,nm,0.0
132.55696,31.342141048060657,-24.506714715412887,83.64291252807867,1.563677739408194,-0.7055679728526537,0.16769708865077032,-0.24224759254097994,-0.711085426824338,-0.3036126798242211,nm,0.0
132.566465,25.068577841366356,-23.48835514455472,83.68058148006176,0.8253976608645869,-0.43361625964581163,0.7826780920971811,-0.3196321761576263,-1.1095741155481098,-0.5094763512078611,nm,0.0
132.575984,16.985347905546206,-22.27933584837217,83.4218835407295,-0.17452436078165368,-0.2373193155692554,1.59668538013407,-0.3969330546047355,-1.4469286214268746,-0.6862592098971385,nm,0.0
132.585486,6.997627087238753,-20.97643425806776,82.68171589761715,-1.3639587198363199,0.1372654295198291,2.3395775538777626,-0.4712989653702399,-1.8075278047867531,-0.8886365706533307,nm,0.0
132.594989,-4.057622644828753,-19.742863954265488,81.39479729591743,-2.273661166597818,0.6700012432594981,2.1751008789717527,-0.5184526210844504,-2.0162338158502258,-1.0288357255026328,nm,0.0
132.604516,-15.096227571390713,-19.042881683578322,79.67737570198808,-3.700018095787868,1.1983583949979026,2.0466456196832383,-0.46722898044222644,-2.0298970834840233,-1.0763778963066648,nm,0.0
132.613843,-26.4249927011532,-19.13260439288623,77.73990285445386,-4.190127521953379,1.714693280222393,0.7570282594016347,-0.3887193601137192,-2.1033843675715342,-1.1257567395279306,nm,0.0
132.632852,-46.72073567382933,-21.26290936351816,74.53976143995973,-2.846429456963628,1.9803976164590742,-1.5425467327495153,-0.19263326990200066,-1.7770968308578416,-0.9365224087785531,nm,0.0
132.642371,-54.362463280933305,-22.64736641040642,73.85900327102095,-1.6917176183513294,1.7460670517166466,-2.0691814461617843,-0.10880796510332394,-1.4408636886666768,-0.6996349546473729,nm,0.0
132.651963,-59.52847963889414,-23.70392597670163,73.78624781122066,-0.8609184421390083,1.5098317447367435,-2.161467868161387,-0.05136833425894372,-0.9723724192735106,-0.41213233894202495,nm,0.0
132.670978,-61.092818265841586,-24.006337787450025,73.67750185050076,-0.1205955424863335,1.216315788377651,-2.250790667500154,0.014586725608746432,0.09675075181198281,0.02366274783396757,nm,0.0
132.680484,-58.253935935000406,-23.717905001111433,73.51229568310555,-0.013867264300585309,0.9989118603244194,-1.9702591770998243,0.1021205681975571,0.514816221769326,0.20622148334503004,nm,0.0
132.690023,-53.12094336931325,-23.62077606286897,73.49683077006189,0.07033105288911354,0.9375109548025887,-1.6239318657263115,0.26005541125630727,0.9081434666710202,0.41798323132380577,nm,0.0
132.69938,-45.799819389550606,-23.831322442992796,73.47033390840902,-0.32797676050375557,0.8104086266236943,-0.9704233889641217,0.4341683568622474,1.27505495241646,0.5916964953624919,nm,0.0
132.709072,-36.56718557235925,-24.22724010583859,73.25457356597022,-0.21496687852741267,0.5422770356511741,-0.29808561060499805,0.5723460915586136,1.5959825386027744,0.7151004799837481,nm,0.0
132.737578,0.20770280468916022,-25.611026290600403,72.96298574442177,1.111750230596551,-1.90209776445802,2.6397533815223952,0.7619139957148626,2.1947633562344486,1.123206714942921,nm,0.0
132.747087,13.330781703872375,-25.59846039346077,73.5819411246414,2.071644816808179,-2.508189642293621,2.2873283485651723,0.6921341596672707,2.2761825235708293,1.2551944744172552,nm,0.0
132.756603,25.802929166312612,-25.662803974028307,74.55209919447846,2.439240193644301,-2.4354247462354492,1.0695723343277161,0.641304607635205,2.1693248199340918,1.2681796701559847,nm,0.0
132.775525,44.434634792929515,-26.289304406949647,76.38355927301447,3.286943464491803,-1.9647533109068755,0.0813687549029025,0.39130968588716797,1.35763017173026,0.8650740451647334,nm,0.0
132.794531,50.57443130322277,-25.441926958934943,78.6124043598191,2.277976003830706,-0.6105090391342068,-0.961307762068613,-0.04389436528614845,0.3359397678421345,0.35839317741023624,nm,0.0
132.804049,48.96927387003136,-24.66405766528494,79.33290950378083,1.848823899066827,0.029791611516668436,-0.9233343928810654,-0.20264976787558664,-0.24609761838686683,-0.00016426293579561576,nm,0.0
132.813561,44.75972113336386,-23.70542482602938,79.79532902144697,1.4725947440538192,0.4584856265265089,-0.4905170900594009,-0.32131829097991016,-0.7119239678872054,-0.2609762078437484,nm,0.0
132.823255,38.460799069147114,-22.54664906285433,80.1135912873157,1.077904835352107,0.3437969858084913,0.6540493542074429,-0.4227998918155555,-1.0927736327097992,-0.43957880533768917,nm,0.0
132.832744,29.89636263115529,-21.378939561691535,80.01370664560763,0.13940179123946767,0.44261343427126304,1.2918081024149728,-0.4950792927762265,-1.5182873070151035,-0.6684675656470667,nm,0.0
132.842275,19.407815164292792,-20.511442943242137,79.2875629202098,-0.709458838324529,0.5838030029240886,1.931039848687426,-0.5119053882145865,-1.8915922472353723,-0.9015788737698247,nm,0.0
132.85178,8.079030844050482,-20.041607801633994,78.12166084144339,-1.6102820313630388,0.717193575588932,2.185963933725149,-0.4964596382306204,-2.062890093915386,-1.022848233854092,nm,0.0
132.861287,-3.4607166795470725,-20.02107919599885,76.73618156384661,-3.136755650387525,0.9676493149411959,2.354869873188584,-0.4632361490538735,-2.1139650328401505,-1.0698346318788168,nm,0.0
132.870619,-15.629039699840463,-20.501761189968764,75.26872510115366,-3.815192240790193,1.3798338194079107,1.092955388334231,-0.446130231161527,-2.2385473711212525,-1.1358871179399834,nm,0.0
132.880128,-27.226552306124752,-21.50547846520517,73.98986002777865,-3.6633084792551176,1.668360899199379,-0.156314832206005,-0.3679225611643226,-2.142106552986851,-1.0844093009639604,nm,0.0
132.899151,-46.42149935799384,-24.146811616785325,72.61644405951876,-1.6147678642376901,1.5601180996267767,-2.172067259663452,-0.20943889631597878,-1.6468715320884868,-0.7918106762661946,nm,0.0
132.908744,-52.710281125433205,-25.28855204154784,72.63625021551191,-0.5383010260509506,1.320682106248088,-2.327951889381042,-0.11219318359347152,-1.1602735841705545,-0.5141330106784,nm,0.0
132.927754,-55.53729325890286,-26.113417002691612,72.60121934473956,0.7650995727408926,1.062476357994983,-2.7712942377816,0.04818927704145821,-0.0066180194660678685,-0.014696678521897613,nm,0.0
132.937261,-52.45927073823187,-26.076000559427033,72.39715056041047,0.6302225026677363,0.8764741629384544,-2.3956580566113383,0.1706843731602664,0.5296239057287512,0.23872208701665526,nm,0.0
132.946725,-46.18256946614386,-26.0212056708031,72.27689681194755,-0.13311201892686234,0.7740810890941348,-1.723927566078689,0.3443045794534516,1.079054047783525,0.5352179043612044,nm,0.0
132.956157,-37.37417200951995,-26.071809881585864,72.23060997780284,-0.704619502870048,0.46440426074953817,-0.6794909184669609,0.505639012005529,1.5065335367645059,0.7709404747453102,nm,0.0
132.965831,-26.2772447090929,-26.226607768894894,72.27984653668773,-0.946222094039567,-0.12741095192193633,0.5933151128309024,0.6510611062777062,1.8916175700774625,0.9926809424565886,nm,0.0
132.975325,-13.225107977200699,-26.475445675367492,72.49972780408507,-1.1520503953268377,-1.0721082055171358,2.2897227247439327,0.7698234587699265,2.219949669558007,1.204988771571351,nm,0.0
132.984845,0.024249919803545104,-26.62937108919795,72.86603039283249,0.306239104968603,-2.186735008162506,2.9320569354217527,0.7493021002174819,2.260846806906348,1.257588458953394,nm,0.0
132.994363,13.089568067795557,-26.610876901705087,73.49830424764949,1.8707311385242087,-2.840940642367422,2.3412260937322427,0.6857144285659451,2.245965736138347,1.2946991683253277,nm,0.0
