timestamp,roll,pitch,yaw,acc_x,acc_y,acc_z,gyro_x,gyro_y,gyro_z,markers,motor_input
106.00406000000001,8.146416464985265,-56.994224692756255,119.39043705951264,0.17851498822588063,0.30188296468523196,0.19025918196502226,0.016193652151969044,-0.5623444680809537,-0.6658647668047644,nm,0.0
106.013575,3.2256543501433366,-55.258758046655494,118.7830832720252,-0.5948300007883246,0.4554028544282499,0.4527091992539143,-0.0304988504452687,-0.6363063229789886,-0.9378494362258156,nm,0.0
106.023086,-2.2310650701188686,-53.40621867396767,117.26811386095096,-1.233539094675475,0.347792186050199,0.7424220548388466,-0.020680792644858628,-0.7249384597542385,-1.1886623842868496,nm,0.0
106.032587,-8.53582817362998,-52.067518734899636,115.27968913160073,-1.586624192387787,1.340109814815732,0.6948277864419615,0.10668971089201373,-0.7934130624580916,-1.3997408517407675,nm,0.0
106.05162100000001,-21.09561731222539,-50.01190267514947,111.4804441391723,-2.784199543375837,1.5495331299610073,1.2330023492965718,0.14467095336883828,-0.8274314824159614,-1.3653279149471693,nm,0.0
106.060937,-28.104397149718114,-49.83171761600581,110.24629340989044,-2.3472373252902283,2.253927128373901,0.5294552558890978,0.2989469470277395,-0.8500940226586279,-1.3152602954935377,nm,0.0
106.070445,-34.443445269392406,-50.537239704501545,110.14839242459699,-2.3348542503637018,1.8304639683138708,0.5035478115285253,0.42408172349886575,-0.7079403879295336,-0.9880729798408568,nm,0.0
106.07995500000001,-40.10451295356048,-51.18958163499944,110.81052508125217,-2.199820288416978,1.5309353622585071,0.23097080327909147,0.38357133650088476,-0.6193032656199907,-0.7394309433405486,nm,0.0
106.08947599999999,-45.08851823346406,-51.12332631042958,111.97423125970151,-1.5657559518495676,1.449567410882469,-0.500853692519925,0.22675478040979696,-0.5829788497531816,-0.5364190468978822,nm,0.0
106.09899200000001,-49.30267490800882,-50.53872197883424,113.99519208985996,-1.192714145579547,1.1812000320107445,-1.2315551733923988,0.11088554310338401,-0.5319464644780925,-0.24118530458984835,nm,0.0
106.156226,-24.00129745106091,-53.043331492664876,111.88123941625274,0.08463413464580397,-2.3049660551812594,0.8148197551583773,-0.26292446630838723,1.3768860579142883,1.1591291437860047,nm,0.0
106.165726,-12.376130720795624,-53.659285405810664,108.59014774456243,1.1863072620640307,-2.325281030500957,1.4116803132691735,-0.354978604144404,1.354715113892681,1.2136340042293072,nm,0.0
106.17523499999999,-1.6803333358641046,-53.76313374089947,106.6438031809804,2.205134841534305,-1.8825820514916762,1.4041764039658502,-0.354530738572718,1.2245619270571104,1.3397641190864809,nm,0.0
106.184755,7.0542801571424585,-54.02922261353079,106.83447752202896,2.7939809999852323,-1.702783667346915,1.4178658103444832,-0.23794630258954172,1.0140844850262003,1.4529565464702898,nm,0.0
106.203607,15.471593483104497,-55.79570397604121,112.33884035238574,2.9050213523089865,-0.7619512955959478,-0.08098160766573233,0.10085648592260009,0.38718464074089576,1.126482837623643,nm,0.0
106.21311299999999,16.050477762846683,-57.09632445434671,115.83301582617774,2.6743414113697876,-0.7454992065486954,-0.39381919499046664,0.2161475491220706,0.1784189924402162,0.7972837157777459,nm,0.0
106.22261800000001,14.692676767976591,-57.92390114337367,118.74669042007922,2.239341767663394,-0.5547086320563123,-0.5165372747452658,0.2182964736383627,-0.04015512729600146,0.35531670193952997,nm,0.0
106.232123,12.132915261130785,-57.78817128401525,120.71761613189746,1.638230235995813,-0.30568310900665463,-0.4553114796776787,0.11570123940781964,-0.23672638693450715,-0.03799666597679249,nm,0.0
106.25133,5.675238721132584,-55.53861420629507,121.45553299550798,0.07732255265095919,0.2501631759511108,0.1565636754980983,-0.014640125874654752,-0.45087235648663165,-0.5959295943020223,nm,0.0
106.270342,-2.828587084908536,-53.484779833385566,120.47087385215833,-1.0214671955447057,0.7570271609699505,0.6503927166610179,0.12736485824200314,-0.5387127135528265,-0.8187256063329421,nm,0.0
106.289364,-14.221595519286806,-51.93803517825126,120.79672041464622,-1.9543049607211171,1.3281663557192533,0.5937264518823948,0.23583658909801095,-0.688389983586166,-0.8606304083464825,nm,0.0
106.29870299999999,-20.160363680024126,-51.248653779755784,120.99100210730481,-2.434122182768785,1.3670179198250552,0.5850260012887242,0.2695650903811836,-0.6945164355415834,-0.8884825674255276,nm,0.0
106.317737,-30.29825216913506,-51.201737704565794,119.64312528863631,-2.4689328425262134,1.6697272133368648,0.11772984610780868,0.34816308693125103,-0.4607798729331333,-0.8977859485601435,nm,0.0
106.327238,-34.066094580986515,-52.23022084511738,118.59891348926509,-2.2500873631839866,1.6438235064424735,0.04145971509340446,0.4174435295544595,-0.30061665627277423,-0.794691789774002,nm,0.0
106.34625399999999,-39.58463703724736,-54.12333051413046,117.98215870303751,-1.5559270094987354,1.2612927805733194,-0.212888342202555,0.2687064821614977,-0.18453736131378812,-0.3713734324610669,nm,0.0
106.35576,-42.021224074236464,-54.22327652636082,119.3087318117444,-1.2800969705585368,0.9229620815151086,-0.5877497132433341,0.1647570386452825,-0.23485334308492842,-0.12241889050397121,nm,0.0
106.384308,-41.0168476810565,-53.26010421144844,124.82036668959329,-0.17843912923433763,-0.9227556406929184,-1.1303601778220291,-0.2113811801902295,0.27802781137685606,0.7157842272017108,nm,0.0
106.393813,-35.320620594257676,-53.99352984728764,124.86363468560997,0.2603389195460313,-1.5761111820280855,-0.8187681132480104,-0.25671984423796324,0.6473857853492997,0.9339329021183982,nm,0.0
106.403336,-26.59291709043831,-55.4718139888806,123.34063139262992,0.5874327181022734,-2.635690671502411,-0.13413742943711068,-0.3120267972842652,1.0104269142699123,1.1281775855842904,nm,0.0
106.412824,-15.83546376864922,-56.83589542915818,120.00523107752247,1.5164742977880468,-2.992625157021894,0.5736594536034841,-0.38933334740112147,1.1738196342345655,1.1268112763611202,nm,0.0
106.422339,-4.559641048214296,-57.29675527418618,115.93447071532965,2.672222679701146,-2.5218410452199596,0.7099344875885395,-0.4861695847223487,1.1378000613604287,1.0844533052477672,nm,0.0
106.431849,5.442347112878634,-57.025666629971944,113.09153285493427,3.2970610927294888,-1.9053001844728163,0.7251346941879503,-0.4926713036774242,0.9774581497299184,1.1163910051680994,nm,0.0
106.441363,12.209453423300795,-56.52720320302689,112.69564351820655,3.4789252596793547,-1.264964226182473,0.5586805441817614,-0.37479957243847534,0.6580541927096855,1.0557781013426029,nm,0.0
106.450875,14.822467900858744,-56.31385852279956,114.85258722625505,3.1972076875643367,-0.48719627893571493,0.21748930403584735,-0.15091486876730023,0.26104378444462806,0.868771311607583,nm,0.0
106.479322,4.501609891693092,-56.86175456172549,129.1915588345476,1.4666793136104648,-0.3976986046131158,-0.15306144547885597,0.3494212267283818,-0.4707996105551099,0.09119415930025516,nm,0.0
106.48900900000001,-0.9189204715022061,-56.20219554851277,132.6301916962373,0.7816385484458667,-0.4537561130116351,-0.27316166165143313,0.2957468029010128,-0.5251707496044596,-0.21475176247762692,nm,0.0
106.498602,-5.311932909413885,-55.233921098154205,133.7364711234649,0.10239062608098086,-0.3337891752557401,-0.26708453755136696,0.20181996190422385,-0.48068460764969984,-0.5025009838046048,nm,0.0
106.52712399999999,-13.65347782088116,-53.06913770569172,128.5294017125275,-1.3108147172207476,1.0454503788780822,0.19254604375739087,0.12707091198208584,-0.27787808158146937,-0.824306206177214,nm,0.0
106.536641,-16.44460290492237,-52.6884194848301,127.13613564518133,-1.8891634493715037,1.2048465855158845,0.4155355122640148,0.15379529246790705,-0.30171251288985074,-0.7203507588265774,nm,0.0
106.54596799999999,-20.201309946801572,-52.09853105624838,126.47417085391015,-2.309460500949753,1.9883360450274148,0.20000979463739652,0.18810867922121063,-0.4273708133287824,-0.7238187463189224,nm,0.0
106.55547200000001,-24.001570652267272,-51.49689329943844,126.28054041179935,-2.4119503916592637,2.4353250578307293,0.02172615088530236,0.190185865615665,-0.4398874411819868,-0.6316412365846534,nm,0.0
106.564979,-26.982158909077032,-51.1520219327071,126.13242334751769,-2.5772451914700434,2.106641261841212,0.10966987773104614,0.17291276047130766,-0.3316898861741976,-0.4900693306633308,nm,0.0
106.57449299999999,-29.294904916570815,-51.13397912902029,125.65334286484071,-2.2464938143537347,2.1195876422261564,-0.1605407280869853,0.17601017432994354,-0.2278699733969332,-0.450666150478492,nm,0.0
106.58400700000001,-30.933187203176928,-51.46953933655656,125.22835210939509,-1.86346166638414,1.7347900765466742,-0.2035452313342962,0.182493212864598,-0.11884747989977142,-0.33498655053645143,nm,0.0
106.593524,-32.34280616586304,-51.73435660479502,125.21634121960858,-1.566383868234328,1.261360812866366,-0.2683616798868623,0.15336221722111157,-0.10357790428067526,-0.21729634001798567,nm,0.0
106.62206699999999,-35.02529471918807,-50.442245840495545,127.25840032971666,-0.2855805718965165,-0.7918217064460247,-0.6125723384307014,-0.0931527745900323,-0.03783594595121973,0.19274407767925028,nm,0.0
106.631574,-32.940490467310106,-50.28446940934507,127.54916481725076,-0.06150552914658946,-0.9508881759323811,-0.6391423281045274,-0.17840259530124555,0.2018372926023888,0.3860805706646835,nm,0.0
106.64108999999999,-28.489896646917995,-50.55591365285062,126.57837315097126,0.4705780794166893,-0.7342697153517299,-0.7999879801631927,-0.29054687888342895,0.49579336108034366,0.4983839780833048,nm,0.0
106.650598,-21.234760288957826,-51.41418813153896,124.2460255822036,0.5430190544289866,-1.9724007766295508,-0.07317075468125975,-0.38183283186285727,0.8552424699128939,0.6670533871173542,nm,0.0
106.66028800000001,-12.995745496020657,-52.54256653314401,120.56804635190511,1.1237936226944147,-2.2773689481136095,0.4795795093611495,-0.34604101020688227,0.9895637364600769,0.5678480820036714,nm,0.0
106.68881200000001,7.736759831406265,-52.489091270784556,112.02544729402476,2.6293576355903947,-1.3219860954529674,0.7098141329677077,-0.2830063648955589,0.5510095449125342,0.5820491802213386,nm,0.0
106.698151,9.605098230587513,-52.63829043692482,113.32996915157969,2.5708631139963236,-0.7787972101477055,0.4527345565522026,-0.05395784415476064,0.2341874993666929,0.559228214227668,nm,0.0
106.717341,5.845844817963276,-53.21954641817627,121.43273215499417,1.7721563113713235,-0.9026460197457977,0.17327110612213215,0.22022152965375455,-0.27332068647020485,0.4558155869260421,nm,0.0
106.72685200000001,2.118259472549014,-53.3067002593836,125.81628103146568,1.2202178926220908,-0.8892103361537392,0.0050845611675192776,0.2662871418823975,-0.3486806330687384,0.2811291493276575,nm,0.0
106.74588299999999,-3.519293067405699,-52.71771530305269,129.75681226840587,0.25294579794188066,-0.5293631248082679,-0.13662141474174588,0.11900845465241144,-0.2539657720555025,-0.17235266201502436,nm,0.0
106.755405,-4.548995488573088,-52.456016846473524,128.9868298768403,-0.23764895960995167,-0.26757905995747017,-0.059082299091944616,0.043940794754793594,-0.11709228139388758,-0.3152770175732348,nm,0.0
106.76488499999999,-5.234522164229014,-52.4870066569369,127.24028353484714,-0.603629400297882,0.2136053653694373,-0.022887924799337378,0.06200986199968711,-0.04921437253742163,-0.45575434157811806,nm,0.0
106.774406,-5.939688305327428,-52.63162121780491,125.58420545180252,-0.785867047930705,0.9806557196696367,0.11913141338607648,0.08025688763941695,-0.03938101621104953,-0.4407824455107697,nm,0.0
106.79342700000001,-8.244155777971924,-51.85145885481947,125.3538140142789,-1.589920647363821,1.4871505455276004,0.26186623587369545,0.030663415849716782,-0.22018734405026302,-0.16605082986658423,nm,0.0
106.80274700000001,-10.441630575195422,-50.888405023548,126.61896612267114,-1.948267454534157,1.8716363708094363,0.21515949659112094,0.011666294611893311,-0.3232843967299519,-0.08730858553298447,nm,0.0
106.81225900000001,-12.309065590956843,-49.89853604618802,127.8835339463306,-2.3033637950672836,2.052493347610433,0.324798007666724,-0.007240195589601948,-0.29744748710114804,-0.031607715305159455,nm,0.0
106.82176899999999,-13.383171679834128,-49.291853865930165,128.4206691928208,-2.1832798043466166,2.1370600217124145,0.37815002824620836,-0.00316257749205648,-0.1724307884824337,-0.05277895041452125,nm,0.0
106.86949999999999,-13.615172779821155,-50.05970277035969,123.86567468997396,-0.04520116495606587,-0.12817052205028553,-0.21226538220406574,0.018996124421337836,-0.04677397892353988,-0.23351876282605574,nm,0.0
106.87901199999999,-14.047353749863378,-49.886027246605074,123.49179267837994,0.4012377303099919,-0.7652759333586695,-0.1690385062317999,0.009321834902029594,-0.05406561995347743,-0.1374660805322847,nm,0.0
106.88851399999999,-14.24288778843512,-49.76356438872078,123.46482030253854,0.5458005229451537,-1.1468568586173766,0.09826482458047466,0.0,0.0,0.0,nm,0.0
106.898034,-13.725789767153868,-49.4770889042286,123.34155929052967,0.8331312916122526,-0.8476992071808435,-0.15331178201553552,-0.07745828578449454,0.03601384135443902,0.057777627964795075,nm,0.0
106.907362,-11.713586797135461,-49.39047174245912,122.94698981508745,0.6735405928999555,-1.3478554497694235,-0.20482914603015986,-0.15059086409981762,0.2217139212222578,0.23040996801301544,nm,0.0
106.93607499999999,-5.2245904013220565,-50.082589335119366,119.61834482615147,1.3943894382183046,-1.4745477634251865,0.23913413764280028,-0.18746732031911295,0.2844730025143354,0.16983416620802252,nm,0.0
106.95510999999999,-2.7743799197322763,-50.21929100838873,119.8505599284661,1.460604069900478,-0.7681646773966566,0.25226120741999153,0.010261061691565442,0.11066022180733616,0.23969268714182038,nm,0.0
106.96461400000001,-2.9458060886476316,-50.368727691949964,121.82840940175065,1.274240426126441,-0.8640069771069624,0.4346081096097432,0.04317797338002343,0.009130025167787617,0.3717356039009401,nm,0.0
106.97413,-4.2220074690296165,-50.2966878226644,124.7331675295805,1.0729311849302536,-0.7377475347386516,0.1903446746853113,0.08322677664792698,-0.13147541534818008,0.3871112933218169,nm,0.0
106.983633,-5.982264140241019,-50.4431281791722,127.97025722342694,0.83330384415986,-0.4822600699859796,-0.10028096512888109,0.16219665853855308,-0.15071581260837028,0.3791220567438661,nm,0.0
106.99315100000001,-7.479724244109732,-50.83834663136375,130.89100215912634,0.5939270404979897,-0.5716322316159748,-0.02187774751430372,0.18681381927570445,-0.08352694582996267,0.3556800288879982,nm,0.0
