timestamp,roll,pitch,yaw,acc_x,acc_y,acc_z,gyro_x,gyro_y,gyro_z,markers,motor_input
122.513834,-28.204439787670943,-35.5300124022354,72.56294860663647,0.915948191526111,1.168155043070516,-0.7110827727174492,-0.15846920987847396,0.1634099790701275,0.036172508531672205,nm,0.0
122.52334200000001,-26.763649701317885,-34.28455567625936,71.82086646090795,1.3015670121841376,1.922459157190132,-0.14383883204478712,-0.15159520209126875,0.3021052803123364,0.020881004918259918,nm,0.0
122.542359,-24.097190185576537,-31.940949146118612,71.49989222357908,2.1103908066484065,3.834625764973264,1.3082193358294287,-0.13601636050288,0.23372139262810232,0.16776470519224443,nm,0.0
122.55187900000001,-24.13811561220184,-31.332637787928498,72.90095097431964,2.1537706810595676,3.8081781366144023,0.9101933852475281,-0.10442548033154661,0.03192923961290912,0.2798314018698894,nm,0.0
122.56136900000001,-25.113512170090967,-31.76416364873188,75.22532509860717,1.446917074657996,2.852010703997134,0.4686748919876561,0.050996341622873066,-0.18202377353733906,0.36702598444115925,nm,0.0
122.571089,-26.48381811609914,-32.79839527488703,77.4145653730138,0.7572027163978257,1.6901324384531768,0.2840699370092198,0.15982565535773238,-0.27233727915816586,0.2959416825425272,nm,0.0
122.580409,-27.24855396353991,-33.46517762838179,78.31833002869568,0.4982469143100212,0.4805810192697546,-0.8645973103021407,0.11695336335926325,-0.1513268909566832,0.1016284279433088,nm,0.0
122.59009900000001,-27.3711282454484,-34.29052338142566,78.1205761359585,0.019291823499927013,-0.10103180249768275,-0.7284590680904882,0.17097504611802386,-0.05171995259481635,-0.04880955956566674,nm,0.0
122.59942699999999,-27.205599260508126,-35.03224296628786,77.12072906678648,-0.11266082367549561,-0.7707545044321567,-0.918646802167743,0.16427562882948726,-0.0035226631136981283,-0.17684197580051983,nm,0.0
122.61861200000001,-25.96312953826819,-34.33979188090504,74.91324326221043,-0.7329121659988883,-1.1359243306979567,0.01031652622288774,-0.13811569072868515,0.16861043190334787,-0.10939057020764445,nm,0.0
122.65649199999999,-23.570636984553293,-29.54361665768092,78.68020371995287,-2.8455631418605645,-3.541308630968121,1.4425771498267907,-0.05662295865601948,0.1759703980462977,0.36094941310218215,nm,0.0
122.666,-22.786872760308764,-30.14048956658935,79.29670527952321,-2.3970446963335217,-3.908569713734803,0.8633189929727751,0.15682734724528122,0.11385841166178826,0.20477356728293641,nm,0.0
122.67550399999999,-21.47661560460993,-31.646591460681023,78.81320599928024,-2.201808226820072,-3.492734835376333,0.26466900770574975,0.3523743382982684,0.166789226365265,0.04106186320200597,nm,0.0
122.68502899999999,-20.77534220913925,-33.66730701920858,77.1712061164255,-1.3885318637562944,-2.5314930795700774,-0.2286440836956916,0.4339828135118638,0.03401785091731283,-0.24973745698973393,nm,0.0
122.69453899999999,-20.64027031061414,-35.68088029297595,74.99619405105295,0.05015839767257351,-1.2068016431634812,-0.6603520817874811,0.41039890720762423,-0.07346029356152332,-0.4166746847693254,nm,0.0
122.704228,-20.596743203950105,-37.243861588728514,73.27739867441821,0.33253097925900593,-0.22327895544418463,-0.437534401259046,0.3166695617752908,-0.07737348060736512,-0.3354235362975149,nm,0.0
122.71373399999999,-21.87430519769491,-38.154075935028565,72.64772629569781,0.838677390808625,0.5515363498733785,-0.4024443892681552,0.1285937662048246,-0.24586248165549218,-0.27869655824709605,nm,0.0
122.72305800000001,-24.06014990209587,-38.21463197030432,73.19495385358269,1.2380025279960412,1.0352001332285181,-0.5771652423110207,-0.07590634307288936,-0.3314881691591171,-0.15683275856183296,nm,0.0
122.742077,-28.429473775617467,-36.0498183244332,75.40432634520614,1.0109300049356984,1.4049981822429338,-0.77642423366893,-0.34036627345133424,-0.2585957040344453,-0.04728834727152416,nm,0.0
122.761089,-30.665921510048065,-33.45093940850996,75.08709090111708,1.3888086828050161,2.2710753258170313,-0.5254201933450946,-0.2349964399185556,-0.061822861105482775,-0.20016328270969888,nm,0.0
122.78012000000001,-30.99752568812404,-33.09103614168409,72.6455147084664,1.9197929994621479,3.3943677674598423,0.40911572759731246,0.021257467365437932,-0.023543923292906194,-0.2580724445670478,nm,0.0
122.789627,-31.718983187104442,-33.52078167464778,72.08023150842415,2.0381768879079423,3.328051166459763,0.2965718350113192,0.05863723505300426,-0.14099699528049453,-0.18731547858008984,nm,0.0
122.79915,-33.18845529977368,-34.15922845901212,72.62105180429576,1.4521495479188167,2.740234933812176,0.1341574888505861,0.060829667799687924,-0.2715916078836648,-0.05007370169375057,nm,0.0
122.808649,-35.20364008124296,-34.48405568286824,73.73946371612546,0.984496254103326,2.0314288768642124,-0.058212244998311506,-0.021227541836862318,-0.33773429697061785,0.00228406510041846,nm,0.0
122.818164,-36.89074530427963,-34.10889675235667,74.7604809555512,0.9017113544278019,1.1551914518660635,-0.8079959490097532,-0.13524530344577848,-0.24803534229744278,0.020231267667760074,nm,0.0
122.827664,-37.95876126834765,-33.468301678945686,75.71783961419946,-0.04586464307575435,0.5695078316880675,-0.7679424487663917,-0.1565978343250212,-0.13883168266704904,0.07906665965436792,nm,0.0
122.846698,-38.61543492742464,-31.554244168050552,76.62527209279068,-0.40739799064939086,-0.24659792657934038,-0.7861411231977683,-0.19547738251517593,0.08657357031499208,0.0762528430870635,nm,0.0
122.89443399999999,-22.741766557476893,-26.848215411661435,78.47057381339363,-2.196600936685967,-3.2841051551830223,1.7004687675599033,0.0936492496120328,0.7787838258686596,0.5128975405640768,nm,0.0
122.903953,-18.005418137244906,-27.419366945013635,78.97738095257718,-2.6120786943951266,-4.24728348716287,2.47213477802308,0.2907492929901006,0.8090556179723531,0.5360198645824515,nm,0.0
122.913466,-14.299567956455684,-28.598113502019824,78.72282765523849,-2.2001651266186424,-4.312443249169605,2.2563121288022354,0.3717848660663731,0.6010812430341967,0.29899501894863656,nm,0.0
122.922808,-12.060033917993856,-29.972155741265606,77.33861305237681,-0.8293787174519375,-3.341201882227298,0.8099770210975346,0.3638827850396446,0.3293653113051731,-0.05654985070773047,nm,0.0
122.93248700000001,-10.41807239047652,-31.735510729793255,75.21830042328395,-0.5678410008035872,-2.193506795113665,0.4326019573379728,0.4237006478709963,0.1938843540218957,-0.2547547668881119,nm,0.0
122.942005,-10.496919708328367,-33.86969314890289,72.89793199849804,0.13512987052146302,-0.9409779174714354,0.025332771629610767,0.42116049945694467,-0.1273629227594951,-0.47172414790709266,nm,0.0
122.951484,-11.629998044005118,-35.88059620564262,71.06282988293941,1.1018374280011396,-0.007078982098460209,-0.24710824113009663,0.33927366943345,-0.2994648487091206,-0.49532519257675045,nm,0.0
122.97984,-17.446392387874674,-38.523820824794896,70.43353574974591,1.1154640495904848,0.8035902497148073,-1.07168043419168,-0.017117535137885043,-0.43949331367782546,-0.25553831347652595,nm,0.0
122.998854,-21.62836307155903,-38.27004943378462,70.35775122357768,0.7777026341194043,1.246381922799594,-0.8647004371248662,-0.17665041698195363,-0.26262915958030236,-0.318473967505137,nm,0.0
123.01786899999999,-24.844290064883918,-37.170862627514126,68.41267397907123,1.4885308156713253,2.6091685881298803,-0.3780933682063474,-0.14741939343289917,-0.19341498862787052,-0.3812541182199478,nm,0.0
123.03690599999999,-29.032782601409693,-36.887871721976396,67.36846263655008,1.851414869065916,3.5391326156809892,0.35593338312116907,-0.16108772101996638,-0.32604994464492176,-0.3254499084104983,nm,0.0
123.04641000000001,-32.07543673835832,-37.04255032005697,67.91857154535508,1.598782634435754,3.2417868684382647,-0.10054557869637633,-0.14347373837276606,-0.46313843925929626,-0.2507412006658993,nm,0.0
123.055915,-35.28662854646888,-37.57749769005746,69.14173409439735,1.5833354458833078,2.5568884254335624,-0.3106837538263025,-0.07472778967063738,-0.5163887437855833,-0.13879148128406585,nm,0.0
123.06542200000001,-37.3677426521911,-37.5176135491336,70.56628754971693,0.1374997018837399,1.8088432852606517,-0.18389141253644306,-0.11241736293812667,-0.30719838140288713,0.03769878605675876,nm,0.0
123.084521,-43.0270001190042,-35.28969291624189,73.84695255391725,0.4268920743915165,0.44520467631449795,-1.4156703445722978,-0.3887756435848042,-0.3745677862181597,0.0073412815524889746,nm,0.0
123.09396699999999,-43.63241164009832,-33.491138958002395,75.56170901317338,-0.8810148366704738,-0.05536424687492347,-1.2419924986287667,-0.36160274889988075,-0.0016918975437262092,0.28215874620166226,nm,0.0
123.10346999999999,-42.64221593274615,-31.461045077571004,76.7585833231959,-1.4234399058269371,-0.47630594431697365,-1.098017077578709,-0.342367839233153,0.2600566455856493,0.35313494388962324,nm,0.0
123.11298,-40.021494721380634,-29.63968603487544,77.45562668991204,-1.527489445269348,-1.02543664761456,-0.5362246349024833,-0.24201362586114145,0.5229017975419238,0.41275653067286244,nm,0.0
123.122491,-35.13447617165973,-28.40080851521941,77.92372494050677,-2.479235951322878,-1.6375623118154674,0.557739493969488,-0.04676809644815508,0.890583918804318,0.5738813019117872,nm,0.0
123.13218,-29.055782316000904,-27.797140701858346,78.19633421851594,-2.6966601255908795,-2.4707277454670082,1.5824219273564757,0.11735461827259422,1.0778430473442406,0.6320906904947879,nm,0.0
123.14169899999999,-22.207660097054198,-27.766630333527846,78.37956918264712,-2.3798113859016823,-3.4814909907527927,2.3136295937590585,0.2538832908521528,1.1922572735635948,0.6787256623908863,nm,0.0
123.15120300000001,-15.218871612425449,-28.292668048081723,78.46583250571004,-2.5745001968052708,-4.392516273221599,3.131667349271532,0.3646023810931033,1.1928535060024992,0.6765066024415148,nm,0.0
123.16071,-10.280052782193911,-29.360352721697613,78.14727735436888,-1.138830278282209,-4.260354386426395,2.118045495523414,0.3983876882640838,0.8093462652743298,0.4138856606763566,nm,0.0
123.17973799999999,-5.141380373851063,-32.59376247567203,76.50188524006663,0.07675826557917356,-2.166543121100332,0.5604730176207107,0.40523317925817404,0.21819309838630643,-0.0031672391433456874,nm,0.0
123.189246,-5.658894856301835,-34.01131712781755,75.64616448646301,0.6570865296632372,-1.0317081296811361,-0.0879578939676363,0.26826576470666136,-0.1482877567901359,-0.22770048047271144,nm,0.0
123.19878299999999,-7.421951637714093,-35.242307440787954,75.24672730322247,0.9244303271348708,-0.18685683538298523,-0.40737301079342625,0.17924039714980036,-0.33937816770390883,-0.2796016322664375,nm,0.0
123.227127,-14.620690477607202,-36.71628831852008,75.3746054985114,0.6407178526416916,0.5905886530348867,-1.0274370701047773,-0.07699726000135271,-0.35905878150488585,-0.3054588331464154,nm,0.0
123.23663199999999,-16.501881829632392,-36.70404173013107,74.6996767606617,0.5999562332008208,0.6423041214729773,-1.1429785598414115,-0.06662234888576471,-0.288760678470983,-0.3575864214390435,nm,0.0
123.24614,-17.895523427289632,-36.731567051925936,73.4942504220156,0.8074551850384731,0.9527321623845724,-1.0927256115353239,-0.042262119241787736,-0.2147770772291984,-0.4052252509501508,nm,0.0
123.25563199999999,-18.821339682326172,-36.45319415227305,71.89782343107164,1.043872385673158,1.423477233290383,-0.9046320414447511,-0.0837453301252485,-0.12415097144515833,-0.4270468121465295,nm,0.0
123.265141,-19.682886199661272,-35.80832622830502,70.34186123442582,1.4512988015721244,2.05794297178741,-0.574353772241333,-0.15351479539333446,-0.08912096247434206,-0.4100678892775751,nm,0.0
123.29366999999999,-25.457247437240145,-33.24685706672601,70.46864475238948,1.4672504403569324,3.3614612566379676,0.2563061213258528,-0.3225026662941017,-0.3474144383467037,-0.1205096025326582,nm,0.0
123.30318600000001,-28.44599653180798,-32.52862780340012,71.63881056218636,1.3064071535932882,2.833505504947041,-0.39413844579907037,-0.285696856274628,-0.42815864785872565,-0.0862039678188878,nm,0.0
123.322386,-31.649662858360326,-31.96938824918579,73.4989130746422,-0.31759964370107624,1.29151976985156,-0.12442957673581745,-0.1009980452410692,-0.13562630091188885,0.05854837229230948,nm,0.0
123.341226,-34.99004672862226,-30.80987961035414,74.86249789689124,0.2049846682671721,0.16451256799528366,-0.8760045599983056,-0.17825926899451533,-0.21382130124716892,-0.003212788727435574,nm,0.0
123.350921,-34.7983400890556,-30.03449453837485,75.82683774774792,-1.0899814843693043,-0.11098727843917375,-0.32510588733589635,-0.12878073346362814,0.07234566737194918,0.21803441765999837,nm,0.0
123.36042699999999,-34.21704507932736,-29.024135921862193,76.68189827355906,-0.9624445120920403,-0.27592912416516346,-0.4103539668307276,-0.15935709584167784,0.14783225953999682,0.2339001669811975,nm,0.0
123.36993899999999,-32.590704555764866,-27.942334403074497,77.41683741784884,-0.9841294975025151,-0.49966973749204796,-0.03479435610844772,-0.13374855566152347,0.3293082082652554,0.30738745384902155,nm,0.0
123.379459,-29.454025512532034,-27.014235006569134,78.08420696589963,-1.733858989240773,-0.9239275206477294,0.5356235987595027,-0.04997831375854579,0.5863033973204179,0.42765891407369266,nm,0.0
123.38896500000001,-25.880967012855944,-26.549751568249498,78.68201517543193,-1.731584306325828,-1.6321331503555168,0.9515247349715407,0.05102947378491753,0.6472015283503956,0.44555934224577903,nm,0.0
123.42682400000001,-10.84694133116066,-29.959674059301573,78.7867277638927,-0.9272112971294098,-3.7992173811258567,0.9399090897335981,0.37851860193715187,0.3923615453961323,0.0799298947504938,nm,0.0
123.44602699999999,-8.949517040210374,-32.55037588149878,75.70852883296558,0.10354417351675685,-1.3915527313304885,0.027551154356379802,0.2251804057484646,-0.015213290367027914,-0.30591615662817734,nm,0.0
123.455556,-10.15712426589165,-33.339101144909684,74.55252112454895,0.8542833568097905,-0.24516837815799228,-0.35372407066882167,0.11432988172031643,-0.23341390394825678,-0.3617346448371979,nm,0.0
123.464868,-11.723456377735955,-34.05155107437564,74.27703536335889,1.0964144329357908,0.6785363176611294,-0.4278773602669613,0.08109415815790912,-0.28670313342640724,-0.22757242115410334,nm,0.0
123.474377,-13.530392085657589,-34.338014254404264,74.659351575626,0.94044105546171,1.1262668605631647,-0.33511282061112974,-0.011094055497850168,-0.3008549803233428,-0.1248627419890129,nm,0.0
123.48388800000001,-15.568457646173604,-34.114354699212186,75.15422997384178,0.9667470334434737,1.257556345158191,-0.6503892964943351,-0.11735050518223523,-0.31140841937449615,-0.12818717439246963,nm,0.0
123.49339800000001,-17.24039948696317,-33.83747288463203,75.34838689428817,0.9045758755241802,1.291065478352191,-0.8739476221994695,-0.11056751891494061,-0.25180565742482297,-0.14567000237546893,nm,0.0
