timestamp,roll,pitch,yaw,acc_x,acc_y,acc_z,gyro_x,gyro_y,gyro_z,markers,motor_input
121.505728,-29.357435144118124,-37.542458766479726,78.45506172977313,-1.976238825261312,-2.6322742661260854,-0.6914003820081472,0.057137640468383974,-0.3946029886806924,0.07364869039609681,nm,0.0
121.524746,-32.21867395442686,-38.6483118867188,79.62528973557353,-2.130576692172513,-2.767144287136378,-1.5258760003456158,0.09235381878296661,-0.18355234605884538,-0.10732733613694448,nm,0.0
121.53426200000001,-32.8326585305173,-38.90009405820586,78.57450400484399,-1.4421477447998816,-2.0562545322598984,-1.4805324803218394,0.04431032132371215,-0.10267295966868915,-0.281629299383103,nm,0.0
121.55346399999999,-32.486293810513,-37.82179406239878,75.0036027845701,-0.20374244515776346,-0.10661604686152637,-0.7649544865221386,-0.12589153706268097,0.07334757553798874,-0.3191524417602218,nm,0.0
121.562984,-32.61974598086178,-36.70676858041996,73.80998972755793,0.5961856776862329,0.8215792975084226,-0.41132278665017186,-0.2077683392959522,0.03968373098718392,-0.24958698872446972,nm,0.0
121.57231100000001,-32.60091594270223,-35.12871951875281,73.24159344481068,0.996008960717536,1.5717722136580083,-0.03599272259056131,-0.2890913617930551,0.09272171420366317,-0.10611933313558691,nm,0.0
121.58181099999999,-32.13623615561225,-33.002267872835404,72.99665370294622,1.2962560567819728,2.160821976699379,0.123756342495211,-0.37191349245327776,0.1977845844752989,0.008322895220382162,nm,0.0
121.59132600000001,-31.150003918783167,-30.91494299184095,73.10593573176212,1.3343284494516225,2.448987251695487,0.30223851201252916,-0.3376716692844046,0.2828081491318247,0.13131192284021886,nm,0.0
121.60082600000001,-29.680457821859115,-29.463226003715505,73.49952586783706,1.5169664690357765,2.5966398497870102,0.5309747981601589,-0.19191987693152407,0.3281865207605078,0.23127817704410422,nm,0.0
121.610525,-27.65424682369549,-28.64404616745432,73.9540435711921,1.5637461169124174,2.5083389007603114,0.7314349757449663,-0.0445119640781527,0.38782811683762203,0.2920760280534122,nm,0.0
121.629548,-23.652070705889816,-28.91747115527842,74.91349745042172,1.2195829247751726,1.9209485624168916,1.0387620138297924,0.1832573902002276,0.2831453748897754,0.2745650864559059,nm,0.0
121.64857,-21.72653039255716,-30.37664488149692,74.72129434114086,1.0435299891643957,1.0586682390711983,0.6914833523262588,0.19925792483165924,0.12026710985327933,0.01732277295359624,nm,0.0
121.658083,-20.45587793391423,-31.25118358921192,73.64635955782906,0.6972806048299242,0.6351755089536091,0.5738846395976803,0.2418113167223823,0.16441352893924813,-0.08197108582814074,nm,0.0
121.667586,-18.972095668075752,-32.342880975831775,72.1111024785401,0.5715776435696496,0.2558797725851464,0.5386500100986478,0.2970832638925115,0.17861788300809361,-0.14807619466015007,nm,0.0
121.67709500000001,-17.41673130478682,-33.5230534367751,70.63342137934129,0.07644020758176759,-0.17228370666776,0.8173378968809446,0.3213193934974136,0.1736398256418187,-0.12394114330636616,nm,0.0
121.68661700000001,-16.550997870064982,-34.60164010788513,69.72223759293334,-0.26488140479002514,-0.6291065957822459,0.7745966406014406,0.2658039053256279,0.06312213685090329,-0.08280507933418568,nm,0.0
121.696123,-16.627869694791556,-35.54959854408593,69.76923562784462,-0.6325644445425592,-1.3003159605986023,0.6264025958660995,0.18764156493590906,-0.07630686153939478,0.003206180133030117,nm,0.0
121.705457,-17.43808260061697,-36.51349486283911,70.91468421289167,-1.423094998275215,-2.1890757775111247,0.4880215646385797,0.15149903187213856,-0.18711828952897022,0.13679208899711462,nm,0.0
121.71497,-19.07255094006932,-37.564668702795856,72.82707832466397,-2.1111097005171735,-3.1135549855757656,0.044754149058890115,0.13251575135399216,-0.31220731508975397,0.18901064253696184,nm,0.0
121.75301400000001,-27.002792352407884,-38.68321318242862,75.09509946910619,-1.5529990608425395,-2.095752299144455,-1.217139980422219,-0.11551651077583608,-0.2022791122281728,-0.37743377543769574,nm,0.0
121.80055300000001,-36.267043220782405,-35.27457517791809,72.00527473902545,0.9028650511011512,1.842258798084624,-0.4701877945687118,-0.26679547389652736,-0.2212989545141413,-0.14101687216955106,nm,0.0
121.81006400000001,-37.314751605115795,-34.24591088052897,72.46005298709258,1.1641691202016493,1.7878819762719682,-0.5813166943763134,-0.236008155821984,-0.10166969371822132,-0.022307225925845116,nm,0.0
121.819571,-36.998267215984754,-33.31542264299836,72.78841478481782,1.1509711767213855,1.8040648881347834,-0.4787587152395793,-0.14929158158410694,0.10572846256037476,0.10712439039284095,nm,0.0
121.82907900000001,-35.554715327631065,-32.51880042195783,72.84654867835295,1.380358316125772,1.9594322080635773,-0.15595918175085968,-0.06776136600154284,0.27898979446567357,0.1745542784916522,nm,0.0
121.85779099999999,-27.79982606502177,-30.853921921315216,72.86880867718203,1.8599362082493878,2.780454493048648,1.1293268443099267,0.066863892634729,0.42391401183561234,0.31194625439389123,nm,0.0
121.87680900000001,-25.22341862389994,-31.359525825703376,75.29522746047046,0.6861338174024889,1.4582847611469305,0.9780453044520829,0.13753220236834596,0.08871251106920947,0.35132345290976214,nm,0.0
121.886313,-24.84681877155475,-32.10551700497627,76.06819329754076,0.760278517354041,0.46964278848094454,0.15772281067668814,0.17417156062440284,0.027153677808957125,0.19824280045584625,nm,0.0
121.89582899999999,-23.181507522110415,-33.34017592245909,75.91826583697832,0.12511442342162235,-0.33365217436975336,0.14028611370917776,0.3213716851165184,0.2143913265295275,0.15387429549929557,nm,0.0
121.90536,-21.267966201277382,-34.922160487204906,74.98295815229758,-0.7421024237198518,-1.2281263736035941,0.38558940358579163,0.39993541232003094,0.22935686235545175,0.031178278625958133,nm,0.0
121.92418900000001,-19.429039347457355,-37.325055064259466,72.81181444718925,-1.1872003054802882,-2.5654089772983215,0.3961477388481041,0.22284504706237018,0.07071515651671119,-0.0796035469579871,nm,0.0
121.93370100000001,-19.83566886502112,-37.7012288584176,72.96286807474891,-2.050710834846632,-3.3094984026856022,0.5622834244771147,0.06670310472263416,-0.08242033717267216,-0.01592074170831445,nm,0.0
121.943207,-21.831711867377866,-37.71314504468911,74.30205431601307,-2.1513959963615887,-3.603586492887277,0.20599668240855087,-0.07319070089711815,-0.30252512553882793,0.027416566893169292,nm,0.0
121.971743,-30.824899156192906,-35.10754814773358,78.89424229236955,-1.3546289335694912,-1.8311439870960302,-1.0946515523085465,-0.2890824184130277,-0.44566969157956987,-0.17208024572144467,nm,0.0
121.98125200000001,-33.02221104863783,-34.51603217539204,78.8984926756441,-1.0645275540248789,-0.7359725980393081,-0.9532178485305479,-0.17278975740743477,-0.33020451391314654,-0.24483850467686424,nm,0.0
121.99076299999999,-34.83806758476689,-34.39328589479739,77.9721656359233,-0.37734504168952604,0.24364216453824228,-0.8238886507467269,-0.07130022574534094,-0.2877597667839272,-0.3853593442374494,nm,0.0
122.00977900000001,-36.622354146173514,-34.747753065082456,74.89159995615276,0.8208043139500291,1.4229498785547732,-0.6686259112755818,0.02664468608265038,-0.09581860082291863,-0.369872940277095,nm,0.0
122.02880300000001,-36.700106243729316,-33.94054326939277,72.94034568038684,1.3887811372539896,1.7582937171781912,-0.2893616553296617,-0.11052618968541374,0.071526501311463,-0.11522783593353288,nm,0.0
122.03829999999999,-35.83027693117694,-32.638013640238086,72.70979434640026,1.4818053605009602,2.0613643080398654,-0.13679155385103453,-0.19329078878120284,0.21609520369586593,0.055331096161079306,nm,0.0
122.04781600000001,-34.426712876525464,-31.106800286112602,72.91600767972433,1.5146353082579158,2.499328847204673,0.1160358466990126,-0.20931156964207037,0.31892885551638017,0.19522163970306058,nm,0.0
122.07634300000001,-28.436633400896152,-29.401356314705925,74.15263849442343,1.671174730024139,2.810058193592575,0.7566250007869159,0.1625230012185798,0.35401635361577855,0.31748500007734126,nm,0.0
122.09555900000001,-25.934456582111483,-31.713083340734688,75.37301619576122,0.41882382523308925,1.0558659862273059,0.673825576010904,0.2832709261521038,0.06380884960895022,0.1807208492009388,nm,0.0
122.10488799999999,-25.230873062997414,-32.8484888840359,75.10472104955377,1.3222600073414135,0.36847433923910655,-0.3669214429637697,0.26375876670620857,0.058871030317105104,0.02547913935439491,nm,0.0
122.11457200000001,-23.05205776917547,-33.986443728346686,74.41906486488169,-0.23846826290464795,-0.4392796924733825,0.3934032730003218,0.3291779706059943,0.29311174694103215,0.1066753343368227,nm,0.0
122.12408099999999,-21.915106153182908,-34.88584283836115,73.53935429039139,-0.1633377135184886,-0.8296413306784209,0.29352914962993004,0.2385976803379828,0.1322737689555047,-0.04385836409956387,nm,0.0
122.13359,-21.25785257012691,-35.08255231172466,72.88633220438075,-0.034004630511795225,-1.1695600716024377,0.21244918424487627,0.08255858231016919,0.09327392741705032,-0.05186735137234685,nm,0.0
122.14312000000001,-20.673776868849867,-34.73701879694985,72.92961643445062,-1.2291202356112267,-1.8388889200882799,0.7540565417396449,-0.024215630700550474,0.1135424080342579,0.07888129488057999,nm,0.0
122.152626,-21.394845361756712,-34.475401418736794,73.81274206945781,-1.5290971007217813,-2.3669952604965183,0.6500235569808287,-0.07050470360973897,-0.09720583007270706,0.0982038797795439,nm,0.0
122.161959,-22.646267391554254,-34.46173304347713,75.30679725533344,-2.186149179102942,-3.0883833832187895,0.7882550321682632,-0.044010699995487,-0.19652426770439468,0.16093185088018383,nm,0.0
122.17146399999999,-23.971449129271246,-34.49419367847411,76.7474518172743,-2.8649829730530576,-3.618415290300413,0.45753175021159104,-0.0329744336016425,-0.21177978648187926,0.14208724924225324,nm,0.0
122.18097,-25.74322892685358,-34.71137526253711,77.58755052419964,-2.7499141102763667,-3.614200889133524,-0.1989081662552616,-0.009028390602395396,-0.29236810886548165,-0.029080516954403245,nm,0.0
122.20952600000001,-30.4488104202384,-36.4823505713221,76.00834170251456,-0.7915174331852676,-0.6552601898234957,-0.8040686167710629,0.06822649309851675,-0.23634995177926804,-0.36244991367459783,nm,0.0
122.22852800000001,-33.69622745218378,-36.73565486628962,74.41160471428604,0.7120695712887974,1.0646470797838088,-0.6512064884198349,-0.06654027567737206,-0.2403322494100758,-0.3036034818443246,nm,0.0
122.23801499999999,-34.91874221163873,-36.07603897874864,74.1521255341497,0.87319284793439,1.473439208670639,-0.5961627134164694,-0.16763386610856426,-0.15383706082856774,-0.1913025461595264,nm,0.0
122.24753999999999,-35.79155098983436,-34.857597183869736,74.04878657953853,1.1007621097196494,1.7298708397454308,-0.5979590610474869,-0.260803471297766,-0.07000973452435992,-0.1160817199215789,nm,0.0
122.25705400000001,-35.996385902847436,-33.356612011378786,74.0059955295838,1.3289529183558606,1.932515179934783,-0.5820536484623527,-0.285438819948346,0.05023389050708624,-0.02560380988960074,nm,0.0
122.26655400000001,-35.37192322085586,-32.02846904180206,74.05965584731858,1.5137264247151454,2.316155306462525,-0.3190193655433382,-0.21378050313913338,0.17471970002932574,0.08404826417776058,nm,0.0
122.276073,-33.92225377502874,-31.00982779005947,74.12240448383989,1.7463584728549935,2.784820775299334,-0.00036927109138944013,-0.11522000481099229,0.29452558895183933,0.16974551738261917,nm,0.0
122.28557,-31.847066520593025,-30.404084957083782,74.20465715957877,1.6241207186253865,3.1371929996236516,0.35311209227170387,-0.005915953013220117,0.3777214946493983,0.2336531182148075,nm,0.0
122.29509300000001,-29.862490136753138,-30.36361651773071,74.55098642523396,1.995871624638274,3.1689291948637366,0.48505182777610667,0.09790720882475908,0.33352369722330183,0.27494838612017464,nm,0.0
122.32361700000001,-27.067253377960796,-31.770774463650795,77.51358615296857,1.1701940720335764,1.1630537226578925,-0.37596066005052087,0.10065423694985681,0.04033375649354219,0.190247427358849,nm,0.0
122.33315300000001,-25.680151193250776,-32.27255275001001,77.50891716498131,0.8151248492754185,0.5262233659851571,-0.47245846666434554,0.16248867526029115,0.21037625906078805,0.15032892509293524,nm,0.0
122.34284,-23.776802342735454,-32.94947994956071,76.84030067169395,0.05851316404843088,-0.04299406668943737,-0.040940572059655275,0.2169620560624185,0.2851343607613003,0.07523706431413278,nm,0.0
122.352338,-22.386800640985985,-33.37261898485245,75.72123965579402,0.26209116825095935,-0.29897448689502726,0.20033591920558194,0.15117815341882346,0.2083142340493639,-0.0683301713453846,nm,0.0
122.361838,-20.996225382000038,-33.093864109180224,74.648209859194,-0.009834392863956638,-0.6191685006425416,0.43477502409839924,0.019275648068339986,0.24141682841449352,-0.05904650436971837,nm,0.0
122.38087100000001,-20.39866372859263,-31.90887387031025,74.71250763523204,-0.8113312876882669,-1.326306629315751,0.9530945150991361,-0.10550076473279507,0.0006313670199121482,0.07721966160952745,nm,0.0
122.390379,-20.829022088728813,-31.37949815723263,75.82201430313269,-1.7502147615858037,-2.077831848716837,1.287851686703889,-0.10748682485625864,-0.04160234233961518,0.1799178607192313,nm,0.0
122.39971600000001,-21.595377335317526,-31.03074026686403,76.95450861302567,-2.736979171430282,-3.2982405692727763,1.3516378260802686,-0.08513292831938613,-0.10854211857190658,0.15033522377009842,nm,0.0
122.409247,-22.78175696650656,-31.2824752722449,77.53860624717248,-3.3933768387367738,-4.414615612411409,1.3454672381846235,0.017857180148963318,-0.20683694417114096,-0.0026193112785089685,nm,0.0
122.41875200000001,-23.612176488429622,-32.043608737982424,77.0990567889299,-2.90167717325253,-4.356934260765006,0.2002990790518692,0.13117308645548667,-0.16922832018003545,-0.1717203632247118,nm,0.0
122.428269,-23.675786405575465,-33.09142780469679,75.58215758006803,-2.607848647840472,-3.5679378869799723,-0.3138715200919954,0.21493188497314084,-0.05811285712584075,-0.3068851636295088,nm,0.0
122.43777600000001,-23.74624722672362,-34.302882410204354,73.37087418310514,-1.4356236485659186,-2.264912040929679,-0.5840114212000149,0.24421346004213867,-0.07499454238183804,-0.44675799145708844,nm,0.0
122.447282,-23.62342688824956,-35.61400308312908,71.28030329788007,-0.2853277082128775,-0.7637535334940706,-0.6585862204473759,0.2699066818393867,-0.05982877391005455,-0.40057332249549704,nm,0.0
122.45693800000001,-23.724978195801903,-36.861856584098916,69.96207570995043,0.28415726158585974,0.3270189999923876,-0.36793020449128216,0.2438963380776391,-0.09810523089121316,-0.271924932253589,nm,0.0
122.466287,-24.604042838890685,-37.802239582803935,69.67058565828495,0.7182576299270299,0.935950738856263,-0.3875393771566037,0.14200633220252665,-0.19628913498226055,-0.16084972140933926,nm,0.0
122.47579300000001,-26.089752075772257,-38.25673140249244,70.28950630100937,1.0320404126447165,1.1838161566873924,-0.6477475734874728,0.01874907835293039,-0.2513359896413504,-0.05481010544093769,nm,0.0
122.494832,-28.563791910669135,-37.4681849346555,72.31703927900591,0.7102577393900316,0.8213071983246167,-1.025063765192481,-0.15610652656371313,-0.11434425778160087,0.07412973516860913,nm,0.0
