timestamp,roll,pitch,yaw,acc_x,acc_y,acc_z,gyro_x,gyro_y,gyro_z,markers,motor_input
117.501815,-43.1072250423858,-9.144627467783021,70.86446131169104,-0.5898451985721533,-0.04967931581884632,-0.9705645356720923,0.3059044981127697,1.4390312646838765,0.17303107491362382,nm,0.0
117.52092400000001,-23.23740205228114,-8.503883482108414,70.244877239625,-0.6380553948297953,-0.3333580912475977,0.849242378988372,0.7028817901642366,2.0312293803931896,0.2563879689620132,nm,0.0
117.53052199999999,-11.795377457870716,-8.583209925191507,69.83247946343646,0.03488331231901123,-0.8477593985139957,2.054047980006207,0.8023697117661173,2.1261883619417192,0.2566771870271377,nm,0.0
117.54002399999999,-0.14969253906729324,-8.545957344395342,69.49597880466126,1.1797062055898286,-1.4943780769735813,2.177190762821166,0.8078485399034642,2.167308427003296,0.2762954389075363,nm,0.0
117.549545,11.433277672796974,-8.204270428832785,69.52311049119314,1.9745305691951598,-1.9495964311121379,1.7043264957911513,0.7518088806622826,2.176595193044558,0.3371275540339283,nm,0.0
117.55904899999999,22.170446898152118,-7.8238940580266725,70.03558346065283,2.2785910653209425,-2.0671301854252953,0.8474513645149867,0.6756692196781512,2.028168807468779,0.39408013047629964,nm,0.0
117.57796300000001,37.591457115618276,-7.496876467466612,72.28724098690263,2.673562191718573,-1.6547762462931863,-0.32324176164671115,0.3831346521703438,1.2227858361609627,0.4252677101641935,nm,0.0
117.587468,41.50675921014226,-7.341888741968777,73.92046196562843,2.473378867309961,-1.2444402505320171,-0.8590989911550831,0.2037274546388271,0.758899113017635,0.41761544666099076,nm,0.0
117.60649699999999,41.528892045673885,-6.71487313845948,77.20295232741435,2.1649839180574504,-0.18632769305144187,-0.6126106514510452,-0.1384934636083136,-0.2284017602551984,0.28023350745880016,nm,0.0
117.616008,38.04484284050953,-5.904528740046261,78.6745240846818,1.825577546190607,0.20129261646774552,-0.08252239543408185,-0.295997682882842,-0.6380996182950113,0.20750782994720646,nm,0.0
117.63512700000001,25.657833541619773,-3.446077867343121,80.17359291697643,0.562911928295089,0.8758958985470816,1.08758086856084,-0.5010777021490955,-1.341686962442331,-0.021319911049573464,nm,0.0
117.64462900000001,17.24915066975791,-1.9871104592134377,80.02662879447043,-0.08538461840361883,1.266608308926599,1.6602727100582633,-0.5657118219922053,-1.6018921304520566,-0.1171026515678216,nm,0.0
117.65414000000001,7.942907933714114,-0.6576238447512166,79.37939756574572,-0.8466972693151688,1.5640049835685026,1.4844707005857851,-0.5824608936077894,-1.7812772852097192,-0.1786928354586089,nm,0.0
117.663747,-1.5110815837990532,0.18903227034726197,78.37225007340773,-1.7447046050006503,1.7883922750594685,1.3548047782597288,-0.5183595739346325,-1.8210981878289942,-0.21352545598412265,nm,0.0
117.67309399999999,-11.014217596342704,0.485827007626053,77.15990492743535,-2.3073704010297416,1.9404726947031412,0.6739461249107629,-0.4476704927656703,-1.843748359949442,-0.2335789058072137,nm,0.0
117.682617,-19.87656540027333,0.5167311497388027,75.82690409009967,-2.472972269142834,1.8399194510947285,-0.17999039409888773,-0.40664156778484434,-1.721006629450666,-0.2515059876808752,nm,0.0
117.692117,-27.52813921011935,0.3073910605381046,74.4654081423822,-2.5745204909025503,1.5527118078661444,-0.8089846869680067,-0.33844709504936005,-1.488932593795584,-0.26013053204839054,nm,0.0
117.70163,-33.87173983578742,-0.31311006664861935,73.30597160990763,-2.147088652588509,1.0405766792261089,-1.4969818937186983,-0.219591065857019,-1.252297810353362,-0.22947108273196132,nm,0.0
117.71110100000001,-38.238790158669985,-1.25076784189972,72.54255817421031,-1.6039921200113398,0.545910720120841,-1.8124806141073124,-0.06381761250669855,-0.8886056497713929,-0.1611734280189936,nm,0.0
117.720619,-40.157647786894586,-2.074553796174191,72.03768345849471,-1.6982854981508027,0.26137761068026616,-1.5682614936777384,0.05371855934558172,-0.41384291238203397,-0.10818741529282161,nm,0.0
117.74915200000001,-34.61900607087722,-2.376171292034604,70.41395498557682,-1.857216514375708,-0.7472274561468101,-0.034410341692157065,0.2498673724447633,0.673953262393315,-0.060680712631077334,nm,0.0
117.75876500000001,-30.004528471528403,-2.7968073120780463,70.08592069518622,-1.711500746077082,-0.8440817322425737,0.5597306306050742,0.40512528193674613,0.841959443225912,-0.022011446513850688,nm,0.0
117.76828,-24.647348969972676,-3.5215428997515823,69.62167140829486,-1.0739579929572398,-0.9304155543361577,0.7141397145853257,0.5191466501662448,0.9571649974608184,-0.03293496089435215,nm,0.0
117.77779100000001,-18.36566537569942,-4.321281792253642,68.86397510017648,-0.7670764654984978,-0.9348993465116447,1.0561396727619863,0.6084744945590019,1.1182210798438792,-0.06599702347049143,nm,0.0
117.796809,-3.6022812851462755,-6.431554686254938,66.84463437575259,0.7866009712118764,-0.8353801300457353,1.5906211268292727,0.8324911747767684,1.3780041117774227,-0.04577574031488612,nm,0.0
117.806319,4.751304821869843,-7.36127545569381,66.00321535728592,1.3219450444509322,-0.7955592201584032,1.464368667538487,0.8477156197979733,1.4496055542682662,0.027718587849820803,nm,0.0
117.81582499999999,12.37966250022138,-8.134451899015916,65.5881629169558,1.9975737554362338,-0.9952801572134677,0.5647200219387486,0.7740745987252614,1.3195522424017514,0.11665833763749724,nm,0.0
117.82515799999999,19.499992068881497,-9.177806203493898,65.68791552313348,2.2189586492482065,-1.0609555048190447,0.0365463179276328,0.7832699566492995,1.2011165696958659,0.2271706425208051,nm,0.0
117.834742,25.639180074141482,-10.618082052684256,66.18522937107713,2.2355600785789487,-1.1653049018971582,-0.0013815449486752986,0.7678823696764318,0.9922820358246841,0.3026953205605437,nm,0.0
117.86326500000001,33.26311618275621,-14.245072289764405,69.32292094534183,2.0250916973687705,-0.5584136741766274,-0.758706416929083,0.23652281751116846,0.1219454385237933,0.28989530736099156,nm,0.0
117.872784,32.58825666567219,-14.559340084165619,70.66923872124991,1.9619170827566126,-0.013792430734084574,-0.6337613970062093,0.02408624736007314,-0.1386012856079662,0.22747979790674397,nm,0.0
117.88230100000001,30.685056393890807,-14.363323377622748,72.02378606636098,1.7746607642246721,0.5466326518267934,-0.5278637834258132,-0.14533684800156998,-0.33113410606651306,0.16774219015697112,nm,0.0
117.89180300000001,27.952616728377237,-13.809540605921633,73.22309444709424,1.474415245892217,0.9129439131477702,-0.03981996675233329,-0.2541402065216927,-0.46750812840800343,0.09891179519958032,nm,0.0
117.90149400000001,24.234470400212967,-13.014877616946883,74.11581202195997,1.109054017710729,1.211742843480026,0.18201594670395568,-0.34568325010334,-0.6446639403778666,-0.0016189586477808825,nm,0.0
117.91082599999999,19.856900039076173,-12.00582638256142,74.68202375749249,0.7068605107898097,1.4585898538813564,-0.21648385835731326,-0.4135289601380205,-0.7646614927495244,-0.08364478987422341,nm,0.0
117.92050900000001,15.387566030106141,-10.956685219807985,74.95713444656744,0.3310040863125097,1.2661853348908494,0.09390293175315198,-0.42065544381287157,-0.7865829478157123,-0.12956311589289682,nm,0.0
117.930024,10.45843153868242,-10.122135535502307,75.0024735529708,-0.05374339338720748,1.1341635585054048,0.3411638625925299,-0.40058395744873604,-0.8894668267795183,-0.1771768292167503,nm,0.0
117.93955500000001,5.089438511726432,-9.27745950247756,75.04026037733281,-0.3183486953044237,1.010702825254637,-0.1254905491240072,-0.42445779469614797,-0.9759651916443834,-0.17838707275053345,nm,0.0
117.94905,-0.2340856608829972,-8.347954324827002,75.19309919049644,-1.0251492035391072,0.7596059664513436,0.36532160285664705,-0.43719852080079347,-0.9665423264047602,-0.13660018229801557,nm,0.0
117.968088,-12.820693486483602,-6.628205080903723,75.70343301008609,-2.0981550889998384,0.7120002469827948,0.6920044325219816,-0.4772919158538667,-1.221394665244637,-0.10858467202115295,nm,0.0
117.97742299999999,-19.25121195544999,-5.612566538110409,75.88973534718987,-2.5538869357011573,0.7768259116198625,0.5007320383702784,-0.4972566228428459,-1.1882246492566086,-0.1001423456734744,nm,0.0
117.986899,-25.236346495049762,-4.673432511307993,75.90055538757491,-2.656755942155759,0.78293400154611,-0.04210724368480685,-0.4592878647346458,-1.1088674812700654,-0.10416548152559651,nm,0.0
117.99641700000001,-30.235442141567933,-4.155851995017761,75.7584122683766,-2.334692816144106,0.6462608904742633,-0.716195248996082,-0.3310390051059385,-0.9393854044183584,-0.10335119728547495,nm,0.0
118.00592900000001,-33.60513650908202,-4.1930035767327665,75.47166528841178,-2.0171811652778424,0.47609013646248977,-1.0949560850909381,-0.14637920424344578,-0.6508495505370049,-0.1036380670959876,nm,0.0
118.024945,-34.94265297054533,-5.973699338437383,74.56264063148231,-1.2856913043641323,-0.11914555023650103,-1.2038901933480337,0.25015474538989857,-0.014449659261601957,-0.08973964109828722,nm,0.0
118.043914,-28.952457958791626,-8.91545132028118,73.52165463604194,-0.6903534865779566,-0.6682746797467047,-0.547571765555714,0.5060832825524342,0.6664379213605063,0.004163257948060401,nm,0.0
118.053594,-23.319585061505578,-9.935937680188468,72.92574973657784,-0.3540672998460519,-0.9232083907567318,-0.2983346772836635,0.5306227348490635,1.0086882413162725,0.0667518927585808,nm,0.0
118.06309300000001,-16.05987912189842,-10.383960508957678,72.39382096223811,-0.3406232594182329,-1.0746831763596225,0.25976593203822335,0.5259854564574272,1.3415928654425278,0.14978810775939227,nm,0.0
118.07260299999999,-8.27581609600694,-10.299699195906388,71.99618747074469,0.04840674053732213,-1.1231841195179675,0.8748423050099494,0.46664051208850416,1.4678009063122073,0.19837584998660793,nm,0.0
118.082119,-0.6386080760277332,-9.733551256489216,71.81431237439882,0.9465778070438107,-1.0305422391343708,0.7598235434998091,0.37354093858097637,1.469758279169969,0.22603742804898086,nm,0.0
118.09162900000001,6.944274557344686,-8.895630266096159,71.97962996673841,1.433452186613206,-0.801636804536405,0.7751818020062307,0.31909932571241706,1.4798397725591284,0.27362132485618906,nm,0.0
118.120049,23.499044414087923,-7.331109733964239,73.9814829790955,2.1795459568542412,-0.49043789541190946,-0.24219775452004724,0.21231977414267644,0.838740877923014,0.2603583665464134,nm,0.0
118.12955500000001,26.157069171156223,-7.371078327665512,74.61158256540418,2.026696758517592,-0.546501850366154,-0.397815409609053,0.16063927419456137,0.5110838429223844,0.18559464212158105,nm,0.0
118.13906700000001,26.982975460191085,-7.457071728960377,75.00233767388744,1.8846118173133637,-0.6124197828756279,-0.5319162322271563,0.06949795692229091,0.15895359923350627,0.09082526638260231,nm,0.0
118.14858100000001,26.36300603417112,-7.4407473358640335,75.20709070483406,1.6445419072433638,-0.6373008765446528,-0.3356741281438779,-0.02482033588992319,-0.11292829620364744,0.016236350958021145,nm,0.0
118.186812,12.301859614537614,-6.657188691992483,75.81252076842115,0.12447155138620726,0.015371559216598208,0.5450420298184514,-0.2580679192586486,-0.8792865144776418,-0.05423256153961438,nm,0.0
118.196315,7.206872182029889,-6.436598023416857,76.2315810857564,-0.17113373665560883,0.23334361798021033,0.3055222917679766,-0.2753007055815482,-0.9686911287982767,-0.038030336120129786,nm,0.0
118.20580899999999,2.5303169334436637,-6.2195830221311335,76.67179190748996,-0.4747325271657117,0.32349797069455216,0.21912710938546237,-0.24749438860330564,-0.8905860394092753,-0.019798029465386,nm,0.0
118.21532400000001,-1.55069727082761,-6.011253562832765,76.96440316130625,-0.9883612029241787,0.411967722050071,0.46489236553239727,-0.21282442178721947,-0.7776602329060961,-0.03236499034456887,nm,0.0
118.22484499999999,-5.403134676064722,-5.792714485696843,76.95348134139012,-1.003629679147724,0.4866853359494778,0.023878206938016528,-0.20244278116844958,-0.7338688726962962,-0.08460232797509509,nm,0.0
118.23435599999999,-8.3197055386091,-5.6474200916641095,76.68443925418224,-0.980837518555986,0.5113597925302629,-0.24431834541218633,-0.14733850338926388,-0.5555361595910144,-0.11455623996544155,nm,0.0
118.24388099999999,-10.185391867880014,-5.682725676628485,76.28822822469574,-1.1261909796734855,0.5336764289560404,-0.16170207473268905,-0.06639658165056006,-0.35963847966644136,-0.11828888481810415,nm,0.0
118.253368,-11.40854850797381,-5.866395618183237,75.88812392949643,-0.9870467844868797,0.518224535892726,-0.1929013473323392,-0.009213141714109465,-0.24201876294167038,-0.10655308701469261,nm,0.0
118.262887,-11.78977233526093,-6.066584529496573,75.61979534225514,-0.816649275023357,0.43470302670618416,-0.2002000549052228,0.03387920130243844,-0.08015958731808559,-0.06335679807521297,nm,0.0
118.27240499999999,-11.37321344516267,-6.25099572116482,75.55166129668322,-0.8186802225143643,0.3216668373203275,0.05567289509503712,0.07011081999138927,0.07442877053205052,-0.006457379511063615,nm,0.0
118.30093400000001,-7.828483013491685,-6.829145096574121,75.84741255361959,-0.3434177767297881,0.04680610883968807,0.3221639315795429,0.1240095735371803,0.2899114003616237,0.04711170536071604,nm,0.0
118.319943,-4.6694801794360465,-7.2917746027772266,75.42350535593452,-0.05358684819983553,0.08665892099348929,0.26265405661631486,0.14286688644205606,0.3022299883102096,-0.02454413000700575,nm,0.0
118.32946100000001,-3.176600557559667,-7.584594863142669,74.96259149928129,0.015194273516758987,0.11017032182298614,0.2675336982748006,0.14578248502432517,0.2751430729861589,-0.056925425752921054,nm,0.0
118.33897300000001,-2.0340777107447607,-7.919945890566497,74.43928513888997,0.12018606726312044,0.13144318744114095,0.2449451203832906,0.1378890690574599,0.20443750748441702,-0.07745329976963325,nm,0.0
118.34850499999999,-1.1884629575947492,-8.30305637240992,73.97319353341895,0.22894077427872359,0.11203774124727994,0.12003291962697592,0.13272589925400374,0.1438794778575798,-0.07309405222002555,nm,0.0
118.358001,-0.5518821015793987,-8.768538573841473,73.64294436195998,0.18447903247924666,0.07630876391799421,0.16346611212769666,0.1379298786629617,0.09850516988326163,-0.05093930838060337,nm,0.0
118.36749900000001,-0.28901569950296285,-9.29167552868545,73.4437593503969,0.14529272545122562,0.03261024507681088,0.15459086864088156,0.12845911163501278,0.02361744754157597,-0.03534381136783841,nm,0.0
118.377026,-0.301371272006255,-9.803293789832,73.33010961911474,0.07939372768339283,-0.02385129025540105,0.0004296790594410504,0.11076013845440956,-0.02818672925728457,-0.026824559924027398,nm,0.0
118.38653,-0.4397024188188913,-10.316371848499127,73.21968318572992,-0.07312906209616758,-0.10226805424467524,-0.021981655215015706,0.10385677621379537,-0.052248228497092826,-0.030516450825122353,nm,0.0
118.434166,-0.5011255530170499,-12.408171576309293,71.24303265679164,-0.15275006563547658,-0.015939627777696797,0.03547994626565534,0.09099389769801518,0.060832705402369736,-0.07237832472387438,nm,0.0
118.443601,-0.1390205836635063,-12.568196250721629,70.94722172901055,0.013528185369912911,0.037800155021176306,-0.18007020197680065,0.06671264542013612,0.05965026759983584,-0.046895538775069086,nm,0.0
118.45318,0.5038521009135093,-12.645851167414218,70.86032565373442,0.004425341804687882,0.014621131188452513,-0.0680307750732206,0.0663276981251561,0.11979023792961865,0.007256149155489087,nm,0.0
118.46269899999999,1.1746946331956045,-12.59187276488382,70.95709018649555,0.030483884745910673,-0.03922918042833872,-0.0974385294373331,0.0556692005049242,0.1380920230741494,0.04507272994498662,nm,0.0
118.47212099999999,1.9166370050933021,-12.551258470657327,71.13118804473633,0.10642719952126126,-0.127534329431277,-0.17142590289916557,0.05272081252853254,0.14303418833374748,0.0634399880075381,nm,0.0
118.48169999999999,2.618202902642817,-12.322977238858778,71.34326499837009,0.1305468126352821,-0.1440185126090387,-0.09681652611410717,0.0489001504251322,0.17969755726558526,0.06857215671592987,nm,0.0
118.49117100000001,3.71030155650661,-11.991107357516562,71.44019443673145,0.14806228356936596,-0.11414116768077587,0.10717083914802598,0.018377842335897107,0.22722203888169049,0.061278959042493135,nm,0.0
