timestamp,roll,pitch,yaw,acc_x,acc_y,acc_z,gyro_x,gyro_y,gyro_z,acc_mag,gyro_mag,motor_input,markers
0.007759571075439453,-2.976065189042653,-22.50949672287506,-7.148332834038563,-0.013834769083119028,0.003676428433053111,0.034228907994517596,0.0,0.0,0.0,0.037101686000823975,0.0,0.0,nm
0.0192410945892334,-2.9936814901984357,-22.561777234283536,-7.122020062112098,-0.011448577298631187,0.0030427769700770418,0.02825062967085634,0.0,0.0,0.0,0.030633747577667233,0.0,0.0,nm
0.041854143142700195,-3.0404616293587208,-22.676412314939718,-7.075514468684678,-0.010707516001644473,0.0028530649535722674,0.026272713830700536,0.0,0.0,0.0,0.02851396799087524,0.0,0.0,nm
0.04759669303894043,-3.066564912200847,-22.72185800291305,-7.049482162361302,-0.011493658997373226,0.003068078808264871,0.02813874594910906,0.0,0.0,0.0,0.030550062656402588,0.0,0.0,nm
0.0700225830078125,-3.113327977487359,-22.796497469176973,-6.9910299562091645,-0.009801129922175978,0.0026228994060189244,0.023906158524985673,0.0,0.0,0.0,0.02597010135650635,0.0,0.0,nm
0.07294058799743652,-3.127949780085482,-22.83167620635064,-6.965847474775411,0.0,0.0,0.0,0.0,0.0,0.0,0.0,0.0,0.0,nm
0.09654736518859863,-3.1442846224179664,-22.90422525488636,-6.943629831969973,-0.010225163389197281,0.002735556663614654,0.024806606514484682,0.0,0.0,0.0,0.026970446109771725,0.0,0.0,nm
0.1003880500793457,-3.1449355628229525,-22.946199421419593,-6.946627514458838,0.01429102295808478,-0.00031573925750223367,0.03398824291834945,0.0,0.0,0.0,0.036871854918677005,0.0,0.0,nm
0.12540149688720703,-3.1340733032133694,-23.019992173219123,-6.955644486774696,0.0,0.0,0.0,0.0,0.0,0.0,0.0,0.0,0.0,nm
0.1309957504272461,-3.115108891399355,-23.044029201224717,-6.955492409614522,-0.010918861966465094,0.0028993085685647996,0.026304840026147323,0.0,0.0,0.0,0.02862817049026489,0.0,0.0,nm
0.15394830703735352,-3.0699348836311025,-23.060989645576814,-6.936099744933389,-0.013195909581752882,0.0034698544804144405,0.03175324722250474,0.0,0.0,0.0,0.0345606803894043,0.0,0.0,nm
0.15755820274353027,-3.053312556510773,-23.05272946944582,-6.925927870384481,-0.012141805558441982,0.0031814990370918972,0.029224574535940025,0.0,0.0,0.0,0.031805992126464844,0.0,0.0,nm
0.19043731689453125,-3.0421507156541874,-23.030280288101718,-6.927814084105618,-0.015698689087377354,0.004107899051797752,0.03782547977781,0.0,0.0,0.0,0.04115933179855347,0.0,0.0,nm
0.19225597381591797,-3.0618020262228582,-23.032689564488432,-6.941333492109052,-0.014686344370663873,0.003860041150425816,0.03538811375874728,0.0,0.0,0.0,0.038508534431457526,0.0,0.0,nm
0.20347929000854492,-3.094470434084651,-23.046045798723878,-6.961249144689397,-0.016224825807931123,0.004294037723452543,0.03908022796156859,0.0,0.0,0.0,0.042531728744506836,0.0,0.0,nm
0.21083688735961914,-3.143412152776881,-23.07063782630752,-6.982129267893387,-0.015476963945618911,0.004135428349138901,0.03724759639400847,0.0,0.0,0.0,0.040546536445617676,0.0,0.0,nm
0.2421092987060547,-3.308743137521597,-23.201201363708925,-7.008532551583004,-0.012388263583885267,0.0034022833942131347,0.029654883455646576,0.0,0.0,0.0,0.032318055629730225,0.0,0.0,nm
0.2668893337249756,-3.370665990921173,-23.320241949644576,-6.98602643639906,-0.011749889184027544,0.003247132639135168,0.027970220280990873,0.0,0.0,0.0,0.030511260032653805,0.0,0.0,nm
0.26882219314575195,-3.3907876504574745,-23.383868754927036,-6.967300411460879,-0.011015159568241204,0.0030460781574736897,0.026140613153177634,0.0,0.0,0.0,0.028529703617095947,0.0,0.0,nm
0.28601741790771484,-3.4096707643482387,-23.450689310033972,-6.945652706304166,-0.01047562915336408,0.0028973573234254034,0.024779587803905673,0.0,0.0,0.0,0.027058482170104977,0.0,0.0,nm
0.3027820587158203,-3.4508219532915048,-23.597681670687127,-6.897102867536603,-0.010951922960427254,0.003029718241947776,0.025722162654756815,0.0,0.0,0.0,0.02812033891677856,0.0,0.0,nm
0.30452990531921387,-3.4737989002362535,-23.675034642531443,-6.873311891436068,0.0,0.0,0.0,0.0,0.0,0.0,0.0,0.0,0.0,nm
0.3416907787322998,-3.539979904412404,-23.836696993833183,-6.839723790408094,0.0,0.0,0.0,0.0,0.0,0.0,0.0,0.0,0.0,nm
0.3441150188446045,-3.634824116341385,-23.97963526398779,-6.81980803188568,0.0,0.0,0.0,0.0,0.0,0.0,0.0,0.0,0.0,nm
0.34685277938842773,-3.683814645106337,-24.03656055996821,-6.800838602844019,0.026210809062113358,-0.0031258388433070814,0.011772685603317162,0.0,0.0,0.0,0.028902828693389896,0.0,0.0,nm
0.357194185256958,-3.724238587970645,-24.07695418801417,-6.767550838766482,0.0280540185702647,-0.0033291261127768347,0.012623585471565136,0.0,0.0,0.0,0.03094294667243958,0.0,0.0,nm
0.37567877769470215,-3.747933953459323,-24.100110692600598,-6.720129102210175,0.026389974725178077,-0.0031095091715461214,0.011886532595889478,0.0,0.0,0.0,0.029109954833984375,0.0,0.0,nm
0.39499831199645996,-3.6864124461084087,-24.02242703141274,-6.620209423931189,0.0,0.0,0.0,0.0,0.0,0.0,0.0,0.0,0.0,nm
0.40996289253234863,-3.631288790775754,-23.952886194570212,-6.64774937031739,0.0,0.0,0.0,0.0,0.0,0.0,0.0,0.0,0.0,nm
0.43103694915771484,-3.5180740028758835,-23.79800773873568,-6.778833057997466,-0.012098396610885786,0.0033419486851916044,0.028136015816742528,0.0,0.0,0.0,0.030808687210083008,0.0,0.0,nm
0.4405803680419922,-3.480707574440173,-23.72396207534473,-6.8404371045042405,-0.015282675321637936,0.004220271528405814,0.03567162010788377,0.0,0.0,0.0,0.039036333560943604,0.0,0.0,nm
0.4616050720214844,-3.484578413633605,-23.503505123981803,-6.826716526467828,-0.015119299054826478,0.004195226743814361,0.03566638473506195,0.0,0.0,0.0,0.03896516561508179,0.0,0.0,nm
0.49234771728515625,-3.4986190090855684,-23.3330762049873,-6.767338703905153,-0.011777390027535176,0.031028014630829118,0.035589475012087715,0.0,0.0,0.0,0.04866266884818019,0.0,0.0,nm
0.49427318572998047,-3.4710811689726926,-23.25104253241942,-6.786705909679734,-0.010192008914577114,0.03392649326840843,0.03288636879121283,0.0,0.0,0.0,0.04833629323270289,0.0,0.0,nm
0.5001251697540283,-3.424669314329882,-23.187485332234562,-6.844742545170006,-0.014163515061163128,0.003924362353950952,0.033922123231284004,0.0,0.0,0.0,0.036969125270843506,0.0,0.0,nm
0.5252392292022705,-3.3237040486920533,-23.115706352220016,-6.997935792427015,-0.015293862175969555,0.004216230733470102,0.03676522257426319,0.0,0.0,0.0,0.040041983127593994,0.0,0.0,nm
0.5282604694366455,-3.294603270665177,-23.106698610526177,-7.040526366488475,-0.01711722454519142,0.0047101636294715615,0.04116836954234975,0.0,0.0,0.0,0.04483324289321899,0.0,0.0,nm
0.55458664894104,-3.313223223816211,-23.134901368427048,-6.988537404938013,-0.015727401614245955,0.004323318194403621,0.03776790776490852,0.0,0.0,0.0,0.041139483451843255,0.0,0.0,nm
0.5577535629272461,-3.347786069724231,-23.157604525731852,-6.915371764757158,-0.014322005067138929,0.003938459482385115,0.03434921509015004,0.0,0.0,0.0,0.03742325305938721,0.0,0.0,nm
0.5888290405273438,-3.419557530179999,-23.22328472111972,-6.797124545901581,-0.01268876938790655,0.0034984087850287145,0.030329043313959015,0.0,0.0,0.0,0.033061981201171875,0.0,0.0,nm
0.5905919075012207,-3.4377468417620123,-23.259165951699625,-6.792442518333407,-0.010088507778842798,0.002786824607829328,0.02407338275993193,0.0,0.0,0.0,0.026250183582305908,0.0,0.0,nm
0.6178421974182129,-3.4365491741311707,-23.3469768553669,-6.883624263548601,-0.010635956422902491,0.002949633402954865,0.025282184940258218,0.0,0.0,0.0,0.027586460113525387,0.0,0.0,nm
0.6197550296783447,-3.4335218898534903,-23.38884296123886,-6.938738860375837,0.0,0.0,0.0,0.0,0.0,0.0,0.0,0.0,0.0,nm
0.6473081111907959,-3.446845054153417,-23.4659647447152,-6.9683826650421485,0.023953496516190102,-0.002927703005210666,0.01047574356522456,0.0,0.0,0.0,0.02630746364593506,0.0,0.0,nm
0.6570687294006348,-3.4826840283082174,-23.511303380526027,-6.888705699786644,0.0,0.0,0.0,0.0,0.0,0.0,0.0,0.0,0.0,nm
0.6612021923065186,-3.496470325208411,-23.523586099664243,-6.849155085612464,0.0,0.0,0.0,0.0,0.0,0.0,0.0,0.0,0.0,nm
0.676602840423584,-3.5031826863400872,-23.52632737675401,-6.834947556107812,-0.01008316193981721,0.0028065681162906223,0.0237631791210774,0.0,0.0,0.0,0.025966048240661618,0.0,0.0,nm
0.6825160980224609,-3.499994195344922,-23.52153170806067,-6.8550139203832545,-0.0114870792030053,0.003200336380721286,0.027080285115517837,0.0,0.0,0.0,0.029589474201202396,0.0,0.0,nm
0.691295862197876,-3.4896039212567653,-23.516004739559552,-6.902839951436261,-0.011274364155629619,0.0031462030564798076,0.026590635268406153,0.0,0.0,0.0,0.029052913188934323,0.0,0.0,nm
0.7108702659606934,-3.4764196959082825,-23.509507492357017,-7.008742460766409,-0.012379486265407512,0.003472235790079376,0.02921927051354875,0.0,0.0,0.0,0.03192293643951416,0.0,0.0,nm
0.7288303375244141,-3.4789584348877782,-23.511450233614998,-7.028702833723522,-0.012858332816720008,0.0036127270640718937,0.0303500250470706,0.0,0.0,0.0,0.03315889835357666,0.0,0.0,nm
0.7310409545898438,-3.492517212419512,-23.5206811699497,-7.014091484245225,-0.012419717002986023,0.0034931299986853412,0.029301718130099907,0.0,0.0,0.0,0.03201627731323242,0.0,0.0,nm
0.7480075359344482,-3.5370184201650585,-23.534747834400466,-6.921480949056923,-0.011915511048035494,0.003353976798551478,0.028087053573469023,0.0,0.0,0.0,0.030693829059600834,0.0,0.0,nm
0.7659304141998291,-3.554175702172742,-23.541263380177856,-6.879658063440047,-0.011659697886367837,0.0032815366432052515,0.02747228859989947,0.0,0.0,0.0,0.030024051666259766,0.0,0.0,nm
0.767672061920166,-3.5572940258984738,-23.546049221974734,-6.862432463003622,-0.011961218091681745,0.00336386455622466,0.028174282209792154,0.0,0.0,0.0,0.0307924747467041,0.0,0.0,nm
0.7953441143035889,-3.5176289992065817,-23.565967485567214,-6.910502017679436,0.0,0.0,0.0,0.0,0.0,0.0,0.0,0.0,0.0,nm
0.7978661060333252,-3.487958689906496,-23.582637315431317,-6.954580372027317,-0.010817727421881869,0.0030238434876223353,0.02543767879056664,0.0,0.0,0.0,0.02780723571777344,0.0,0.0,nm
0.8228211402893066,-3.4580319173622827,-23.62375231410817,-6.99845922793364,-0.012267228886213564,0.003419002816698882,0.028790351977309957,0.0,0.0,0.0,0.03148108720779419,0.0,0.0,nm
0.8252730369567871,-3.465984112049063,-23.641176272905984,-6.980312914714992,-0.012897732493613282,0.003593625587002582,0.03024329316221823,0.0,0.0,0.0,0.03307449817657471,0.0,0.0,nm
0.8351001739501953,-3.487038923888049,-23.658602674886033,-6.939386559483364,-0.012106174750510219,0.003374144105897187,0.0283609461884936,0.0,0.0,0.0,0.031020760536193848,0.0,0.0,nm
0.8627529144287109,-3.528067243680439,-23.693450642195053,-6.847758000751722,-0.01061514808079263,0.002957924502772127,0.024820610800113857,0.0,0.0,0.0,0.027156829833984375,0.0,0.0,nm
0.8646869659423828,-3.535646299937805,-23.710355146655807,-6.826125183222688,0.0,0.0,0.0,0.0,0.0,0.0,0.0,0.0,0.0,nm
0.8887784481048584,-3.503117820709447,-23.740638543661124,-6.85467023628431,-0.00989659892065059,0.0027446812460400986,0.02308567968927341,0.0,0.0,0.0,0.025267064571380615,0.0,0.0,nm
0.910067081451416,-3.4471682184921852,-23.766375474776314,-6.909096299511692,-0.010627199350193265,0.0029292319217472137,0.02475838592875806,0.0,0.0,0.0,0.027101576328277588,0.0,0.0,nm
0.9268028736114502,-3.4279205584036725,-23.770755984613007,-6.895934869103476,-0.01159302313725601,0.0031820623309731844,0.026998309604224655,0.0,0.0,0.0,0.029553890228271488,0.0,0.0,nm
0.9285249710083008,-3.432980361317353,-23.762675943566258,-6.867075571840879,-0.012335620683923921,0.003382682050121596,0.028735661135000163,0.0,0.0,0.0,0.03145390748977661,0.0,0.0,nm
0.9447596073150635,-3.4395091247159484,-23.752648636470457,-6.840074531336531,-0.01288053793657634,0.0035302318612129807,0.030016665517714994,0.0,0.0,0.0,0.032853782176971436,0.0,0.0,nm
0.9530963897705078,-3.44176748268169,-23.74382475881967,-6.828076705750579,-0.011705505306063967,0.0032074022129221984,0.02728871647952042,0.0,0.0,0.0,0.02986603975296021,0.0,0.0,nm
0.9602477550506592,-3.438995931920666,-23.7362792510421,-6.836318335185006,-0.010915091452676901,0.002991639522425819,0.025455909606823496,0.0,0.0,0.0,0.027858436107635498,0.0,0.0,nm
0.9672694206237793,-3.4313435170452085,-23.729283029976347,-6.862611626167681,-0.012035881048845691,0.003301075611721212,0.028081623679623684,0.0,0.0,0.0,0.03073006868362427,0.0,0.0,nm
0.9901788234710693,-3.4187086064275247,-23.71777224969877,-6.924868041541502,-0.011991316856806038,0.0032967830019414567,0.027999604469775678,0.0,0.0,0.0,0.030637204647064212,0.0,0.0,nm
0.994208812713623,-3.4192312435341945,-23.702576832870985,-6.9375413264425045,-0.01184625642832324,0.0032611224398083538,0.02768289248464789,0.0,0.0,0.0,0.030287146568298336,0.0,0.0,nm
1.0177671909332275,-3.42631890317464,-23.668763952308836,-6.913486374184185,-0.012694197195151835,0.003495620982867508,0.02971046348768809,0.0,0.0,0.0,0.032497286796569824,0.0,0.0,nm
1.027573585510254,-3.429901442505199,-23.649246783280855,-6.8932819124497735,-0.011299723107722376,0.0031105753711482428,0.02646957039844209,0.0,0.0,0.0,0.02894818782806397,0.0,0.0,nm
1.0368988513946533,-3.430834318126927,-23.636395914042247,-6.881757044662567,-0.012021276534440468,0.003308086665574118,0.028175851585834574,0.0,0.0,0.0,0.030811250209808346,0.0,0.0,nm
1.0418083667755127,-3.429056006130008,-23.631731442500026,-6.8854797145434965,-0.012767013180064977,0.0035135251241571333,0.02993071829825869,0.0,0.0,0.0,0.03272902965545654,0.0,0.0,nm
1.0717384815216064,-3.424077373080515,-23.642415379298818,-6.92627395376598,-0.012416882582603853,0.003423005826534517,0.029099802266604885,0.0,0.0,0.0,0.03182286024093628,0.0,0.0,nm
1.0736324787139893,-3.427053779150077,-23.658835683563606,-6.945510586313634,-0.012469659908775268,0.0034424845123984522,0.029203528428214675,0.0,0.0,0.0,0.03194040060043335,0.0,0.0,nm
1.0797250270843506,-3.437930906503833,-23.67536747506046,-6.951773445283013,-0.012526037155155706,0.003464484354367008,0.02931480350666207,0.0,0.0,0.0,0.032066524028778076,0.0,0.0,nm
1.106752634048462,-3.485877949904227,-23.69249835935703,-6.913751117875945,-0.011739850844090401,0.003263227935021835,0.0274542715069402,0.0,0.0,0.0,0.030036807060241696,0.0,0.0,nm
1.1095976829528809,-3.5087601594966347,-23.69284375995753,-6.884165140653266,-0.010986674517814017,0.0030592788371105674,0.02569196903873657,0.0,0.0,0.0,0.02810949087142944,0.0,0.0,nm
1.1345710754394531,-3.5137973368335085,-23.68835385879659,-6.85330847143328,0.0,0.0,0.0,0.0,0.0,0.0,0.0,0.0,0.0,nm
1.1384527683258057,-3.489895344613675,-23.691734841940246,-6.864269728863732,0.0,0.0,0.0,0.0,0.0,0.0,0.0,0.0,0.0,nm
1.160501480102539,-3.429748220181798,-23.701292974004314,-6.920801921262534,-0.011655329884898846,0.0032106143012708287,0.027237763632403163,0.0,0.0,0.0,0.0298001766204834,0.0,0.0,nm
1.1848456859588623,-3.4237641725741152,-23.696941353436475,-6.953455038011501,-0.01297340831907315,0.003578442566933369,0.030328167090372855,0.0,0.0,0.0,0.03317999839782715,0.0,0.0,nm
1.1867568492889404,-3.446452177331906,-23.687602893561618,-6.940985111086171,-0.01218742976877428,0.0033721940879901675,0.02850537505778368,0.0,0.0,0.0,0.03118431568145752,0.0,0.0,nm
1.2136273384094238,-3.4957534680418743,-23.656787573165442,-6.88386120931175,-0.012106216252682368,0.003366505064051261,0.028357207522771946,0.0,0.0,0.0,0.031016528606414795,0.0,0.0,nm
1.2153902053833008,-3.5051921777810304,-23.644253427538214,-6.865717019862803,-0.011879388355396718,0.0033054839014198447,0.027841681229509693,0.0,0.0,0.0,0.030450046062469482,0.0,0.0,nm
1.2256767749786377,-3.5019081744633875,-23.63544504086019,-6.86758397965039,-0.013182228217820759,0.0036672196974493593,0.030908014736362736,0.0,0.0,0.0,0.033801257610321045,0.0,0.0,nm
1.2471811771392822,-3.4766900040326405,-23.636599308469016,-6.921129863712081,-0.011462423918133641,0.003186936709966654,0.026877476258562728,0.0,0.0,0.0,0.029392898082733154,0.0,0.0,nm
1.2550270557403564,-3.460823748550125,-23.634921899683153,-6.886304884566463,-0.012596224710804328,0.003484866507227329,0.02953093756836839,0.0,0.0,0.0,0.032293736934661865,0.0,0.0,nm
1.2773866653442383,-3.440625317233375,-23.626243289492304,-6.911790433063124,-0.011609249419585329,0.0032072189463740724,0.027228835100383722,0.0,0.0,0.0,0.029773652553558353,0.0,0.0,nm
1.2791614532470703,-3.4331469242125427,-23.61856066929398,-6.90835490095243,-0.011011999109505177,0.0030382529525583694,0.025836129595281004,0.0,0.0,0.0,0.02824890613555908,0.0,0.0,nm
1.3045363426208496,-3.4350013429106467,-23.628465128977147,-6.887357789128111,-0.012282188340284557,0.003384142581812034,0.028799824761613912,0.0,0.0,0.0,0.03149181604385376,0.0,0.0,nm
1.308647632598877,-3.4438827762320394,-23.642271739848447,-6.874389261543748,-0.011758822772724891,0.003240854751825194,0.027553845464881894,0.0,0.0,0.0,0.030132830142974854,0.0,0.0,nm
1.3341598510742188,-3.4661709481738137,-23.684295308454686,-6.840860019552039,-0.010280902850038685,0.002834849978425417,0.02404093914709733,0.0,0.0,0.0,0.02630019187927246,0.0,0.0,nm
1.3369708061218262,-3.4705371456907175,-23.696568816095258,-6.826072866457124,-0.011944113359653332,0.003291612406834349,0.02791235830631857,0.0,0.0,0.0,0.030538439750671387,0.0,0.0,marker_1
1.3612310886383057,-3.472816883320321,-23.690792096876752,-6.8195584672812055,-0.01116321752897777,0.003076618372978449,0.026094229803677357,0.0,0.0,0.0,0.028548061847686764,0.0,0.0,nm
1.3650827407836914,-3.4720906508807916,-23.675885706193434,-6.898989926682995,-0.011397182836537394,0.003158802097145712,0.02667038306704984,0.0,0.0,0.0,0.029175043106079098,0.0,0.0,nm
1.3898506164550781,-3.4773962260332514,-23.6471272843771,-6.9969165435826355,-0.011111297339812783,0.0031047674907049997,0.02605061085754536,0.0,0.0,0.0,0.028490960597991943,0.0,0.0,nm
1.3934376239776611,-3.480705313388099,-23.63940809687703,-7.015316165627712,-0.011467284758841598,0.0032105205892550646,0.026898149988039473,0.0,0.0,0.0,0.02941626310348511,0.0,0.0,nm
1.4168219566345215,-3.4786656832604823,-23.656484302243197,-7.029526864900165,-0.011234839271991932,0.0031461703233956564,0.026332742239103073,0.0,0.0,0.0,0.028801620006561276,0.0,0.0,nm
1.4222443103790283,-3.479984707540347,-23.674421907448576,-7.0225209131836825,-0.010340281068588997,0.002893745472912581,0.02421442211437148,0.0,0.0,0.0,0.026488363742828373,0.0,0.0,nm
1.4455194473266602,-3.4887188864913363,-23.682482169080952,-6.9994734652182125,-0.013609320455583187,0.0038074563352434787,0.03185527050397955,0.0,0.0,0.0,0.03484922647476196,0.0,0.0,nm
1.4509711265563965,-3.493697231417562,-23.673711007689967,-6.990583525657106,-0.011582269480173534,0.003241712349355248,0.027121587377741094,0.0,0.0,0.0,0.029668807983398434,0.0,0.0,nm
1.4741089344024658,-3.4787598344592396,-23.638903549210443,-6.995580031202579,-0.01022957256457541,0.002859312663722988,0.02399293666945362,0.0,0.0,0.0,0.02623891830444336,0.0,0.0,nm
1.481602430343628,-3.461293206042023,-23.62566624969843,-7.0111160695631405,-0.010467057691715357,0.0029212139947920853,0.02456515405314541,0.0,0.0,0.0,0.026861488819122314,0.0,0.0,nm
1.5024480819702148,-3.42282660712158,-23.60952605479722,-7.052811737912017,-0.012682963317883395,0.0035284021857289087,0.029788624035517162,0.0,0.0,0.0,0.03256791830062866,0.0,0.0,nm
1.5072791576385498,-3.4146983134673183,-23.6241120578031,-7.067244357126763,0.015610848357576063,-0.00022400740659573302,0.037855149235116986,0.0,0.0,0.0,0.040948273338132626,0.0,0.0,nm
1.531280517578125,-3.4408377045019294,-23.65136197268705,-7.058442075332008,-0.012252385049460541,0.0034168524122435403,0.02872288970014027,0.0,0.0,0.0,0.031413376331329346,0.0,0.0,nm
1.5380699634552002,-3.4716580650288327,-23.64349455585709,-7.037554940329174,-0.011666588708583878,0.0032660390989313463,0.02736186345114,0.0,0.0,0.0,0.02992403507232666,0.0,0.0,nm
1.5622947216033936,-3.5034582193527366,-23.58428992236785,-6.997879057709001,-0.012438694217398526,0.003495850744203837,0.029255684867528865,0.0,0.0,0.0,0.031981825828552246,0.0,0.0,nm
1.5653929710388184,-3.484345329050323,-23.54149497837576,-6.997840722005417,0.0,0.0,0.0,0.0,0.0,0.0,0.0,0.0,0.0,nm
1.5923218727111816,-3.408353436526937,-23.466522686333427,-7.0439771280182315,0.0,0.0,0.0,0.0,0.0,0.0,0.0,0.0,0.0,nm
1.6008341312408447,-3.373009558697923,-23.43569884909656,-7.07821942928654,-0.012581736073032552,0.0034910112493000715,0.029796226593669674,0.0,0.0,0.0,0.032531559467315674,0.0,0.0,nm
1.6185531616210938,-3.349226824849073,-23.40777543326342,-7.109071192713803,-0.014652073774554394,0.004060343228991768,0.03474692567077217,0.0,0.0,0.0,0.03792780637741089,0.0,0.0,nm
1.6221868991851807,-3.3624607314564745,-23.410726886011656,-7.090631493849311,-0.013346748937591404,0.003701948278420928,0.03164636614414692,0.0,0.0,0.0,0.03454464673995972,0.0,0.0,nm
1.6468894481658936,-3.4123958949224376,-23.418622515650267,-7.004018450698696,-0.014334793714337275,0.003985186870293041,0.03397122164740346,0.0,0.0,0.0,0.03708654642105103,0.0,0.0,nm
1.6690912246704102,-3.4307562584616687,-23.41608381152898,-6.905700769030827,-0.010659308728313752,0.00295292995313101,0.02525452522207035,0.0,0.0,0.0,0.027570486068725586,0.0,0.0,nm
1.6944949626922607,-3.3589947347973443,-23.44392109879009,-6.907496103940637,0.0,0.0,0.0,0.0,0.0,0.0,0.0,0.0,0.0,nm
1.6993992328643799,-3.3257876370438533,-23.45854678809525,-6.906372370540422,0.0,0.0,0.0,0.0,0.0,0.0,0.0,0.0,0.0,nm
1.7220935821533203,-3.288843586824471,-23.478207015792787,-6.862758871465668,0.0,0.0,0.0,0.0,0.0,0.0,0.0,0.0,0.0,nm
1.7452337741851807,-3.277049854359521,-23.471801097197083,-6.763339586726587,0.0,0.0,0.0,0.0,0.0,0.0,0.0,0.0,0.0,nm
1.74705171585083,-3.270259713586648,-23.47088440190768,-6.702298753540724,0.0,0.0,0.0,0.0,0.0,0.0,0.0,0.0,0.0,nm
1.7724809646606445,-3.2431734090940876,-23.430694700671154,-6.580815264696361,0.02293755048057494,-0.0026461822861365424,0.010006487938930723,0.0,0.0,0.0,0.025164723396301266,0.0,0.0,nm
1.7791533470153809,-3.228052671295257,-23.391586183232935,-6.524971736177961,0.025075577806038946,-0.0028680725482619334,0.010917518961884235,0.0,0.0,0.0,0.027499139308929443,0.0,0.0,nm
1.7971007823944092,-3.160797905857919,-23.215114622447228,-6.440144927288763,0.0,0.0,0.0,0.0,0.0,0.0,0.0,0.0,0.0,nm
1.8028407096862793,-3.1095087222092888,-23.086634432992685,-6.4235402672472866,0.0,0.0,0.0,0.0,0.0,0.0,0.0,0.0,0.0,nm
1.8276264667510986,-2.988307201238234,-22.751885328434533,-6.4843158039548285,-0.018786118494316793,0.004743766005248164,0.04578653558294563,0.0,0.0,0.0,0.0497174859046936,0.0,0.0,nm
1.833216905593872,-2.946229779900625,-22.581728386208706,-6.557959076713347,-0.017841615759395666,0.004511870150619829,0.04385860594216062,0.0,0.0,0.0,0.04756319522857665,0.0,0.0,nm
1.8626165390014648,-2.9405223983411557,-22.29026862910263,-6.6699602980765,0.05427766353669814,-0.0043062003903507,0.06495892262899897,0.0,0.0,0.0,0.08476007167248704,0.0,0.0,nm
1.8643174171447754,-3.0020640466542514,-22.180522272254315,-6.605822330793401,0.11818676586211524,-0.013686846301431289,0.0485062928033248,0.0,0.0,0.0,0.12848463654518127,0.0,0.0,nm
1.8690414428710938,-3.1035495244170246,-22.079178615862425,-6.395376981301872,0.17769039158759664,0.022163571966772495,0.06818057574417496,-0.013753378442015789,0.047107128492541,0.03316173069536466,0.19160816812883247,0.059227842743881556,0.0,nm
1.8946349620819092,-3.410046796776504,-21.7083145255108,-5.485358817539272,0.20292529097498824,0.06799198660515672,0.07224557803074311,-0.03212904985581365,0.07777368190258811,0.0928838560124004,0.22587830242144916,0.12533328428256657,0.0,nm
1.8973357677459717,-3.5605051265328527,-21.3830283376741,-4.872034198104953,0.18110676173550821,0.09748714520291435,0.059896317445224806,-0.03490712356376645,0.09464214984427395,0.11045283602152871,0.21422178103459832,0.14958433336362725,0.0,nm
1.9242069721221924,-3.7695256921316673,-20.26999893045952,-3.7644914851492035,0.15615251399185653,0.0738146894588379,-0.08130014788535114,-0.01707589632742694,0.14954735792749158,0.09425846502729868,0.190897695250785,0.17759689391366282,0.0,nm
1.9259893894195557,-3.7733555558357668,-19.44727318821325,-3.3690022006164795,0.13721970308419537,0.04650650649036987,-0.001818994659418198,0.006852015001535888,0.18266517495028958,0.07745734073337236,0.14489793235938372,0.1985274688366497,0.0,nm
1.949559211730957,-3.8657384814534366,-17.402308951587184,-2.6426219366772687,0.1600266334062847,-0.1133025528402142,-0.010176343658021144,0.028431696696702573,0.21515461293057367,0.07066589217454027,0.19634039281234292,0.22824008666135318,0.0,nm
1.9735791683197021,-3.570800792904199,-15.482946594713141,-1.6280046969841349,-0.04663162707607356,-0.21075150387391814,-0.5728551355424399,0.036637745273993015,0.12696864002102157,0.12136978223378024,0.6121713088231328,0.17942682064570223,0.0,nm
1.9753191471099854,-3.399798462178399,-15.3752194660792,-0.7909049346559234,-0.34761818847519455,-0.12105519452693227,0.4032409556577568,0.041584103211489164,0.009156912278469128,0.1602932687340466,0.5459817152620683,0.1658524002956383,0.0,nm
2.0037522315979004,-3.2270983868845295,-15.317721935723522,0.103426471958218,-0.4478090543811227,-0.19889474473195093,-0.4242266912312591,0.04174372486478215,-0.00026594754103216665,0.17692952973138942,0.6481206324602892,0.18178742471538514,0.0,nm
2.0054337978363037,-3.3709391377135045,-15.537787761927378,1.267427714287964,-0.5417575793203389,-0.1109724399634577,-0.06980266892358213,-0.04757752180750351,-0.03486072813373934,0.06592380408182612,0.5573944472017386,0.0884581194236965,0.0,nm
2.022305727005005,-3.388005881604245,-15.2749564976388,1.3050910186922837,-0.6241405922948174,0.01528219667082091,0.3461295429289024,0.0,0.0,0.0,0.7138562074909639,0.0,0.0,nm
2.024001359939575,-3.435933813568776,-14.980830434446407,1.048796356438842,-0.2724516959732462,0.08586607269506044,-0.260791664628178,-0.002029294823109658,0.047217327553030305,-0.07398974000976163,0.3868012427827858,0.0877956473035046,0.0,nm
2.0310280323028564,-3.561137237012828,-15.032468892046614,0.5763483434911228,0.022250017337292385,-0.005102644862555323,-0.08265504970580097,-0.01566675244838939,-0.02225803611141004,-0.12986652027150616,0.08574938774108887,0.13268828279560133,0.0,nm
2.0406205654144287,-3.5163009094729833,-15.238992354686854,0.027434378484419947,0.14052391038744091,0.06425299425286991,0.03420275717934799,0.01721866038167956,-0.052921826655959264,-0.1361028226805393,0.15825689640488436,0.14704142390344752,0.0,nm
2.069639205932617,-3.554842684732869,-15.966687862969572,-0.7169288845767339,0.22054606982421354,-0.036108678805865095,0.09293688983107866,0.005441880467981056,-0.09581851086946325,-0.08132936289910848,0.24203650776584523,0.1257985149270218,0.0,nm
2.0713064670562744,-3.443781782668386,-16.27940097842373,-0.710020330668184,0.2304313549437912,0.05268851886403875,0.015767409308357752,0.028833891196950987,-0.07458267079538508,-0.019194494034514,0.23690356805589682,0.08223379272398536,0.0,nm
2.0800390243530273,-3.4893485323782683,-16.485352975328958,-0.49496909528555966,0.061569180235788994,0.03829049454209632,0.10422771649484307,-0.0009250481972762367,-0.05285034614088539,0.022710636597174174,0.12696591201151103,0.057530755392464564,0.0,nm
2.1030526161193848,-3.9861609857069795,-16.583669015167732,0.29395781135349913,-0.02485463521065351,0.12013803398022843,-0.015962332352145066,-0.05762289875261268,0.002644926425310298,0.04687091866401888,0.12371619196455053,0.0743254809123912,0.0,nm
2.1066882610321045,-4.4984364711405735,-16.509057051988478,0.6247555060081921,-0.16278278059978096,0.10590103549317055,-0.18520648576838092,-0.09004880336453808,0.002496603108835052,0.02474850059861851,0.2683555577009645,0.09342113409902553,0.0,nm
2.1320035457611084,-5.679561355731103,-16.954556471277044,1.0016252856759704,-0.1159770867406783,0.10181899807692754,0.27304870461927927,-0.10646410204674199,-0.05410258244655714,-0.0315087692129421,0.3136453221594587,0.12350909678772674,0.0,nm
2.1365339756011963,-6.062055680241686,-16.97273345140918,1.0305210252662658,-0.06858937168889609,0.04487572708578452,-0.02580344320515817,-0.06477075568813896,-0.016656842775316785,-0.036487810165723,0.08593107977558048,0.07618439140889718,0.0,nm
2.15910267829895,-6.16619364728409,-17.51974326523254,1.2777696881951963,0.0905012473862848,-0.20543739903207975,0.69900390063804,0.023545425488950653,-0.077732833119207,0.030502738195800183,0.7341671838258194,0.08675942279450538,0.0,nm
2.164261817932129,-5.763173829273533,-17.592707106413943,1.705997658669751,0.22765397633298068,-0.34447113349555947,0.7775865034520218,0.08588770327512121,-0.02408391441906841,0.09120236627422852,0.8804132354199783,0.1275719566426682,0.0,nm
2.1884753704071045,-3.8400221582911502,-17.612470042539098,2.9023226054518694,0.3607741276742203,-0.5259810772505811,0.9453858566265724,0.23385916171244842,-0.016173151644746978,0.1831718833804602,1.1404246940216327,0.2974955751135099,0.0,nm
2.192249059677124,-2.337769308796226,-17.74985860976972,3.2868867630481557,0.30304328801447294,-0.5549366376863883,1.2355154373021433,0.2967712869273097,-0.023031264759734715,0.1662759683049025,1.3879078867378782,0.34095649801207417,0.0,nm
2.2185707092285156,1.305552940936947,-17.999339823588247,2.7530600128714253,0.09041315063258462,-0.670067887155784,1.1930281123417217,0.3797867094001295,-0.019105193182660497,0.01276405733974592,1.3713065259242292,0.380481108865207,0.0,nm
2.220674514770508,3.3599612918971022,-18.03114824192753,1.7544261919688549,0.054936590869091036,-0.6626203719462314,1.1109504199612086,0.40028825498577303,-0.0017330624808389343,-0.07583683106655525,1.2947179700407596,0.4074124636426026,0.0,nm
2.2486279010772705,7.4380401962770035,-17.132177974190185,-0.7679458524245601,0.09799503013327215,-0.581592546409457,0.39533294588675266,0.40081382342842237,0.10733630567723693,-0.148049445045232,0.7100289107306514,0.44055810257666234,0.0,nm
2.2503185272216797,9.574996106437695,-16.33608508821906,-1.8913656627915654,0.11908956139932296,-0.477459985614593,0.24638604835504038,0.4220583668973996,0.1391981638069695,-0.10620973806152116,0.5503239467090113,0.4569353371478604,0.0,nm
2.2747325897216797,13.832859118452514,-14.267735631190947,-3.073860115100396,0.11046323900095732,-0.2462198330655323,-0.14330030818069162,0.434315772491211,0.18477789627733604,0.021250032082057547,0.30555083323414844,0.4724665332600858,0.0,nm
2.280410051345825,16.08162208624715,-13.095119686309763,-3.2321119181572175,0.05494402565474814,-0.08120148524784562,-0.2555046572085304,0.45824653098419044,0.20035839382105106,0.06872556869854346,0.27366979558740917,0.5048332129788354,0.0,nm
2.3020265102386475,20.92524228229016,-10.76474308727605,-3.505674925053955,-0.0413468980874549,0.12458935692706397,-0.5013031689251136,0.5187779218675808,0.19152141662600594,0.0565071702728235,0.518205500757484,0.5558813232479751,0.0,nm
2.306152582168579,23.503554296906096,-9.573848482649238,-3.8542358715517,-0.16009628340175514,0.18866981681261444,-0.4429562185089395,0.5306712302409878,0.1963470151797397,0.013583848247997804,0.5073828251437961,0.5659934857475845,0.0,nm
2.331071376800537,28.093762505273983,-7.041715221725321,-5.030167764512303,-0.36011910290472116,0.3031752158043399,-0.8742373947016772,0.4757275311646003,0.20939917452698537,-0.07753334601586634,0.9929209445115383,0.5255246121210354,0.0,nm
2.3348774909973145,30.190914652232856,-5.77164834890906,-5.699763627983054,-0.4505439541774936,0.4732770052229817,-0.9086237056717658,0.4468794019866769,0.20608236620149648,-0.09647262099293244,1.1191863190851725,0.5014759298116148,0.0,nm
2.359961748123169,32.812341320304654,-3.2813126020563796,-6.8254226599795444,-0.47442997827645894,0.8981462750354756,-1.1656011237859814,0.23865564445129148,0.2115486116186227,-0.0984185497658984,1.546084252367459,0.33375970794008486,0.0,nm
2.3639440536499023,33.3650407813432,-2.237799641334151,-7.2570983073923365,-0.479124196186859,1.1464719951196984,-1.0969876155564446,0.14222419974418565,0.18618271034960418,-0.09126346205166416,1.657510138626506,0.2514373562771733,0.0,nm
2.388929605484009,32.11750526677701,-1.0217210371175682,-8.07582671820151,-0.545639032974262,1.5013097215936084,-1.1514366617984768,-0.18476392549374118,0.10756000557762728,-0.09551009387180809,1.969126512083514,0.23415601849006049,0.0,nm
2.3916077613830566,30.3707179344074,-1.0607752104087262,-8.453860444169955,-0.6515453835667274,1.5529611797937348,-0.9959136250485748,-0.340759744952992,0.03424934931712791,-0.09198350336485248,1.9565387196145279,0.35461413762052213,0.0,nm
2.4163668155670166,24.47959273098208,-3.0503248325047885,-8.79349814024478,-0.5657153856894117,1.3104687840877083,-0.821779257247349,-0.68637119665133,-0.16729798898111609,-0.04439213733006677,1.6470226104446901,0.7078592364068127,0.0,nm
2.423964738845825,20.773768881605925,-4.765365296108106,-8.34864471570464,-0.3419288426413977,1.0412119537953337,-0.7235831477097731,-0.7765041681017317,-0.23902651046360113,0.030400239322028462,1.3132441653424411,0.8130292555219678,0.0,nm
2.4315264225006104,17.031595337356045,-6.749351172118967,-7.367372421739652,0.019594517184607356,0.6125921308362097,-0.7995290062904471,-0.7858388851316335,-0.3018205515393032,0.11403747912021042,1.0074223025950615,0.8494957006133169,0.0,nm
2.450446605682373,12.669173242878411,-10.922274541159162,-3.8324217998904393,0.8179929707407319,-0.9133909671894721,0.592815932889048,-0.29045993487475735,-0.39442718629148127,0.30063286477676415,1.361920074531424,0.5747346330587251,0.0,nm
2.463054656982422,13.698503487337712,-12.58664853262224,-1.866593180405848,0.9615570945769899,-1.5060343456059417,2.061947715805713,0.19385469586947998,-0.352847389802292,0.4099395856124514,2.7284354269420517,0.5745706113725689,0.0,nm
2.4825522899627686,20.810144431676463,-14.531591122307109,0.6287155674586075,1.043667185389987,-2.685041841194433,2.685103022405107,0.8431215195138125,-0.1513168008810878,0.37945198239007527,3.9380793699154526,0.9368748464100874,0.0,nm
2.486721992492676,26.76644774338529,-14.760761806229857,0.4692710898526816,0.816915389187805,-2.8352004554371426,2.8742636873163967,1.1639848324506896,-0.0425719763301323,0.26227634867283717,4.119114482486314,1.1939271110151861,0.0,nm
2.5031909942626953,32.657526953108885,-14.055194069938695,-0.7154461838944663,0.8599332738146219,-2.612179223061786,1.9685768685472878,1.1524050956387988,0.13173440684604756,0.04823361231630204,3.3820497359129202,1.1609125461284446,0.0,nm
2.5226330757141113,42.999430060048276,-9.870343994298484,-4.651448297141145,0.44434961638361853,-1.243837343514271,-0.2677948013343206,1.0380403109805956,0.403776584540843,-0.24135394068813598,1.347698769875003,1.1396556243575742,0.0,nm
2.5244429111480713,46.83586757212544,-7.53722421094121,-6.80507529031823,-0.010044405819866452,-0.8266703810851418,-0.6649368504466585,0.8105551343258264,0.38374998721785253,-0.32545402201089674,1.0609551470885326,0.9540356381785378,0.0,nm
2.5514144897460938,50.52953531192504,-4.523215254050756,-9.274356798855083,-1.1243878726152392,0.830809850196047,-1.817593066827183,0.31157227542916466,0.17507359052372662,-0.1515517651955843,2.293062941099796,0.38819580426490224,0.0,nm
2.5535707473754883,50.47639966554192,-4.147691015395463,-9.289759540604893,-1.5893514606893016,1.3189196939393943,-1.6385134251957088,0.00926560362556182,0.0712966035211466,-0.015278527830316737,2.636344717445535,0.07350163601484909,0.0,nm
2.577547788619995,45.39151868477167,-3.91599645496387,-7.479727888012481,-1.6256844535138812,2.197814809043859,-1.831386222035789,-0.6198094953662615,0.11489661254802416,0.1673408625429919,3.2904734266533353,0.6522024274700479,0.0,nm
2.5842888355255127,41.28266052436993,-3.692338307220237,-6.552468062873903,-1.4965994777262401,2.0862804893162723,-0.6834888184823352,-0.8018333231333101,0.13862552708663806,0.12024247189906981,2.6569782162867988,0.8225642630794595,0.0,nm
2.6059017181396484,27.18677458707608,-4.002916904597269,-7.013659473765769,-0.6545266897567772,2.110277627758512,-0.14936313602472728,-1.561973247910377,0.09289591317027628,-0.22216973585676927,2.214494569924523,1.5804269895829095,0.0,nm
2.6105737686157227,18.795922864087828,-5.382256300465781,-8.01045785447022,-0.34606578437433644,2.1218857806050395,0.2609396772696928,-1.6894930483098,-0.06458769374669926,-0.3443647824542678,2.165698572798646,1.7254406491865875,0.0,nm
2.6373143196105957,3.424162787338367,-10.414076673280487,-8.974560497435457,0.7621640743567051,1.2038334621269133,-0.9172291729660267,-1.4333601672713383,-0.3302886734294733,-0.29016182556808234,1.6945260211977935,1.4992684422520612,0.0,nm
2.6400704383850098,-0.7480839557023481,-12.534048686463166,-8.316605034647898,1.2956850111874585,0.44327141941032355,-0.7208482050518534,-0.8662331084174217,-0.31033333889904885,-0.07542271934479323,1.547550107172096,0.9232308302608314,0.0,nm
2.6624882221221924,2.871998942101303,-14.039375479955096,-5.378004690897018,1.6176889484433914,-1.0455797331228507,1.3563538976190075,0.8225577817282519,-0.17396085387571933,0.5388544579233144,2.355812048491859,0.9986129429296923,0.0,nm
2.6703391075134277,11.6005956297476,-14.19992566304357,-3.5297261478054303,0.9897531017923015,-1.380853070811752,3.655220629964423,1.695975497151186,-0.17426698507777394,0.7906350499723014,4.030757281131579,1.8793098869718143,0.0,nm
2.6928870677948,33.40368826014861,-13.842570605002813,-1.4583821768523142,0.6051833213936955,-3.9262800755739136,3.232095293438805,2.1848642114080197,0.011109092546867228,0.6779539036840848,5.121363301915914,2.2876574327790626,0.0,nm
2.696174383163452,44.563130714158675,-12.637333448889763,-1.5213897091224058,0.7122235434828093,-3.510792350665702,1.4635404428447234,2.1903051546340584,0.17913237860043552,0.4895415486781752,3.869738483828868,2.2514830684155283,0.0,nm
2.720937967300415,61.464816982775304,-8.011153662362306,-3.637877637715299,0.5767658934754899,-1.382447431397196,-1.4448134930388694,1.490168221214847,0.45289072862467306,-0.03419980126959885,2.0811789510084098,1.557844974957293,0.0,nm
2.729942798614502,66.97376534106249,-4.950119465515185,-5.024788759543423,0.19032240681382073,0.09321088315535359,-2.094721473304826,1.147679193711793,0.5273688615332751,-0.16471253361367005,2.105414196303983,1.2737408160702428,0.0,nm
2.7341299057006836,70.51936005263393,-1.9964016572538168,-6.36028442156317,-0.3279466755831622,0.9441581829908926,-2.2723201069077517,0.7717446537702648,0.5181232278345664,-0.23643243341718462,2.4824226805264185,0.9591359577329313,0.0,nm
2.759943723678589,72.53603861074708,1.7936295848928556,-8.637908051044352,-1.1189723368675073,1.9908162727556427,-2.1345511159069996,0.1050122003242952,0.27672829448331576,-0.22102910692033786,3.1259809642675713,0.36940489613782435,0.0,nm
2.762761354446411,71.29830880724683,2.172235919794515,-9.531103001058774,-1.398680386142451,2.1844322225698014,-1.8719790297428265,-0.22557905670043754,0.11391048653712331,-0.18290702065047112,3.1988054716374568,0.3119559070897925,0.0,nm
2.7908406257629395,64.0136684696199,0.06967731134218416,-10.945463338114843,-1.774476873551964,1.6555409226684479,-1.0886980691658803,-0.9194898531588767,-0.125455629625739,-0.12176603524015617,2.6598585314272194,0.935963499504671,0.0,nm
2.7933945655822754,57.79639457976888,-1.8791794154746946,-11.14804180202508,-1.726669358716539,1.2588440043384521,-0.6710906112262841,-1.2891037158342167,-0.14738613689614632,-0.07216437469012774,2.239740589904447,1.2995071221433039,0.0,nm
2.8152828216552734,42.75457972960619,-5.927940648402259,-9.566568961786247,-0.8306681259227648,0.28913876648941517,0.43387841200449023,-1.5615789964774545,-0.12296328922805158,0.08701024257466196,0.9807452462870249,1.5688274969065963,0.0,nm
2.8199877738952637,35.18892206518042,-7.61008243917427,-7.663593643354307,0.13993293504737123,0.14432559165052092,0.28558973662468823,-1.5296912015954136,-0.11864799861257169,0.13278587235233114,0.34924575928936274,1.5400209763862176,0.0,nm
2.8443570137023926,25.695288751289095,-9.796792706179952,-3.5851277670420845,1.863334104557243,-1.3849006039260199,1.655247197060471,-0.689573987124053,-0.12660664223389634,0.2605478792598484,2.85128163311472,0.7479483424426516,0.0,nm
2.8483481407165527,25.1482506819592,-10.376692692750863,-1.8359643052082724,2.5086039495190957,-1.6292618268404606,1.0843596782688318,-0.10450140131859138,-0.11928629126405538,0.323183674611177,3.181732827846739,0.3599964578940541,0.0,nm
2.8702785968780518,31.267463255501593,-11.978697515549955,-0.28236250832673637,1.1163880909723733,-2.4193793167944517,2.695503125007786,0.7293391401635273,-0.1481417685837439,0.18594902212225545,3.790178853975689,0.7671105551364913,0.0,nm
2.879274368286133,36.03421149036562,-11.414570029064778,-0.901125505896071,0.5980006381475356,-2.3148346251794654,1.6366915854094353,0.945055982244285,0.09687055425033339,0.060600106684106446,2.8973821720485313,0.95193859402096,0.0,nm
2.8865716457366943,41.70388885597048,-9.625435900958593,-2.313120645557095,0.21723923186030872,-1.731972045836193,1.0712722508655212,1.1347945267059216,0.321009725780153,-0.0851402344014435,2.0480586629517585,1.1823936406295066,0.0,nm
2.908904790878296,50.8550545974491,-3.2948117671353034,-5.846892407096595,0.24403031893571334,-0.8580932272911637,-0.6050420822002447,0.9102877922644437,0.6193178631407195,-0.2685646876263216,1.0779381728633781,1.1332720202099253,0.0,nm
2.915022134780884,54.45092764348641,0.08789562466886806,-6.988578051021508,-0.007973222565752475,0.16328155956683196,-1.1361388331524183,0.7980418094783859,0.589038437022855,-0.2205485469811662,1.1478396613506603,1.0161095765424948,0.0,nm
2.9374337196350098,58.246646216846706,3.9657519115173763,-8.04579804939249,-0.4990811079293276,1.2538196489907385,-1.5608383767748413,0.3362091516017307,0.23348318959258788,-0.07516474670626073,2.063337612437757,0.41617392108408263,0.0,nm
2.9430835247039795,58.69676395953079,4.48822016400712,-7.729155146728985,-0.9333878945469836,1.8631374731960115,-1.4858383714788321,0.10953984240645188,0.08885877817878741,0.04390336770814528,2.5593377799487387,0.14772394941232067,0.0,nm
2.970043659210205,56.931469100640584,3.8845672427091524,-7.383135813908527,-1.4793462993399213,2.402574502451406,-0.9145224731536608,-0.25287689810424885,-0.06309732329876291,-0.035891672427583954,2.9660042257393076,0.2630897374508254,0.0,nm
2.9732422828674316,54.107833652714184,3.4830228047719944,-7.921825969425244,-1.5090495350444224,2.3340086423891,-0.8764587736157345,-0.563643070316237,-0.00909586811576977,-0.12732245705888745,2.9142763808212826,0.5779163032860434,0.0,nm
3.003476142883301,45.69232205115548,1.8224811285110998,-10.212065926790022,-1.1834436119116283,1.2081710287218779,-0.1358400870111445,-0.9280905216837738,-0.07651689461319677,-0.2698779207237767,1.6966639462358233,0.9695570863516473,0.0,nm
3.0052671432495117,40.371568265055636,0.07580431093679893,-10.92552412101169,-0.6801119824457031,0.6655487307569851,-0.04108746246922354,-1.1048638812198215,-0.1566168490125179,-0.17203483785545956,0.9524681628540757,1.1290921215094416,0.0,nm
3.0124454498291016,35.163010348053895,-2.1063576085820284,-10.184914598657183,-0.08962078187248168,0.2079929622143687,0.028175137975458814,-1.0980611931550226,-0.24852539926939,0.0645024359900485,0.22822531689994185,1.1276807270871008,0.0,nm
3.025240182876587,30.62865356381334,-4.569489791949941,-8.191809349017417,0.660427794307391,-0.20123994397279174,0.09730157591256125,-0.9665080863984067,-0.350164581658745,0.33650788423996414,0.6972302225369794,1.0816610705195093,0.0,nm
3.02842116355896,27.452563198309022,-6.898360990590791,-4.863729900345934,1.3177785175224983,-1.0661605917581072,0.5313833488792293,-0.67396735092991,-0.3996937584617725,0.5939048377955227,1.7764027955753434,0.9832141409833894,0.0,nm
3.0481226444244385,26.76233593654002,-8.753386499145373,-0.8319611102999828,1.4573002625368279,-1.6091498718890793,1.3295455760582167,-0.14656254940788963,-0.37220056435332793,0.7800849433044879,2.5457373792688283,0.8766677590537032,0.0,nm
3.064008951187134,31.678738771680113,-11.897030201809706,4.163758707827565,1.1876096807699383,-2.557498401144812,2.3370650653020477,0.641492608666271,-0.2498982620184364,0.4370361275233176,3.6623882843265005,0.8154523193258267,0.0,nm
3.0676848888397217,36.33021605034636,-11.702656004758346,4.17212686776067,1.0987364514700229,-2.79585410063808,1.9718881366253214,0.9163393966905785,0.09960893937715082,0.18309085894576643,3.5933779045916374,0.9397457599588268,0.0,nm
3.0919926166534424,46.56759914642909,-7.228223642912335,-0.23152608304467245,1.083553766892296,-1.8936054874664532,0.4047155294152243,0.9351319018075788,0.5648433561367192,-0.4352357647434508,2.2189243267086405,1.1759888867084878,0.0,nm
3.0961761474609375,50.846245901401204,-3.670950749185249,-2.981514000210781,0.9235311313789264,-1.3831076789613583,-0.24295806637565848,0.8806424141848286,0.6841076125768386,-0.4803904568491385,1.6807513868044002,1.2142113812176978,0.0,nm
3.1214418411254883,56.46946140145246,2.344750873796913,-6.737683600995023,-0.04704617512382074,0.46425285909757036,-1.6941063257745612,0.49896999105501555,0.44059940066917125,-0.33055299185623616,1.7571967171615799,0.7432120587480966,0.0,nm
3.123239278793335,58.39572202330526,3.4443295238844143,-7.522835510656945,-0.47578215858985684,0.8878226434184312,-1.427225520638215,0.4159409829586904,0.1681140056566553,-0.18941785645314999,1.7468744646825478,0.48697879270649314,0.0,nm
3.155337333679199,57.97059217009159,3.1300138521963285,-6.283286573946601,-1.7506851927595986,2.32863078600208,-0.8398357243574817,-0.12464417984908545,-0.061474481785785094,0.04851566893450222,3.0319538297229123,0.14720412226987464,0.0,nm
3.1779074668884277,52.11471826990484,3.8210806280506033,-7.131162548848489,-1.5686317116628912,2.488223558408781,-0.9416872019048983,-0.7204932365356609,0.19356748411689823,-0.10004061029295053,3.088468343643235,0.7527197343691499,0.0,nm
3.201320171356201,35.569172861541766,1.1069930519010334,-10.205655523221616,-0.42041402015183754,0.9858114737021509,-0.19369985358748845,-1.2792718595327555,-0.13679816901731487,-0.03665946122517033,1.0890784376264415,1.2870874662338234,0.0,nm
3.210686683654785,29.753029777390132,-1.2528177202616062,-9.099094604506362,-0.020683155923357014,0.7321987529477479,-0.10595589832595811,-1.2210088675921573,-0.2786078439453398,0.21007224108517858,0.7401144905669986,1.2698879210076386,0.0,nm
3.233149766921997,21.63424342763803,-6.069507460004233,-3.672771244990249,0.9719444362636274,-0.4460506527530595,0.27518190650491625,-0.666956120013469,-0.38391879981116545,0.5558880847228977,1.1042473697831168,0.9493343318392937,0.0,nm
3.2407901287078857,21.473479548496506,-7.624329788725156,-0.6542780061538038,1.2101889881377954,-1.3016238882709334,0.8573207367028276,-0.035274260978111115,-0.31872776891088256,0.5927904634028147,1.9732665757844792,0.6739675049019683,0.0,nm
3.2645647525787354,30.834374661961768,-9.844292269112712,1.8711402649281814,1.3321658799570495,-2.8091773799613025,3.015777295010409,1.1552628167408565,-0.15276005795587788,0.28209621623792264,4.331403488121175,1.198977099975831,0.0,nm
3.266324043273926,37.2058271543705,-9.649124165043172,1.091980064520752,1.391434152050848,-3.6752093282576026,2.3365298938252614,1.265171801984478,0.06571075869919904,0.05064741900141849,4.5719388174760445,1.2678890934924003,0.0,nm
3.2771124839782715,44.29445023610012,-8.203958098098862,-0.3701630958387652,1.330052819930202,-3.4878002737349494,1.6595767374208197,1.409309806778976,0.2931526872544324,-0.08252111079042601,4.085093169152718,1.4418399228950403,0.0,nm
3.29606294631958,54.507004612695745,-2.732402853957698,-3.381621795635037,0.9423458232328085,-1.6413314919780668,-0.8429882394232191,0.8766605171242532,0.5493986379888477,-0.2378516761670296,2.0718624203670295,1.061577102976524,0.0,nm
3.3116214275360107,58.04270730458579,-0.10541300474705852,-4.755104372466065,0.47290906718700015,-0.5132435792519316,-1.245159026533378,0.7505956283197311,0.47196284244013964,-0.26968346800373133,1.4274042730875378,0.9267534164012494,0.0,nm
3.314948320388794,60.25920472907296,1.8554436439384108,-6.007319778493805,-0.15344845930405535,0.18909403738510966,-1.2274706931441348,0.48548111810053635,0.3472448308923461,-0.2700834777142697,1.2513941374183963,0.6551457651147837,0.0,nm
3.337960720062256,61.11588390668073,3.787409973690393,-7.408144944444396,-1.5174244477400654,1.7306363502844333,-1.377244823938817,0.052824509355323054,0.12354643151124209,-0.11493517923404699,2.682253238713923,0.1768169815186176,0.0,nm
3.343557596206665,59.86965309057672,4.0011885689094,-7.7637516025971225,-1.925533095062844,2.1733527408200897,-1.1800718749594565,-0.2348375346741611,0.0730777797600929,-0.06708262763321472,3.134279736443896,0.25492961482864046,0.0,nm
3.3658862113952637,53.58454722661182,3.7931036966314253,-7.957687879696514,-1.9740376385737686,2.2892131611964324,-0.7746837614607529,-0.7083769602339853,0.05473867352523024,0.026343306871081187,3.120489773444522,0.7109769405448723,0.0,nm
3.373030424118042,48.347083522887,3.1773936731416117,-8.150647308043377,-1.6800005889739424,2.0672243197058844,-0.26291963581305233,-1.0475681887462778,0.01997442627355506,0.012943128800239706,2.676741508220829,1.0478385430786818,0.0,nm
3.3959360122680664,33.99621915843939,0.3034801768032724,-7.9486273534039675,-0.6880123199489284,1.5559712237852015,0.04026069129590202,-1.5107682577105348,-0.13706068642286495,0.023018457408247876,1.7017721130964474,1.5171473921969107,0.0,nm
3.400416851043701,26.63048833806178,-1.8184716766292262,-7.494331200834362,-0.2306684958835473,1.438614505709347,0.14115807364765207,-1.5117955022097185,-0.23164566669362532,0.05416582338044572,1.4638118911890428,1.5303984095071292,0.0,nm
3.4242701530456543,15.704945432247566,-6.110776008119244,-5.464181536123292,1.063684958219625,0.31647573064216533,-0.21871342711826805,-0.9005092531378649,-0.3083867876977714,0.13127997081861714,1.1311136731690568,0.9608609454815003,0.0,nm
3.4285244941711426,14.377370804384427,-7.44933350712433,-4.169418549926502,1.4158687719809777,-0.7873174524457638,0.25111113995087747,-0.2778046670279353,-0.2553806594715627,0.20847774190204713,1.6393931666943224,0.4311121468054558,0.0,nm
3.453415632247925,24.031235774940946,-9.090782939806111,-1.872205062842663,1.4639631934717168,-2.2923706742619077,3.2538314469067067,1.3369548751130957,-0.18469062186556617,0.4172093796587912,4.240939828025728,1.412665080749516,0.0,nm
3.4577224254608154,31.612605313562185,-8.894082418889953,-1.104291101607207,1.2465476710472918,-3.4986552249370204,3.391241688509193,1.50875339380194,-0.007524818936080746,0.39281841512827953,5.0294124576390855,1.5590701502731639,0.0,nm
3.480780839920044,47.54025517280892,-6.467968090831657,-1.1524386306424483,1.211239640269268,-2.850219105965747,0.9992562552384584,1.609977432672227,0.27001327509327044,0.12390483116870055,3.254130218937926,1.6371581810037152,0.0,nm
3.4847004413604736,53.413358276977625,-4.1792402843729715,-1.9832876608436598,1.0484195652810324,-1.8546621491195643,-0.36788834506581913,1.1912437913964071,0.4226664909442646,-0.06866305978318277,2.1620122818051097,1.2658686143855584,0.0,nm
3.5109927654266357,60.68244281937267,1.0608682713813684,-5.289167160304383,0.015021046935539245,0.464089164852905,-1.5025428687071585,0.6702890653913286,0.45646445180968415,-0.4032084110977944,1.5726536354479468,0.905662326548424,0.0,nm
3.513775587081909,61.758884819307404,3.090816954842849,-7.548188652127242,-0.5421804156636973,0.9667972294164264,-1.7301475051911182,0.26605739347103724,0.3780062785821016,-0.4728913341846179,2.0547668664974106,0.6612877567405885,0.0,nm
3.526339530944824,61.531946105330825,4.373658759648895,-9.496572077639309,-1.2774551575625293,1.7168638947513142,-2.0022786515127957,-0.00048640904466435244,0.2587015812100362,-0.39138106984768833,2.9306369804169976,0.46915443784478134,0.0,nm
3.54606032371521,56.70741512988552,3.7855690419382984,-11.98019725349211,-2.3582696238460197,1.9855624676761439,-1.2970913471561218,-0.7425121149904944,-0.018395207612794024,-0.13970463660422375,3.3445986148813596,0.7557645202439005,0.0,nm
3.552011013031006,52.19969136200674,2.240785359893614,-11.55325939066238,-2.381580272890734,2.0453901706597084,-1.3252852419572165,-0.9391546886807605,-0.12412475188954342,0.09708518984652117,3.4076276966539716,0.9522835803426581,0.0,nm
3.5615732669830322,47.31687881377345,0.3117572312053942,-10.229179462915134,-2.3686398624765483,1.7167551491506483,-0.08336137560016212,-1.0261758020116676,-0.20043189273411394,0.25649740856429937,2.9265426973119903,1.0765689206267612,0.0,nm
3.573885679244995,40.678889982098895,-1.3637267903195016,-8.75910135215094,-1.7537871655355972,1.5352335216892636,0.55497438238231,-1.3594064761887799,-0.1184358716770966,0.25849469767822597,2.3959774525684563,1.3888241544312465,0.0,nm
3.5821597576141357,32.83856388402819,-2.3173380165160924,-7.550485309582855,-0.8480144813538018,1.3639333451470428,0.09470210222898633,-1.573404872604124,0.028550708122575316,0.21663042236779723,1.6088540079063571,1.5885045722200333,0.0,nm
3.59769868850708,25.8555264520265,-2.966668603174928,-6.512535565759467,0.024017719697356003,1.0407208287041771,-0.13523285539805407,-1.39519803141292,0.03520716942477509,0.16582522904729385,1.0497450258692733,1.4054590347021785,0.0,nm
3.6124649047851562,17.16017115843883,-4.9207933043750005,-4.2591043364379075,2.3350021432015216,-0.6891113250478501,-0.007525637109023236,-0.6585536910454927,-0.14177622379824747,0.18852741876879045,2.434577183471249,0.6995255887040558,0.0,nm
3.619161605834961,17.775583876262086,-5.558748381323435,-2.3392105461139447,2.800553134642567,-1.7175924026897365,0.5763699681605478,0.12295994925973631,-0.14417635774684764,0.388194286030642,3.33547955501622,0.43197311833254604,0.0,nm
3.628514289855957,22.53062233922248,-6.772101944929485,-0.022196136254445525,2.3032815983440296,-1.9430654794848212,2.8550296763458873,0.9499630829682858,-0.27083627710280483,0.5578955065836491,4.151120816315939,1.1344732452833535,0.0,nm
3.641606092453003,28.10234230357812,-8.338846365880459,1.8075340989198116,1.629834342408312,-2.7332970637531195,3.2814671401079596,1.1198454769401902,-0.30356889596533637,0.5041941607278699,4.571137649866089,1.265076961505938,0.0,nm
3.647037982940674,34.48942110490801,-9.187060902599857,2.5470530894363246,0.8897848833952394,-3.2317432482360418,1.9627620274828115,1.278862834653168,-0.1276132933515564,0.33353286923289066,3.8843682031659097,1.3277874368120417,0.0,nm
3.6677958965301514,42.35757405214951,-8.869454856071421,1.7475962651710681,0.25778503737179315,-2.865316604565947,2.0153316409715756,1.5616865257684076,0.11702872847004814,0.07730306147624787,3.5125566177636607,1.5679720314366312,0.0,nm
3.679703712463379,53.11220671860361,-3.049620929050572,-2.684588528644751,0.27174207102405606,-1.1772829674850336,-0.8880656618854532,0.9478369977361175,0.7125696180374151,-0.41622200707726553,1.4994997694280776,1.256738315642056,0.0,nm
3.684890031814575,57.1064453129505,1.0706522654074473,-5.072520956004224,0.09417446411268979,-0.1564210972440522,-1.2083546340481626,0.8608039850017386,0.7661693827442136,-0.4764197634742444,1.2220709107820276,1.2469862928991553,0.0,nm
3.709209680557251,60.45892534507198,6.442590728987897,-9.062302495311595,-0.3800680404199351,1.1805572342048871,-2.0607874870457077,0.26814220778506226,0.36141877563348945,-0.3284761875233258,2.405205223124693,0.5571538214408273,0.0,nm
3.713836908340454,60.90649737788212,6.864199608855225,-9.624420509621599,-1.051085864987206,1.8240453988635024,-1.7137142139144912,0.10717635794529667,0.06671908161842724,-0.1278542629296356,2.7145422302229116,0.17968004926453326,0.0,nm
3.728048086166382,59.94236486632046,5.990182594022939,-9.709586959502946,-1.7507861998083238,2.24112193297836,-1.356844889525937,-0.21272792017402345,-0.14264517048219788,-0.00846609570136081,3.1510169612600603,0.25626643841885655,0.0,nm
3.733473539352417,57.60874889358665,4.513896481899333,-9.632082944098487,-2.268875854627264,2.5495453644743997,-1.3072195905760693,-0.5023252863619075,-0.21607829224242062,0.0455035289827256,3.6546959199377125,0.5487176804576787,0.0,nm
3.76041841506958,49.092695203783045,2.0343476968708596,-8.383883245042863,-2.4779425388318796,2.255694088945865,-0.6956665564965183,-1.0208619404054275,-0.07293653644126971,0.15425438752823403,3.4223247955864182,1.0350233117123953,0.0,nm
3.7628250122070312,43.238963973987794,1.0819696256109173,-8.1412123419279,-1.7098941226108417,1.577044884395996,0.21416032494120513,-1.1804907302138736,-0.025109573185626878,0.08522441087935677,2.3359522946151112,1.1838294028263459,0.0,nm
3.7851738929748535,29.106792348161015,-0.5607327139001492,-7.587027688847404,0.4734721017794095,0.8115969099456133,-0.6818233819895024,-1.396996787511185,-0.0066935619772840755,0.10316675875195411,1.160925708055551,1.4008169788376705,0.0,nm
3.790480375289917,24.281918543098953,-2.2792100821421624,-6.643402702095044,1.5731238238622829,0.0959362393297277,0.0035023412481773185,-0.9942664446092099,-0.23072368438750143,0.15595384113445648,1.5760503144297267,1.0325312498795247,0.0,nm
3.809041738510132,22.289496866292104,-5.8314365998087485,-2.905443601242985,2.6163354207306453,-1.8592948957713804,0.8016701274510173,0.14150406445474673,-0.35782760279300974,0.4082476613254244,3.3083022135921385,0.5610081519510064,0.0,nm
3.823012590408325,27.03038697631609,-7.953001465341928,-1.1288473961846905,1.889611270973176,-1.9881316057800007,2.7679370443537747,0.9355546864699379,-0.4654915078915882,0.4609351812592791,3.896764493627519,1.142106018116345,0.0,nm
3.8282177448272705,32.3535530307769,-9.84882670802554,-0.4804232992229809,0.9326973907656247,-2.773265517931519,2.814372504315577,1.0567078391103697,-0.40106504360781575,0.28579056940699754,4.059755983890721,1.1658305520114927,0.0,nm
3.8510501384735107,45.331376014778535,-9.278551751611209,-2.8545472241531513,0.05212766676110079,-2.5950102893680858,1.632617714498537,1.3769115343612084,0.19424212181071016,-0.10842940735144796,3.0663066215338968,1.3947660419299899,0.0,nm
3.8600831031799316,50.17988867888955,-6.355533016493692,-5.288798356517123,0.46222075705310894,-1.6839593706025946,0.05584791668141238,1.0093768530828926,0.5109766863210162,-0.36607970454322475,1.7471365658953766,1.1890976223933778,0.0,nm
3.8659486770629883,53.61098466277934,-2.51464716339491,-7.829247545763067,0.6176304011729177,-0.6930547462579212,-1.1547830442686122,0.775957659216534,0.6818512551179524,-0.4670730436169828,1.4816599046656875,1.133661612244307,0.0,nm
3.890693426132202,56.867895697023044,3.4782552056446647,-12.022618124707094,-0.1910064591341951,0.7905750510828088,-1.8281506547012285,0.2396724638882468,0.43187248450659965,-0.41007744791717265,2.0009065932996717,0.6419659228576137,0.0,nm
3.8936877250671387,56.38496498466611,4.056959532965358,-13.561332696220484,-0.8985338390074297,1.1630875295720815,-1.8858254984641318,-0.06243671146286637,0.13085966762800316,-0.28843083599540864,2.3909147772233554,0.3228233924346546,0.0,nm
3.904740333557129,54.97561261617334,3.1781581397727106,-13.952310369171968,-1.858636597522829,1.7083236877285732,-1.2544118850020982,-0.30939329516919567,-0.10807400432013271,-0.08642355891042085,2.818944660850991,0.33892953993445907,0.0,nm
3.9288880825042725,47.483288928350085,-0.1423883027943788,-11.881845238198943,-2.582390669171235,2.194382417926037,-0.6611874087021925,-0.8773080426869454,-0.1499905008057375,0.26559924941109875,3.452712637007589,0.9288215724146884,0.0,nm
3.9380953311920166,42.19764890097367,-1.3665686389671334,-10.150067245309938,-2.306804135899437,2.3767587161780583,-0.789215407330191,-1.0789570472080898,-0.04449019337649762,0.3214301915414696,3.4048771307491377,1.1266965230535968,0.0,nm
3.9554154872894287,28.558017285528962,-2.5267439509010723,-8.575378899203372,-0.6081170843998004,1.8948978478517755,-0.1871483810604137,-1.492804978291483,0.1312310987854032,0.000944188085446016,1.9988668686697817,1.4985623764099378,0.0,nm
3.9634182453155518,21.409761051389996,-3.528720842970313,-8.9726225073809,0.4717749486043342,1.3904245235782695,-0.7470426385362041,-1.4367422821780977,0.010145537741413175,-0.1633846344311255,1.6473993631447155,1.44603798570528,0.0,nm
3.9715771675109863,15.92430384943216,-5.271298097155767,-9.553428719397477,1.5601195733277298,0.6791292451141691,-0.013741938933097487,-1.1306503931284666,-0.1785735810923907,-0.20769810711649342,1.7015811633699052,1.1633560671804188,0.0,nm
3.9798107147216797,12.310366752645574,-6.942098672327212,-9.544339401075334,2.3544990521296496,-0.44672641996864165,0.17561037529318918,-0.7584251837567038,-0.22238889310002555,-0.10267731220866808,2.4029293132940954,0.7969995041234598,0.0,nm
3.9894227981567383,12.342163044262287,-8.284071412976255,-8.736998827530641,2.616969981370262,-1.5865765336734712,0.7922399909235021,-0.02962218498670072,-0.27747652168586745,0.1511037236153788,3.1612341235370196,0.31733740595887333,0.0,nm
3.9989662170410156,16.66778179537706,-9.752001645928967,-7.068123690552972,2.1553989485533838,-1.888420919920078,2.551657552805071,0.8145418753141709,-0.4189061423205375,0.4586337746360943,3.837034592625403,1.0243562671020041,0.0,nm
4.008955717086792,23.160888657463744,-11.138206442536607,-5.0755366044733465,1.1961704067822194,-2.675245292036863,4.126969923444518,1.2505480291407052,-0.42021729494328847,0.6268114503924815,5.061584906295912,1.4605976661970548,0.0,nm
4.01793360710144,30.42862446704511,-11.928076300027632,-3.450814563142148,0.6096329970130439,-3.4053675070301903,3.0467549589309457,1.4192432033376865,-0.27130227065430496,0.6075515482457753,4.609869415585916,1.567474106981751,0.0,nm
4.027415752410889,38.719776072781755,-11.959501044807539,-2.8641148238170895,0.33280002184029017,-3.5348137676694265,2.472506524051427,1.630726087777588,-0.10190156244513215,0.4516210856948941,4.326540504620186,1.6951734739640636,0.0,nm
4.036935567855835,46.198703845539704,-10.736512143510064,-3.4565256066003247,0.6071861786723768,-3.087044477785927,1.276387309643674,1.488692574335553,0.15843515712634199,0.16611086404478434,3.39524420736105,1.5062868581545712,0.0,nm
4.046457290649414,51.99813593606246,-8.068876069656177,-4.769840689550896,0.7590923649832702,-2.209945364850974,-0.34518827539831065,1.1897906335273467,0.4463773513197998,-0.08390693410118465,2.362040363684469,1.2735363618644524,0.0,nm
4.060170888900757,56.83669482640921,-4.632824913705772,-6.69095321485774,0.5871515869987944,-0.6870647393921967,-1.2362763891770177,1.0349666765736785,0.585062117768409,-0.28883427595287336,1.531399442558288,1.2234700414112483,0.0,nm
4.065903425216675,60.059596005134495,-1.2653693654425662,-9.17372592824576,0.29689511317192735,0.1488849534677782,-1.5268354813223373,0.7388318983082784,0.5762067530722353,-0.47591312415089226,1.5625428072917833,1.050894903395637,0.0,nm
4.084660530090332,61.862741563443016,2.7871945847149475,-13.939046328704391,-1.1227989281825193,1.3980718114732973,-1.9558265935578858,0.1565843968680316,0.2533914725989504,-0.4418877719890276,2.6534015691621735,0.5329077919882732,0.0,nm
4.111269235610962,58.82493962130276,1.9623358659033534,-16.13744916790094,-2.3427241673687007,2.609835757855256,-1.7465287512994212,-0.5146445787191544,-0.044513110150529105,-0.14242618403192026,3.917902740812845,0.5358410933086258,0.0,nm
4.114114761352539,55.81309423855257,0.6787176265873336,-15.7709703187061,-2.648280957149241,2.5546406429803095,-1.0563225316506086,-0.6439070499844534,-0.08566150688974289,0.06742895947933605,3.8282369484710452,0.6530703234405685,0.0,nm
4.137433052062988,47.184774382690875,-1.4620051745997613,-13.902024491245347,-2.0447103898728196,2.2311663803823527,-0.4442859048379615,-0.9308268251536967,0.05458527709776136,0.16238553045264337,3.0588125082521866,0.9464603485629688,0.0,nm
4.143595933914185,41.54357654753893,-1.5859218669623552,-13.339421698510074,-1.1893970496136916,1.5951187418268524,0.5159915885181193,-1.0969178304108138,0.23503038484687022,0.07144754667789403,2.0555574576203135,1.124087523461018,0.0,nm
4.156147003173828,34.70060734650074,-1.4542283293797218,-13.654722512368563,0.13904214821414249,1.1039915793731478,-0.5077728157340737,-1.3182598317321335,0.3431174422098878,-0.007677405107094918,1.2230958092910509,1.3622031807539823,0.0,nm
4.177086114883423,25.511375519981534,-3.2771986945589373,-12.789129223988168,2.718441244301638,-0.9858623214031442,0.2294381095438906,-0.7764921094377646,-0.08541193379967252,0.12955789518880795,2.900773890118585,0.7918462241245222,0.0,nm
4.181231260299683,24.22501644717283,-4.83487214473126,-10.716479990977835,3.188794147719737,-2.145348837289679,0.46665852759583265,-0.3086129205802059,-0.26266505648304117,0.3881955567419702,3.871524238794035,0.5611868288907821,0.0,nm
4.190251588821411,26.25346871816345,-7.393965787483317,-7.856967006620123,2.511373974971504,-2.3770655072391382,2.4093145112525565,0.3233731070609208,-0.5799284419138484,0.6072319967925612,4.214526792179921,0.8997876760878305,0.0,nm
4.213887929916382,33.070374115388276,-12.628751855089384,-3.924300321259028,0.20407259215961893,-2.590877278757719,1.350969089330916,0.7289998088665461,-0.49674152458969617,0.42060392077029574,2.9290626788755056,0.977292444331021,0.0,nm
4.217997312545776,39.254882064920835,-13.143882855369265,-4.4890959114758076,-0.9304935948811284,-2.3232237765643853,1.8610554161333115,1.2056099277244177,-0.1976729834173017,0.15409659642636825,3.1187680753829747,1.2313876998049653,0.0,nm
4.242030382156372,48.994495499432134,-6.784209160093159,-9.98669967545663,-0.04912881921622821,-1.269244488845797,-0.39053024501712924,0.9707455350701525,0.7480729916701899,-0.49807395815162653,1.3288751203992601,1.3228899283439468,0.0,nm
4.249323606491089,52.94454064972482,-1.2876765044263783,-13.067488276868371,0.4046423406249952,-0.4930336813463826,-0.7586881435962135,1.0001174270902178,0.9158424424452528,-0.5725073600629418,0.9911737153505987,1.4719941999477724,0.0,nm
4.270248889923096,56.24270185460099,6.309605542747137,-18.110883655448063,0.5923529658007237,0.7712808701529502,-2.377162237963907,0.37224121731963805,0.47600494575203944,-0.46364136701078335,2.5683957098465915,0.7616479169902822,0.0,nm
4.274731636047363,57.173404764257604,6.842961144007917,-19.038523519182185,-0.02830310436799347,1.2999005256226597,-1.8854711267567767,0.21445085552814033,0.03850718763139229,-0.22015173698507168,2.2903152211135485,0.3097398266829352,0.0,nm
4.284890413284302,56.81019588310478,5.395634132146194,-19.139912849267123,-0.968394294895895,2.114816858049593,-1.615164394903267,-0.15789231981230378,-0.254156854663938,-0.025404993929148398,2.8317828087692227,0.3002850398286884,0.0,nm
4.311389207839966,52.401918384421904,0.11785850144168973,-18.847588209595497,-2.7455257136598603,2.8552749463012677,-0.3042186648300553,-0.711695466476075,-0.31536249475549166,0.01927031211071352,3.972789380192986,0.7786753399394704,0.0,nm
4.314083099365234,47.76031826972566,-1.6970609604972389,-18.70441183438315,-2.7788661120006988,3.284659906245333,-1.04409703254471,-0.9907167644118201,-0.050670413845792656,0.010522442181462675,4.427327205153257,0.992067497661017,0.0,nm
4.339454889297485,37.6472305235148,-4.054956229505493,-19.15315845462044,-1.438072374689628,1.8615370027187044,0.06403934193546179,-1.0345926262727145,0.12836915803196577,-0.09137272459536075,2.3531836317321115,1.046522583545949,0.0,nm
4.3444788455963135,31.454283742341257,-5.08440655266084,-19.41135533400102,-0.17080045829773954,1.2196213650970322,-0.3632929001234463,-1.2287765083659397,0.20752283187146553,-0.10217730321721488,1.2839901876712185,1.2503590022680229,0.0,nm
4.350455284118652,26.000382022713403,-6.512192396809163,-18.80437420981913,1.1705359520139722,0.04406716520009976,-0.9830841022454191,-1.1146303387010263,0.07702917864094523,0.03483056295878702,1.5292320563255632,1.1178315858978443,0.0,nm
4.3752336502075195,22.496845063661436,-10.17888696416823,-13.573553338213523,2.694525966324064,-2.337203978497941,0.8411534984297415,-0.2005814634594554,-0.3382354800433432,0.6257311420456022,3.6647690006631835,0.739036958189089,0.0,nm
4.380424976348877,25.980494957593493,-12.392931225844297,-9.455603513899053,2.4579509550997263,-3.0350515868858845,2.8210403294039486,0.5899020131002547,-0.5803811716892007,0.9530999364809704,4.817813775236411,1.2622306359897513,0.0,nm
4.40483832359314,36.3516562649441,-17.554439118397255,-3.621924480585497,0.852867381314679,-3.4538423447290376,2.2710225068254792,0.929742919969894,-0.5700187654860518,0.6962393402878911,4.220657879864444,1.293867268774083,0.0,nm
4.408092975616455,42.294592548056656,-18.39232107745796,-3.723775403330137,0.18671698215077676,-3.1485411630995763,1.493950993275789,1.1291246299458242,-0.24547866851052402,0.33840375982675946,3.4899948792893154,1.2040345972225555,0.0,nm
4.432499647140503,52.6430697973529,-12.291798513170763,-9.30897731369756,0.557169279389893,-1.5463602574117656,-0.08253101581948943,0.971374522064205,0.735866252852623,-0.4649788692178409,1.6457457337543462,1.3043285448927067,0.0,nm
4.436309576034546,55.6251217074055,-6.60512104194065,-13.032903919425497,0.7118126650906983,-0.5471538851483995,-0.997128670793692,0.8080793385627243,0.9975323611601211,-0.6272506862755381,1.3417601239921038,1.4288129522113067,0.0,nm
4.461714029312134,57.705952392276714,1.7644307542005508,-20.147488851381826,0.004841895070492038,0.8311782025684534,-1.9204788361631415,0.2687093335330758,0.5768707296786191,-0.6235430812526394,2.092634609415445,0.8909492235059009,0.0,nm
4.465447902679443,56.73665889576483,2.4701486750991486,-22.329883390760227,-0.5305590474403714,1.2534556801174626,-1.7727395255692333,-0.12359190845175687,0.197738648830484,-0.3946387596034251,2.235005474345644,0.4583833370197731,0.0,nm
4.487109661102295,51.01972343333308,-0.9569441014747175,-22.066177194275024,-2.279395027515789,2.8188792611129103,-1.0029231473519606,-0.7956760717447251,-0.16068544234558096,0.1426966516490525,3.761326470766734,0.8241859965570654,0.0,nm
4.494041681289673,46.53473163747415,-3.084575861970115,-20.95242129041011,-2.716963425006122,3.054669064568946,-0.05687752576589037,-0.9851990077946431,-0.07302844663413224,0.19801126800827024,4.088536217253403,1.007550843002767,0.0,nm
4.52158260345459,34.507689562411365,-4.847242484272879,-20.93367277510802,-2.1021699865410577,3.05462971898841,-0.33922192995133604,-1.1511656590445907,0.32192643900542883,-0.1365265870909341,3.72356722649144,1.2031037011317773,0.0,nm
4.5233540534973145,28.2131658795325,-5.084859137421015,-22.485048277424465,-1.1592846479897962,2.5678524312422235,0.49111991559824325,-1.1789174116552803,0.41186774471179727,-0.39471466568265334,2.859896112658404,1.3096873558002065,0.0,nm
4.531466007232666,21.243183658164106,-5.510096041498769,-24.23616325280238,0.1404827852255693,1.4230520655308612,-0.8134435957639381,-1.305698793298817,0.4616331634244548,-0.48710863884269767,1.645145305936758,1.4680699378539301,0.0,nm
4.54603385925293,16.277414961101236,-6.516092169636366,-24.977363672434578,1.2498904233819812,0.18196674959551976,-0.8980943466859093,-0.9795589947596104,0.21610254101439363,-0.2722260825243058,1.5498101251345395,1.0393955803513244,0.0,nm
4.565792798995972,13.223343361614592,-8.90087476631613,-20.32347198108102,3.0438414442164885,-2.4473842756417916,-0.240085992034287,-0.10702277019086603,-0.1877062060263268,0.6723063742467563,3.9130936372338065,0.7061751581392143,0.0,nm
4.571162939071655,18.100099783054436,-10.073096727835326,-14.799284027184282,2.6329033853029946,-1.9955449565854497,1.4235443461053956,0.8540683575683715,-0.5256441329287677,1.2595549317828116,3.5973404642071665,1.6100351362813095,0.0,nm
4.592666387557983,31.515276692248154,-14.97495581204351,-5.004535421734948,-0.1443465189095521,-3.764498213888931,2.954677321630194,1.215930134113215,-0.6631530975233134,1.1068181805875124,4.787734411477942,1.7729367181821232,0.0,nm
4.599073171615601,39.92898205911958,-15.75220182877547,-3.5355252740383203,-0.4273139088074584,-3.6624656474296478,2.8965085534669255,1.618448254727401,-0.2819800331344502,0.7313263783662562,4.688924567059022,1.7982563121009698,0.0,nm
4.6221301555633545,52.70919409568968,-9.990267193949007,-7.824507746493903,1.2347818332704845,-1.8651922201420092,-0.34658996028251854,1.1821930075586085,0.6507666410242863,-0.40507568480996387,2.263570806142749,1.4089584233094892,0.0,nm
4.627021312713623,56.6016579946967,-4.844899671592826,-11.787001995368245,1.1496142345698819,-0.6679524567857734,-1.100974594306495,0.9451662137158201,0.8795447316772417,-0.703632617891508,1.7262440239317838,1.470386672794591,0.0,nm
4.636707067489624,58.788243110759986,0.35989970796403653,-16.027115365140084,0.5542916573803469,0.266773050513423,-1.8356099848592078,0.6839062970679435,0.9014827408409007,-0.7949430009297364,1.9359419202126158,1.3828714075901576,0.0,nm
4.660402774810791,59.29863980985543,4.9690178424141305,-23.514996501252206,-1.3896057342615626,1.695099195395053,-1.9126678227404603,0.014416487804756776,0.21288015032752794,-0.6787471140281682,2.9090657570890874,0.7114938076509612,0.0,nm
4.6688926219940186,56.92668833898499,3.7686812242764325,-24.853057083741266,-2.1531324526116804,2.4772823500042556,-2.2351230319884032,-0.5253146720271551,-0.029957662054513362,-0.25071237772275495,3.9709800009893312,0.5828461739654531,0.0,nm
4.687357187271118,50.24640047513848,-1.3669339434969305,-21.778869470449333,-2.7674587365181913,3.042767487067704,-0.6627252362628288,-0.9411601119942786,-0.19804815725262495,0.3499220914290384,4.166109285348477,1.023450486867985,0.0,nm
4.6955506801605225,44.899562658165244,-3.1656863483726245,-20.148311122783873,-2.154747213891296,3.0627373407958602,-0.9873524634849409,-1.1217916358031035,0.039710256909158075,0.27278773302481774,3.8727458555432452,1.1551651509418095,0.0,nm
4.716442823410034,32.01451858601925,-3.8732044286811673,-20.01890943418289,-0.4032205026337689,1.4749326230948168,-0.4953390995866845,-1.2932902526287364,0.44478908670563067,-0.15380201780931257,1.6072877278175595,1.3762601752136643,0.0,nm
4.745031118392944,21.829647343599714,-5.573316388671528,-20.398323439693208,1.992803754508418,-1.241799539040786,0.11947014361644837,-0.8445076160859193,0.052599207648274963,-0.041092840441362515,2.35108613503642,0.8471413174954271,0.0,nm
4.746822357177734,20.22941501995719,-6.916716994611428,-18.220724745421812,2.758362553932498,-2.841711759446423,0.6028559373695479,-0.38420196813327034,-0.16005377646177119,0.36652789337242775,4.005911255124708,0.5545908945314401,0.0,nm
4.769036769866943,27.22054453264582,-11.114690677667124,-9.116805448231796,1.6438547567016701,-2.8692414944160807,3.307803792851243,0.7263281793861559,-0.6803265248054868,1.100470346060377,4.6772183128875655,1.48372227424224,0.0,nm
4.770723581314087,31.624133208161165,-14.17690999304493,-5.422686411302688,1.0841576853974477,-3.3995011004775013,2.4407412363974985,0.7852166990734784,-0.7248935586650808,0.9241858746407244,4.3231034456747945,1.4128536607814042,0.0,nm
4.778562307357788,37.22043170318432,-15.87176052556846,-3.7271732207491683,-0.11950006059335457,-3.248436709740475,2.74942529101429,1.0616259600428335,-0.43101167225749315,0.621333042946961,4.257459424649911,1.3034091801567145,0.0,nm
4.802534580230713,46.37536185733805,-11.96185632399857,-8.717961394571029,0.38763119872157964,-1.3149829420388912,0.07434522659621395,0.9198360060119025,0.5320565167719027,-0.5637242511574961,1.372940383553936,1.2028995994423053,0.0,nm
4.807014226913452,49.953706070948726,-6.646718095244732,-13.385035400099595,0.4455398656718115,-0.9477087107674825,-0.031545659686144124,0.9060127779477168,0.9033858968983384,-0.8287629393829558,1.0476892196698664,1.5244058653173802,0.0,nm
4.833802223205566,52.739499611245805,3.2129071811295042,-21.394618690231898,-0.19289318403777464,0.9147064166355297,-2.311770822330424,0.44956349760985215,0.7013265035897026,-0.7449470813418712,2.4936278679988972,1.1175474741684728,0.0,nm
4.836748838424683,52.750733148606045,4.555253834261662,-23.452114353016196,-0.894265564742898,0.8799153087543079,-1.7107970255777263,0.10935528438983654,0.24240810418793154,-0.4247743567787008,2.1215061427181205,0.5011521938261152,0.0,nm
4.862090110778809,48.46835948118223,1.523299966431193,-20.194112200449666,-2.157531028284218,2.682620234879817,-1.3652704678212346,-0.5871255737123621,-0.2393007893032083,0.5530414145954273,3.7034247545887324,0.8413299669724834,0.0,nm
4.8641462326049805,44.52756217364191,-0.9170281599145698,-16.998883447422955,-2.194452133488048,2.7917718175433466,-0.17365271941388233,-0.8978700591748356,-0.2178521114079657,0.6322584109854804,3.555244761526182,1.1195449449974826,0.0,nm
4.892075777053833,31.271132407935756,-2.858605186661273,-13.255538591746303,-1.6323693444048255,2.7539196651557423,-0.12719221591973626,-1.3795163145569305,0.24118658443748878,0.16152629782825564,3.203885306697905,1.4097258511964161,0.0,nm
4.893815755844116,23.57755325711225,-3.2523746445370145,-13.914923486650109,-0.7998181373884182,2.52093519508441,0.12753066227546309,-1.5081649965090316,0.2747776647645301,-0.22266094479387333,2.647845799991225,1.5490778928398132,0.0,nm
4.940561532974243,5.712082884337114,-8.33172715513434,-17.597177974033173,2.2054144413173282,-0.5585378614665865,-0.610197932187282,-0.8011357442410093,-0.20416854556081346,-0.17943337829994416,2.355453017385048,0.8459903149239622,0.0,nm
4.942222833633423,5.765605115522182,-10.045405473750142,-16.058072134027277,2.480549196849579,-1.8289846870459563,0.444335264087894,-0.08374526095435772,-0.34430542676936393,0.2771923956443755,3.1137988262493366,0.44988345139404196,0.0,nm
4.955018997192383,10.848645053820755,-11.232303046734435,-12.840884701388177,1.9719271791249975,-2.0786489512333937,2.463863095045355,0.9160340225635729,-0.4911339723968982,0.8154862203478617,3.7788754429541647,1.3211164539561222,0.0,nm
4.957146883010864,19.55146843239268,-12.713924278103148,-9.019750054461298,0.784613335371427,-2.095920057580283,4.542516126999328,1.6258013531557467,-0.6248011142134018,1.122568044577265,5.06388701867044,2.072140315459209,0.0,nm
4.958793640136719,28.46048080076403,-14.590885911947275,-6.282446116603815,0.09315982834191415,-3.49261577872307,4.099321404404507,1.6771835486243094,-0.611930474523083,0.9695479571758842,5.386230565804901,2.0316069508371957,0.0,nm
4.985180377960205,47.67750567571033,-14.88388877786012,-6.728049055263416,0.17926213879774164,-3.2109341479829316,1.5854475343308612,1.8837889734801632,-0.039963909641158014,0.2620900453639827,3.5855092945361364,1.9023535955647541,0.0,nm
4.987104177474976,54.94290374099718,-11.810757204347395,-9.330621825204783,0.5655959409629483,-2.391321534214436,0.024794179476835747,1.4967677387570075,0.4067888916314634,-0.19493706205904526,2.4574238950102556,1.5632630374644991,0.0,nm
5.013504505157471,64.73279057207051,-1.7059510567161051,-15.491402546714093,0.1763404590163412,0.43239362001195214,-1.8280219384285745,1.1191035735656658,0.8127283723378591,-0.5342586880576848,1.886723193128578,1.482684241952921,0.0,nm
5.017184734344482,67.32090979066588,2.707587620640865,-18.31767169768983,-0.618263520425706,1.2703205251544532,-2.338965997856393,0.7602334776970657,0.692015723633043,-0.5575033012331438,2.732531053153143,1.1694659607071054,0.0,nm
5.038912057876587,67.99363001715666,5.323852773577857,-21.184842511534487,-1.859223633014004,3.2035086946972284,-2.665488012863134,-0.08285429684842384,0.0566692256458601,-0.105398692400283,4.563332863300199,0.14555109069064928,0.0,nm
5.044406414031982,67.02208380475119,3.384977385201129,-20.03981985627509,-2.343233620253546,3.374789783619928,-1.8824604351817633,-0.31190355805240355,-0.29716228438594344,0.23124512223029037,4.51924851858544,0.488941263693834,0.0,nm
5.068405866622925,60.25148214311482,-1.6759925670887441,-15.863079488859695,-1.8884979250561778,3.0650514280411247,-1.142372775917197,-0.9619577489413216,-0.18787809632629512,0.3461532439740829,3.777033257549527,1.0394628219139097,0.0,nm
5.073517799377441,54.446288580525646,-2.8279604839716734,-14.690489044022291,-1.3090639143638259,2.294880373984536,-0.9231938318383586,-1.1740792242246807,0.0792810206868396,0.17716601918705646,2.7986445136768148,1.1900148332486296,0.0,nm
5.083728313446045,47.862302383016356,-3.2406276081422245,-14.722304836025428,-0.4140001161504147,1.473798644885584,-0.797466231806936,-1.2869859125829985,0.2511095605418247,-0.04259423493964026,1.7261028163789938,1.3119462715495231,0.0,nm
5.102307558059692,41.24707198118959,-3.8145941075873506,-15.550878848485405,0.3437744218500188,0.5607106626075326,-0.4155541271687329,-1.2995763129971203,0.2282842378177712,-0.23883238877577892,0.777986203532595,1.3409150593783241,0.0,nm
5.118230819702148,31.442381659836713,-7.1900582038759655,-16.68045032495313,1.9812621963950232,-1.9280669414805225,0.890181040028205,-0.8546142690104894,-0.16061208377983574,-0.1533080068575337,2.904352648305606,0.8829864864306043,0.0,nm
5.121300935745239,30.10094741702233,-9.392682064350302,-15.45134748525248,2.2424529372372457,-3.3497405403737575,2.366918759655505,-0.37013290847993946,-0.36036616001758265,0.15499412375541646,4.674576053328963,0.5393378510955322,0.0,nm
5.14148473739624,31.4974211665735,-11.472851212656579,-13.070526713523117,2.322008685486712,-3.4375160608785653,3.0541478454862,0.17143088619354305,-0.4804038036774427,0.5187858568525937,5.151316343068227,0.7275404652657735,0.0,nm
5.157407760620117,38.231672966396424,-14.5404041910775,-8.602074194680814,0.5553332626623747,-2.7335536578237387,1.9395249818951747,0.6904048209525306,-0.4124600687732976,0.4761070368319543,3.3974207552518805,0.9345908386282594,0.0,nm
5.159269094467163,43.11197056319884,-14.891688616142048,-8.867275249760475,-0.035118879457798256,-2.640304449406923,2.020490008720478,0.9327369027333589,-0.21935587418968222,0.18603451438646873,3.3248790649573468,0.9760758012598961,0.0,nm
5.1832334995269775,52.04399694507993,-9.720714082930213,-13.505553509014128,0.03776834206901897,-0.30530252133885477,-0.35613182765283474,0.9770991850495678,0.4920201746394394,-0.424204409888157,0.4706016955620248,1.1733524837171965,0.0,nm
5.188164234161377,55.44552292298425,-5.449216309283199,-17.105228240318404,-0.023657362934188304,0.3379869815329071,-0.6485461129007077,0.8850736539563592,0.641175334549542,-0.6250274028470694,0.731715061390254,1.2590156618851613,0.0,nm
5.217544317245483,58.612039721670406,1.3085595356745512,-23.306864887371923,-0.396174096959775,1.8036372398311318,-1.9049789541881135,0.42849083572923813,0.4097323796530274,-0.5514850590094582,2.6531125162546716,0.8097041370468222,0.0,nm
5.2193992137908936,58.71282302627879,2.073205297501533,-25.26074320670266,-0.7222885296499113,2.0929081111383545,-2.0545033034240143,0.08705538185597247,0.12677306811262376,-0.3875841764391184,3.0204219747433854,0.4169790691806566,0.0,nm
5.2577595710754395,56.11594994595439,-0.9809366050016066,-25.683907832016015,-1.8017868551264633,3.4073819397570215,-1.8794769883575255,-0.50361564082331,-0.21507588777691,0.03498648703451228,4.28825387593299,0.5487352781259058,0.0,nm
5.2598185539245605,50.686324904616306,-4.476203211829154,-24.12055705054581,-1.9281721971472467,1.8154193704088304,-0.16032394831596844,-0.7107299269682398,0.02386162026711289,0.11420976848786518,2.6531677822389703,0.7202432069989296,0.0,nm
5.26300048828125,46.703876628374765,-5.1195996284221374,-23.26214231017602,-1.1630547935832618,1.3088549381562904,-0.6508898629783259,-0.7728853019570221,0.19580764493979724,0.13938202751869558,1.8680083821388636,0.8093946339044319,0.0,nm
5.2840256690979,39.27294928575415,-6.324483453768671,-19.64967081772899,0.47285456693053035,-0.9965580658768398,0.14056156531035421,-0.7315661572573054,0.1285224279003935,0.4186241542398744,1.1119698618999276,0.8526155284949264,0.0,nm
5.298584938049316,36.57942752361045,-7.3901912469190325,-15.911344717347811,1.2685227233175553,-2.459436919356483,0.8370446531820765,-0.5684557954720112,-0.04708623899684177,0.7054318215227564,2.8911284321675157,0.9071897045962871,0.0,nm
5.31921648979187,37.19227414920033,-10.73666281546854,-4.906893399208695,2.7993267872662573,-3.2710361897814266,2.226942010863095,0.1709467741779059,-0.4145716699471946,1.1782256191749327,4.847182577179571,1.2606776268359772,0.0,nm
5.321061134338379,38.245077154886516,-13.290014425662218,-0.2978199039169037,2.418235031702357,-3.2172322645263427,1.952810931512302,0.19256242836482404,-0.5260375627100852,0.9576949906846105,4.473467854662168,1.1094933534645988,0.0,nm
5.344273805618286,41.3999432034981,-16.23211348226461,1.087534140554539,0.03398088486891965,-2.4321146556289617,0.9786942576982444,0.397118803171763,-0.11255912587860249,-0.04763597596040882,2.6218655283429726,0.4155022104114841,0.0,nm
5.349696636199951,43.69683651759861,-14.499689051610002,-2.4154688817179784,-0.9482255990982713,-1.9432795908263631,1.3281341772877016,0.45734210925335156,0.3365322953291912,-0.5887143556744829,2.5375988153739417,0.8179244361633048,0.0,nm
5.374790906906128,46.59711659973896,-5.609793103389863,-12.966471694777846,-0.7155253114572754,0.028073612863964547,-0.6264227142664605,0.4563436532232841,0.9246395720368545,-1.0441558310639703,0.9514042337640853,1.4674703634344923,0.0,nm
5.377928256988525,46.779090149723906,-1.0997534580708903,-17.226266620409547,-0.6183936719041938,0.1053073699142998,-0.6688556695768985,0.2764393764817054,0.856403101001835,-0.8620504284558527,0.9169887034934401,1.2461845535377465,0.0,nm
5.3967626094818115,43.6164072490667,2.5782377401378285,-19.30674495826374,-0.1241941805949358,1.2753121252952209,-1.4514635279754011,-0.24797832728940447,0.2535420269560922,0.03447021023446778,1.9361279876241289,0.35632149195896556,0.0,nm
5.412072420120239,40.93554499381649,1.8215368172307478,-17.26164360636015,-0.12607628483191932,2.16103912607546,-1.3989789935755466,-0.5517130798207399,0.017351324674037747,0.4185853925635497,2.5774265379427708,0.6927496819059616,0.0,nm
5.416122913360596,37.43324849604881,0.34488116901143184,-14.435246225137202,-0.5143812129207761,2.8765421698913243,-1.662146311956273,-0.7496896873834297,-0.10042789266810928,0.5680956913279606,3.3618169566052782,0.9459667560227554,0.0,nm
5.439051628112793,27.612814786205764,-2.56259357598482,-11.570713576937207,-1.5694861616653235,3.2259269771495336,-0.282584323253654,-1.1875618853212393,-0.027822295120866907,0.07694161677693322,3.598575492234226,1.1903769671687106,0.0,nm
5.444718599319458,20.690509614201808,-3.5804196053914548,-12.55562119502836,-1.4752344754776092,2.8954034237851083,-0.47849047170698344,-1.3903225322287414,0.07985091035399519,-0.2794695306827626,3.284605132374148,1.4203788685021137,0.0,nm
5.4679999351501465,7.845905086064509,-6.551080753612882,-15.681786027520474,0.05825139190185857,1.5125313328047512,-0.6937780492468496,-1.2715691321168499,-0.03675444147588881,-0.39617430516490443,1.6650742442880393,1.3323636991428047,0.0,nm
5.473351240158081,3.2363854440912854,-8.316476933783115,-15.214455031773856,1.3114314576060289,0.26201102342154187,-1.0557191323246775,-0.9712184165505587,-0.11098984621224298,-0.06454857469894715,1.7038324831829705,0.9796685547188179,0.0,nm
5.498960018157959,3.6691420730382007,-9.330329442937753,-8.728081020772343,2.6452381217962846,-1.3908479776061036,0.2018284689005178,0.4374814020455193,-0.13540274159841129,0.8745014694135924,2.995409412530122,0.9871558638708539,0.0,nm
5.501796722412109,11.328346635755373,-10.323846498670639,-4.096247269639171,2.442064444843549,-1.3118258108891376,2.6526933270017965,1.488040215338309,-0.37703617300822995,1.1821700190446163,3.836840835635984,1.937510235366183,0.0,nm
5.524704933166504,30.356775760253726,-15.974218492102755,0.15693548012631073,-0.05363650316637656,-3.9128757367606677,3.440531157189647,1.7801929178438982,-0.5869912160662424,0.614791845119793,5.210636050368034,1.9727175482836607,0.0,nm
5.533565521240234,41.50987083345025,-17.28338392479486,-2.1147572518810933,-0.840756565584725,-3.764046500381677,2.106238735877548,2.1450928053119087,-0.30338044975658507,0.1770001497859849,4.394446412475686,2.17365864240908,0.0,nm
5.540047883987427,52.573462042432574,-15.528714559622014,-6.321080487671329,-1.2609939154012932,-3.3436369909037866,1.3489206440163657,2.154909874671252,0.18890362525919893,-0.22376395517732003,3.819633606181716,2.1747164080009,0.0,nm
5.553394556045532,60.50495729370195,-10.456980602979026,-10.273709163148732,-0.3653312486503408,-2.1345477056399345,-0.8354895137588086,1.6872454338612353,0.7770145828055195,-0.4434917309773226,2.3211642674515858,1.9097732146575113,0.0,nm
5.572741270065308,70.59331071230207,2.396992625320355,-14.092626435446451,0.39966919409360807,0.20225661778484158,-2.3732131322654326,1.0905141739408055,0.9998838592304649,-0.24188757235623162,2.415115685697541,1.499165932502402,0.0,nm
5.577464580535889,72.62846261958222,6.177869962756739,-15.303914028319506,0.5181662877659808,1.0704992902144328,-2.8770679477384293,0.592521433352405,0.627826348936962,-0.2449296840063518,3.113195305153629,0.8973506134777843,0.0,nm
5.601916551589966,73.46409493871465,5.695065362849733,-15.785781774315952,-0.489484914066737,2.55682917620858,-2.0193046108244284,-0.08790529287237178,-0.26241045222529186,0.003205119572572901,3.2946262350541624,0.2767613750932997,0.0,nm
5.606142997741699,71.9481957922378,3.123370509452329,-15.406036484680058,-1.5590699820608531,3.2841284318001858,-1.5787257916913995,-0.42199234591495555,-0.4163330149519461,0.024202457303335048,3.9634043309853224,0.5932929110391465,0.0,nm
5.631242513656616,64.7517361919904,-0.6931003110271421,-14.710359157782804,-2.5505137545474597,2.895059851331634,-0.8337039185217273,-0.9232232057581377,-0.03548909128314493,0.024432952703636244,3.9473477397724417,0.9242280738152537,0.0,nm
5.639895677566528,59.24618048098352,-1.1569804121847194,-14.54083894525834,-2.1412193141861313,2.8925780778049437,-1.8767852366283013,-1.082408027422718,0.18801313032511147,0.06387644853004275,4.058836152404703,1.1004709335918863,0.0,nm
5.663776874542236,47.90505725143327,-2.4600931384355507,-14.909970104551322,-0.04800315484875141,0.12455871684087495,-0.10104045428475841,-1.269736241293947,0.16796565284022297,0.04358032607462433,0.16741669635537795,1.2815388514633856,0.0,nm
5.665519952774048,41.59459877497347,-4.155445168305243,-13.523608618658594,1.2622670131894806,-0.7328452579995528,-0.6164914525310422,-1.299391322440115,-0.025826976637432948,0.19369849334743672,1.5844374067165157,1.3140030243039658,0.0,nm
5.674032926559448,37.65806568214725,-6.899884246876695,-11.115914174025509,2.0173859972279486,-2.005172762236216,1.3234016726634135,-0.8764510161434683,-0.3767115369514498,0.39600057672307315,3.137189196627092,1.0329058149397012,0.0,nm
5.682317018508911,35.02912509599637,-9.885208967074233,-7.832239607440981,2.746690907390328,-2.7852979357198597,2.3074571797297723,-0.6039859144212837,-0.5113872680251482,0.5712650009365305,4.541646636160996,0.9760428392302016,0.0,nm
5.694173097610474,34.06552993370436,-12.611705416078314,-4.589466326564082,2.079534742126568,-2.6541433045685143,3.1572795535824216,-0.2382520414550575,-0.5296013502901779,0.6029473806455227,4.619237556606815,0.8371303179995209,0.0,nm
5.720844984054565,36.690381188153864,-15.648089295642421,-4.050308928119342,0.3296135778365247,-2.616784806362738,2.4130062782570834,0.4538715300560606,-0.1937805673579037,-0.03759656311723723,3.5747457437436254,0.4949381533476774,0.0,nm
5.726890802383423,39.90663877049185,-14.449553453902269,-6.307182305401183,-0.45562460044043795,-2.2677724520257483,2.346617420617406,0.6501339692762577,0.17698287986408054,-0.3195397509311546,3.2949960530232008,0.7457229848925335,0.0,nm
5.730824947357178,42.7126677795329,-11.468039910484007,-9.699558112543464,-0.26965856373990676,-1.1986160788326905,0.3147745003945399,0.6339812741737685,0.5083896159208476,-0.5627359788373969,1.2682583457376324,0.9884654973529552,0.0,nm
5.739305257797241,46.088848871075356,-7.474090295683035,-13.06725588908432,-0.23850187974237544,-0.8573788536409364,0.06412066405030784,0.8193562787200607,0.6460360705661159,-0.5732886502508181,0.8922404972144815,1.1905323147470201,0.0,nm
5.76393461227417,49.923573913539705,0.39359571047766156,-16.429482028988566,-0.0858468974120597,0.5206227006261792,-1.4948564936584097,0.42155477729365665,0.6223303182304482,-0.18015109762930617,1.5852487573990677,0.772953991661185,0.0,nm
5.767812013626099,50.67744677052918,2.5306383002550863,-16.061448253553692,-0.26861044936090056,1.2146835207341715,-2.087826649378279,0.2705728957584891,0.3633539025851338,0.0750440326625302,2.4303554774771445,0.45920295870261546,0.0,nm
5.777825593948364,51.61190424011172,3.228310317486696,-14.553006836493175,-0.6486687712936339,1.9299287749966154,-1.5045455439345428,0.22286105191272954,0.08075218116252408,0.2802150869745523,2.531610859746185,0.3670265088386796,0.0,nm
5.788007497787476,51.218423088639895,2.9910413372623657,-12.709769672225795,-0.9306906934554755,2.7486878665839867,-1.6868848122613722,-0.08174399737043489,-0.03219147793568408,0.36100388004579576,3.35664274605278,0.3715402720646856,0.0,nm
5.809458255767822,47.14875143373417,2.054362552114472,-10.13877088438435,-1.404562858977269,2.8650949444323333,-0.9766806053899567,-0.5196461078341513,0.010426609502526716,0.19799962569401117,3.336985296697456,0.5561875972618134,0.0,nm
5.815946817398071,42.72550402424251,1.6743951284695815,-10.22220689404182,-1.2301853895583745,2.686034820450084,-1.0199192796105712,-0.8786322712267665,0.07551579835205657,0.0005197777151104923,3.1254398868438584,0.8818716312540775,0.0,nm
5.838778734207153,31.283086076756895,-0.8104535667040567,-12.30277278617956,-0.28191050132597406,1.547844693052462,-0.598618323330038,-1.214264094736218,-0.09646927142026596,-0.24018847755052283,1.683342098800775,1.2415450522804083,0.0,nm
5.844553709030151,25.479546245689512,-3.447961357440387,-12.999793986454854,0.36073767506978216,0.9522225605275684,-0.4712998145355974,-1.242835872024375,-0.27017657864593253,-0.1915346585268073,1.1220441124009872,1.2862044603625005,0.0,nm
5.871342658996582,17.86419999545996,-9.878160848093746,-11.423119153168074,1.4227696524121567,-0.7134567531543794,0.41036025679589955,-0.6690217296943226,-0.5183233235010393,0.1739507493216505,1.643681709700572,0.8640069477023377,0.0,nm
5.8731019496917725,17.882866703845337,-12.673208118301925,-9.53389782622104,1.4897289735745645,-1.8144965817575127,1.89250308611004,-0.09079024795000322,-0.5616490925820641,0.37253052645857604,3.0155029747710826,0.6800526196292335,0.0,nm
5.898499965667725,27.137719702387713,-17.234870143406198,-6.446595845531657,0.6801545674058668,-3.144586083029002,4.219726141533331,1.0442958441529302,-0.5591432478578101,0.5270176917479202,5.3063283519475615,1.296511715780219,0.0,nm
5.902629852294922,33.190861455292456,-18.735514490602995,-6.605255147018208,0.450536210727561,-3.6420587152120714,2.3848859966506044,1.1207989111410224,-0.4371805107975768,0.3350532223470493,4.376671769649753,1.2488305169402583,0.0,nm
5.925462961196899,48.00127035360195,-17.189607476151206,-9.553673981347352,-0.33913481080844776,-3.06059962727758,1.4383823132007298,1.3829457589614031,0.1453011965874005,0.09064597081075981,3.3987094870439316,1.393509275887063,0.0,nm
5.9342756271362305,52.70544847890059,-13.603277694445415,-11.211209926140782,0.38533854891283587,-1.6290957434900584,-0.7504739849072917,1.0320050601392288,0.5374931482636605,-0.09156276323020285,1.8345707783452527,1.1671833909860543,0.0,nm
5.95732569694519,59.904131895531584,-4.915889355578004,-14.277486222728228,0.16050101615333862,-0.06933551497938961,-1.148043530513791,0.7719216531766774,0.6943581512846798,-0.24824923991241085,1.161280301123842,1.067531716632149,0.0,nm
5.959687232971191,61.024105550923565,-1.3335904676182975,-15.365164055871626,-0.019032880890965023,1.3339998118148646,-2.2010756748778317,0.40711568322683184,0.6330417314478314,-0.21775049458030601,2.5738399085832837,0.7835178946097442,0.0,nm
5.981554746627808,61.25663318859253,1.7841731563755898,-16.151520919873025,-1.3457027112322621,2.5406251923923766,-1.7604633892304276,-0.014426045688879821,0.17205375926847039,-0.02574932976930475,3.3711902200939874,0.17456699245905227,0.0,nm
5.985837697982788,58.73990889281133,1.4066022595512564,-15.945289648706051,-1.3765663433353956,2.7821471629382186,-1.9090110915251854,-0.49850218638966604,0.06384657598811466,0.07491999575262588,3.6441186974925968,0.5081277603755348,0.0,nm
6.009589433670044,51.202811263191705,-0.9151797972176858,-13.613960859779864,-1.7003966853067873,2.1912404799829144,-0.5612886291915281,-0.8491542588498434,-0.07293988745769779,0.2654903134983482,2.829828378855822,0.8926747946853992,0.0,nm
6.017376184463501,45.16285154109133,-2.5328990361928625,-12.893579301930352,-1.0800432601011065,1.8887839467873417,-0.5738122900605414,-1.244246985631121,-0.04116619621375004,0.14699374741785973,2.250168612694595,1.253575836853433,0.0,nm
6.041232347488403,32.43413902062559,-5.341465692430834,-10.75631566431936,0.10720455995300661,0.8966410371032947,0.2660770476471452,-1.2518988230386638,-0.033951805781239304,0.1329562780212652,0.9414111547974194,1.2593969827289038,0.0,nm
6.043458700180054,26.460809248170218,-7.143564292847702,-9.57043003262555,1.0875285384668603,0.41361432456586555,-0.19818481201585966,-1.2268890133801613,-0.15426288172985228,0.09862413381101538,1.1802848601840592,1.2404758794924298,0.0,nm
6.0683534145355225,21.174974076402012,-10.785609168850533,-5.931963063114433,1.9501243399214634,-1.7709822516231826,1.7550430123428682,-0.2649918497094161,-0.31568135323065943,0.33947055768071854,3.1653655479094307,0.5339622240589836,0.0,nm
6.072397470474243,23.12841887931377,-12.603987655370469,-3.949785193205019,2.0213500486893543,-1.8756390527589835,1.5335435085620779,0.3589160089976621,-0.4047972731725877,0.4689044872009736,3.1552549133507357,0.7159280354895877,0.0,nm
6.097816467285156,30.656857469507266,-16.651342909448672,-2.6710075970013367,0.47042085353433644,-2.873798950409658,1.6251553441242983,0.7347272812722633,-0.3932557598230221,0.19971234012671957,3.3348382388582793,0.8569476584241329,0.0,nm
6.102675676345825,37.196677246295685,-17.14609050511675,-4.185977857041937,-0.8022755996769354,-2.8772652474546625,1.9127128262380815,1.2545664946829527,-0.18045535562545106,0.0694041157895584,3.546938369594684,1.2693770740971768,0.0,nm
6.123429298400879,48.310133509467754,-12.068622742320551,-10.132781657552862,-0.4983461984197595,-1.1283792904060468,-0.6436007684598766,0.9797591091068707,0.5879629475712412,-0.41666806450049926,1.3913341459400843,1.2162403609357582,0.0,nm
6.128652334213257,52.272380313271505,-7.168203306033886,-12.65939535545176,-0.17415183719223531,-0.5530785970765177,-0.8709396156211394,0.9688447890893954,0.8020956243767323,-0.3839457665644434,1.046308086081656,1.315078692570423,0.0,nm
6.152944564819336,54.70894908586961,1.0892021984206108,-15.422937033313085,0.5438712483898852,0.8889779020922334,-2.1992744234462727,0.224953435041137,0.6541627151983384,-0.21858616184733026,2.4336979341854272,0.7254742008118666,0.0,nm
6.161463022232056,54.360747877103975,2.570796686110129,-15.770013645329525,0.4364850332271308,1.5600804458406212,-2.0615597664390206,0.018554636494102862,0.30019324634201794,-0.07976648178640658,2.6219074835557548,0.3111638656742921,0.0,nm
6.1671302318573,52.55995264909395,2.3060676777227984,-15.594320338546353,-0.008475317801319245,2.0865851090292304,-2.0215373456773014,-0.35528155919753057,0.04169434984801654,0.0381720704766458,2.9052577318032196,0.3597506248494243,0.0,nm
6.190159559249878,46.26388276230119,-1.0791818006784042,-15.010176411887798,-1.555300906043186,2.435251187341903,-0.6890591934225493,-0.7829336434054123,-0.20004928126007127,0.022477708706021154,2.9705574941126853,0.8083996859830025,0.0,nm
6.195422887802124,40.51426862081831,-2.9972329513811777,-15.333947513086851,-1.942808285656082,2.528712410704602,-0.6911312353222223,-1.204645879251629,-0.07651975202882101,-0.11647705992220586,3.262905587862362,1.2126804493915964,0.0,nm
6.218761444091797,27.039030706246333,-6.231495306518609,-16.079678174255854,-1.3915904811665742,1.9039825878118597,-0.12512829707636214,-1.381139364511241,0.06306447123597347,-0.1824009110497513,2.361637324546975,1.3945584118589536,0.0,nm
6.224102258682251,20.060384769914496,-7.813970935449574,-15.51851762646639,-0.26183794127126286,1.2549780845936462,-0.45864785262793334,-1.4149010339137185,0.0622169385798543,-0.06614786372192848,1.3615751734736226,1.417812195987654,0.0,nm
6.251561403274536,11.836646623786718,-10.513672020448437,-10.71654728689905,1.926171914822833,-0.6466498350859975,0.07261207236392661,-0.565319944684377,-0.13761130740625166,0.5018426866861303,2.0331174997333505,0.7683551222998116,0.0,nm
6.25568699836731,13.069890952661328,-11.674277825763806,-6.997945825406454,2.745696949253356,-1.968039766301218,1.3894606953070785,0.21121721076268393,-0.27787383967797363,0.7862750397820824,3.6527569427331694,0.8602645053029117,0.0,nm
6.275859832763672,26.023928115090502,-16.795277627008282,-0.5547106393768717,1.8633284723529664,-3.6844836118304163,4.925692361980167,1.3344420153737697,-0.6853878596923195,0.8908277980853249,6.427274517756178,1.7447252438277998,0.0,nm
6.281638860702515,32.37945884618553,-20.108436019531435,0.2167587132463377,0.16445836978866188,-4.068530458987271,3.3329381785093726,1.216000731087155,-0.6731840773464598,0.5500435737960556,5.261982853722168,1.494785105984013,0.0,nm
6.303546905517578,48.47950021291102,-20.250322423181878,-6.106141918493697,-1.332219727434007,-2.7465797464709096,1.1760861766359785,1.5494340388697478,0.16920484536993338,-0.2883783471430624,3.271343516166222,1.5850987955347915,0.0,nm
6.327136278152466,58.51888920274109,-9.137369652123958,-14.088387730908693,-0.3580460324629847,-1.194137775673091,-0.9032774914452283,1.086267294614216,1.0850977400324495,-0.5044794417509152,1.5395038860631522,1.6161414690308928,0.0,nm
6.349462270736694,61.02048527313492,0.7983789453178066,-18.096098729347705,0.20721523971127864,0.7359082556184126,-2.268779368149234,0.29572112930135075,0.71573633848156,-0.2760632808611611,2.3941301003904476,0.8221559630496423,0.0,nm
6.351253032684326,60.25154884176708,2.0401975840554756,-18.328394751078527,0.12534557643428657,1.3733283496901667,-2.2232398416760786,-0.06176202237392392,0.2810454223457405,-0.01384431094241807,2.6162067317416327,0.28808460870841934,0.0,nm
6.359703302383423,58.406233722776584,1.3680525106871373,-16.888137510533216,-0.4109478338839527,2.5709123670273284,-2.0441016876364775,-0.3864057144151008,-0.02023860107083078,0.2830482830624655,3.3101087943610357,0.4794114179392876,0.0,nm
6.380549192428589,51.74169378780197,-1.9154243462145826,-13.37470817210686,-1.8130551202078191,3.0800626979524903,-0.7713842792351039,-0.80078803205878,-0.13281756691334545,0.2461682579872624,3.6563627826682112,0.848233923873502,0.0,nm
6.387386083602905,45.9560865573014,-2.544323973697947,-13.323144950783673,-1.929992746359508,3.1751890152490065,-0.614569227061398,-1.1481763008898762,0.14255998333793465,0.027146592018357982,3.766217282421331,1.1573111527297588,0.0,nm
6.410284996032715,31.317061940240166,-3.1755022607289227,-16.56498510123802,-0.8147136851316757,2.0226429958206755,-0.1621868393346686,-1.463546947182025,0.28323712260300077,-0.4422890928523158,2.1865835561753966,1.554931694925014,0.0,nm
6.415255546569824,23.993102596782926,-4.809920650366559,-18.22435846617957,0.43193656855731577,1.2625111410490324,-0.5579026310808437,-1.488774202575756,0.11503213657954424,-0.4424532978123458,1.4462914389212593,1.5573843261848226,0.0,nm
6.441413164138794,14.910145262495032,-9.202722999231783,-17.150682579271397,1.944907106670064,-0.7386258307321879,0.4254405358030471,-0.7379990040680033,-0.22446565107406155,0.18608093393949068,2.1234950955688405,0.793507071482832,0.0,nm
6.444820165634155,14.897779734768838,-11.154381753457226,-14.218047294446226,1.7775402901684503,-1.7482161357030617,1.9197887368643405,-0.10135214696398426,-0.3872863819770992,0.5495913546379642,3.1466645729241405,0.679936509132958,0.0,nm
6.4528727531433105,18.96853053944237,-13.320371685771836,-10.911884322465943,1.8848916015797426,-2.2678938359133385,2.5282422007925596,0.6911924548839515,-0.606645415779823,0.8085269909987103,3.884349035108453,1.2245332030404918,0.0,nm
6.479076147079468,33.33776096153369,-17.611904680702402,-7.660851275808709,-0.23930475161050346,-3.2837187395371883,2.9154854883156376,1.3150438781883809,-0.5792501046747627,0.5358024736155227,4.397741597355413,1.5336086124102764,0.0,nm
6.481068849563599,41.27239875349999,-18.071418868400464,-9.107310980419653,-0.10602659091188912,-3.308449000779459,1.5669375673248163,1.4923143398887422,-0.3182128052658783,0.1891674889764103,3.662290235444593,1.537545387088912,0.0,nm
6.508459568023682,54.90376511535486,-11.679005761397843,-14.217956436399316,0.23691035540019476,-1.971701433124448,-0.532860281377574,1.259811515283635,0.587499838790398,-0.2822090168473981,2.0561306226382206,1.4184227309973452,0.0,nm
6.510478258132935,59.41269982030376,-6.588280794494738,-16.737306793548147,0.7522406934078446,-1.1225335835400394,-1.4615724666428718,1.1392241355396098,0.7400266168006766,-0.37202287132443074,1.9905129445051308,1.4084999259346451,0.0,nm
6.518914699554443,62.839593362891826,-1.8183877588929942,-18.57318664092095,0.8527155617675563,-0.451169592060617,-1.5284713513853123,0.9500942906680041,0.6976916275578405,-0.2948518636828086,1.8074574689564193,1.2150680597569306,0.0,nm
6.546435117721558,64.92690203207367,3.0748361083213207,-20.269744503880368,0.06313923256059864,2.555499802900828,-2.759505526069897,0.23084315060924,0.22293251604097244,-0.14367408731070447,3.7615736804859754,0.35161016802152156,0.0,nm
6.548507928848267,64.94428157504,2.8434036118929624,-20.608471955494878,-1.2280178506595094,1.877646815778225,-1.311197488397092,-0.006666342834550645,-0.0472624130974998,-0.08075760198188606,2.598619683585759,0.09380813448977234,0.0,nm
6.558321952819824,62.531944008575465,1.7681300421817607,-20.471051327327427,-1.9290014780993179,2.9092737701137383,-1.323912200739512,-0.5211720535243937,-0.03543220284239775,0.03436340771262947,3.733318106892057,0.5235041491361101,0.0,nm
6.580941677093506,53.50385022035745,-2.024170319092593,-19.81529025411506,-2.169206227342638,2.3914510178897586,-0.8277394609406807,-1.0555144725728038,-0.06942113682053025,0.038351121234002715,3.333113595859945,1.0584899170743216,0.0,nm
6.586208820343018,47.789814901960874,-4.213608701448099,-19.447835884811127,-1.7999294668444155,2.106711447343094,-0.5451429025995874,-1.216854253177044,-0.03165373601570415,0.06550660866374099,2.824032576341137,1.2190272139117477,0.0,nm
6.613027095794678,33.460896862026054,-8.123656113670027,-17.769807967780462,0.13024891570539665,0.8485615701596726,-0.24816716202163258,-1.5247130213957312,0.10777700182678886,-0.0007867415403464865,0.8936489571974846,1.5285176802048193,0.0,nm
6.62283992767334,27.62827001553289,-10.0037002701653,-16.560747579880275,1.1005259356490678,0.19678470814085244,0.10792582509029212,-1.206581779979786,-0.028928558080713207,0.04962377414113984,1.123178320711256,1.2079482489791642,0.0,nm
6.624971628189087,23.60109804425394,-11.996009672661009,-15.298217355266743,1.8456434496382037,-0.6345079719464816,0.9194467986449618,-0.8640415719833485,-0.1766853907612074,0.09141749652002881,2.157401799664243,0.8866468993313438,0.0,nm
6.648225545883179,25.04395279059381,-15.75780234426448,-12.361497311363152,2.6893309165847317,-2.5891873907835525,1.978308045759584,0.4871853719115876,-0.5134838807469497,0.43724365803889376,4.224937259582457,0.8319839535031986,0.0,nm
6.65380334854126,30.358223703138197,-17.668186001315163,-10.920454272382198,0.9584780162375023,-2.5471312894682314,3.6109173890288107,0.930425589831881,-0.5880669988985061,0.5608467703076546,4.521645972849855,1.2353394971310623,0.0,nm
6.679720163345337,41.93475868533092,-19.96445530378712,-11.70379771664567,-0.6680087738473403,-2.8873427296851504,1.3392399926366145,1.2857774056946987,-0.37152732100111446,0.22130722012332296,3.252160438613083,1.356551868866048,0.0,nm
6.6814680099487305,49.17284633579817,-17.915039344676327,-13.51714682019814,-1.434982597912696,-2.5319386994033954,1.5810863826250157,1.4367737542594983,0.0946076641136627,0.09874423487884315,3.3120571829560985,1.4432670767947924,0.0,nm
6.690095663070679,53.81435624528645,-13.40724437819698,-15.734452492527556,-0.23494753567592347,-1.242367678032395,-0.8134060746506312,1.103461529161623,0.6404840857954054,-0.17903043010081632,1.5034318189456888,1.2883707173787236,0.0,nm
6.718071222305298,60.93836244376929,-2.0149466454804377,-19.949104577313623,0.7577142168239897,0.19309848523691236,-1.2111102001981244,0.8956950591967892,0.8970765189568303,-0.32851659989505677,1.4415983408709665,1.3095568244027644,0.0,nm
6.740346193313599,61.28103794476122,2.483410939795161,-21.464644032089726,0.532860824849233,1.2825422475043662,-2.3692928156551822,0.3906026364604885,0.8139205814565483,-0.2629358846249306,2.7463437005604048,0.9403044251474865,0.0,nm
6.74227237701416,61.11545597900903,4.554327438072618,-22.642721675767653,0.09003575122596959,2.0681461969295474,-2.500728394655299,0.13106607434511688,0.39312410210877136,-0.21531010390095873,3.24637915718547,0.4669939146765288,0.0,nm
6.761091470718384,56.839790908644055,1.9221420230801791,-23.479094330045132,-1.3325343207431886,2.9099719841257197,-1.975592557068079,-0.7452504328866381,-0.1509308337181676,0.01763303858222195,3.7611900531477906,0.7605848067994948,0.0,nm
6.762960910797119,52.64801283080882,-0.9836575494163163,-22.47463057494697,-2.1020943140052335,2.8262995665071142,-0.9582744110874312,-0.9938953719879161,-0.21335069657998407,0.19599475264450555,3.6503506121407567,1.035258650412709,0.0,nm
6.78747034072876,40.52950398005974,-7.047702299854531,-19.356917548240936,-1.4519474542387598,2.44781839957808,-0.6643869747865181,-1.3716894736960885,-0.11846767279034968,0.18207843732232418,2.9225633234284913,1.3887833377034566,0.0,nm
6.789266109466553,33.6174825469379,-9.070335236091347,-17.994904995723484,-0.9140646180434606,2.014273131790965,0.053565539094150086,-1.421316881710286,0.04652748263455332,0.06919179158001713,2.212618277605147,1.4237605096704333,0.0,nm
6.794779300689697,26.513373196193946,-10.815339748440572,-17.22663353973571,0.22204400721284562,1.2600206406809225,-0.7564204554979487,-1.4347598156819132,0.08108562852134066,-0.09997800833406777,1.4863133793304912,1.4405228946458106,0.0,nm
6.817966461181641,18.943313375797775,-15.004245225433346,-16.175613916745856,1.933704755143707,-1.0632189441371098,0.8704078675383182,-0.6022524874388531,-0.26068663650537427,-0.0010869788251201482,2.3721843223303742,0.6562520572171467,0.0,nm
6.824799299240112,19.360725927015547,-16.561043976667005,-14.680962765589118,2.3189555316961403,-2.537321871155176,1.2235242546005896,0.0015427828399392027,-0.3330539728536389,0.3159740425740907,3.648639285736871,0.45909359023307755,0.0,nm
6.832965612411499,24.289328856148128,-18.568480021016548,-12.39825889686933,1.981084518543982,-2.6634906707915404,3.09944712159146,0.8288459189375279,-0.6211464589003766,0.7482425560704811,4.5415251714099085,1.277761872752024,0.0,nm
6.855886459350586,35.268472497218326,-22.606899955953583,-8.778644111145457,0.08782001312852707,-3.681932795544165,2.3694831843689697,0.9104625130571945,-0.4941077457305167,0.6300171085789174,4.379359773598976,1.2124380434378716,0.0,nm
6.863572120666504,41.77855650188648,-22.653254007402964,-9.213955280594432,-0.11227325730958762,-2.8818823930047213,1.817028534026275,1.1971430288314833,-0.20413538289334845,0.40691456929943426,3.408730570884592,1.2807818521266514,0.0,nm
6.8847715854644775,51.04249667289065,-15.910744933201892,-13.850611554582498,0.6464892984475039,-1.4288957514348062,-0.39501864700775235,0.9245064224851595,0.6936132329758967,-0.31623414609171385,1.6173222353505872,1.1982551803893606,0.0,nm
6.8904500007629395,53.971544230284934,-10.54627419755023,-16.84771474244091,0.608517423321943,-0.6556826392492223,-0.4871908242010368,0.8433978385929458,0.8792387358929026,-0.47599319178808996,1.018610856551651,1.308032945864291,0.0,nm
6.912967205047607,53.25330417031482,-2.1026370761125954,-21.6869050096358,0.04736495075922488,1.1962672845387943,-2.3351676833687134,0.009431766351855013,0.7180481648217159,-0.41570021974214766,2.6241773880718977,0.8297522509243467,0.0,nm
6.918514966964722,50.769758278571054,-1.2954788557436332,-22.946487306117525,-0.6987778227765752,1.1321273909293321,-1.5609007138221527,-0.39204337754354096,0.3329938653453457,-0.2344211890726099,2.0509543908403556,0.5652753471712684,0.0,nm
6.944582939147949,39.53883074202037,-4.334742763833907,-19.651687195576642,-1.5512048285173536,2.3507473007778885,-1.1205016052079142,-1.3596635580470275,0.10708938504658422,0.47403910186755255,3.031133969227291,1.443906575083774,0.0,nm
6.948331117630005,32.505356833663775,-6.258637760414847,-15.790292138984732,-2.005134697333359,2.6792114869812576,0.06228033828912558,-1.4468194025042596,0.05190691351492804,0.6388903112535896,3.347031249773427,1.5824542776798127,0.0,nm
6.970004081726074,13.909336862639913,-7.480209256157027,-11.079147335516568,-1.0077012400191774,3.167332184344686,-0.34281566036186767,-1.949786492743317,0.39800827966030605,0.12670981932011685,3.3414035272788007,1.994024407141141,0.0,nm
6.976250410079956,5.057581038912869,-7.663862635113302,-11.160879371908093,-0.31052695753398557,2.8178419532869623,-0.7643792803274814,-1.724530071926074,0.2945472543565754,-0.2030411339812879,2.936143039644587,1.7612460805108283,0.0,nm
7.001206159591675,-7.5595890863152695,-11.505138771403729,-13.345501117858468,1.8841027272826034,0.41200526081947025,-2.10274040974154,-1.1097148811854605,-0.25152403365451964,-0.5146966862834691,2.853262808199883,1.2488571319015975,0.0,nm
7.008737802505493,-8.79918089327681,-13.923732553928536,-13.970681279545994,2.4600361342790498,-0.775173515246679,-1.3072205045990288,-0.3433382060766366,-0.4282162875109292,-0.26347333142725665,2.891625357535558,0.6088255160675698,0.0,nm
7.033273220062256,1.7530204167809793,-16.50018643871231,-11.520381611249014,1.49846797711481,-1.440156794557897,3.344367792593783,1.3517592507783334,-0.4699372961000343,0.7798255526912732,3.9375441335289745,1.6297920195414084,0.0,nm
7.035136938095093,12.528026591470079,-16.674550478984237,-8.47351139960496,-0.4173024488236354,-1.9079217963280142,4.353537009420272,2.038768685336153,-0.40460970578874517,1.2194702457705338,4.7715397312701615,2.409853615190227,0.0,nm
7.043510675430298,25.09818541187561,-17.788971577839213,-5.98466066656997,-1.7709920103158596,-3.2555987459455658,4.431642700519145,2.3668119056141927,-0.5322927199274414,1.2355449722534622,5.7770920816851765,2.7224447679807295,0.0,nm
7.066082715988159,50.34653440935892,-18.2236809836073,-7.431906323821965,-1.0354685673756456,-3.5053858962976965,0.8037419554941249,2.3503615200598436,-0.11366883439516236,0.4318061886233867,3.7424492738054975,2.3923997290219354,0.0,nm
7.090003490447998,69.08432496491339,-8.987318614592622,-12.12414458687027,1.6049117225853515,-1.2813378339250043,-1.4144329951823664,1.7741364540062217,0.7964616670812235,-0.10763589359949527,2.4936296797640307,1.9476901268308915,0.0,nm
7.091941595077515,73.97288563926976,-3.220175958013256,-13.722149307926973,1.879910934388096,-0.35808286671352124,-2.1442666288956325,1.2153762729486377,0.9068520646202668,-0.22738640111640931,2.874050771378463,1.5333703816642719,0.0,nm
7.11864972114563,79.62854369935208,3.704950747820776,-17.462423042899392,0.6951365359372119,2.4951255200603466,-2.934342243689929,0.7012905425373716,0.29583878964090915,-0.46452809728073374,3.9139788665186286,0.8916924176372802,0.0,nm
7.120331525802612,81.70201141043243,3.837002926957916,-20.010497340256233,-0.49896304154954263,2.597064632495852,-2.20776223879909,0.4081481030071768,-0.10720925828220808,-0.549895377599615,3.4449851850567303,0.6931548350514489,0.0,nm
7.128123760223389,81.66091000814887,2.1796291152859606,-22.07884707627811,-1.4213594394711646,3.880567825300676,-2.3592593866992173,-0.1191768233807585,-0.30637373678469265,-0.4258875402394535,4.7586945853522655,0.5380038835861287,0.0,nm
7.151609659194946,77.45353443711807,-4.019537450592227,-22.94068912722328,-2.7810153315449324,2.902396054862683,-1.7124324035977667,-0.8115385517078859,-0.38526175453337624,-0.02222871767778387,4.36925323945203,0.8986186934978968,0.0,nm
7.156319618225098,73.09308543949312,-7.450063236208803,-21.788218984457494,-1.977176916318103,2.088493071032671,-1.6662399791199585,-1.0558449421687301,-0.3062575674927169,0.13216824082793996,3.323761052511194,1.1072807608883113,0.0,nm
7.179263353347778,61.43413080466792,-13.659594085148347,-16.65440138274814,-0.4408755801243663,-0.9169268392520663,-0.2628465412265972,-1.3784218737783618,-0.1617285733401663,0.3292872388551988,1.050816068551279,1.426405650303649,0.0,nm
7.18770432472229,54.59375881967411,-16.380579080774226,-13.09553811598187,0.825519124336829,-2.3594550216437447,0.5705925508124795,-1.4086032452719195,-0.19107205680599001,0.3471970689009009,2.5639979880741754,1.4632899364568976,0.0,nm
7.193464994430542,48.350432164681976,-18.801219024412987,-9.180547914815644,1.6735115743248157,-3.9480044833091923,2.3694731839149132,-1.252727867085177,-0.2502871476126424,0.3965318435661794,4.8991615159045825,1.3376128992327498,0.0,nm
7.203905820846558,42.956293201049775,-20.680668558467694,-5.179338259884227,3.1989793378244786,-4.046936838869117,3.406847711651182,-1.0451937412490422,-0.2518298263086842,0.4277518534534028,6.1820528881599515,1.1570738378762409,0.0,nm
7.213122367858887,38.511135223025455,-22.006376388315513,-2.6262309909809414,2.0957931530257583,-3.4795959007236874,4.149352469349236,-0.8344303355045086,-0.21448245672107352,0.1796367909658052,5.806639517612346,0.8800829993357253,0.0,nm
7.225615978240967,35.82519687442271,-22.378258024226003,-3.0310980091991486,0.8193156323159625,-3.246094649688409,2.732994202032219,-0.49047786934728743,-0.056613952597207653,-0.2912884225483468,4.3217665240541105,0.5732561600705551,0.0,nm
7.232943534851074,36.31305332128146,-22.30909021131701,-5.945988009212075,-0.26550936871850533,-2.371322693681893,1.9392271311393785,0.10138139130440345,-0.000560411573818558,-0.5536991930577941,3.074779408119404,0.5629043408580192,0.0,nm
7.24220085144043,38.144517860367785,-20.85514600864762,-9.792916228330617,-1.1662976508454905,-1.872785262071296,2.1806814535317525,0.3873530690137509,0.23409817796785518,-0.6429513868797859,3.1020874342894524,0.7862765689583288,0.0,nm
7.25141716003418,39.73863813004759,-17.646779264462936,-13.498991927931582,-1.3641402987562683,-0.9049204023736042,0.252685527402583,0.4337341098915262,0.5605861544345492,-0.6450177996004531,1.6563845160715456,0.9583475760017975,0.0,nm
7.260591983795166,42.360102241718266,-13.829200911385078,-16.860636409310818,-0.7110326383190994,-0.07244943426328093,-0.8344092790521287,0.6958827389824672,0.5976800399616573,-0.5396973051102202,1.0986606292428895,1.064306063933464,0.0,nm
7.270064353942871,45.346679360936605,-9.745957283053299,-19.190495982826498,-0.3122514967653573,0.13024264117594675,-0.26343660870904206,0.8170524134078399,0.5889386603586895,-0.35429031674106415,0.4287924785030788,1.067682078362818,0.0,nm
7.292863368988037,46.883837756606695,-2.6188963950805,-20.39181359280001,0.7933573578731401,2.0142504070928555,-2.4105474186981986,0.26465017610626834,0.5385960061591006,-0.0637280840031322,3.239962879040087,0.6034787835991611,0.0,nm
7.299138307571411,47.18202468896977,-1.4902406654436622,-20.869386367901296,0.6197523178010822,2.289210688110097,-1.998624792925992,0.14124505528897305,0.1839769759797376,-0.10504708807828261,3.1014641014971915,0.2546224342982379,0.0,nm
7.3094987869262695,46.58976160153425,-1.672771461784073,-21.580894332479474,0.20545908629766452,2.5635188205461943,-1.5851369548994918,-0.11805967835511136,0.002136921686499023,-0.15721581622073225,3.0210099876075973,0.19662010822283063,0.0,nm
7.332147121429443,40.28361460810972,-4.163613446289447,-23.49857756689846,-1.537075408982837,2.9317663177424746,-0.8789632360764957,-0.8632438494061553,0.0040118891943060776,-0.3096501530375486,3.4249716677839968,0.9171091843769975,0.0,nm
7.336028814315796,34.33102777660468,-6.342895685269938,-24.437682568128235,-1.8736738617524715,2.593415881175964,-0.29010448568773656,-1.2568016047269095,0.07315599531114776,-0.32762458162280456,3.2125722226225935,1.3008612300232556,0.0,nm
