timestamp,roll,pitch,yaw,acc_x,acc_y,acc_z,gyro_x,gyro_y,gyro_z,markers,motor_input
31.558491945266724,8.45752385153539,2.9597349789300402,-62.11111286808717,0.13046506207054714,0.04567350117639676,-0.19916253610860318,0.13480081634519828,0.06277200931700262,-0.02899346658588024,nm,0.0
31.583826303482056,8.594484560869295,3.7314677641720673,-62.19873172394037,0.1279071921634408,0.043728386624780145,-0.18385248378344224,0.1434279649301006,0.037032515454231967,-0.039537938843619135,nm,0.0
31.58651638031006,8.850855050181943,4.492785853348702,-62.30712229063989,0.129383923862581,0.04398208184387136,-0.19188417437808677,0.15272883858785685,0.014847369768397733,-0.048075867714818636,nm,0.0
31.603527784347534,9.661261972699034,5.987430524866149,-62.543133660033924,0.12256892503393679,0.025145827275409163,-0.16668362662192435,0.16842814224913757,-0.022537507360116553,-0.054926986277758834,nm,0.0
31.605769157409668,10.260952891229744,6.709401372265068,-62.65991986112127,0.09889348516968761,-0.010314407635883972,-0.05397228226845771,0.17722400879066208,-0.04988051648573701,-0.055843032549824714,nm,0.0
31.621774435043335,12.07213981433033,7.839876972632702,-62.890818606437136,0.08774895916528129,-0.013778464917037067,-0.025229193009911537,0.1700530330787468,-0.1412674820740769,-0.07012817757642326,nm,0.0
31.637147903442383,13.08207570573397,8.16665543224865,-63.02144014716552,0.08795298919370398,-0.009977683957038247,-0.15881555773303918,0.1434868356155735,-0.15863386135182939,-0.07882508113720214,nm,0.0
31.639293432235718,14.103023281337013,8.361515522626021,-63.166611124691606,0.032274324872365444,0.008973448815511167,0.04464076294086205,0.12265060786417648,-0.16379067128818753,-0.08294480347736463,nm,0.0
31.64779281616211,15.027472766469648,8.48045136135339,-63.290873175457776,0.021042090442263624,0.052836381420812886,-0.02747198219862346,0.0860110697839327,-0.15772234662538712,-0.08136628555421774,nm,0.0
31.673447370529175,17.23343563165712,8.038705166347155,-63.28026096482871,-0.0047657264664201,0.05570613995964912,0.04719206756028456,-3.751616955394139e-07,-0.15602972458957864,-0.019260903098045557,nm,0.0
31.723947286605835,17.882784694941407,7.627181712074497,-63.040068617677875,0.015773066948373687,0.01835073681687501,-0.06874289757359074,-0.02432691343038387,-0.15810159278432828,0.005321306655784792,nm,0.0
31.726978540420532,19.20704476271179,6.613152804232003,-62.4697530149166,0.014059386209110498,-0.037633685994595004,-0.08654186727428369,-0.027370535646350204,-0.16898719009646201,0.03695635942298755,nm,0.0
31.729473114013672,20.356733793596728,5.526199419536884,-61.97838003997202,-0.060224142346222,-0.026155408830742192,-0.05379156661018402,-0.04204360279201055,-0.168914202339273,0.022733558939692346,nm,0.0
31.747355937957764,20.889846013596493,4.7775493454863325,-61.83586691188843,-0.20038679368221524,0.08903929908606613,0.04586048605719295,-0.0691373768134085,-0.1198297339094331,-0.009464771306382529,nm,0.0
31.752885818481445,21.12966551738748,4.2777916024255,-61.86854704798024,-0.19667632420972928,0.06774139187956942,0.16695639317664107,-0.07022560480296658,-0.0995117305520744,-0.019629723442462527,nm,0.0
31.756020307540894,21.21533419333968,3.921235321983724,-61.87420900666001,-0.1559910064753929,0.048963351819149875,0.1548526756483622,-0.05942904655048994,-0.058876261631195304,-0.011629550190851828,nm,0.0
31.786293745040894,21.19614921329106,3.352773844988211,-61.66811349281729,0.014558656917711054,-0.05453999831732044,0.12059282080701554,-0.057022150457747486,-0.033570753762509106,0.019687404468958027,nm,0.0
31.788539171218872,21.258225576030323,2.957785675553642,-61.44782922003811,0.07960104716912006,-0.073184345822132,0.08639746552782011,-0.05311018018431738,-0.04260873135338464,0.0342524004670884,nm,0.0
31.795918703079224,21.407063427340233,2.6243417500752444,-61.22446244465636,0.11224016581587894,-0.02175873539263554,0.10423764943891785,-0.04859114780253731,-0.0684895571674813,0.034134092294139495,nm,0.0
31.832484245300293,21.989667578271952,1.7605149344462414,-61.153202953004445,0.06068395927233478,0.1211919691578957,0.15192449893941992,-0.04889138141673299,-0.11263994948120468,-0.02072082585213472,nm,0.0
31.83501124382019,22.417056085539325,1.385934337053944,-61.36895597638243,-0.0031457049168533164,0.21355878522741178,0.1580452081837628,-0.028718939531337726,-0.12151880594603824,-0.05469674097787089,nm,0.0
31.837087392807007,22.894470641824842,1.0956081136567208,-61.72839531587759,-0.062205349095990195,0.2312762600576667,0.14346616788594388,-0.009642483532724615,-0.12215248025604536,-0.08322646405912042,nm,0.0
31.87522292137146,23.964054553540347,0.8790664063962006,-62.47823051541072,-0.10396768013709984,0.06643230389482421,0.14003302157212133,0.03863634456547432,-0.11056451009310857,-0.07939577465338907,nm,0.0
31.878862619400024,25.55798708339687,0.673205396228048,-62.84752767306758,-0.05122918925880131,-0.19869520988780257,0.17760429866970062,0.0190165965851487,-0.11347950197060915,-0.01176037175339931,nm,0.0
31.89584493637085,26.037810371069803,0.48822915301016256,-62.887467555647866,-0.04578026853426644,-0.15194559643801722,0.16716754591573155,0.007056797567007519,-0.11258056244560358,-0.01160983475947598,nm,0.0
31.904908180236816,26.502337525439728,0.28406552695108267,-62.99367271252322,-0.05867691416412755,-0.07229759771523414,0.1704978560337471,0.002205025666153598,-0.11160302989044993,-0.03148767756271036,nm,0.0
31.90747618675232,26.932043212032216,0.1525299865877905,-63.24259627846552,-0.06115300674666295,0.018403697743042784,0.17430955012315077,0.011738250714570636,-0.09879705258846441,-0.05981260869368217,nm,0.0
31.985548973083496,28.909717870600602,1.1041019622556123,-64.91016157282868,0.001528878683241349,-0.04908752312202624,0.14964606295276947,0.07806119724465346,-0.05927976378594743,-0.03952965252248068,nm,0.0
31.990836143493652,30.422119826712148,1.5472717518252408,-64.90094435221198,0.02016255201997786,0.003701018088763349,0.1925505578234115,0.06587812957387054,-0.10040448977943861,-0.015441424007463003,nm,0.0
32.000372648239136,31.022737467022573,1.6939699331533176,-65.0538947808057,-0.008707555426532067,0.04653881558220836,0.2219970852577041,0.07401554966281401,-0.10598136452543981,-0.04440812242452494,nm,0.0
32.01120114326477,32.155552268888165,2.3053769586424364,-65.77955423930509,-0.04278984606602364,0.060291400962199114,0.17609512846397177,0.1089885130033963,-0.0775153485237737,-0.0977246040912376,nm,0.0
32.037068367004395,33.1575579915514,3.1858137856466118,-66.62368270801318,-0.04729717488854797,-0.05732213208508027,0.09953712491665273,0.11625680501412282,-0.06345534925155756,-0.09543067847265728,nm,0.0
32.05568528175354,34.0675433156677,3.8815151989814223,-67.07779524346509,-0.013646596397034855,-0.11794564464066054,0.140298637649891,0.0866081942418707,-0.06458609168937213,-0.05103871490715334,nm,0.0
32.06191110610962,34.435747076198844,4.0924890687250395,-67.2009900917563,0.013922836732695319,-0.10409610232727924,0.14615201049976115,0.06408408018696082,-0.06001362676618226,-0.04087213591508372,nm,0.0
32.08560585975647,35.002466658574164,4.4172532693161335,-67.56584561463738,0.0722794287824849,-0.035587404899723334,0.14367601247934741,0.04650845844872296,-0.042920721538593595,-0.05932033000148061,nm,0.0
32.110880851745605,35.492492622101395,4.788849790294365,-68.29512868625616,0.09013518090009548,-0.007673569758395946,0.11685510375942892,0.05005857925146452,-0.040313399771901105,-0.09636544952639196,nm,0.0
32.16712665557861,35.72461053677598,4.957567699573768,-68.71367275219419,0.07925020644285131,-0.03083920671637595,0.10021183104221254,0.044901616669340845,-0.03901625917036772,-0.0990745628646383,nm,0.0
32.18079948425293,36.187694020759864,5.116002472266181,-69.29264718416772,0.04515820246429403,-0.05245601803310812,0.04344588059127962,0.020535931389853358,-0.05262795428033159,-0.062292986676204073,nm,0.0
32.184168100357056,36.650102249835925,4.802202423513935,-69.50371862992202,0.038943379541278224,-0.015598189748625733,0.020785193805752132,-0.02517991935732669,-0.05849636398526445,-0.030433204916665218,nm,0.0
32.18623900413513,36.98924410477155,4.396238536597342,-69.57203053307929,0.07002726851611839,0.02676925371822107,-0.008379258438677397,-0.039520266580160994,-0.03068771241510914,-0.04173846081713688,nm,0.0
32.19820427894592,37.05136701737834,4.169794635180834,-70.01496874799875,0.057641842689276614,0.05417016460420277,0.021226351479139993,-0.032998977783977194,-0.0012890934061329136,-0.07211663412792217,nm,0.0
32.20357584953308,36.86438597067196,3.98819150008688,-70.6166710421829,0.0717089047219157,0.09001058512483663,-0.028041996489371415,-0.04778787233041687,0.021398403378328823,-0.06492834467769121,nm,0.0
32.2287232875824,36.53621573081752,3.7595049047208615,-70.71038212920404,0.06499826156670319,0.1589825914783057,0.02351523846566379,-0.07399484739073343,0.031117609078858906,-0.020417014756123134,nm,0.0
32.25256419181824,36.235973274481196,3.526759179773001,-70.59250656906258,0.10383770587632507,0.18318593447125978,0.0760580923687917,-0.06996205776772943,0.029613922399898514,0.0056188113887097315,nm,0.0
32.259069204330444,35.896520254959206,3.3326017403431063,-70.57776499432954,0.12463617835535315,0.16450031431938078,0.09021171527958749,-0.06286404436723811,0.042616868933259375,-0.004110236821427374,nm,0.0
32.26334500312805,35.74343772455283,3.296594743494819,-70.64719404822462,0.15145547096447964,0.14369784650051942,0.0460961022124152,-0.05075698227055389,0.04978673552362083,-0.023230369415036128,nm,0.0
32.29046440124512,35.542660533491016,3.2879472171867516,-70.99938922260196,0.1690871590402524,0.09747569814659728,-0.004253818791039739,-0.03032298198887467,0.04440851767910968,-0.05950966123429705,nm,0.0
32.29269456863403,35.521407290494565,3.2894700284689122,-71.19772806093052,0.16320712964592746,0.0862649639361904,-0.021914702863832562,-0.024179519480552858,0.032371452772977545,-0.06506879328605959,nm,0.0
32.299784660339355,35.5520490800236,3.299681320379578,-71.37751000507568,0.1664474005980489,0.05753974624891016,-0.023853997005457078,-0.018073993730818184,0.02211099378338889,-0.06077960687135348,nm,0.0
32.32228326797485,35.84551443767051,3.4527099754090953,-71.60073586377128,0.15274706245072545,0.11981259485705205,-0.0638859920111835,-0.00021420919982949722,-0.006329510301966318,-0.05200806235056279,nm,0.0
32.33975577354431,36.241781600357186,3.775458035422805,-72.00703105138358,0.09631578329310088,0.12933495296257985,-0.060541866348884595,0.01688055492067901,-0.01203125982072535,-0.08143231112391731,nm,0.0
32.35766363143921,36.45961969144154,4.008767420843479,-72.28736789283545,0.0563647252949333,0.10516540119679152,-0.02122024257777789,0.03030495632381717,-0.022381847264348418,-0.10353823637723919,nm,0.0
32.383371353149414,36.79084611774827,4.430337278331814,-73.02832563066939,0.02852242942534705,0.012030155887201103,-0.04105099105626485,0.03978623420991171,-0.023321561349773288,-0.12619944501913383,nm,0.0
32.38579344749451,36.938898996556226,4.55270480798192,-73.43783914287422,-0.020878558680161426,-0.03989122679229325,-0.026242192093236735,0.036030615617634966,-0.030917511829733367,-0.12156309310339333,nm,0.0
32.38804340362549,37.068217979712394,4.5973044007626385,-73.80788167013749,-0.007730275862599953,-0.05336430941815131,-0.06412977108618612,0.024547306647469003,-0.03206496100160464,-0.11204396364022653,nm,0.0
32.442155838012695,37.199791475086364,4.596882322681096,-74.1459760901186,0.002222446450838308,-0.04254313460780226,-0.07891079690675873,0.013454112188097432,-0.03267469691687062,-0.10363522144022669,nm,0.0
32.44466257095337,37.510069167775896,4.658142161293886,-74.87982799206138,0.05178781363823291,0.02004498786982999,-0.07170496979550839,0.007726221655634981,-0.027664285838037882,-0.11505743766230654,nm,0.0
32.44735860824585,37.700081518723465,4.785191184658497,-75.38092864859952,0.057845407127157425,0.05574124994763581,-0.04290684635100765,0.01740755238619644,-0.02438309739222124,-0.13362561688898503,nm,0.0
32.44976353645325,37.99938404078138,5.242510886131155,-76.61413684510885,0.045436240997676035,0.047517380462066855,-0.06767802150392549,0.038586520404442895,-0.00925161362109969,-0.16470980773474275,nm,0.0
32.45196294784546,38.117040488743264,5.45667112740739,-77.28702481037716,0.030322271564629535,0.010811379498167016,-0.040548189730909935,0.04052842860388924,-0.010190138739406319,-0.1668502448523932,nm,0.0
32.46967959403992,38.1800467896359,5.625307346647269,-77.90802011833993,0.02413905933574008,-0.02447902872354316,-0.0264644631458409,0.03665957862533962,-0.005148456707034603,-0.15635241270523298,nm,0.0
32.473031997680664,38.22878030015173,5.7498545550245295,-78.45773302994102,0.007322897803202117,-0.03585777379550619,-0.0036851188272596733,0.02866764382757976,-0.003753674498940393,-0.14056086524705336,nm,0.0
32.479084491729736,38.2570905214734,5.831790423373854,-78.93865858393819,0.03890947950397295,0.004419747573967554,0.030620930808045684,0.01610597891877773,0.0011072869330635473,-0.12855372995767875,nm,0.0
32.48590898513794,38.272100856905844,5.902549983318589,-79.38040381662825,0.06407340240794537,0.006713018790287277,0.05039310715385642,0.006739806103745246,0.008640552018570006,-0.12324904518398178,nm,0.0
32.4991455078125,38.29272080066247,6.004127983011857,-79.84410537574551,0.09119561456945498,0.043209117096778084,0.0800967245234643,0.006686947727604526,0.013299285244816052,-0.1259920768582823,nm,0.0
32.51069974899292,38.326387589902126,6.150612420618007,-80.36267776824127,0.13031573425663517,0.05525413556323888,0.07891884188422565,0.014195844256868423,0.018142940108872258,-0.1364696395759446,nm,0.0
32.51737833023071,38.38811491850433,6.333653839270046,-80.95331974335052,0.1502632054932596,0.014902569007728109,0.08027402075623397,0.0262745650663431,0.016881852723776968,-0.15042034018097183,nm,0.0
