timestamp,roll,pitch,yaw,acc_x,acc_y,acc_z,gyro_x,gyro_y,gyro_z,markers,motor_input
15.54676628112793,50.852794042371976,72.48418016584739,-4.043034563885258,1.3126719354701613,-0.2659065917962419,0.07458166830044723,-0.4610065364237777,0.011811361834845751,0.5750838355696957,nm,0.0
15.556745290756226,42.90315486219736,72.40813315421394,-8.268493223925036,1.3913500681065163,-0.0446281076344649,-0.21697755077257183,-0.48731033531895485,0.03290232775588631,0.6839245433130482,nm,0.0
15.577197074890137,28.324387354655784,70.64748171713023,-16.26371015391925,2.032923374193649,-0.09913082131748928,-0.282674732960428,-0.4812594759735242,-0.11377825327393473,0.5647188521518588,nm,0.0
15.594074487686157,23.417873376555395,69.46943743484911,-18.320633468845912,1.7144858834654606,0.09106376656609842,-0.10011139309008317,-0.3984523806376139,-0.13201464568452517,0.5214869864038914,nm,0.0
15.596372842788696,20.525725446972377,68.25687224515147,-19.130092814416418,1.489103228545889,0.2266478797465772,0.2663688541882118,-0.284016927151478,-0.16986810944218134,0.3879506032030292,nm,0.0
15.612386465072632,18.783262407574618,66.3511652844772,-18.041966364399542,0.8809868937400339,0.2146786087433537,0.8449893093454721,-0.08022796104541294,-0.14363206829615463,0.24904098255040755,nm,0.0
15.636338949203491,20.75229181612852,66.46089941999018,-14.173364239312807,0.6290400048674402,-0.04201742975069177,0.8480502262703103,0.10753077061297034,0.028850944122786947,0.19478451047341996,nm,0.0
15.639062881469727,22.45072665167298,67.26815593766092,-11.614565276445333,0.3833636564531274,-0.14038104290665923,0.3481632938401306,0.15904982576620963,0.120935331798699,0.18926642099481358,nm,0.0
15.663253545761108,27.392627417883833,69.31200737419292,-6.08142132594468,0.2594087995411853,-0.30140290599778063,-0.5476607072357814,0.2045410378394666,0.16321195484029385,0.06543430088385348,nm,0.0
15.665932178497314,30.124950196780315,69.98293453121497,-3.602628195230724,-0.12015240855102573,-0.2870182840865864,-0.9156865856785453,0.1933299397224756,0.11135781639517041,-0.01747685481924925,nm,0.0
15.687207460403442,33.254143433282,70.22654826715406,-1.5248362781177895,-0.4792768668697606,-0.1725362412702032,-0.8621400984259361,0.20746198327666193,0.032836168963568585,-0.17706105995733212,nm,0.0
15.690792083740234,36.156272651938444,69.93587176964638,-0.2675635327208695,-0.9977361353087139,0.01613234733389659,-0.5553706949038076,0.18934049839421568,-0.06755088082842187,-0.3053295136575501,nm,0.0
15.712980270385742,41.754995447601665,68.0088358776422,-0.6921250553761119,-1.5844245108619832,-0.41625222831209435,0.6509559043907023,0.21713591894037837,-0.23254213414896535,-0.7287532306746257,nm,0.0
15.715239524841309,45.196417485960765,67.16647044960787,-1.4339176884856564,-1.4047208930631956,-0.82977614270587,1.0423324299358525,0.2521936494967764,-0.17781899809260476,-0.8281406439278433,nm,0.0
15.74289584159851,54.46578636071486,68.1048768064287,-0.2506418118244089,-1.415337418989589,-1.1520720895717964,0.29466108570757077,0.383059891378621,0.1700813976235432,-0.755121348857444,nm,0.0
15.746407985687256,59.76281071739234,69.30344749956272,1.4108252541157582,-1.2999813204079427,-1.0957484515558191,-0.5011762013496777,0.37350709441184005,0.2431658235208458,-0.6869927675217037,nm,0.0
15.751044988632202,64.48651826490644,70.32675213069398,2.995655853944678,-1.1728846080960116,-1.131257647755887,-1.1845066585356114,0.3087051270263284,0.2172906893089938,-0.600388733052417,nm,0.0
15.79324984550476,70.71604989879532,70.76935532697621,4.289863394359142,-1.0371892116211476,-0.9932134809493656,-1.3586507758443704,0.15178676716261136,-0.006154323581981274,-0.45942961628160534,nm,0.0
15.795591831207275,71.39845660189928,70.1504334140196,3.2742933113632455,-0.9754675483621648,-0.9344261952906678,-0.9605501570201384,0.04495527666694865,-0.1204382527547107,-0.3569707671077605,nm,0.0
15.813167572021484,70.75141419340322,68.52706413491461,0.9923057346385649,-0.5747930281663945,-1.0137423331861974,0.05510656678945364,-0.034989945953077396,-0.15293824158282188,-0.12103463485632422,nm,0.0
15.815497159957886,69.87614705482697,68.07506412983982,0.554078827513747,-0.3652342877505934,-0.894017909581802,0.26869250541911177,-0.07222851554466836,-0.09089387480582709,0.06378385829302358,nm,0.0
15.81905460357666,68.00934893553534,67.91654457678514,0.04828350427549919,0.11116109568870344,-0.8411620515946945,0.4360825081295166,-0.14855870709991545,-0.03209017555617141,0.2465405781452437,nm,0.0
15.869577169418335,56.1621692836888,67.76451490746797,-3.938674672754607,0.8875022095842618,-0.5472521058517057,0.2634654329244254,-0.5679485637886048,0.001500850712381021,0.8855418014513086,nm,0.0
15.873131036758423,41.331455390003086,67.25815149961228,-7.491256699460638,2.2966432632283187,-0.44105522579758927,0.2541458388970354,-0.5564901025054892,0.013014023245954983,1.0808907544326498,nm,0.0
15.876506328582764,34.776688337343174,66.8030526373889,-8.29403427294903,1.9509201744671063,0.18507683724092752,-0.0653150650340845,-0.52776376412048,-0.024425525128105943,1.0813846087304904,nm,0.0
15.907486200332642,25.626009211388666,65.2523362544846,-8.742778548588536,1.8991543859766795,0.7117937148743761,0.10895111654354565,-0.3535903350807517,-0.11070671175294881,0.7468397146684855,nm,0.0
15.911195039749146,22.162167530513507,63.81260063957605,-7.6495746511054925,1.0499021591176259,0.7414202297256343,0.463197972113007,-0.10165895088959175,-0.14202608856486182,0.3125148945285996,nm,0.0
15.933602333068848,22.484413062658167,63.33954058363148,-6.347288625462695,0.8303464676714776,0.5219623900471568,0.6797088101215896,0.011148571302342172,-0.1056097197869827,0.1925592272086844,nm,0.0
15.938321113586426,23.820137893345905,63.284792956418876,-4.517104912733723,0.4534803111037519,0.27562752682690583,0.7284385080914778,0.1128238365972955,-0.03023652476188075,0.13059077561494672,nm,0.0
15.940476655960083,26.02391827466389,63.51240747787267,-2.2445792160218616,0.4180616312375977,0.07370857728434865,0.6414140067848418,0.19423797818870586,0.026123160496539243,0.061672150246770883,nm,0.0
15.958088874816895,31.35699693028128,64.85727970079385,3.0065772656766203,0.1382595334168123,-0.20322896856797318,-0.14192397928851605,0.2295086839187754,0.16116752407484788,0.035153467979905574,nm,0.0
15.960518598556519,34.21002535829393,65.6191266440009,5.376481466983925,-0.06934147914090716,-0.20982104364847304,-0.5551466064633958,0.22139570673494288,0.16272553424284192,-0.0445862051157308,nm,0.0
15.97747540473938,36.95798277255594,66.15801949757767,7.181296778681508,-0.3156985800435196,-0.16166339062304447,-0.904961467006045,0.20535510252490524,0.12518639509176535,-0.14557007823514262,nm,0.0
15.984132766723633,39.50888155368467,66.40863972103351,8.39727309849624,-1.1440327652544562,0.13258176246178885,-0.9470016706662243,0.1903238837772923,0.07116386874513612,-0.23554773916647717,nm,0.0
15.988842964172363,41.29268998031489,66.00012899616482,8.210209369343865,-2.0732812941587007,0.18892897213201784,-0.534464394854446,0.14809752103614213,-0.06647484805799705,-0.3757550593143638,nm,0.0
15.998929500579834,42.47508476712775,64.82884704558951,6.386693779390882,-1.4172673578689405,-0.5376848212358725,0.3418688604685606,0.12153055592305519,-0.22630297680307868,-0.6070651476936558,nm,0.0
16.02524161338806,47.118129954488275,63.98461265648855,4.4901396912046705,-1.7567183725966422,-0.8219699854065688,0.6795121869933732,0.2555484295851384,0.03600066006035541,-0.6177705699589623,nm,0.0
16.02931308746338,50.88242700846193,64.81693104555046,4.759639203463957,-1.5385312529175816,-0.9145695936982652,0.44588006341456415,0.3037768506909028,0.18895408260322458,-0.6514793176716771,nm,0.0
16.069156646728516,59.266659201528356,68.37093619339745,3.8243728287738907,-1.04401047699142,-0.8921431706944218,-1.3635081726880236,0.1356002908111938,0.21525156004903992,-0.5738588859905915,nm,0.0
16.071726322174072,60.02427256498194,68.76621057130023,2.0252564052823567,-0.7199532999353135,-1.1734077148368218,-1.5305900638487415,0.04285295298886799,0.08040937677788958,-0.535271313439786,nm,0.0
16.088311672210693,60.27347988816699,68.5700759978835,0.27099370951959023,-0.7499815340652642,-1.1347746900666735,-1.353190703256277,0.01053845089212718,-0.04040739575831259,-0.42546063064518097,nm,0.0
16.091023683547974,60.374607829662416,67.83379053095916,-1.1697792251017656,-0.6619587383430011,-1.079171853332923,-0.7511988761535805,-0.001916677506403671,-0.1490197058760147,-0.3358947006716628,nm,0.0
16.1116042137146,58.396252371629835,65.70398126456219,-3.94877625291832,-0.14820835864564472,-1.117422616424225,0.15278090926365148,-0.12044678517555871,-0.1995732601689128,-0.02859869057188978,nm,0.0
16.113805294036865,56.71580472002658,65.11939787341986,-4.5747227025951265,0.24708672056924752,-1.0617184813786769,0.5533590017821854,-0.15641465970591525,-0.10796499802604723,0.16901285340874692,nm,0.0
16.13041067123413,52.82738030256687,64.81591303411601,-5.9799690841474265,0.8493018188345143,-0.9283648275574206,0.8845524885265658,-0.34159361102231484,-0.03220122583580267,0.4260174162780968,nm,0.0
16.13254690170288,45.57030141402646,64.51497086087159,-8.821692877631914,1.0706711628315495,-0.6144280058397423,0.6430311457960093,-0.631899608382151,0.017717226918861385,0.7607826763957848,nm,0.0
16.13886833190918,37.298964895099836,64.22526353430672,-11.86280694392799,1.7919776872566935,-0.7180965739523242,0.5704734074022774,-0.7223791562602742,0.06799395487364271,0.9091673291563058,nm,0.0
16.14913058280945,29.646048954582863,64.0867763338589,-14.058811961004713,2.2751149100994374,-0.35991423682782964,0.42472746184638127,-0.6642688244534575,0.11804808302094498,0.9671536931423649,nm,0.0
16.162736892700195,23.029611302145483,63.8052140841443,-15.337132635827857,1.9255648481881023,0.2242075767323519,-0.056445155605008554,-0.5840682442419948,0.08719397861687886,0.9636913021013623,nm,0.0
16.188883781433105,15.975216192944075,62.347241578383496,-14.570401790347647,1.7975645347498785,0.6836282312636361,-0.040630497643418285,-0.2652703430133082,-0.1067443601529254,0.6452955414691608,nm,0.0
16.191097497940063,15.208490481895119,61.50687384226754,-12.74564827293642,1.1711162436679767,0.8114196820609386,0.09828259147836042,-0.11582903848389871,-0.15515605476095193,0.512543136247936,nm,0.0
16.19703483581543,16.004126818779415,60.5953056735107,-10.473920624885064,0.9098253193233168,0.729902234562347,0.4673335512024665,0.033393879810798666,-0.20326662709855206,0.32134010946268166,nm,0.0
16.211121797561646,17.5970628803362,59.85261458395217,-8.176121869267027,0.7281539221884047,0.572076652601098,0.8359959849457409,0.12722906023786387,-0.18129770281699892,0.18317848419888427,nm,0.0
16.215343475341797,19.268260127254376,59.56379298526497,-6.153676065137015,0.33275975534969876,0.3453439938049423,0.7709310898599657,0.15555971992238402,-0.08708895322949632,0.1108823914497686,nm,0.0
16.241105794906616,22.54715096197853,60.42652356907063,-3.3821268801009565,0.3249457569384628,-0.07998758988317124,0.29736121996877046,0.15530074072627462,0.10764007782123293,-0.039098567941618007,nm,0.0
16.24494194984436,23.767592510193776,61.284871484442704,-2.5864248690086984,0.14525560085301767,-0.23864913489538606,-0.30540214048718656,0.12296251318358041,0.1575312596887764,-0.05858749448182278,nm,0.0
16.278324365615845,27.111912547401296,62.770001742086144,-0.9891783866166337,-0.06178338170014082,-0.26380607433240494,-0.95352363534192,0.1720457358674101,0.11271909132209956,-0.17064960545086907,nm,0.0
16.283515691757202,31.23588517209055,62.656754877589776,0.7551720521738761,-1.8422905895338872,0.04087079838961195,-0.7244987898390695,0.18800083594178343,-0.07979239054716074,-0.24351406185007213,nm,0.0
16.29749631881714,33.38405331260088,61.53963272601665,0.5178238856822809,-1.7773814049298593,-0.23687195329189076,0.2712200659539598,0.19847352096754087,-0.22840252476593312,-0.45395594148116564,nm,0.0
16.30826735496521,35.19973876838441,60.39802062903133,-0.5823282333875673,-1.4439160505404105,-0.7134245910479142,0.8258674095012402,0.17106365575016683,-0.23525209342154055,-0.5667915503735396,nm,0.0
16.327571630477905,40.122020728126216,61.62623284371968,-2.179943569722054,-1.5507079292157195,-0.8531196256396936,0.44200097719412496,0.26297541827111043,0.23235490637866393,-0.6416058409732202,nm,0.0
16.339197635650635,42.33109989963074,63.37590243543798,-3.442133837409613,-1.228484739214573,-1.0198047923322666,-0.3223063209689798,0.2141978984405331,0.3359347498939012,-0.6710503873063458,nm,0.0
16.416032791137695,46.67604188472898,63.562929121426386,-12.62632262328652,0.043217361754006624,-1.195991288423111,0.27382232576665827,-0.18700105692346644,-0.030691622244737968,0.17611463692732782,nm,0.0
16.421850442886353,43.5805111343152,63.54260649913946,-13.89201702752687,0.6791546420211684,-1.061833591132002,0.5529591264317585,-0.27747580197772603,0.05633425661090689,0.2898991237821966,nm,0.0
16.42985248565674,38.09243874524427,63.66642789521732,-15.895522985616015,1.2203574980214795,-0.8070135906162528,0.6903319392785112,-0.47341207020849746,0.1459834773207141,0.5895644596780174,nm,0.0
16.450993537902832,23.283603022713812,63.29749221674953,-19.77519956632973,2.2944553222494113,-0.5491130870862051,0.9832300774729084,-0.6509719021309046,0.141434381266948,1.015843852087681,nm,0.0
16.45327639579773,16.913985271056884,62.879036083865785,-19.974004864564012,2.3023873463223143,0.019334896664030696,0.535798808942176,-0.578305760750988,0.11140800390570989,1.1431924350590268,nm,0.0
16.479416370391846,11.371458663498105,62.64978382079478,-15.529157604732456,1.8231697277880383,0.9711463527458399,-0.08064982160338803,-0.13910762553987632,0.019063290383642784,0.8733264344943098,nm,0.0
16.50538468360901,11.314496200353236,61.537455062955864,-9.825639314804132,1.0882890665190865,1.1015636934918238,-0.02719720355506596,-0.00914384968591628,-0.15229243735865203,0.48719056130434923,nm,0.0
16.507534742355347,11.9670147327796,60.86544729882618,-8.197121451604128,0.9790031898032238,0.9689197477173217,0.258865191234737,0.03660881021151939,-0.15249053833093873,0.22053661396522437,nm,0.0
16.514713287353516,12.313893647884369,60.36192003709834,-7.5775538475505035,0.6180471396907357,0.6804430540142321,0.29752046061156867,0.01579515522761824,-0.11423890966991986,0.06239222594052518,nm,0.0
