timestamp,roll,pitch,yaw,acc_x,acc_y,acc_z,gyro_x,gyro_y,gyro_z,markers,motor_input
13.05046010017395,22.34009979257893,66.22100997870865,-4.868032879474968,-0.7526269037223008,0.07395618219114314,0.8283294373138557,0.2511901283033484,-0.06615317756252027,-0.2768486345008553,nm,0.0
13.066949129104614,26.227913931185597,66.48568369207153,-3.1135749134293818,-0.9644512017161079,0.03601835155959581,0.3365336197809863,0.3088846852411381,0.02366320336831253,-0.3727176566490094,nm,0.0
13.069214105606079,29.777862180729244,66.68203855683709,-2.3393892423416776,-0.3447176756081583,-0.15231790259860256,0.01098648940128923,0.2775533392057019,0.018847727463795923,-0.5084157704861844,nm,0.0
13.079877853393555,31.935927437450495,66.97831728777966,-2.688405856824129,-0.19179072748076012,-0.49592465326581603,-0.40777218876455856,0.16575729832870945,0.045353903168962754,-0.4903360979473286,nm,0.0
13.102916955947876,34.00661271531361,67.51595614190998,-6.632948486526214,-1.1000073832017065,-0.41278856688110444,-0.5447809614425709,0.056163233917407164,0.01191877637734729,-0.7076675656827672,nm,0.0
13.106549263000488,34.13562416258385,67.39663062745423,-10.30010889806423,-1.297220166393643,-0.5834169552629581,-0.44166377271092366,-0.0010138481390256403,-0.03064592278034754,-0.7912976620505836,nm,0.0
13.130368709564209,36.1713902055782,67.92136690007565,-17.370470489781606,-1.479159858652394,-0.9145277498176773,-0.13410414238672846,0.1235826444557395,0.052637626013305995,-0.9804807104052101,nm,0.0
13.157341480255127,40.71751248393006,69.92920223474908,-22.32875854069844,-1.4972244856633896,-1.3831971577157074,-0.8361333087103016,0.25058008316327796,0.1485696941769567,-0.9342430616895482,nm,0.0
13.159465551376343,44.21972037152049,71.09583200347343,-23.16723770534745,-1.3004143133301826,-1.5834056986673668,-1.1631867267627556,0.29689943194924867,0.12492345013090873,-0.8729521495603043,nm,0.0
13.168665885925293,47.61726202432738,71.89393494689789,-23.123713526534992,-1.273481189862644,-1.570613718903048,-1.4383313415466208,0.2519154502402152,0.06282926463758885,-0.6910689610787459,nm,0.0
13.17948865890503,50.61376789159515,72.17191383580024,-22.481441282412288,-1.3365750883325878,-1.3550889310382022,-1.459270581082052,0.18264004408482828,-0.019488203315707192,-0.4898410198531548,nm,0.0
13.19716763496399,53.115010019135916,72.01513350596498,-21.570203575982408,-1.007503872775923,-1.3045250722442137,-0.9030696722785068,0.12135660621443355,-0.08595876623789397,-0.325705474674552,nm,0.0
13.214195013046265,43.27311684123641,71.75709400980274,-25.56694680808825,0.2409156098207897,-0.8866985241450969,1.1671558323570708,-0.3078226173639858,0.21306035844895532,0.6592556600726821,nm,0.0
13.226202726364136,35.93257248593966,72.82779023660234,-27.635405317412307,1.4809705117548164,-1.1029328008097294,1.6511936990447373,-0.3127191421471051,0.3909690339781777,1.0200854512145348,nm,0.0
13.243476867675781,15.920378969529576,74.22714253856208,-32.158737842426454,2.875228932795161,-0.7188067773254428,0.9389921587727271,-0.4267212358437691,0.3441642526905842,1.5886750613524432,nm,0.0
13.299227476119995,5.293864907089256,75.14822964874678,-27.195158602971155,2.3318457124791307,0.8923712553779227,-0.9149474980165206,-0.11679804198654671,0.18905888372291305,1.512875398637228,nm,0.0
13.303773403167725,4.917928291017483,75.4789181728688,-22.054293415947235,2.246782486438496,1.3129234483655892,-1.0655731121988934,0.0014011114963967278,0.06049918156811942,1.1410288664036774,nm,0.0
13.30612850189209,5.156518872122806,75.16154723480452,-17.76785102839602,1.6703611408231342,1.5874477085705738,-0.9329424774742872,-0.018678181253496188,-0.07293851765563399,0.8389002836298732,nm,0.0
13.309014797210693,4.830546965613287,72.84368871675461,-14.985191251922187,1.0030015695282009,1.2182433368943715,0.17520339380425884,-0.08201365524633543,-0.27053103772942205,0.12723054609066373,nm,0.0
13.324843883514404,6.809167991462673,70.77228576647596,-14.856006156917537,0.34872082203980825,0.4247581258451897,0.9186144363070545,0.0509816083452816,-0.18905766269221644,-0.2615161661588874,nm,0.0
13.343555688858032,9.920306786806549,70.71393526258116,-13.701720922455886,0.08425556309244464,0.1942658074869438,0.7540008764477308,0.18977278965887492,-0.07104767248107309,-0.3666035571128822,nm,0.0
13.348919153213501,19.47161114378682,71.48439018717212,-9.055370649099535,-1.3127721333212437,0.2260931619952514,-0.6379467233360478,0.33469333093478926,-0.006394080597655778,-0.5004457184636505,nm,0.0
13.364042282104492,29.477207109873238,70.17655071409543,-7.001162089732163,-1.0931398627680662,-0.1487496736595957,-0.44369537899823847,0.23787659036245554,-0.2576986828527975,-0.8276592014400785,nm,0.0
13.374125480651855,31.979546829751463,68.47519793389303,-9.340703010487053,-1.0223651310654296,-0.6984335419098161,-0.18764662494741663,0.11990224988329305,-0.3690740133275653,-0.9875296560450514,nm,0.0
13.4183988571167,38.58914888530466,67.27947307596818,-19.93254967701511,-1.9746604076773173,-0.9648380595449894,0.18000063178235134,0.13292313423977145,0.006075462992363009,-1.2388233815691632,nm,0.0
13.421760559082031,44.41408683252243,69.66763668138118,-26.37999423509274,-1.8222981634867272,-1.668083979586329,-0.44281521003247043,0.3411588138381195,0.1680663535405157,-1.1782560489814613,nm,0.0
13.444897651672363,52.84140958102057,72.14418912838752,-27.28121345802989,-1.8351309957283914,-1.6249420205673684,-1.4450343372544587,0.3344568567223373,0.04861827269638195,-0.8409860162189453,nm,0.0
13.461783409118652,59.65063829114575,72.49544798089477,-24.946269234485946,-1.6011962485673479,-1.2068246256638075,-1.3020608918683898,0.12120582297185313,-0.07720308137335878,-0.2871379250359398,nm,0.0
13.491681098937988,44.063414014226105,72.63172674649817,-30.517774867569372,0.03168011179498634,-0.612930602906592,0.6895720328134956,-0.530193147632953,0.36106831838090075,1.2702987524966296,nm,0.0
13.495948553085327,30.342118805762937,72.5314008944281,-36.68333335884895,2.0228460854405768,-1.6003058340743073,1.9993406397405968,-0.703738981036609,0.4376699624204932,1.4386762952298118,nm,0.0
13.528522491455078,0.757783391339984,72.26136248581224,-45.468785899933025,2.8085700218451746,-0.11455762488175074,1.578960127140433,-0.602907832994015,0.565325464737175,2.0580101244933595,nm,0.0
13.530805826187134,-7.547005461552741,72.64522549886772,-44.22001963169603,3.548010312244075,0.6646997480711836,0.6497704472761675,-0.3099579634784253,0.4019751820240651,1.8904111664490566,nm,0.0
13.534651756286621,-11.933073903274177,73.78111585561994,-39.721908712702025,2.830551953038673,1.4082615789995676,-0.7038170403460332,-0.0444072627056981,0.33153370566810686,1.7898114654628983,nm,0.0
13.558640003204346,-8.429362525542862,76.34191829323571,-25.828252154378387,1.2276736897549727,1.935793219523506,-1.379218285150624,0.24579792424000146,0.07348839873188184,0.7963759683893913,nm,0.0
13.617582559585571,-1.149605308957498,73.04000686134255,-19.144102500493716,0.8125680599646008,0.9061617763410871,0.02778048445484908,-0.03155838397573765,-0.3445794522731833,-0.3972329061559408,nm,0.0
13.619842052459717,0.9811236736059252,72.01775996913422,-20.003085031619996,0.5046362668160805,0.4214862675792814,0.5556405675083941,0.04593695744466867,-0.24626741527778773,-0.6008837966653584,nm,0.0
13.622657299041748,4.8493659852412385,71.6216292043629,-19.58205257563801,0.026340015052895883,-0.03197875016809356,0.6893703226102694,0.19394845272887165,-0.1657319224159603,-0.6789520025815522,nm,0.0
13.625452041625977,22.174611381224068,72.91588995712976,-10.087400522036601,-0.22913534877680636,-0.40562274237954954,-0.22386960215113577,0.6602107355834712,0.03969880767225008,-0.7302294024027839,nm,0.0
13.640312910079956,34.35338497952219,73.06134419869808,-1.5834139090275636,-1.5779507225016027,-0.006930483433701567,-0.4803393610421139,0.7022687017242115,-0.04871244554526712,-0.6598677710587572,nm,0.0
13.643089771270752,44.15781926863389,71.4264950786734,3.6529754002470476,-2.2296318392797976,0.2039283920093283,-0.2303855461898565,0.5955183380956951,-0.3207484006120949,-0.8642557967178272,nm,0.0
13.648600101470947,50.37949340226937,69.03884564218065,4.1951588060649625,-1.1351021952529634,-0.7343609174774087,0.9027522257511043,0.4459374641762556,-0.45216396620694016,-1.121216406625451,nm,0.0
13.67378568649292,57.698273164576165,67.88723452243755,0.718457764561361,-1.9531249885529645,-0.9754969685871983,1.0719006080085027,0.2750194241457079,0.07617542676566373,-1.0981733285117061,nm,0.0
13.677930355072021,61.9409056370517,69.97889807261735,-0.5603295197859671,-1.5823834394673486,-1.2962988414952703,0.52575354185395,0.2956144116705331,0.41978555400134054,-1.0924245770545558,nm,0.0
13.706243991851807,69.21124516111004,75.59940759942451,-2.2188710368888587,-1.7599866764738175,-1.3499227981175683,-1.6939525065904784,0.20624521317018188,0.5320538655051749,-0.855682997793234,nm,0.0
13.709349632263184,72.501847388783,77.11196980055824,-2.6116299477545017,-1.684459026071346,-1.2175065091465052,-2.160652897065557,0.15806537175603536,0.299771134491348,-0.7312789682276963,nm,0.0
13.738398551940918,73.49327725102019,75.7123824379372,-6.008968778801783,-1.4485687723125618,-1.0205537697470672,-1.6472115891725883,-0.05021186985666046,-0.27028234595062944,-0.38661634272327683,nm,0.0
13.741143941879272,72.32418533947576,73.78886440369708,-7.931272705630729,-0.701401578611007,-1.6028085083732366,-0.767298404195807,-0.11685428722854709,-0.3743997897599016,-0.1854039970260728,nm,0.0
13.757362127304077,69.6351388365717,72.3344363779049,-8.740830243235575,0.367338903129137,-2.7734194451691705,0.21054651588218712,-0.20659318425286813,-0.2645396481560763,0.328514721507239,nm,0.0
13.759898662567139,64.17179040206335,71.90477174773932,-9.37310366132016,0.04202684525075248,-1.0555490743713294,0.5530611998071815,-0.35468407238457555,-0.031058662458688917,0.9163847076865917,nm,0.0
13.774970054626465,54.855723814892094,72.07287692042871,-13.022091820461089,1.169182757496136,-1.1795736360862017,1.421636002184676,-0.5678201512365479,0.1454343328357557,1.0732139410038857,nm,0.0
13.792596340179443,25.239363446358947,72.93579092859036,-25.883673480657126,2.316350104290078,-0.6456147217254211,1.183496176264905,-0.798040298449366,0.4385799002590253,1.7183827932813047,nm,0.0
13.796034812927246,13.482720415353812,73.12814678326518,-29.142611144770566,3.2256022009630665,-0.15262055303143424,0.8769832685149949,-0.5993093354294232,0.3469180392035329,1.66006447607557,nm,0.0
13.804912328720093,5.886107975052868,72.83264118901306,-28.280730698997093,2.940905579021053,0.7012169777653452,-0.21966266285010805,-0.4276644399621887,0.15574329279180182,1.6860385156501778,nm,0.0
13.835837602615356,5.988075211274493,72.99614906040675,-15.871455723561679,1.9641649088337751,1.557486541367767,-1.0218384361359678,0.14117451933694986,-0.018096103071639516,1.0627346774145452,nm,0.0
13.838148593902588,10.033379155438745,72.54539221278777,-8.608953201660276,1.1483397137817164,1.7585838039473447,-0.7355950026051196,0.20775908312284264,-0.14886593640422383,0.7035663991502745,nm,0.0
13.841937780380249,13.063989765589259,71.1910611321238,-4.201916745052752,0.9516211697626782,1.5072484903618202,-0.23786017451550726,0.15088018190020877,-0.30100379301118524,0.3161907121881882,nm,0.0
13.866539478302002,15.150514877811666,68.95283087434188,-3.9024863279416864,0.30768353159386097,0.715251068933483,0.615917286710233,0.025167506962895242,-0.17890391996910984,-0.29742958343897924,nm,0.0
13.86872410774231,15.874649413141261,68.49352842194703,-5.624545614507228,0.0025498687899341336,0.265112133045706,0.642371573054807,0.03955329990509329,-0.10536737320437356,-0.4900742196614019,nm,0.0
13.909665822982788,29.548760828737564,69.5663065106609,-1.7303011244207098,-1.4406305566771562,0.1000201574066529,-0.645896923937713,0.5163852563182051,0.04874577309975481,-0.6633038639980647,nm,0.0
13.912776947021484,36.850436333786625,68.36294175964368,1.5453592870213408,-1.8357822324996083,-0.029096063508609694,-0.2862050682563238,0.5169895551443587,-0.24774525035210715,-0.7376092388998879,nm,0.0
13.928616285324097,42.79358576294312,65.94069442089969,2.6627212894051127,-1.381682788172306,-0.6065638549607167,0.4960007135741207,0.47298457804327493,-0.4730547916907842,-0.9086357957278254,nm,0.0
13.93054986000061,47.99636620615891,64.0136305206887,2.7305709916033543,-1.7242395790795524,-0.6394764320946861,1.249780264317749,0.45187324472581286,-0.36880295547057157,-0.9716151622342754,nm,0.0
13.965015411376953,56.03307582196931,65.25998563038986,0.33651102621795603,-2.0278021577769754,-0.7505798764695956,0.9870319740731,0.28446335521769034,0.3088588457771501,-1.0416512842757932,nm,0.0
13.967807531356812,58.87327109131967,68.07456866233034,-2.2953928175563147,-1.7185751403995035,-1.1694598488839405,-0.03590240344047788,0.2258425305656719,0.5599621298882915,-1.1026225620388377,nm,0.0
13.970150470733643,62.23193840526838,71.47256990529668,-4.309778295002255,-1.3927970418585691,-1.6033399246130378,-0.8368977336723679,0.2616706089773555,0.6679556106915747,-1.081309487501679,nm,0.0
13.986427783966064,65.32686346259571,74.35300879345263,-5.765699537556106,-1.6782532937582868,-1.3751397780798404,-1.6581628433452564,0.22219020060807565,0.5618441675308338,-0.9239228630935006,nm,0.0
13.988590478897095,68.0482787025032,75.85832853179708,-7.011043380635954,-1.7291327931151335,-1.3243884559620205,-2.1594982951689,0.16297057839033136,0.2873038849724428,-0.8155340430977922,nm,0.0
14.001018524169922,71.39907281903366,74.61163266910354,-8.635924000433022,-0.6790513960219723,-2.3999845430486135,-1.3101760061909271,-0.006751800352137065,-0.24187272022483883,-0.3742000433365496,nm,0.0
14.017932176589966,69.36469194748413,73.0517416427123,-9.664411959094151,-0.5984774487762328,-1.761859139886222,-0.851522224402751,-0.17093142918091492,-0.28957691379708284,0.16291317594238466,nm,0.0
14.029972314834595,57.98549919831754,71.37930854039834,-14.505538455259979,1.0050791990176837,-1.8065956886193073,1.3742263254456057,-0.4904174866622566,0.020940402929188872,0.7456316621368768,nm,0.0
