timestamp,roll,pitch,yaw,acc_x,acc_y,acc_z,gyro_x,gyro_y,gyro_z,markers,motor_input
1.5386559963226318,3.871819823444395,18.78021438680064,115.67166161482392,1.181114924563494,0.42167221132559896,0.8643014035980093,-0.972713048050928,1.5745804329248194,-0.6384723015843238,nm,0.0
1.547342300415039,13.669270428570513,19.057547246536572,115.30446348132284,1.9047132195976457,0.5101600747316702,1.075500124406681,-0.8392316810157675,1.6615252706447134,-0.6821231477255334,nm,0.0
1.5708143711090088,31.856065692006084,19.7418492111518,113.37430342506094,3.2571658973100335,0.5139364159756582,0.5577886786290673,-0.7591812787465874,1.4650905358254265,-0.7570418579090403,nm,0.0
1.5730156898498535,39.600577233615184,20.452669353176017,112.42442649419125,3.3320594854629375,0.3083883162689786,-0.06552446706870228,-0.693066820096249,1.291988234231495,-0.7224245229146874,nm,0.0
1.6022255420684814,49.598165294147314,21.320884133719197,112.32640985290696,3.4114402328322857,0.13422167441207417,-1.0914406991153072,-0.322436351092736,0.6503078363750112,-0.23211374700265475,nm,0.0
1.60438871383667,51.50490326150581,20.947968549000908,113.60800204367872,2.9980773908668383,-0.16102379159210195,-1.450960881383857,-0.06845601323581524,0.3606742778772177,0.10500652605242308,nm,0.0
1.6101391315460205,51.39222722961122,19.85784270998067,115.65978464549346,2.7539979870025206,0.09953516838392211,-1.0183595642648087,0.2088076168282361,0.07566183419673406,0.40482502992461283,nm,0.0
1.6319255828857422,45.408843229123185,17.56273868206253,121.57983449599595,1.7170052806147804,0.5816315992813421,0.10721731916940155,0.5227381004498172,-0.5120707516545784,0.8545337721830887,nm,0.0
1.6562223434448242,32.74195257027451,18.17209983318049,126.9930395752535,-0.041398942248159216,1.0316037477574012,1.4597490287063626,0.6913384804901573,-1.208803412714637,0.9074455140720159,nm,0.0
1.658236026763916,23.72796071837069,19.62057561684216,128.66637422744174,-1.3442930253914347,1.4897881875682222,2.5782390563895596,0.8267061035642284,-1.5167457088832847,0.8540699832839275,nm,0.0
1.6766221523284912,1.4030051967022459,23.142128053746283,129.47512304376582,-4.092774275043827,0.8060858942847118,1.771423445075355,1.1068944415712019,-1.8541522467586298,0.8309677827939798,nm,0.0
1.6926450729370117,-10.030108774114678,24.03339551045547,129.20913241791945,-4.468593072986898,-0.307578954077592,0.5018988193167833,1.201692280713562,-1.721717073419521,0.8166743082854422,nm,0.0
1.7329227924346924,-30.217662143937904,22.448740986365895,129.16125090568906,-3.1491725019478305,-1.1309378750492698,-1.2320870420387704,1.266102440727741,-1.1683508047412177,0.7230316288376429,nm,0.0
1.735626459121704,-41.34617444917227,20.05191923876954,129.2742284239787,-1.4072223242400612,-1.9199213747866624,-1.7528481125037458,0.7199174627637414,-0.4710999034414683,0.32072951129469646,nm,0.0
1.737839937210083,-43.66529703922162,18.87878471788947,129.03926683371213,-0.9350869786228404,-1.9147490526179298,-1.828580104488714,0.4625570229577645,-0.17719273274180397,0.10065729830203021,nm,0.0
1.7538607120513916,-44.03702275597721,18.118551466952113,127.90688246626323,-0.920342322876869,-1.9529872869359386,-1.6403325291832955,0.16712917079999334,0.05321061918878789,-0.20135103937227017,nm,0.0
1.757673978805542,-43.01089989617831,17.69255199606229,125.97218601702235,-0.8925582708192804,-1.715085525161586,-1.4182418365850953,-0.04480952407668377,0.22116615936285625,-0.44885843267209463,nm,0.0
1.7862029075622559,-35.567028477213995,17.3474258177295,121.39425736182855,-0.41689794898535837,-0.2696727672578466,-0.8521892976727187,-0.5052320389324149,0.8301106346732696,-0.7376784102406879,nm,0.0
1.7997722625732422,-17.99583496714296,18.16504006607434,118.07131444139067,-0.05874497847864588,0.06717632598085906,0.40567294523351694,-0.9838435175757211,1.617256942358632,-0.7783518767906423,nm,0.0
1.8018722534179688,-6.583106543179442,19.057213683604985,117.36877617530797,0.1526336389694572,0.06623886700582235,1.7870841161046291,-1.1482704538640072,1.8513208457259038,-0.7606736738293808,nm,0.0
1.819155216217041,15.947721645745764,20.204090351736582,116.57713128454782,2.533018609177459,0.6377574034109297,1.7952154204089823,-1.0016404601501876,1.889329888898262,-0.7797761749369125,nm,0.0
1.8279550075531006,27.22651660001797,20.51933677847129,116.19159897461013,3.1364014302664933,0.9707881845178036,1.6511648493974764,-0.988649299009479,1.8777901834555808,-0.8319835948613891,nm,0.0
1.8383817672729492,37.28619356631151,21.217500784050866,116.02409571474317,3.127272241000553,0.49731253964029515,0.38326405483339343,-0.9488224644634884,1.6349443482210713,-0.7522585427021874,nm,0.0
1.8460135459899902,45.50676589376565,21.96850590298332,116.1929571471168,3.3750747163362513,0.7373098950586188,-0.033479765873504784,-0.806403712952269,1.3123090243622488,-0.5975067324089123,nm,0.0
1.8580524921417236,51.25832396033812,22.532595460208125,117.02454354843279,3.238232627966861,0.6372524984306633,-0.9449121408651545,-0.5779386706346562,0.9051532175709834,-0.31687526333128696,nm,0.0
1.8655750751495361,54.788339091218944,22.57050523649591,118.38888277663565,2.8655730774581354,0.46135488158484644,-1.3685109582921289,-0.30921551901875644,0.5774651513298394,-0.012157537931870974,nm,0.0
1.8915774822235107,54.120478133726344,20.685233982707377,122.19480473202889,2.0490114164209365,0.3495332462091127,-1.4650306606063261,0.35407633201703,-0.11537516855578381,0.5045573676342094,nm,0.0
1.8938539028167725,51.284348801807326,19.44400586973596,124.52020764934669,1.5872669183799129,0.5104882938292249,-0.6146220888628772,0.501875045301376,-0.3048399782630988,0.6465189923186441,nm,0.0
1.9113104343414307,46.51754468719223,18.743518711028088,126.9800668491768,1.0453106423078853,0.923940804766852,0.5647620764032647,0.6422730074908494,-0.6453420822056294,0.7909817745771232,nm,0.0
1.9213874340057373,39.4467691427501,18.98567473348078,129.37597772066513,0.24373656951198433,1.3219152825175835,1.4197538794798081,0.792464546148526,-1.0775073619194393,0.92399298348468,nm,0.0
1.931333065032959,30.342450924515855,20.219221472187687,131.65027202686892,-1.1789638936905051,1.7666933822539344,2.624283140409117,0.9348433866021982,-1.4571210437994662,1.0056134943655979,nm,0.0
1.9897403717041016,-28.117481442381678,22.902506077518726,130.82125653928628,-2.8184685531572384,-0.9534210072439804,-1.5522075096076493,1.564023546804226,-1.2149867917837118,0.5504841974954434,nm,0.0
1.9937717914581299,-35.44638760003955,20.547922268571597,129.68998393815215,-2.416070051284106,-1.9274180310466482,-1.3371434634731205,1.2448875316128527,-0.7225585874629301,0.3167889043719473,nm,0.0
1.9969382286071777,-41.073060972913936,17.830159050600834,129.2842599393536,-1.303866689541616,-2.0477245034754294,-1.709424865303004,1.1005903417673801,-0.4617244188555073,0.2903134441525955,nm,0.0
2.0011425018310547,-44.50159695143592,15.708190175115398,129.1142894166571,-0.40495730356242926,-1.673038034069595,-1.7532867408384913,0.7486719742101149,-0.22685519050438724,0.15577371360615086,nm,0.0
2.0220534801483154,-44.34240780410575,15.445358887014018,126.60382137822302,-0.38553252270387534,-1.9916981376489233,-1.4502563352922568,-0.14037500106507914,0.06609714128247324,-0.3764810971778394,nm,0.0
2.05574369430542,-32.14011948140715,17.6107590860757,120.38356718402363,-0.2850889122468766,0.06753207481585205,-0.8133904221497074,-0.6532848164275099,0.8621803801282326,-0.7447696468911518,nm,0.0
2.0579447746276855,-23.8596907175484,17.96174012205575,118.49411581892745,-0.019381335931195,0.48531246939466766,-0.37615686467300774,-0.8268311527996219,1.3549888913982224,-0.8342539306733922,nm,0.0
2.0748729705810547,-12.931871851980866,18.238096767823286,117.02044131082229,-0.7298487136261365,0.35845829544692803,1.4170117329151617,-1.0036942126605146,1.8301236544207309,-0.9008390277222408,nm,0.0
2.079714775085449,-2.4960321465079853,18.56644706984668,115.8651244997873,0.8751295302678552,0.33938553583449416,1.5876719780618946,-0.9278761126567155,1.760123746733872,-0.8167662494454797,nm,0.0
2.1022133827209473,19.36581598951138,18.59847754958681,114.47672786967624,2.8152653518542503,0.5926960796078122,2.109961627613511,-0.8829536680569919,1.961558598161412,-0.8185819650599835,nm,0.0
2.105863332748413,29.522922274094814,18.970910634944822,114.10103120330115,3.1964328223367677,0.5274529970664158,1.1351746504330793,-0.85402435194429,1.731808561186788,-0.7310253886628152,nm,0.0
2.135948657989502,37.9958595280484,19.73639111640181,114.13128441865292,3.256429939841764,0.5043526243575749,0.1722314417449084,-0.7907047492025572,1.4037158942060544,-0.582656175644928,nm,0.0
2.138277292251587,48.53007438913286,20.960614942506755,115.54829979829458,2.725982297859269,0.7188740668816987,-1.0959356537481557,-0.3986164493481384,0.6464330746211647,-0.1460656372761547,nm,0.0
2.155097723007202,49.152919802529645,20.135972017872536,118.52522467355024,2.163905015471888,0.5659849736542312,-1.2263076704511653,0.1989218285331478,-0.060054023674436914,0.32809634503180907,nm,0.0
2.159884452819824,46.36918719568967,19.10939604041347,120.26469233588261,1.888533601786965,0.6937032907348819,-0.376273965996915,0.4394629001721102,-0.351104868705202,0.4824544931862012,nm,0.0
2.19120454788208,35.25746554156543,18.42061177310397,124.16715629154433,0.6769718350968267,0.6793350888623575,1.343391016598505,0.670427370476144,-1.0158894442246,0.7471518280204837,nm,0.0
2.193390130996704,26.81874623156586,19.26077752232195,125.9703669630889,-0.5233538818456751,1.1601190815798281,2.8333949195206305,0.7887595780343535,-1.3965899896743004,0.8459447471175722,nm,0.0
2.2758400440216064,-41.33204596235717,18.700860179407485,127.6699989313065,-1.5747859134221946,-2.057847953291368,-1.8491608258207632,0.98971186638141,-0.3974225192422409,0.27363710717704415,nm,0.0
2.2802369594573975,-44.46286130182083,15.93108578726919,127.47208205502622,-0.3995424050774812,-1.6575150979491793,-2.0656217656773275,0.8088198179518992,-0.12235431714380969,0.14108832747981112,nm,0.0
2.3003242015838623,-43.22543714136859,13.449935106763244,125.18029613372657,-0.7648788849564714,-1.932044869109602,-1.2488146182105075,-0.07186187915910269,0.3241797679975668,-0.3783567811831618,nm,0.0
2.3372695446014404,-30.879372100279063,15.121536943482345,120.3065985752951,-0.73959614896467,0.04806839431651475,-0.40191060132605544,-0.683591570337414,0.8470947456566402,-0.5287905105555885,nm,0.0
2.339589834213257,-13.582388027700004,15.71753055442989,118.7759979524374,-0.2728200950706051,0.44179964685413875,0.9297289438866347,-0.9344420166146608,1.7124160847099201,-0.5717187047702167,nm,0.0
2.3553686141967773,8.423750439593778,15.044905134965488,117.66443353645727,2.009338773731486,0.011910996361741458,1.5661694646020434,-0.8995699431089641,1.9117349919557323,-0.6100393366220096,nm,0.0
2.3655142784118652,19.399486246044386,14.56091911900987,116.68545048982632,2.8734457688565485,0.08851120834870617,1.722824072184586,-0.8723510335131974,1.9465365874153475,-0.68956650925458,nm,0.0
2.369389772415161,29.5583001190531,14.681882502546687,115.65092477196448,3.3948030028089877,0.35227459694493773,1.3398005073304369,-0.8817349155794018,1.765626015330387,-0.6851719244445558,nm,0.0
2.378831386566162,38.096071052000624,15.731274359240592,115.23424203533489,3.4028068941014817,0.2584149876639775,0.2752260372502075,-0.8939283129620119,1.406800867098423,-0.5292386341140007,nm,0.0
2.392042636871338,44.52991709936343,17.064449037931812,115.65329221652483,3.3797621164753413,0.48288983698893756,-0.3469713710904051,-0.7699892159075632,1.0064983679108135,-0.30558332870650506,nm,0.0
2.4302642345428467,49.26237030258891,17.302683423113077,120.64465884154909,2.0638815849892875,0.7812004670007674,-1.219464755607068,0.19506961422149188,-0.06258848449981036,0.42986111004301797,nm,0.0
2.432468891143799,46.52550534974423,16.33002079857359,122.72387612472396,1.7398509503413744,0.6951786296126677,-0.6966205502667402,0.4427305980484945,-0.33883174899743673,0.5614330966078389,nm,0.0
2.450664758682251,35.516797830677184,16.75300844556973,126.98018664253941,0.017562865322415754,1.573810647643961,2.3724437651063086,0.6239405541427339,-1.1550685413134572,0.7962697074817463,nm,0.0
2.524125576019287,1.5915617182152941,23.353911006795787,130.09810391718543,-4.242725647830763,0.6379606093664301,2.102092717043362,1.1656403873597792,-1.8367996997048783,0.8390671028902417,nm,0.0
2.526489734649658,-10.715245476219492,24.019101668734063,129.71796172787282,-4.513469873769404,-0.2852045659679566,0.4548110935777317,1.3555591702448044,-1.8018771146894044,0.863852857560551,nm,0.0
2.5285563468933105,-21.947293036520385,23.61603634281692,129.58204859684247,-3.7010111965003816,-0.9026195160161682,-0.8327897458732938,1.3825455596451857,-1.5184157071697815,0.8476074519211231,nm,0.0
2.5305798053741455,-30.652984804669796,22.255058463663854,130.11946626788094,-2.887126325793826,-1.0861782806558538,-1.4306287466997558,1.2437079535266922,-1.043598143810471,0.7612982086113602,nm,0.0
2.532461166381836,-36.849125396791244,20.792646566193255,130.9308865533684,-2.0330643154909214,-1.49406305045894,-1.74783509407372,0.9769477013509229,-0.6730500134837025,0.6068196569631498,nm,0.0
