timestamp,roll,pitch,yaw,acc_x,acc_y,acc_z,gyro_x,gyro_y,gyro_z,markers,motor_input
30.045971870422363,31.304906929363977,-21.160284771305054,-64.22384178382673,-0.003828733935335342,0.07205826912364562,0.08949583725584484,-0.05051491108833571,0.01195447120764754,-0.007340631851033907,nm,0.0
30.048222064971924,31.071557724086066,-21.354379588868074,-64.23213269723698,0.006573147778007419,0.057757034557828775,0.12572670915964174,-0.05572043826199361,0.009735245141130076,-0.0008718385458569892,nm,0.0
30.05542492866516,30.846969673651927,-21.560148900634694,-64.17084748447817,0.02470564303830182,0.012936441874514886,0.16183990537087212,-0.057118321354725034,0.007130245442734715,0.010339561793152577,nm,0.0
30.060476303100586,30.64909848517563,-21.777914739169002,-64.04592231522214,0.04006320877229628,-0.03101446436297919,0.19140759258489895,-0.05711308180457007,0.0014278477015707363,0.024838867396617746,nm,0.0
30.08701491355896,30.406082908700327,-22.283938855092515,-63.62854381527062,0.03345914002479178,-0.041022168749415576,0.19857291368666902,-0.05727072549083299,-0.021450118799022175,0.04434299321965251,nm,0.0
30.092463731765747,30.365760472226313,-22.562579984951707,-63.42593867901581,0.015108486479207775,-0.0023975319548833543,0.17056326344839975,-0.05497119718087462,-0.030994147138591253,0.040736665570266804,nm,0.0
30.10596466064453,30.38412435525643,-22.80393049130783,-63.32773720868356,0.004278484721001778,0.041674980316843094,0.08400621346062453,-0.043356101469841174,-0.037511011057437156,0.0318780623720299,nm,0.0
30.134181261062622,30.638528097996208,-22.983560444761324,-63.335776106525344,-0.07376362052734498,0.18483326578860154,0.008275171230597591,0.0,0.0,0.0,nm,0.0
30.136536359786987,30.820339800187874,-22.64130171427375,-63.455870819343524,-0.08207516090454688,0.20117897671468263,-0.03283692466121304,0.0,0.0,0.0,nm,0.0
30.15493607521057,31.189586102996365,-21.721025240919484,-63.85447212480146,-0.05896362550163382,0.12011804935723466,-0.05330626251366367,0.06805960644588527,-0.008597749030533699,-0.016536724321946708,nm,0.0
30.15735173225403,31.366256253276934,-21.28661076869787,-64.03983058948818,-0.010560784095017357,0.07016524738201106,-0.06373788829552275,0.0732851681612468,-0.005178926068590032,-0.011716059463509556,nm,0.0
30.166751861572266,31.539366336071044,-20.94179492827789,-64.1767222494745,0.01469844262588102,0.03192865308456694,-0.05589419820242113,0.06649799008722139,-0.007439913488823526,-0.005217805532456156,nm,0.0
30.18733310699463,31.878865448541756,-20.52271274755333,-64.36113027770126,0.03428454703026219,0.03271838563461074,-0.08286023736134461,0.0,0.0,0.0,nm,0.0
30.205286502838135,32.03555279845414,-20.361757007155592,-64.44430725985166,0.011809620132334919,0.06728331582592968,-0.088276846289646,0.0,0.0,0.0,nm,0.0
30.272019624710083,32.14205816380237,-20.296970458484623,-64.54824692824343,-0.009199320080167845,0.10636650548275597,-0.10045599842514727,0.0,0.0,0.0,nm,0.0
30.2742121219635,32.26300526202216,-19.98489806619366,-64.81828806062528,-0.05190567742330176,0.10094325525835608,-0.11160205563393828,0.0,0.0,0.0,nm,0.0
30.277004718780518,32.1335586414651,-19.69006722252618,-65.00827009515156,-0.015397991236102155,-0.0020709914537144145,-0.07062285683541542,0.0,0.0,0.0,nm,0.0
30.280217170715332,31.69028962065503,-20.08315038727508,-65.08527218044672,0.07865050338907593,-0.1091784124060559,0.004618830148226099,0.0,0.0,0.0,nm,0.0
30.282225370407104,31.550325083917215,-20.374314815854245,-65.09926577044213,0.06518330442837669,-0.10025467564072678,0.014583405811792788,0.0,0.0,0.0,nm,0.0
30.30801224708557,31.342575278306168,-20.922774197284276,-65.20259206756151,-0.004077850191310147,-0.028421874447699634,0.03667241718087945,-0.05116782375557515,-0.01669052600794909,-0.02006079216289105,nm,0.0
30.325822114944458,31.1613451066931,-21.20268379886657,-65.4348895800125,-0.051167685776844246,0.052067880592118254,0.06977467465918957,-0.038055763964873576,-0.015508543988444156,-0.029467555291560973,nm,0.0
30.33358597755432,31.062168821990024,-21.241726214434085,-65.57423880212625,-0.049008818274335,0.06422653235247172,0.07030740872491048,0.0,0.0,0.0,nm,0.0
30.362149953842163,30.840033153015018,-21.29068025303796,-65.74685117549195,-0.02180105609372418,0.037042925632949926,0.10964612914251907,0.0,0.0,0.0,nm,0.0
30.380350828170776,30.625896566635394,-21.349194802854026,-65.74360354342501,0.020953295234384238,0.016023200270874186,0.1202003876045727,0.0,0.0,0.0,nm,0.0
30.382534503936768,30.574574453924694,-21.395488365963264,-65.76415403203656,0.0279171210487631,0.01970597712100409,0.12319618401176495,0.0,0.0,0.0,nm,0.0
30.389057874679565,30.577347834982685,-21.446778119765575,-65.79058727789402,0.012989915131732501,0.049272792963951706,0.10083696419870872,0.0,0.0,0.0,nm,0.0
30.405893325805664,30.66476222127984,-21.4418672842969,-65.85454417755815,0.0013413852227725717,0.04079987763062719,0.09339944114428612,0.0,0.0,0.0,nm,0.0
30.428570985794067,30.89707179437819,-21.309453997374213,-65.96774407074474,-0.07280024780434573,0.056429754055513426,0.046372987093358284,0.0,0.0,0.0,nm,0.0
30.433268547058105,30.996203272261084,-21.1965061734351,-65.98018890010195,-0.06998347347000596,0.055434900814746293,0.04315392192886977,0.0,0.0,0.0,nm,0.0
30.435725688934326,31.045286947904238,-21.082529696977787,-65.97694304447003,-0.0908635012146216,0.02027625180479713,0.03425460144299492,0.0,0.0,0.0,nm,0.0
30.449553966522217,31.059378233384738,-21.00128818696381,-65.93842863641785,-0.07362417972423248,-0.025758602018396783,0.016925509585164457,0.0,0.0,0.0,nm,0.0
30.472862720489502,31.025967862106906,-20.92106754693459,-65.71480735713885,-0.06322316294506226,-0.06310722910227214,0.03781771067231444,0.0,0.0,0.0,nm,0.0
30.47614884376526,30.972063433148612,-20.890174419436907,-65.65015414689772,-0.06702363946348945,-0.06381510314605755,0.07203863939716777,0.0,0.0,0.0,nm,0.0
30.495336055755615,30.8118813533657,-20.89012626321115,-65.82404675546782,-0.004660007456523188,-0.0785698799426471,0.0033740776829105463,0.0,0.0,0.0,nm,0.0
30.50420880317688,30.749931818934087,-20.890766772697198,-65.97711332540813,-0.011246024905234549,-0.06886767215344589,0.03128098189707512,0.0,0.0,0.0,nm,0.0
30.52439308166504,30.63675950966439,-20.866986180233702,-66.24486969095211,0.022650822883887603,-0.05146540962913528,0.021434813547545957,0.0,0.0,0.0,nm,0.0
30.527668714523315,30.601432217740875,-20.866597960715115,-66.36212199014143,0.024650461289685743,-0.056321155718354415,0.023435645529797232,0.0,0.0,0.0,nm,0.0
30.55352807044983,30.57048904799999,-20.893966357729774,-66.53302682016313,0.03302634359703516,-0.0760752797618024,0.031659728787492,0.0,0.0,0.0,nm,0.0
30.571027994155884,30.570355520197847,-20.93556009221038,-66.61071502489209,0.03971899077800935,-0.09183228637359321,0.03827800824786003,0.0,0.0,0.0,nm,0.0
30.57329797744751,30.57217795189054,-21.008295767048654,-66.73375036801268,0.04806265908827569,-0.11178144875811026,0.0467273533087441,0.0,0.0,0.0,nm,0.0
30.579029083251953,30.571199394502177,-21.087069233982888,-66.8837535231159,0.05290521859065659,-0.12393715618303391,0.05196336333976879,0.0,0.0,0.0,nm,0.0
30.60127091407776,30.550248387216666,-21.260950600016045,-67.25622595076024,0.06903391367375351,-0.12469142293340768,0.027025030151218796,0.0,0.0,0.0,nm,0.0
30.603420734405518,30.526094947581,-21.338951015081943,-67.45683074515267,0.06148213954937598,-0.11490982011880606,0.027491520604020988,0.0,0.0,0.0,nm,0.0
30.63296341896057,30.50176051205919,-21.411382008222418,-67.82541748768192,0.06033108471700755,-0.07881792839307196,-0.010078493945244574,0.0,0.0,0.0,nm,0.0
30.64250087738037,30.50094551648413,-21.368466581009617,-67.97873593236204,0.047152694866951166,-0.0531977809571633,-0.01711037018014404,0.0,0.0,0.0,nm,0.0
30.646226406097412,30.53035701428837,-21.284145915076532,-68.15973865199439,0.04443659155408222,-0.007653019124104555,-0.060670315491761787,0.0,0.0,0.0,nm,0.0
30.671983003616333,30.68160414226162,-21.032958423133245,-68.5564026423777,0.05340208263917262,0.0170360664588764,-0.09959141592398493,0.0,0.0,0.0,nm,0.0
30.674265384674072,30.777947606101787,-20.863798468592815,-68.71113055228857,0.03395846602419737,0.04410802568827881,-0.0965924264830741,0.0,0.0,0.0,nm,0.0
30.692115783691406,30.818455464729276,-20.740399697629623,-68.82817585464734,0.025853168672799933,0.07065274941434012,-0.11036384387380055,0.0,0.0,0.0,nm,0.0
30.71173334121704,30.869559485174037,-20.57867971354887,-68.95640162145973,-0.013349060710255172,0.09372255834188063,-0.136109917217911,0.0,0.0,0.0,nm,0.0
30.715768337249756,30.872372094138658,-20.53881808210382,-68.94851866181784,-0.024883783213463774,0.10376179210658575,-0.13524223911142727,0.0,0.0,0.0,nm,0.0
30.733531713485718,30.84844270987789,-20.419777325917888,-68.85492403893014,-0.043738326390231425,0.09618583813877238,-0.08830790241111931,0.0,0.0,0.0,nm,0.0
30.736172676086426,30.822256883642375,-20.34199348309931,-68.8035771468924,-0.03798615835416094,0.09795230106102623,-0.038950431572628556,0.0,0.0,0.0,nm,0.0
30.74569582939148,30.78777731916425,-20.29875519966428,-68.76605367523423,-0.05251594390791382,0.07260784852750382,-0.046460158068315154,0.0,0.0,0.0,nm,0.0
30.778651237487793,30.72562116539951,-20.338305012791636,-68.74104283704511,-0.025796101332485975,0.06630387714918813,-0.02637150348382302,0.0,0.0,0.0,nm,0.0
30.780924320220947,30.704418556800263,-20.402005140417387,-68.74000911543041,-0.02456544243160946,0.06313733596577331,-0.025197934059144063,0.0,0.0,0.0,nm,0.0
30.78450846672058,30.697102877158493,-20.47586020104703,-68.73669951467178,-0.03731705432702419,0.059785413412307274,-0.002312796786738105,0.0,0.0,0.0,nm,0.0
30.80608296394348,30.695247583868426,-20.55941420619894,-68.72885544986141,-0.03639439272995054,0.04340415546329661,0.01256483047637357,0.0,0.0,0.0,nm,0.0
30.808988571166992,30.6925199993602,-20.65679389211374,-68.71041301917263,0.0,0.0,0.0,0.0,0.0,0.0,nm,0.0
30.832285404205322,30.67781369852343,-20.965226001475802,-68.77339077967734,0.0036758199921418234,-0.07273128857502845,0.01193526313157272,0.0,0.0,0.0,nm,0.0
30.83474826812744,30.660436246505,-21.21323485577562,-68.76271726986128,-0.0071014825249307275,-0.10722349741855906,0.05696997433154284,0.0,0.0,0.0,nm,0.0
30.863317012786865,30.629347812506072,-21.721061429743145,-68.7854290718958,-0.015335917224845142,-0.1499488636538892,0.11247058959620578,-0.04103324316274189,-0.028493351518279197,-0.005284740459623638,nm,0.0
30.86554265022278,30.611407726424385,-21.94421000944014,-68.84654486620717,-0.007023139934133374,-0.14192644765801746,0.15756685031696951,-0.04575872580153008,-0.025551515133613624,-0.009961158558860681,nm,0.0
30.86967897415161,30.55330309203126,-22.15918895551213,-68.90716324532511,-0.023402034825050055,-0.13507442752183219,0.17674950114767896,-0.046942932194057554,-0.0179891412280004,-0.01421231163225084,nm,0.0
30.895071744918823,30.392843223899046,-22.50889833809909,-69.06136505460107,-0.011482228063939875,-0.1277688610034101,0.15180978340351986,0.0,0.0,0.0,nm,0.0
30.897403240203857,30.306035142518454,-22.609459523578277,-69.12538914793662,-0.005584702530199803,-0.1240025679644135,0.13898268467818112,0.0,0.0,0.0,nm,0.0
30.92432737350464,30.17895038117689,-22.636644454639388,-69.22476568807247,0.009278668673641298,-0.1083708270553551,0.09908088357734987,0.0,0.0,0.0,nm,0.0
30.928462982177734,30.160914695116066,-22.578014592285975,-69.30970078214453,0.0020236435754550585,-0.10065991131429783,0.1022074106164222,0.0,0.0,0.0,nm,0.0
30.95659899711609,30.17401776925882,-22.42672093741264,-69.59295815204204,0.014615938190246673,-0.07604600456537194,0.0553686859682374,0.0,0.0,0.0,nm,0.0
30.95883345603943,30.19816870658923,-22.388189871125455,-69.75022738651047,0.025334087422222578,-0.06867188809549817,0.030151536175897175,0.0,0.0,0.0,nm,0.0
30.98637294769287,30.24267240375049,-22.27604585426523,-69.9980935810265,0.0,0.0,0.0,0.0,0.0,0.0,nm,0.0
30.988595724105835,30.271708243365968,-22.18953981632693,-70.07404873694132,0.0,0.0,0.0,0.0,0.0,0.0,nm,0.0
31.005969047546387,30.29821013802397,-22.07988669309681,-70.14474506245818,-0.014294845837002643,0.03958563919419912,-0.01707279093825867,0.0,0.0,0.0,nm,0.0
31.00821352005005,30.328379545132258,-21.932834835083277,-70.19144977546199,-0.005087009353741575,0.05188508723451069,-0.04393097636416207,0.0,0.0,0.0,nm,0.0
31.018835067749023,30.361078459391532,-21.75982493428038,-70.24615044824489,-0.005014331325751121,0.05838672718144439,-0.0502081129284669,0.0,0.0,0.0,nm,0.0
31.02317190170288,30.39131403853799,-21.597855791241713,-70.30418841915022,0.0008057267277617819,0.04844715036769203,-0.04928324966193025,0.0,0.0,0.0,nm,0.0
