timestamp,roll,pitch,yaw,acc_x,acc_y,acc_z,gyro_x,gyro_y,gyro_z,markers,motor_input
17.03937339782715,8.905598526094085,65.25035934433834,-28.502864858383656,2.0201419196731316,0.12336039501296622,1.0671287573014183,-0.7856716724164015,0.04699673107897866,1.3303293272121206,nm,0.0
17.06067156791687,-1.534357087157366,65.47726678146341,-27.279836587995387,1.6444799712916047,1.2056914769454363,-0.2662731415176866,-0.2663424640666382,0.2636156319324132,1.0475114434473338,nm,0.0
17.079352378845215,-3.1265062286477465,65.28854134461253,-22.810332118332138,1.8542329004534475,1.1573741438196326,-0.9709049475170265,-0.016871719061962113,-0.07792847485985709,0.4625711013461385,nm,0.0
17.081780195236206,-1.8362602717978211,64.85959755817522,-20.58233102472882,1.2535711274672339,0.9732286555839282,-0.918802679950423,0.06398698131463626,-0.13053826843649852,0.21477651270946915,nm,0.0
17.09850811958313,0.8220603627755172,63.90651991256494,-18.477932280085085,0.9672418978464622,0.7181436326929839,-0.45280180879696463,0.14793686790767194,-0.2672707233056661,-0.06752141603462232,nm,0.0
17.113720417022705,8.134879188378232,61.282114753120624,-14.720153769334575,0.504643144269068,0.12278777762081017,0.6533090769572043,0.27328192848272304,-0.33161062408710995,-0.31855177724125927,nm,0.0
17.130661249160767,12.044068121585576,60.500065181680895,-12.94162814770153,-0.055741328889536944,0.009501314256436699,0.9118881471876601,0.3275373259030298,-0.2521815383691299,-0.3519889911127652,nm,0.0
17.133108854293823,15.835385018132861,60.07692763678277,-11.219264927195225,-0.12884729157645106,-0.23217471634148334,0.5105925659656911,0.3452975227078784,-0.1701543293365649,-0.33956061693732154,nm,0.0
17.14265203475952,20.03044130222953,60.52575643739311,-8.96664178405061,-0.028252149997953887,-0.4114133904721533,-0.10992599283872037,0.42020999508707835,0.007660630539140972,-0.3000322052837423,nm,0.0
17.177239894866943,29.245356947098443,61.41430517428494,-2.95991801605665,-0.8693909124532148,-0.389560860906465,-0.9995626830026728,0.43082962094201493,-0.03710824022208667,-0.22773306940818283,nm,0.0
17.181806564331055,37.736990621925926,59.05214944328071,1.212139142861448,-1.5311263997315718,-0.4684530743248965,0.046553651273999484,0.40264455248616815,-0.27854423160501335,-0.3687830089751013,nm,0.0
17.18557357788086,41.04884065222487,57.5402042950274,1.9090971360676312,-2.349234155838915,-0.44369943348345153,0.6149683991529644,0.3516409402972134,-0.2984886248052241,-0.4582733797846399,nm,0.0
17.200891494750977,44.553764848667676,56.53830342500727,1.79736843315715,-2.4089827392167886,-0.7482955104705938,1.0551434726766027,0.3831035524761388,-0.1926619462720288,-0.6476365984139633,nm,0.0
17.236621141433716,55.99401884522646,60.231298452463776,3.338268002950487,-1.395597436266053,-1.2289957195716303,-0.743898716173148,0.40465443456788236,0.32222843124625794,-0.5951635510490403,nm,0.0
17.23910403251648,60.30620344093396,61.23416547720423,4.49152026043686,-0.505941668423628,-1.4343342275538382,-0.9937721033554241,0.4000602327633116,0.227914613450374,-0.5532270462878247,nm,0.0
17.256059885025024,62.56940970543619,61.404507346140306,4.8353763099413865,-1.191502953380995,-0.8395361373056209,-1.726986820275979,0.20673939274796402,0.05052346570231095,-0.35775068516462605,nm,0.0
17.258718967437744,64.22923510700579,60.746006115082665,4.099023403773434,-0.570394846655355,-1.0976687687075244,-1.454435129800205,0.16364450391305047,-0.1199420202510129,-0.4696887494429043,nm,0.0
17.261197566986084,64.81342147879019,59.85246335695501,3.0387181126275284,-0.07808932897451439,-1.4729297436407807,-0.7535303281599244,0.06233578627977839,-0.17587040869937,-0.3468915531935242,nm,0.0
17.29656219482422,62.863963334144856,58.90254662220398,0.5954384305285401,-0.45415838152057536,-0.9168203383531508,0.06977427331003003,-0.1228746035056107,-0.06620876357772594,-0.10377742285434502,nm,0.0
17.299498319625854,57.85280619528583,59.53028715478318,-2.4736065223564263,-0.007721505920427491,-0.7670881069938675,0.672104287846996,-0.3148501160771517,0.11070028705087608,0.21712194302468718,nm,0.0
17.354382276535034,41.86627567802685,60.140874128416556,-6.798705087443776,1.5240606263775733,-0.416854013628254,0.31116658344999365,-0.5848883873254038,0.04842968128829887,0.8445183905400456,nm,0.0
17.357242584228516,37.620208875181525,60.08546879768463,-6.231708223498951,1.7551799245387385,-0.03383045938559245,-0.06472919812573794,-0.4288125107440311,0.032363357780193204,0.8671110629885693,nm,0.0
17.36002254486084,32.55508428627082,59.02748450009288,-3.802938189947803,1.6368642328634888,0.7379109374298186,-0.3345894745986252,-0.2422336831074075,-0.13859509228443018,0.614230400118208,nm,0.0
17.377847909927368,29.914102981576878,56.90934901071034,-2.9700727638732896,1.1278540144652667,0.7578355819987319,0.23022325722784162,-0.1282003414240131,-0.221473884495123,0.1994763340765034,nm,0.0
17.402034759521484,30.07444731700345,55.12192342465186,-3.228970486064442,0.749521178346181,0.1833085271976277,0.6918653118888918,0.04584565897124691,-0.16279857616612073,-0.1169606053245404,nm,0.0
17.411542177200317,31.307965310711243,54.70101098786849,-2.9941934896819467,0.5357020894129906,-0.08618687546542703,0.7048106057892225,0.13283082628686588,-0.0987950764815397,-0.1670472596030136,nm,0.0
17.413705587387085,33.11041499519371,54.57385595583465,-2.3733422599347804,0.4697546681148158,-0.303904046796858,0.6048865811658592,0.20301782775820423,-0.04178489678623086,-0.1821329194105162,nm,0.0
17.432118892669678,35.16972310360252,54.749059456951116,-1.457362030472302,0.470352902918636,-0.46259909640348745,0.425765134992565,0.2349682307074927,0.02089987771640272,-0.16522700895182904,nm,0.0
17.43429732322693,37.11827499289448,55.17993855472698,-0.5207162157718154,0.4008068046386454,-0.5101443851945777,0.09570235381699084,0.22070254981443238,0.0765518620881904,-0.14429721375158353,nm,0.0
17.44650936126709,38.722344094004086,55.72530931508725,0.04814883297392663,0.3940406391597572,-0.5084121719322086,-0.1749292345373765,0.1776774577263668,0.10287701928287464,-0.16309973088331725,nm,0.0
17.471694707870483,39.97187124553488,57.550428098189506,-1.7115711873226824,0.14635119461122778,-0.46127218209897025,-0.6507920472626444,0.003689668555102598,0.12950357717238584,-0.21625540101187238,nm,0.0
17.49786877632141,39.99434129159218,58.822931953697505,-3.3533915099170133,-1.3017054438688607,0.21694152383344986,-0.9267764044101826,-0.0053282191922953805,0.1021675562489992,-0.15819621585265714,nm,0.0
17.50676393508911,40.82983066413803,58.665318770649556,-3.8997850877386746,-2.4311481514102704,0.31982713342409735,-0.6289579945912112,0.0786927202169701,-0.041889179217510196,-0.2825511710601889,nm,0.0
17.509613037109375,43.850607957556164,57.695551789551466,-3.976419831510593,-3.1263735567218482,0.0875273050202594,0.5009817022705291,0.2991743586629365,-0.21975494632212259,-0.56978339918463,nm,0.0
17.53548502922058,51.686458427405206,57.442754444308974,-2.3387450667516325,-1.5160826841443458,-1.4305277401442664,1.8258975556938721,0.36370801760242977,0.11746752928231369,-0.331398762107378,nm,0.0
17.540046453475952,54.31287169285131,59.42381802675102,-0.05012103600347241,-1.8842328755720765,-0.9837129341792074,-0.17944673032428832,0.27657588712366316,0.3889138496492776,-0.006703509280698103,nm,0.0
17.54999542236328,58.12279064374216,61.45236160498711,2.4851635996582555,-0.973324393309892,-0.9285965471003467,-0.6724228637885765,0.3602402901924446,0.4125857188226688,-0.1687941863414138,nm,0.0
17.58631134033203,58.995085126788155,64.39341274669101,3.1243619881215117,-0.6722057503513071,-0.5556900406138094,-2.0657626223969134,-0.09751116972618798,0.2554156415666007,0.05736996407287173,nm,0.0
17.58899235725403,57.60924687522664,65.31229569861982,1.5041150656168598,-0.14198985844979448,-0.7684866635805925,-1.343162637281582,-0.13305933520452132,0.1772900241961116,-0.08554629878518127,nm,0.0
17.6029691696167,50.158106588057954,66.58949396451516,-4.828644791327481,-0.472198787805749,-0.7129543371174607,-0.3554411583947195,-0.3264574672693511,0.14850161992931618,0.0764575202785309,nm,0.0
17.60524845123291,47.52641986487459,67.6505423313298,-6.913589392428434,-0.12404193509867839,-0.7485683426369135,0.12046989993595529,-0.19026140964735705,0.22964733807596371,0.05618437770957688,nm,0.0
17.622711181640625,45.12368089489685,68.8347859990173,-8.26212304528608,-0.11239634513633089,-0.5793831688038468,0.2562391805908658,-0.15394401633660504,0.25584123448419116,0.1652285584910888,nm,0.0
17.627722024917603,42.40738555155299,69.59587138180673,-9.381397535808235,0.2971577426897673,-0.7213517647428921,0.18595954008099527,-0.1759793757003088,0.17690681021976828,0.27324053210131033,nm,0.0
17.641323566436768,35.42298195258957,69.7556190706536,-9.804894962310449,0.8048493862536759,-0.3354093278661568,0.3135647916458816,-0.28554683842998896,0.01679599036009732,0.7694867325013541,nm,0.0
17.6624755859375,31.372701692247325,69.32979735557126,-9.532959420820205,1.3509522070914677,-0.20300785873547103,0.33331269869109575,-0.3021271916227844,-0.04209000680117928,0.8297591735241173,nm,0.0
17.665070295333862,27.353668759924613,69.16146553479877,-9.038522084404832,1.8830881811872937,0.07413063983900857,0.27222080624111045,-0.29478280392830464,0.006396831388567535,0.8666001959990323,nm,0.0
17.688889265060425,18.206725459205906,69.36811114108676,-10.236462338981832,1.4544008284949037,0.8179471344293644,-0.12069693936921753,-0.33716273899724386,0.046107733728180084,0.6569732752145988,nm,0.0
17.691570520401,12.975451924743078,68.83127530723544,-12.65221592988635,1.3598345840500432,0.9050989008379168,-0.1857596920493201,-0.39381471131436785,-0.039820236382331904,0.5097887326925531,nm,0.0
17.71469497680664,6.948182217973839,67.10922079515848,-16.225112478277527,0.6954123826096781,0.7351948931286922,0.00979646195875328,-0.1821971692120115,-0.14539390510306321,0.07865297728849642,nm,0.0
17.7181396484375,7.569549371983956,66.28553131891084,-15.88123545642456,0.43094563763729804,0.49043729122570906,0.2258163808718947,-0.004164708327575001,-0.18182217166919382,-0.05470048503491838,nm,0.0
17.74264430999756,15.631398679193993,65.31362786157125,-10.910344473170346,-0.021811116419998198,0.022281888496934205,0.6176389492325983,0.3899695786647391,-0.17246378957068417,-0.3304064964588701,nm,0.0
17.74898386001587,21.517480232624507,64.975643114172,-7.602537377085728,-0.3003361641254849,-0.15103674375018686,0.6106023706899569,0.4718692905291681,-0.15410968603996344,-0.4309952454027597,nm,0.0
17.780966997146606,33.76701103548359,64.43779170567919,-3.0283134378987207,-0.1880473736290303,-0.5977425043638941,0.6383788886700007,0.5145346166431027,-0.08094817770498285,-0.7666555069310192,nm,0.0
17.783140659332275,38.69065126872211,64.4161313359025,-2.408973360052906,-0.7310139807276798,-0.7988804213537707,0.3411145824602348,0.418086676183567,-0.029518543333732127,-0.799142260079515,nm,0.0
17.79770255088806,47.83520725575225,64.74601953684021,-3.132737212426615,-0.7557410571977686,-1.3904050698061368,0.27151572058007395,0.38560128183575376,0.025011878688838928,-0.9569949555178815,nm,0.0
17.833740949630737,52.1097872059925,65.0712742715644,-3.2136476756101153,-1.201727889214485,-1.3997805161484895,0.004856013760420859,0.3582053263897329,0.04315935654719389,-0.8480501524345572,nm,0.0
17.837143898010254,60.87971602674437,65.40154321195516,-1.8175026278160482,-1.1879043096099096,-1.3961735724928277,-0.26372333358220207,0.3520652317326938,0.0044516816755059835,-0.6404836160675699,nm,0.0
17.839407920837402,64.35509321247619,65.38583415168175,-0.836249244790025,-1.3155370934648225,-1.0992494745919603,-0.4410398508492025,0.28132873395035296,-0.010045384192415784,-0.44816433108038634,nm,0.0
17.842623472213745,67.00490633599607,65.35006325995424,0.021382744094893786,-1.0776927481194352,-1.0482529336162625,-0.442974233160549,0.2128141167182459,-0.008492104720881152,-0.3224686384610077,nm,0.0
17.858482122421265,68.73419393031207,65.49920315473005,0.8088971798434191,-0.7973012957153688,-0.9745433501626674,-0.3695984575595101,0.13547982759092428,0.03147613697716421,-0.16910270094203164,nm,0.0
17.877281427383423,69.44433214653621,66.70083078337606,1.9965252414920207,-0.3294855655166643,-0.6810331427897487,-0.3407840054116562,-0.01939744198511633,0.1491749380919765,0.0967376620308526,nm,0.0
17.8954074382782,67.24994438200642,68.56628473931814,2.8567352718164787,0.12306537935625465,-0.44731194296024335,-0.4725176423597533,-0.11880120100548333,0.18211431166405398,0.3328420739490374,nm,0.0
17.91221594810486,61.94595400566589,69.69113385624817,3.3168920701523774,0.6243846001151148,-0.23776468212135266,-0.5338444857656137,-0.23221622183854032,0.06788754118925987,0.6059391785536685,nm,0.0
17.932812690734863,54.07662533363458,69.84821454621654,4.223361697624876,1.5236404172752587,-0.06737809002620548,-0.1272164531933499,-0.30934017958006765,-0.0211993947834824,0.9173996752176093,nm,0.0
17.978290557861328,44.856295007608935,69.98718388612127,5.805666091403181,1.7769368519166038,0.4355640789300777,0.10777504347102525,-0.3151423251028187,-0.006255677191953716,1.0068772091135607,nm,0.0
17.981759071350098,40.550135580671885,70.33518832025027,6.730526816997601,1.5546961355161173,0.787926774971327,0.12749172306500375,-0.3063049052557365,0.03123905875515616,0.986123155797368,nm,0.0
17.98467493057251,32.883662691138056,70.95262761924562,7.410751251614065,1.0688946803419501,1.0092236973957462,0.03470024749136413,-0.24236283619450552,0.009733361240822044,0.6850603540385701,nm,0.0
18.002295970916748,30.093694991511903,71.04894656373241,7.537309538737471,0.7304977193776669,0.9707550849436484,-0.1238995305189258,-0.18910041871813976,-0.012654568068963867,0.5437443538935864,nm,0.0
18.00463056564331,28.609893702469588,71.02451306723454,8.056912535212632,0.16001898868045736,0.7839844297835096,-0.2945266751708353,-0.10096653629911531,-0.02641631295285287,0.375179933506462,nm,0.0
18.01235580444336,28.67730735481659,70.80000843924897,8.898995548013461,0.030638189103258957,0.5218040848174635,-0.29253053694523706,0.005216344461379577,-0.05246824588350368,0.14583095613318423,nm,0.0
18.01477026939392,29.712083356685653,70.41017775554919,9.660156298789614,-0.27780088203273134,0.28289238457339105,-0.35549785968092174,0.07483371798326234,-0.07459083388268432,-0.053292346499868616,nm,0.0
