timestamp,roll,pitch,yaw,acc_x,acc_y,acc_z,gyro_x,gyro_y,gyro_z,markers,motor_input
23.547789335250854,128.23133628574945,39.59298733274595,-85.07910509576212,3.4908790687660556,2.510981155290573,3.3108175977537946,-0.2068948294336862,-0.08640105600376521,-1.7523825445295718,nm,0.0
23.55121088027954,134.94537561259997,40.20250368271758,-87.9316885619949,3.5322938425239165,2.0523140926283387,4.2996958914042205,0.1961867425777846,-1.0245857769727413,-1.4410322075447373,nm,0.0
23.568618535995483,166.95347698486768,44.23064815326427,-75.71637794089739,0.5800296898056994,1.3265405817136653,-2.134719951999511,0.7117059011571103,-2.5562044401601254,-0.6677280282644792,nm,0.0
23.598732233047485,-161.92851324444317,35.852568744877956,-59.49864469163213,2.950041824220274,-0.9192475221209193,-3.429590157154811,0.028722364313843805,-2.255886001345094,-0.43027391909915874,nm,0.0
23.600860118865967,-156.3413134272117,33.92961145550201,-58.19518060205664,2.9862301568906684,-2.030487471077903,-1.4446182162410084,0.1580540888463426,-0.9891004880593386,-0.37530090229293783,nm,0.0
23.604666709899902,-156.81604698674366,36.44312889452192,-60.022238371327724,1.6814657433705906,-0.9538617886870732,-0.592470100791438,0.40532422324732775,0.31948777544235163,-0.3082005463622612,nm,0.0
23.615201950073242,-163.80164556440258,41.79819325611955,-63.87822201475293,-0.7924840461250522,2.4316295786950404,-1.789509786037453,0.4487812089871665,1.4553458971221684,0.11213552569056445,nm,0.0
23.6396906375885,161.27832009030757,46.106432557663986,-72.41997082980193,-8.524550737699897,5.097923995326127,-1.3549332148240372,-0.9218126268050559,2.603223890868088,2.174011475259157,nm,0.0
23.643914461135864,141.85016623136084,44.14817979757178,-72.42558930335814,-10.340158236155341,2.818569911562544,0.460703754299462,-1.1864158753006386,2.498392892901757,2.7474187344571717,nm,0.0
23.655396938323975,124.09667474063036,42.97832303172374,-69.87935098892407,-10.422623158924424,-2.6365205130141227,2.1408983681364844,-1.0424544413480044,2.3666694757005518,2.946918666605559,nm,0.0
23.66353940963745,106.06962611342729,42.92433233667261,-65.56159525197634,-6.057546376198927,-5.987190940290458,2.4011756921702023,-1.005921667056364,2.448507575131024,3.307565024300631,nm,0.0
23.68430256843567,74.10851781896426,45.93755803188367,-60.149316367842644,2.9673352429915067,-4.046756275051325,0.6893666518244778,-0.7096177942029064,2.091221033191107,2.43641500128422,nm,0.0
23.694512605667114,56.5052060400478,48.36006551924415,-63.78725397797426,4.700326115121503,-1.0221938118766862,-1.0653435779676317,-0.7048440091488029,2.3428492225797224,1.844564674138042,nm,0.0
23.700820207595825,37.29900403753141,49.19064379807146,-72.10800624474088,3.6965648096832426,-0.5447647686648546,-0.8306696657813053,-0.8041031054880076,2.406915316629654,1.2209902243089656,nm,0.0
23.73539900779724,-0.8802985720671049,39.86792087203678,-86.17469296071516,5.541252580816719,-0.7883285602961883,4.536886855097675,-1.595971714641668,2.6426060249762005,1.6159544163143142,nm,0.0
23.737638473510742,-19.300371752622958,33.65300338001275,-85.82840613412733,6.8345542895973335,-0.012400587820129762,4.4718649870339755,-1.4495641067145528,2.857946887995008,2.2735173079736053,nm,0.0
23.739871740341187,-36.226791338676954,31.781481994275794,-82.0444561635626,9.343264935276258,1.7404147199551805,2.662841535133887,-0.6832599482403123,2.7910588194150994,2.5845480256109137,nm,0.0
23.756303787231445,-53.339590560425286,34.63832779300978,-77.34871028132893,9.188859596176863,2.724707256982833,-0.7339676648465828,0.037214615839421636,2.915755526313784,2.8133872771841633,nm,0.0
23.758223056793213,-68.85423224855488,41.26579816970094,-75.19655354267185,4.892035107097338,1.6574552111070178,-3.336930287413373,0.6948554812894776,2.682893434713044,2.3425806875298543,nm,0.0
23.776888847351074,-81.08917836143063,48.784804703596336,-78.36373920356954,0.7710115081987933,1.5218663217409414,-3.9745327233445042,1.0604384821369726,2.015054615476856,1.1038055921670968,nm,0.0
23.794251203536987,-91.81715516209712,54.12482314841425,-81.3212616382953,-6.781630927593984,-0.3005356000967918,-1.3843552218167607,0.10935683933030883,0.1331212613371892,0.5871131599780771,nm,0.0
23.796416521072388,-83.96483906782859,50.802963172978366,-73.59908871560646,-3.4479209684720304,1.458425274933992,-2.717357952326809,-0.44365179846865554,-1.0926260176065112,0.298930898148947,nm,0.0
23.804671049118042,-77.40877991900561,44.058169867767816,-67.80452314870112,-5.982238407274691,-0.5641761112628714,-2.354568916056284,-0.9830019953674948,-1.298296135633662,0.19273300740290963,nm,0.0
23.831849098205566,-58.34331704308492,33.2039031022869,-64.33507302895403,-3.843412044648772,1.8948047148993155,1.1303475131523153,0.04830628799430187,-1.9122768913440582,-1.068254700863414,nm,0.0
23.834217071533203,-46.26275215859463,34.39259860898235,-65.38025865954916,-4.65059279018886,3.6186423695648258,2.278866826231577,1.0624869740459284,-1.7323885709823426,-1.5548648230036026,nm,0.0
23.868817806243896,-27.683113587997383,43.485807773507,-72.3696401627781,0.1278518749703892,-0.7741467552596991,2.8384548371578324,1.2406481936556477,-0.5227970477874857,-1.6940838180567406,nm,0.0
23.87116026878357,-20.868520542449332,48.418045219085236,-76.5165899081717,-2.5458665220107473,-2.2024625492348178,-0.3394754490759598,1.1956193729490023,-0.6578281086042069,-1.817063954888179,nm,0.0
23.87592053413391,-8.314595068721435,51.684855112903726,-78.12664943854628,1.578673786010249,-5.124599994104097,-1.6826745038554558,0.9798035392084294,-1.4377076232262258,-2.258190274862436,nm,0.0
23.890589714050293,-0.07970306780113309,52.744439092232305,-76.50456761443688,0.3621682420960734,-6.476079091075214,-4.340775210237718,0.4177329888626426,-0.9423643060782118,-0.9883245211849846,nm,0.0
23.89270567893982,1.729138235177318,51.12299587593544,-72.05249297653644,1.1445153502977836,-3.2137013747533767,-1.1151888407313144,-0.26286685101765234,-0.30664342564360353,0.5972258083798558,nm,0.0
23.922332048416138,-38.344332478546626,39.96408181732874,-74.97138304119731,8.107591278006737,3.706291952232485,4.4345070270354805,-1.480090846247566,2.9802304491700684,2.157439448343219,nm,0.0
23.942567110061646,-75.66778035095847,33.098747329351646,-76.00606260635266,8.013146742606784,5.393179616938994,-2.73631117346571,-1.1213128320729144,2.518867793810066,2.25554845299232,nm,0.0
23.961891412734985,-94.2405526250489,34.01666144810704,-77.00839385127806,3.390151317168372,2.171149490159553,-5.203020831735789,-0.5239115146896022,3.046589079768453,2.0339733148190913,nm,0.0
23.96423649787903,-110.08110377096352,37.544702151087044,-80.89407112789141,-2.505891923369942,-2.4519799494154104,-2.805965953959873,0.21416638982579095,2.6436054941074296,1.2279587470698752,nm,0.0
23.96826434135437,-119.83651061329758,41.76347693570567,-85.8046570571279,-3.889051864371993,-0.8204962101866649,-3.5241382056569015,0.6656398237948428,1.5767369279372065,0.2694108177525557,nm,0.0
23.991607427597046,-128.33806150700468,45.61463914634371,-85.07942210856858,-5.1537730474625345,-0.6051890721002007,0.15747956262710044,0.21697977806400148,0.13480553626248354,0.7368716890096437,nm,0.0
23.996793746948242,-125.86187247079914,44.72842033656723,-77.3584705691568,-5.477881596043715,1.3996776531495039,-0.4401681753928849,-0.11721801906199558,-0.38501210669038266,1.197713004134638,nm,0.0
24.006001472473145,-126.69106861524068,42.59588663501541,-66.45886905738995,-5.545522574415705,0.8012300361318163,0.9898048954006392,-0.4371012096223433,-0.029564619803552353,2.3007863300473437,nm,0.0
24.02025079727173,-129.56408608692394,41.3308338824536,-56.84505698887806,-3.550886637695309,0.9271030881642341,1.5987980434314641,-0.41739273796090326,0.24720100972887943,2.3135687574933628,nm,0.0
24.03958797454834,-152.44002607049293,45.85889266016909,-59.807547613702255,-2.564890103031624,1.3982357503241687,-1.0068694669632685,-0.6495007174416547,2.1511741616421167,0.9194374297731033,nm,0.0
24.073172092437744,171.08905543484147,41.126174480968324,-82.27761272782962,-5.294384535435299,-0.7778680683492666,-1.6286822692268268,-1.5264146922441943,2.377691407569581,0.5443488207910577,nm,0.0
24.075457096099854,156.84289502485464,31.719878526778338,-84.81524015905279,0.24645777893555726,-2.8593731827207103,2.7142303622943498,-0.6351862187654791,0.2591478984644046,0.4033514107779395,nm,0.0
24.07916235923767,161.5755251456854,32.52473881981421,-81.22475203007865,1.619258883531493,-3.93693289726356,2.537909176266518,0.27072774710705433,-0.7813389573663173,0.21192442910707385,nm,0.0
24.095367193222046,171.67913014702617,35.485313121402925,-77.26014917338667,0.3955531937727941,-2.6792946164246065,0.15141351744258366,0.9071591964246772,-1.540927630260778,-0.3405005621362139,nm,0.0
24.100889205932617,-172.61703421334636,37.98053223676599,-74.1285083819296,0.9894827648840389,0.4868810096340474,-4.110353298225944,1.115881778329013,-2.3229775243863147,-1.254889036899356,nm,0.0
24.107882022857666,-152.42911843939845,36.91312500704779,-74.61761377539949,1.6338759213523775,4.987843697817239,-5.456876919710767,0.6709220493675531,-3.1558171758349207,-2.5505299773441377,nm,0.0
24.145689487457275,-91.22352335125353,35.365278177060084,-81.49823902718657,7.958810923466369,0.9127794833244518,-0.3716649092017757,0.6753348770391115,-3.0811449348632114,-3.1071397025263576,nm,0.0
24.148738861083984,-73.56845452205025,37.55061099609846,-86.61935042747554,6.817082428937827,-0.27512440575780284,0.8214676724877974,0.7205526941081057,-2.8003089984594576,-3.117616121230896,nm,0.0
24.166086435317993,-56.80983558786862,39.86539614872551,-86.74353896086129,0.38750665684150487,-3.2168906134197126,-0.16432040731750402,0.601452694215357,-2.5986731905530336,-2.1230671019958725,nm,0.0
24.17174458503723,-35.04139322076015,42.049674913441216,-82.75667948546908,-0.3599945150964587,-2.233950664485748,-1.1172437675396918,0.7195402666672208,-3.243687702253158,-2.0685518022200284,nm,0.0
24.201857089996338,12.381935642052769,37.683724252176994,-69.86985726770064,-2.6290051099700964,-3.0077719345424323,4.431621386371064,0.1443370176349557,-3.4436141917363767,-1.6205003743916102,nm,0.0
24.20413899421692,53.85181200823771,26.810338283997364,-69.9627932717958,-6.431789174301456,0.35925276153231717,6.383738301302503,0.47045298873526337,-3.7065114469032667,-2.4152442775548932,nm,0.0
24.213303089141846,71.10383021049583,27.385697162651915,-73.59760020628315,-8.160058043853748,0.6819372449869092,3.1759851511614334,1.0723200106103465,-2.8889345695658344,-2.311667376275513,nm,0.0
24.22384476661682,86.05915395408586,32.74818998073485,-74.36437390407592,-7.572671826411625,0.031315660756340145,-0.5516093799305879,1.7464115945992749,-2.1962778913701833,-1.6681712746518416,nm,0.0
24.248305559158325,100.73778927661654,39.4797877526458,-69.61266585706471,-6.5585715129056785,-1.5874659403035045,-2.7412713354283236,2.015126775559757,-1.8393846341326794,-0.7997366640592009,nm,0.0
24.252495765686035,109.8825237404566,44.53504491716199,-61.9775390671014,-1.7246210952839953,-1.0690662618742361,-4.813756301951953,1.4864734361000558,-0.8207156138197352,0.2881237927233785,nm,0.0
24.275229930877686,108.72887765230628,46.57331206776436,-61.86858284512499,2.601104955717402,-0.7283477851446625,-3.782618531551465,-0.3127345131854274,0.4207768666454801,-0.1571051592296987,nm,0.0
24.278342723846436,100.48477756637593,43.26385282521266,-68.788334115353,5.8057896775289315,1.2272152451615468,-3.3907584421147483,-1.083244536366695,0.7888832522296823,-0.23033897363665637,nm,0.0
24.286060094833374,94.4151822246032,37.360108632665025,-75.79470435462713,4.291108769048086,1.339157851652487,-0.6391684470663683,-1.4023748821364392,0.5252781395830969,-0.6263889363012015,nm,0.0
24.303991317749023,79.00855349880338,28.19325396730489,-84.95299890142824,2.9047422172377413,3.684850649130167,1.80013000011367,-0.794651152864146,1.2827541929361028,0.18180473770708538,nm,0.0
24.32190489768982,70.27243303790218,28.638234381019885,-83.86508165943374,4.34755523124467,2.938605806545161,1.3499720796109558,-0.060333694510470486,1.5396869332353398,1.0354590300745248,nm,0.0
24.324102640151978,60.884608588369595,30.96301327822815,-81.02303424941927,4.080274682025881,3.223710208038965,-1.7961607537524842,0.24521951595013153,1.6791078887735702,1.4876278840559405,nm,0.0
24.32738184928894,55.11006900606858,34.41174972079835,-77.28003499288266,-0.1827612551539209,-1.48406454218967,2.5454616156680294,0.4926381433110789,1.0869550122079565,1.358678261066293,nm,0.0
24.336800813674927,44.24747099155112,38.68332572265901,-74.32809069930842,1.997610627299925,-3.5525229558725337,2.218462475773641,0.3938527474238616,1.905473197953419,1.8711758970306152,nm,0.0
24.369922161102295,20.929787928007446,42.10143963753778,-73.97879919023518,1.6071655198833488,-1.8914514642407665,-1.2889859746852061,-0.34601400753347317,1.3109949483129777,1.0806171192700216,nm,0.0
24.381017923355103,16.82327785402272,39.58223543021863,-75.03727116552288,1.5279981225169466,-1.0723995345227901,-3.1989428675702594,-0.6612953708849311,0.4619294563261458,0.3154716645060259,nm,0.0
24.38323998451233,18.500668351632015,36.55376195202292,-74.47818659875485,0.5168191283688718,-1.342841557001552,-0.893033817481379,-0.524341083295791,-0.4180746013838627,-0.10608615710170627,nm,0.0
24.419121503829956,54.325772198803975,24.860606331328704,-70.3446293358548,-6.310487137278153,1.9648451945360088,7.500620406302996,0.28481437992000014,-2.895222920025746,-1.4493227074900723,nm,0.0
24.421374797821045,68.50530456519424,25.637714474233537,-72.17376268101623,-7.580652532258758,0.8444570252589227,5.07880449711759,0.9729347282735099,-2.384300020843256,-1.590441625314576,nm,0.0
24.425379276275635,80.26202242933032,30.79598054137046,-72.24012406893306,-7.008805789908058,-0.8542301195986215,-0.8294670392815642,1.6175184298879688,-1.6604583101105923,-1.1414737141440594,nm,0.0
24.44211721420288,94.38180740989776,37.060914295310866,-67.7577648721965,-5.347869339378198,-3.0760128528970774,-3.5870504629654874,1.9803132045092398,-1.773880666813309,-0.6992654871799199,nm,0.0
24.46997308731079,109.15299525084602,40.81447952470411,-61.614012489596135,2.587697618006771,-3.140945531612415,-6.147604608579967,0.23145146586632134,-0.46156775950227863,-0.42688383574374955,nm,0.0
24.473080158233643,95.11163205002502,32.60885327164646,-76.58781999201832,4.48410492845057,1.561597113052296,-1.7054819890574155,-1.348836700474568,0.9936570396092325,-0.7442317311903031,nm,0.0
24.504169464111328,82.69578142062977,25.10761377261119,-88.6451238925023,3.1316374198122254,5.65339502548146,2.2470148768416145,-0.6072280670109524,1.1462595073500828,-0.3771032708009128,nm,0.0
24.506630182266235,69.75351747744926,26.84504493195551,-91.26477099873257,6.307186537063238,3.649514793086201,-0.8571545707972829,0.3175183152062431,1.1322646463460369,0.504595021425305,nm,0.0
24.5177161693573,66.43326758942034,27.93642484051953,-88.3546334332199,5.05467388441685,3.395089828460661,-2.1931911967470903,0.2169284705198968,0.5905902393713743,0.8738142799361509,nm,0.0
