timestamp,roll,pitch,yaw,acc_x,acc_y,acc_z,gyro_x,gyro_y,gyro_z,markers,motor_input
14.53828477859497,70.0492270455407,73.43655237917604,2.1066905978692865,-1.4234067523919822,-1.1592598279534752,-1.4154801475553715,0.2921381682193172,0.2806124473035186,-0.5482481253055593,nm,0.0
14.556033372879028,73.83746280523879,73.41253638562944,2.130672782647665,-1.0773741592313022,-1.0173849794211351,-1.482542919116985,0.06383297865184875,-0.06676962585393287,-0.41894493858572235,nm,0.0
14.589828252792358,69.63983783138808,73.15545200592372,-2.1671645099086767,-0.013942545316903077,-1.9311514158478669,-0.4493966166834242,-0.2076412754070506,0.027249037950391675,0.11170622968476358,nm,0.0
14.59364628791809,56.15066051073814,74.68325637398672,-10.123522208594624,0.30450938597630695,-0.7192405642864964,0.3777499757910326,-0.4328916898193457,0.21721150632289837,0.5658650635017003,nm,0.0
14.615703821182251,31.106487994717167,74.82820445479211,-24.577243232066305,1.0667227881224308,-0.6146660021788365,0.7123629333107296,-0.6326878125109971,0.20781291885111003,1.134570570537882,nm,0.0
14.618182182312012,21.87147757059217,74.35715888357441,-27.698747604405064,2.113085344771244,-0.5504921544461469,0.9667409154069087,-0.4918886368367851,0.12739994833237867,1.1844255635201335,nm,0.0
14.637485265731812,15.184676236207643,73.62330156095645,-27.496129399240807,2.613304338170557,-0.02026589184136022,0.5221044030348196,-0.4052363686343148,0.03523182393556583,1.3576659768081556,nm,0.0
14.640011310577393,11.160395196801806,73.12768120554172,-24.58907474407343,2.236653840725424,0.489256228482949,-0.2300610011252637,-0.2603407046963163,0.005296333470767401,1.386045644876133,nm,0.0
14.726171493530273,9.268682874128444,72.7584030349487,-16.96724234104069,2.020249405680508,1.2597501453005837,-0.4598401175665697,-0.06280075657226131,-0.04154631428460566,0.8330013603789491,nm,0.0
14.730066776275635,7.158602900528907,71.34933501178318,-15.291656628494684,1.1217177530694618,1.0278785703258553,-0.20311621777109543,-0.10200930572773176,-0.16117651298121521,0.16618584739454942,nm,0.0
14.732023000717163,7.1954040085156015,70.49011256446998,-15.543789779541115,0.9449288302035843,0.6208940391093326,0.1809077182856557,-0.04980467020675308,-0.17634074713565176,-0.066408339644141,nm,0.0
14.735845804214478,13.805815127425575,69.64860037986129,-12.087015761538948,0.33097029588902815,-0.028860913862974104,0.5545726223082029,0.29638486204546033,-0.12893596644463892,-0.3474405414419863,nm,0.0
14.738028764724731,20.377387768213406,69.66632651644078,-7.533209659317007,0.07213500774132099,-0.22542396712528684,0.5806857933290314,0.4440261316416064,-0.08228992284020202,-0.33230514214488693,nm,0.0
14.740262031555176,28.09625873134024,69.6626466656202,-1.9578849127745457,-0.4434734796738594,-0.2944512295193281,0.24298076643331695,0.5274111081469659,-0.05231288908713024,-0.34361822367210904,nm,0.0
14.74289846420288,36.39569001111391,69.59955609641204,3.686610758034129,0.03066359732592168,-0.38452348322591934,0.002185178129866248,0.5703931642074563,-0.009963662793502236,-0.4526546825733449,nm,0.0
14.759387969970703,48.70999038649663,69.53061425648039,11.490194888488189,-0.8019729179846643,-0.5570312965199008,-0.45796346891943884,0.3558923276103273,0.04153826150488926,-0.41622924690942,nm,0.0
14.761816024780273,52.59967252882718,69.39273349302908,12.742608859063758,-0.6401405308840733,-0.735701040977379,-0.17419544811705606,0.2650002711619733,0.02588903253913161,-0.5137147782346378,nm,0.0
14.79325819015503,58.9139703151757,70.07227667010176,14.538974025244286,-1.7368487394491603,-0.7607581789226588,0.3800740433762725,0.1863168210593223,0.1519306834474524,-0.4340859579308624,nm,0.0
14.795537948608398,62.87029294966974,70.86363077274021,15.925194106143397,-1.5841787435912682,-0.895987600125344,0.5107901192006448,0.20475073427287388,0.2198588559309119,-0.49529227663644093,nm,0.0
14.799220085144043,67.5463189462277,71.95428367558851,18.19367871576963,-1.7376418224254775,-0.8486113917916255,0.2983648500113382,0.21142535723651268,0.29440670803918484,-0.4558600623116392,nm,0.0
14.818937301635742,78.19715746893226,74.3825602468203,24.347750345681398,-1.335807417443104,-0.8832595069151835,-0.40131691994066915,0.16130630604655025,0.3319489491413564,-0.4072015873270973,nm,0.0
14.835936069488525,81.62619680035019,75.5078956178455,26.244695462462058,-1.3324999863159133,-0.7617334071373688,-0.8625608086402846,0.053712953222781655,0.27957157372879493,-0.3004435948624428,nm,0.0
14.838976621627808,82.98622578839995,76.5747861357794,26.40041101659393,-1.3189066942472902,-0.591423522205524,-1.009480008350403,-0.04699476401416996,0.22064029809388036,-0.25852378872237697,nm,0.0
14.862520456314087,76.15739824814621,78.75114017674669,17.709394225653718,-0.9806155480876276,-0.599527794448774,-0.7475107375915762,-0.28435733056645607,0.13296881416468193,-0.20449360876157902,nm,0.0
14.874601125717163,60.19712313590762,80.82747104160653,0.7127441755761529,0.01125003845053742,-1.257543625621551,-0.3465933263834984,-0.3162647854640621,0.17157713248645418,-0.10794128192502278,nm,0.0
14.890852689743042,50.95455805432581,81.61744121423983,-7.820018322446545,-0.2567164454993391,-0.8573570614295772,-0.5717765301142981,-0.2791068181397289,0.17485118546520362,0.1075217310044354,nm,0.0
14.900676727294922,42.92999023530212,81.84446016193789,-15.030792375377377,-0.38479609743332027,-0.39609399400840395,-0.5308802430458769,-0.22521105994334997,0.08792036573585259,0.13568639353475126,nm,0.0
14.904712200164795,35.72077380300707,81.22486182546172,-21.19132325955213,0.5843270597608246,-0.6842231007977116,-0.12457740787075382,-0.24961999052856965,-0.057185379173642394,0.18727289932217442,nm,0.0
14.939969778060913,22.221804484081566,78.86442489269103,-28.689495801322952,0.59729946717486,-0.2516705232366622,0.6283441666891917,-0.3298281805890083,-0.1170960425516739,0.6716150630188102,nm,0.0
14.943757057189941,16.28337141344742,77.67982032324107,-31.131037277129675,1.5721995697114122,-0.24633475127617074,0.8578471074539995,-0.3385626281180382,-0.09152519575167477,0.6905389619019329,nm,0.0
14.945956230163574,9.530472836643293,76.90293124312491,-33.554690785090514,1.8299877719474313,-0.1118343763900824,0.5181914912362061,-0.34454236011687817,0.021260734173161284,0.8568031122132547,nm,0.0
14.962508201599121,-1.7514565798569026,76.00173586622014,-36.819323315956744,2.3551185131948356,0.09728182337491133,-0.14706870602739247,-0.26194464163171455,0.04008768863086418,0.7400488322739733,nm,0.0
14.970359325408936,-5.043269636469723,75.05211029371772,-36.52260283964761,2.097774881707699,0.2367896597898192,-0.5124054684982285,-0.25522513023763843,-0.06274848708635683,0.7183374334199687,nm,0.0
14.995327949523926,-3.729649958203527,73.13326213698886,-31.16457242433571,1.3339295294162599,0.541833648318429,-0.007042452133690117,-0.01247133748955294,-0.23249954105125298,0.29191475440579057,nm,0.0
15.001852989196777,-0.1056308057686445,72.0767203550386,-26.750945829182466,0.9628210956043204,0.45636615665783126,0.5519770153090826,0.0789073508968852,-0.2994565578953552,0.18806979681650945,nm,0.0
15.025555610656738,9.90763358368677,70.76385464060479,-17.203683443694807,0.48524512304052075,0.14955769407247194,1.2040718542544242,0.2938886305209713,-0.19628000849524369,-0.06691567619860746,nm,0.0
15.027862548828125,14.857662387406444,70.96660039404568,-12.98888657469004,0.1478547670712257,-0.0308036029835022,0.9839471732861319,0.31669214341039753,-0.05340460293273032,-0.1022160781032361,nm,0.0
15.050135135650635,23.818977040274483,72.52919991726742,-6.584187998670475,-0.0017617732517751473,-0.30443936430356194,-0.09923245624523501,0.2860218408805545,0.1394725935723115,-0.26576879293057953,nm,0.0
15.084521770477295,27.842346843486702,73.49091696290593,-4.14825943977303,0.00029660432584672076,-0.40075945547829994,-0.5544680623322452,0.24431315794968136,0.16339626723510609,-0.29327245651630146,nm,0.0
15.091309785842896,35.76614073601772,74.38134623657409,0.02176498055205016,-1.2206507318237008,-0.2785594277249797,-0.9405729712217681,0.22409063271294746,0.031379547985507926,-0.4202937384943479,nm,0.0
15.094682216644287,40.50428633232022,74.04953970261349,1.8827932943762764,-1.6287516274621046,-0.20183387358159802,-0.46715729145067364,0.2503747767549439,-0.06782556112658378,-0.5633329024109753,nm,0.0
15.096776008605957,45.11924478205656,73.30644411905712,2.994086896159664,-1.7105766646275984,-0.5277086943913882,0.18632184315605638,0.25717469645285423,-0.14275638482474462,-0.6998277716399143,nm,0.0
15.111258506774902,50.07958147504626,72.66915857883637,3.8509406082338167,-1.5706287656630087,-0.8389464639716956,0.6531473193439916,0.28898349692618647,-0.11399776432092361,-0.8251853706895875,nm,0.0
15.117567300796509,55.763920411423896,72.70748796238627,5.367441362422591,-1.4777631294966282,-1.1070078129540502,0.7270260830454369,0.32756954830328777,0.032420623926982334,-0.8317331704756182,nm,0.0
15.142314672470093,67.8283281278661,74.79980813879332,9.780440649609357,-1.5606346394344768,-1.0878090773221056,-0.2302437477542233,0.26518759628282773,0.29937231505088807,-0.7457554440938753,nm,0.0
15.144503831863403,72.4142671328384,76.17141966590471,11.010807119077311,-1.3561297167824506,-1.2519184571904989,-0.9388525824353331,0.16571226874097483,0.31268666193962197,-0.6790492885485495,nm,0.0
15.151874780654907,75.97176220549882,77.34009759228451,11.826388972847603,-1.4040951685522742,-1.1391497310936598,-1.36150544099445,0.10242924214399479,0.2633052844136157,-0.5616771579882648,nm,0.0
15.180765867233276,76.97749331116647,78.14382405303247,9.034474823730276,-1.1790343567059094,-1.0600733195496195,-1.0169774294985574,-0.04992036159908714,0.018193432285546197,-0.35226713772317414,nm,0.0
15.182887077331543,74.59762253871224,77.88980229736593,5.764346548763424,-0.8755972353802051,-0.955275388902672,-0.48941105145787617,-0.10091556569862767,-0.06296327481973883,-0.21026315100693715,nm,0.0
15.20737338066101,71.80236764975089,77.63184267469788,3.11586902898924,-0.527037514807335,-0.9733623075965552,0.0321948669384938,-0.12388714516738107,-0.06057453707197951,-0.0009778481481390695,nm,0.0
15.211258172988892,62.40917760085535,77.93147470906094,-2.48550511627714,0.3299781124276793,-0.6721494281347874,0.628085182442246,-0.2594847978948594,0.059371635014154635,0.4688279247154759,nm,0.0
15.223913669586182,52.889380629462536,78.27332566841812,-7.9475177492460105,0.9617107044758969,-0.6241597287400695,0.6085439382924809,-0.393772454350626,0.10285898883283838,0.7868155223083136,nm,0.0
15.251022815704346,18.6054329908083,77.49094490109458,-24.58504416301452,2.3334816364305913,-0.011487398256832494,-0.30258990281891335,-0.4499150250963435,0.04177279156878951,1.2193159123307458,nm,0.0
15.356914758682251,28.3161128002051,73.29058637601929,-5.346970819679312,0.1262094954434499,-0.47352795165639366,-0.4648469617222798,0.4841359208704096,-0.03156898813759103,-0.4934627924210389,nm,0.0
15.366135120391846,35.82876276136022,73.19198133094805,-0.5571963322526926,-0.0885032071018351,-0.6030339820540889,-0.5915038150168025,0.42305494410938577,-0.04771142046345699,-0.5083907826559098,nm,0.0
15.38648247718811,46.8257206370814,72.40925864939575,4.232645645229442,-0.5517557868430408,-0.8655623493713787,-0.4911543415117731,0.2976503403171168,-0.0764094375026297,-0.6590643570737631,nm,0.0
15.388550996780396,51.164547237157024,72.06486764244669,5.403010061298833,-0.986504566014046,-0.9778593026307831,-0.23346118517347725,0.2610742467190897,-0.05045266600496566,-0.6216535850027265,nm,0.0
15.39791226387024,55.24448924488791,71.73358535649862,6.286771866009979,-1.584452574975903,-0.9012542743238062,0.09709016565281003,0.25031923853786703,-0.04342589848222334,-0.6292273060397492,nm,0.0
15.421964406967163,62.72600593579667,71.0808854453182,7.311971313047821,-1.6938324496127137,-1.0687252386657404,0.7594584396609576,0.22600690615522817,-0.024161466513625,-0.5991245139142477,nm,0.0
15.518064260482788,73.85771343016614,72.42551673311887,12.7308094387329,-1.2959120374680686,-0.864623989541021,-0.3088049558692853,0.21620966057491672,0.21159764996836555,-0.24084770565233787,nm,0.0
15.521512269973755,81.26216972793542,73.82448024175429,18.187836967615784,-0.7633835568184727,-0.5436902608694631,-1.223625674274557,0.11749975691231104,0.15855826454188435,-0.18576435244452025,nm,0.0
15.523793458938599,82.26290109093827,74.0548138908284,18.468629094943804,-0.5367529345553901,-0.5381147368687401,-1.3269905691472512,0.027945025418591923,0.06171966459892195,-0.1520072736857544,nm,0.0
15.52641749382019,80.5468250194429,73.64772019923525,15.856792270319508,-0.15355552247158133,-0.5170969739453067,-0.49547062891956895,-0.07087031921876424,-0.08534551873619778,-0.10154513660500422,nm,0.0
15.529618740081787,72.51305135408323,72.89312968079821,9.299157103444122,0.22996867032643756,-0.49293692748063017,0.37633062532377426,-0.2686568753128895,-0.12369196133203902,0.17864082800495287,nm,0.0
15.532004356384277,65.95987386849728,72.65043662454336,4.979957849208539,0.2719307291479769,-0.2562722315175737,0.5042486050149029,-0.3880683575764281,-0.09765579604020387,0.3773904231506806,nm,0.0
