timestamp,roll,pitch,yaw,acc_x,acc_y,acc_z,gyro_x,gyro_y,gyro_z,markers,motor_input
18.03741431236267,32.88887809943586,69.04706398037013,8.745731163994538,-1.1247759604601901,-0.08126958443125017,-0.4304252579531185,0.13749031756300412,-0.1509897918679234,-0.5382579061515329,nm,0.0
18.040263175964355,34.75628883679143,68.03437632066614,6.4361597303041815,-0.4938793106777926,-0.3660880827729986,-0.052484647912043554,0.1567099829900478,-0.1907102242782441,-0.8217084000261996,nm,0.0
18.056448936462402,36.17137366289779,67.14273270090032,3.317881954173146,-0.7333553709375579,-0.7947008087740444,-0.010231985946902533,0.11683523674040298,-0.17585135123014767,-0.8978145265787778,nm,0.0
18.062796115875244,38.0073153448884,66.47865024841809,0.015467613991569321,-0.9819796782200984,-1.1237943769058725,0.05672456242449611,0.1421790182110849,-0.13501918612403888,-1.010913855146973,nm,0.0
18.084367990493774,43.40495838216841,65.79480910675372,-5.518390200019687,-1.2963146745768976,-1.6234842733518837,0.11577434271147487,0.2210537512616099,-0.0673968735250167,-1.026011723762924,nm,0.0
18.10634732246399,47.0841279043983,65.7771131462782,-6.914661860031506,-1.5013208235168596,-1.6963927578005402,0.017501753010375227,0.29232007488915146,-0.03945948251642326,-0.9635935925133894,nm,0.0
18.124425172805786,58.81346051131023,66.05171941579597,-5.718537215726708,-1.4697374607752471,-1.3760489571469057,-0.6724407448352041,0.28046519795821506,-0.018118050625192984,-0.45764615548100135,nm,0.0
18.18333911895752,62.76190862157723,66.421930943121,-3.5896922973893304,-0.4504717631568801,-1.029920293050024,-0.6437048114479866,-0.021579151907305808,0.04559177879114501,0.06799838382252875,nm,0.0
18.185694694519043,60.894123252695486,66.79659144923576,-3.979491471081045,-0.03266109215295786,-0.9266370968175274,-0.440684082826201,-0.15167173761934735,0.0842562915461381,0.2534216311392161,nm,0.0
18.18905520439148,52.006435611516046,67.64259161692166,-6.4083362477586565,0.8294726697376165,-0.7603855137506325,0.05162423966308288,-0.4062369229668834,0.11570042435395829,0.6765864702904513,nm,0.0
18.19131565093994,45.484283523555625,67.8120121677386,-8.062428886227273,0.8703722874631092,-0.4143192003746563,0.07417125667918029,-0.49512703390885715,0.09272982390108475,0.8664183455330794,nm,0.0
18.19351315498352,39.04670509950464,67.67245958840381,-9.395754800094238,1.7948000345132422,-0.38373708324328515,0.5367914161379342,-0.4950519197475928,0.04203103109717657,0.9155614014074146,nm,0.0
18.2096529006958,31.991558739477764,67.27764790673889,-10.31293117363081,2.308409049009629,0.07435167474826394,0.82363939930415,-0.5546206818257792,0.008991337062561907,1.1113846729556456,nm,0.0
18.23829483985901,18.5788847506372,66.0339586548133,-10.878494953888985,2.055782685395154,1.0941345733188739,0.6661339705792888,-0.5119604899703267,-0.04090201151818178,1.1004673756757744,nm,0.0
18.24045205116272,13.197369782575473,65.52705404384241,-10.904809571233393,1.7377551168048286,1.5227459601656124,0.5389851038013515,-0.45916560084613445,-0.025219675245147354,0.9684541044631049,nm,0.0
18.246636152267456,8.489965353207023,65.03058581226189,-11.331427328734499,0.9342085544983127,1.6262943712474318,0.1682923109067944,-0.41110303268903714,-0.03132937078881032,0.7619315440340004,nm,0.0
18.250192880630493,5.187542329517922,64.38273700329881,-12.17227629152003,0.8113088107044306,1.5591459809687478,0.04895459183695497,-0.307606232655861,-0.0797713774763438,0.42062851996827794,nm,0.0
18.279290676116943,3.7784727516790504,62.33645955311882,-14.435530276384839,0.28022705197140524,0.3848409727110242,-0.27173490502405917,0.08595775286396,-0.17337354092020665,-0.3109773293530409,nm,0.0
18.314138174057007,6.915351760003853,61.633367494681515,-13.874813383083222,0.14367036262556881,-0.03548780361127342,-0.2740801519526433,0.24713683542515283,-0.21869643014814727,-0.4520237603913998,nm,0.0
18.316623210906982,11.640609637193718,60.87233656558033,-12.479720031049725,-0.3485016843635286,-0.33035290725560323,-0.35299947945513677,0.40354990045194095,-0.26148974093615446,-0.5605128500375388,nm,0.0
18.319002389907837,24.42130747326951,58.94810120074026,-8.574397155791239,-0.6206315203519148,-0.788010518693403,0.27304450470906794,0.608376646624916,-0.3132062514507408,-0.7339084690011668,nm,0.0
18.33431601524353,30.76608502949755,58.088979459433446,-7.00217318634531,-1.436252163087437,-0.9725303996317328,0.24815209821235307,0.6285540310185556,-0.26685032191990826,-0.7806305492967982,nm,0.0
18.338063716888428,37.43974421633883,57.50533281902612,-6.0221504838971605,-1.4544954792453846,-1.238878162711083,0.6912481803010556,0.6886270757470356,-0.20221301626930818,-0.9469894858577013,nm,0.0
18.364068746566772,49.19237419158156,58.01823560430839,-5.699686477428905,-1.906386139133588,-1.778755628807994,0.43701150914180076,0.6077241797136431,0.05451486505954948,-0.9651318980449619,nm,0.0
18.39237117767334,59.694435772541894,60.5417351494519,-4.641388810749839,-1.6732151654359275,-1.953627446670007,-0.5096054160143773,0.5135560511757181,0.23137331757264507,-0.7111564264246618,nm,0.0
18.39534306526184,67.27302832104013,62.357155037989855,-1.9681206302998349,-1.3106270538837852,-1.5333052633420758,-1.3134051309806993,0.3070806085425545,0.11278089259893588,-0.3293351121056189,nm,0.0
18.412092685699463,68.75411118974156,62.43454424826247,-1.234458124579261,-0.9455969329833599,-1.3712196899381695,-1.294584151944666,0.1301764772638279,0.012467087189666133,-0.1281819983235997,nm,0.0
18.43687105178833,66.48829936397809,62.272023198142286,-1.372873806573412,-0.15367340702537702,-1.083830796388643,-0.4160953349579603,-0.1911936843712237,0.0048966826545474886,0.27425260269015533,nm,0.0
18.439029455184937,62.5396464448229,62.7573367631792,-2.3245861940305947,0.26904515449428723,-0.9124627798904485,0.05260742419400276,-0.36915578437514995,0.10848877135613903,0.49849830148608654,nm,0.0
18.460254669189453,48.21220385731731,65.00241640625833,-6.719951268570477,0.9995163593940961,-0.4677286771929825,0.44721213687143385,-0.6946806080423266,0.31118631529758845,0.9458470093567991,nm,0.0
18.473153829574585,29.178337016048882,66.41616023755554,-12.92724300880027,2.5506152221326706,0.05491087879981339,0.7810676911367297,-0.7700365428191714,0.23579253948932163,1.1937775349113997,nm,0.0
18.505936861038208,19.838864153289734,66.30542488337035,-14.754822505663642,2.5595661432059202,0.607077169774508,0.5275016853455828,-0.7403754437341936,0.1504050968752228,1.3381210325621649,nm,0.0
18.508110284805298,7.137639270400274,65.7683611476877,-14.108694644206631,2.042196112311098,1.7684838422727416,0.31326536566391733,-0.4519882217931493,0.0558439345661623,1.1588511101002013,nm,0.0
18.527462244033813,0.3526634555274145,65.4091201902231,-12.813895752979432,0.5648293411681515,1.9448687056842302,-0.07066264627325497,-0.22749556101994106,-0.0010283970543474128,0.5478168040287417,nm,0.0
18.529625415802002,-1.4038121793452656,65.14756187030392,-13.337357663650259,0.42432109060255624,1.7101641314814044,-0.14239323717186714,-0.15898350841277323,-0.028705965406462454,0.20613215587197076,nm,0.0
18.538060903549194,-2.269146532865244,64.86213579191313,-14.50043490283444,0.22987635276753507,1.172972213197533,-0.3515728725006091,-0.08856868724678309,-0.04890878825899089,-0.08452754181817022,nm,0.0
18.598959922790527,6.493878106778403,63.93291966829252,-14.693196598012152,-0.22448445427658797,-0.22605001123201565,-0.6615857284175657,0.401112214139455,-0.19316519239346513,-0.6983885585403597,nm,0.0
18.6010582447052,13.974235474089452,63.33295130318927,-12.289689570763452,-0.4542270978123666,-0.3536017757786525,-0.44878774152443723,0.6132516533617369,-0.28077420991024354,-0.8714619673655528,nm,0.0
18.604058742523193,22.51228263982426,62.36369389429708,-9.375641440233435,-0.44789497911898196,-0.6597384551118142,0.08266081573882314,0.7237347941756191,-0.3447015779351612,-0.949166350503729,nm,0.0
18.606277465820312,30.76826025068787,61.191291372874275,-6.899330772265813,-1.3768573157659771,-0.8776840928869676,0.16576176437021492,0.7344062195315721,-0.34929001670490417,-0.9726915623689177,nm,0.0
18.608795166015625,39.088216731734754,60.11473806855079,-5.402247650894057,-1.5590643294706175,-1.1760417083164378,0.6593313249466514,0.782327141120324,-0.3066715160348852,-1.1648150591716386,nm,0.0
18.624526500701904,46.752398721413215,59.56603100124504,-5.120583733575507,-1.6838393142458,-1.6568058039168632,0.9368004166268507,0.7512772188598034,-0.18362358865750272,-1.28326688108308,nm,0.0
18.626689434051514,53.596845989927616,59.879146793135504,-5.672888811662364,-2.1021895698534645,-1.8803129396243397,0.6399817535990349,0.6872105040290352,-0.0046233594992873125,-1.307180345322583,nm,0.0
18.633103132247925,60.33276052987467,61.026113649742165,-6.283406666426771,-2.0325077504307436,-2.1405785118856335,0.24112153662385577,0.6785038651713485,0.15870657280211664,-1.3088014562901695,nm,0.0
18.666797876358032,77.12818218333203,65.07044322723411,-3.387377074172881,-1.905666875741742,-1.5668125274165272,-1.6951861321203694,0.3897871983384199,0.140844092362463,-0.527930587075455,nm,0.0
18.669286966323853,79.15217648109476,64.96272869236498,-2.832721616819193,-1.4658704982917672,-1.5426699256898164,-1.7830063728249044,0.16200667644726074,-0.027627512281398408,-0.26802322962646247,nm,0.0
18.693548917770386,75.42981359968991,63.29596766007877,-4.188824373880895,-0.5792425677989687,-1.434481864278929,-0.8077995906541947,-0.27595789022676753,-0.15986757665236542,0.325133900005723,nm,0.0
18.735413551330566,53.19552393589358,64.72356417920129,-9.51193536440785,1.3946917774823597,-0.9582000254063308,1.0015846340962031,-0.840426362508686,0.377846107933803,1.2854440472300046,nm,0.0
18.73992943763733,26.975668069812222,66.48381904878241,-18.2989800819046,3.3555300211677226,-0.2274794680719634,1.3215061432703483,-1.0419806506276001,0.3940266350787732,1.5603213634290591,nm,0.0
18.75532341003418,13.677607818626557,66.22493964977502,-21.667593184242747,3.5328184129293265,0.6980300243824988,0.9574286540513993,-1.0279508695809485,0.30845460303098937,1.7567430739109178,nm,0.0
18.758707284927368,3.1652955927816433,65.70253605575796,-22.555861890614715,3.3075717161029328,1.5002243367827257,0.62698212074704,-0.8401476169058608,0.21664484237050552,1.7370669943806485,nm,0.0
18.76377820968628,-4.348808479356896,65.36026606075475,-21.468204814476614,2.590723483921384,2.2347355842906014,0.255157722051755,-0.6091240508229105,0.1596395663959566,1.5800070544524076,nm,0.0
18.79334783554077,-12.56003339292699,65.33079329479315,-18.037827755962553,0.27702444607633053,2.295716040358583,-0.30369471293672845,-0.23171921493076553,0.06963747614320087,0.8399718205599503,nm,0.0
18.803810834884644,-14.470323615243675,64.66635666974254,-18.044611020298138,-0.23210495946027027,1.5866435069319862,-0.49361216211057474,-0.07643340060072766,-0.08472734755616054,-0.028466237091145458,nm,0.0
18.8214590549469,-10.393149117420833,63.55369372602485,-20.328820596906134,0.03972042858794684,0.4974240152513366,-0.6268584493971925,0.21286814183333597,-0.2019347094993028,-0.757891629731577,nm,0.0
18.850698471069336,3.171126925269837,62.85707847107947,-18.369905612532808,-0.586519061738936,-0.373457215779311,-0.5229000670698096,0.6865272740767686,-0.32481593734705017,-1.1234152881910864,nm,0.0
18.87760615348816,24.589738427078593,61.13476567165971,-11.555928463227545,-1.197281151685942,-1.0933277213785715,0.48787481930327675,0.9426998292311504,-0.449883596419787,-1.2106560152336936,nm,0.0
18.880974292755127,45.129317258560995,59.02966307854084,-7.8474142935566595,-1.6553774599147473,-1.9249672796096189,1.297202727283666,0.9540938558775404,-0.3185608065702896,-1.4842887444007717,nm,0.0
18.89808225631714,53.58187395303451,59.190987084244895,-7.922560285212056,-2.053875725882956,-2.0747698850532594,0.8286630297073182,0.85854275276745,-0.08901760789646872,-1.4806190336842342,nm,0.0
18.901248931884766,61.53226079024765,60.50172204164564,-8.143400135622345,-1.936914383634025,-2.2603230568879127,0.23616292476903777,0.8216260997995389,0.14806241654988478,-1.4340841703770082,nm,0.0
18.929510354995728,75.08089313079996,64.51391446318752,-6.160130442174262,-1.9953468294873036,-1.8635332397198845,-1.5509195569533398,0.5898113887059653,0.326927862920303,-0.8385397734346222,nm,0.0
18.93277883529663,79.38174854143516,65.61349971040488,-4.8686474915299565,-1.7833154178006507,-1.4614487849084754,-1.9929119990420847,0.37474172565941943,0.18820338113921864,-0.5344208099904495,nm,0.0
18.93657422065735,80.32875393074498,65.60632734024813,-4.848977062467173,-1.3651701365045479,-1.2614383253589163,-1.9611096257045995,0.07029936872233332,-0.00435317635852587,-0.18048150489784587,nm,0.0
18.952550888061523,77.86557060857865,64.75865325162829,-5.951773579189156,-0.9347687051305649,-1.2234463711220769,-1.4991835179960586,-0.22946080943934757,-0.14655305766232707,0.21522223702933355,nm,0.0
18.95597004890442,73.1820911938011,63.702827787683006,-7.205520574543359,-0.2520720347051568,-1.4943040263589993,-0.575988234564906,-0.43659113150510753,-0.1611592878648662,0.5817994621339732,nm,0.0
18.976295948028564,57.670312726571304,63.74383552497021,-9.184475281146359,1.338077374119076,-1.3462962084758197,1.2027328907859005,-0.7831705245013133,0.22179038195556441,1.3731776268138283,nm,0.0
18.99499011039734,45.93633963113246,64.89986638287583,-11.644700170537925,1.8212766246896934,-0.7538820876325307,1.391956890005262,-0.9672252458581473,0.40827938237285827,1.6137214479463433,nm,0.0
18.997167348861694,32.41199712523896,65.85872897248669,-15.65247349959863,3.133868454912668,-0.48156475990197317,1.6860358155199027,-1.0581451856974644,0.44678166056527335,1.649538217798125,nm,0.0
19.005345344543457,18.03399266661257,66.15343820105977,-19.859142851354076,3.5523587124214364,0.5533996029830278,1.2620018591972586,-1.103326110816226,0.4054045933598508,1.7796329281901946,nm,0.0
