timestamp,roll,pitch,yaw,acc_x,acc_y,acc_z,gyro_x,gyro_y,gyro_z,markers,motor_input
13.558640003204346,-8.429362525542862,76.34191829323571,-25.828252154378387,1.2276736897549727,1.935793219523506,-1.379218285150624,0.24579792424000146,0.07348839873188184,0.7963759683893913,nm,0.0
13.617582559585571,-1.149605308957498,73.04000686134255,-19.144102500493716,0.8125680599646008,0.9061617763410871,0.02778048445484908,-0.03155838397573765,-0.3445794522731833,-0.3972329061559408,nm,0.0
13.619842052459717,0.9811236736059252,72.01775996913422,-20.003085031619996,0.5046362668160805,0.4214862675792814,0.5556405675083941,0.04593695744466867,-0.24626741527778773,-0.6008837966653584,nm,0.0
13.622657299041748,4.8493659852412385,71.6216292043629,-19.58205257563801,0.026340015052895883,-0.03197875016809356,0.6893703226102694,0.19394845272887165,-0.1657319224159603,-0.6789520025815522,nm,0.0
13.625452041625977,22.174611381224068,72.91588995712976,-10.087400522036601,-0.22913534877680636,-0.40562274237954954,-0.22386960215113577,0.6602107355834712,0.03969880767225008,-0.7302294024027839,nm,0.0
13.640312910079956,34.35338497952219,73.06134419869808,-1.5834139090275636,-1.5779507225016027,-0.006930483433701567,-0.4803393610421139,0.7022687017242115,-0.04871244554526712,-0.6598677710587572,nm,0.0
13.643089771270752,44.15781926863389,71.4264950786734,3.6529754002470476,-2.2296318392797976,0.2039283920093283,-0.2303855461898565,0.5955183380956951,-0.3207484006120949,-0.8642557967178272,nm,0.0
13.648600101470947,50.37949340226937,69.03884564218065,4.1951588060649625,-1.1351021952529634,-0.7343609174774087,0.9027522257511043,0.4459374641762556,-0.45216396620694016,-1.121216406625451,nm,0.0
13.67378568649292,57.698273164576165,67.88723452243755,0.718457764561361,-1.9531249885529645,-0.9754969685871983,1.0719006080085027,0.2750194241457079,0.07617542676566373,-1.0981733285117061,nm,0.0
13.677930355072021,61.9409056370517,69.97889807261735,-0.5603295197859671,-1.5823834394673486,-1.2962988414952703,0.52575354185395,0.2956144116705331,0.41978555400134054,-1.0924245770545558,nm,0.0
13.706243991851807,69.21124516111004,75.59940759942451,-2.2188710368888587,-1.7599866764738175,-1.3499227981175683,-1.6939525065904784,0.20624521317018188,0.5320538655051749,-0.855682997793234,nm,0.0
13.709349632263184,72.501847388783,77.11196980055824,-2.6116299477545017,-1.684459026071346,-1.2175065091465052,-2.160652897065557,0.15806537175603536,0.299771134491348,-0.7312789682276963,nm,0.0
13.738398551940918,73.49327725102019,75.7123824379372,-6.008968778801783,-1.4485687723125618,-1.0205537697470672,-1.6472115891725883,-0.05021186985666046,-0.27028234595062944,-0.38661634272327683,nm,0.0
13.741143941879272,72.32418533947576,73.78886440369708,-7.931272705630729,-0.701401578611007,-1.6028085083732366,-0.767298404195807,-0.11685428722854709,-0.3743997897599016,-0.1854039970260728,nm,0.0
13.757362127304077,69.6351388365717,72.3344363779049,-8.740830243235575,0.367338903129137,-2.7734194451691705,0.21054651588218712,-0.20659318425286813,-0.2645396481560763,0.328514721507239,nm,0.0
13.759898662567139,64.17179040206335,71.90477174773932,-9.37310366132016,0.04202684525075248,-1.0555490743713294,0.5530611998071815,-0.35468407238457555,-0.031058662458688917,0.9163847076865917,nm,0.0
13.774970054626465,54.855723814892094,72.07287692042871,-13.022091820461089,1.169182757496136,-1.1795736360862017,1.421636002184676,-0.5678201512365479,0.1454343328357557,1.0732139410038857,nm,0.0
13.792596340179443,25.239363446358947,72.93579092859036,-25.883673480657126,2.316350104290078,-0.6456147217254211,1.183496176264905,-0.798040298449366,0.4385799002590253,1.7183827932813047,nm,0.0
13.796034812927246,13.482720415353812,73.12814678326518,-29.142611144770566,3.2256022009630665,-0.15262055303143424,0.8769832685149949,-0.5993093354294232,0.3469180392035329,1.66006447607557,nm,0.0
13.804912328720093,5.886107975052868,72.83264118901306,-28.280730698997093,2.940905579021053,0.7012169777653452,-0.21966266285010805,-0.4276644399621887,0.15574329279180182,1.6860385156501778,nm,0.0
13.835837602615356,5.988075211274493,72.99614906040675,-15.871455723561679,1.9641649088337751,1.557486541367767,-1.0218384361359678,0.14117451933694986,-0.018096103071639516,1.0627346774145452,nm,0.0
13.838148593902588,10.033379155438745,72.54539221278777,-8.608953201660276,1.1483397137817164,1.7585838039473447,-0.7355950026051196,0.20775908312284264,-0.14886593640422383,0.7035663991502745,nm,0.0
13.841937780380249,13.063989765589259,71.1910611321238,-4.201916745052752,0.9516211697626782,1.5072484903618202,-0.23786017451550726,0.15088018190020877,-0.30100379301118524,0.3161907121881882,nm,0.0
13.866539478302002,15.150514877811666,68.95283087434188,-3.9024863279416864,0.30768353159386097,0.715251068933483,0.615917286710233,0.025167506962895242,-0.17890391996910984,-0.29742958343897924,nm,0.0
13.86872410774231,15.874649413141261,68.49352842194703,-5.624545614507228,0.0025498687899341336,0.265112133045706,0.642371573054807,0.03955329990509329,-0.10536737320437356,-0.4900742196614019,nm,0.0
13.909665822982788,29.548760828737564,69.5663065106609,-1.7303011244207098,-1.4406305566771562,0.1000201574066529,-0.645896923937713,0.5163852563182051,0.04874577309975481,-0.6633038639980647,nm,0.0
13.912776947021484,36.850436333786625,68.36294175964368,1.5453592870213408,-1.8357822324996083,-0.029096063508609694,-0.2862050682563238,0.5169895551443587,-0.24774525035210715,-0.7376092388998879,nm,0.0
13.928616285324097,42.79358576294312,65.94069442089969,2.6627212894051127,-1.381682788172306,-0.6065638549607167,0.4960007135741207,0.47298457804327493,-0.4730547916907842,-0.9086357957278254,nm,0.0
13.93054986000061,47.99636620615891,64.0136305206887,2.7305709916033543,-1.7242395790795524,-0.6394764320946861,1.249780264317749,0.45187324472581286,-0.36880295547057157,-0.9716151622342754,nm,0.0
13.965015411376953,56.03307582196931,65.25998563038986,0.33651102621795603,-2.0278021577769754,-0.7505798764695956,0.9870319740731,0.28446335521769034,0.3088588457771501,-1.0416512842757932,nm,0.0
13.967807531356812,58.87327109131967,68.07456866233034,-2.2953928175563147,-1.7185751403995035,-1.1694598488839405,-0.03590240344047788,0.2258425305656719,0.5599621298882915,-1.1026225620388377,nm,0.0
13.970150470733643,62.23193840526838,71.47256990529668,-4.309778295002255,-1.3927970418585691,-1.6033399246130378,-0.8368977336723679,0.2616706089773555,0.6679556106915747,-1.081309487501679,nm,0.0
13.986427783966064,65.32686346259571,74.35300879345263,-5.765699537556106,-1.6782532937582868,-1.3751397780798404,-1.6581628433452564,0.22219020060807565,0.5618441675308338,-0.9239228630935006,nm,0.0
13.988590478897095,68.0482787025032,75.85832853179708,-7.011043380635954,-1.7291327931151335,-1.3243884559620205,-2.1594982951689,0.16297057839033136,0.2873038849724428,-0.8155340430977922,nm,0.0
14.001018524169922,71.39907281903366,74.61163266910354,-8.635924000433022,-0.6790513960219723,-2.3999845430486135,-1.3101760061909271,-0.006751800352137065,-0.24187272022483883,-0.3742000433365496,nm,0.0
14.017932176589966,69.36469194748413,73.0517416427123,-9.664411959094151,-0.5984774487762328,-1.761859139886222,-0.851522224402751,-0.17093142918091492,-0.28957691379708284,0.16291317594238466,nm,0.0
14.029972314834595,57.98549919831754,71.37930854039834,-14.505538455259979,1.0050791990176837,-1.8065956886193073,1.3742263254456057,-0.4904174866622566,0.020940402929188872,0.7456316621368768,nm,0.0
14.05528974533081,46.15778484603829,72.0490326223963,-19.397709289765455,1.5011181049325826,-1.2164052244075723,1.6459966276030633,-0.6796217030046035,0.3443178184368526,1.2995875900163527,nm,0.0
14.058445692062378,32.120484448973166,73.296093662208,-25.08091440095128,1.76519864042624,-0.8532167235666052,1.6506500324665647,-0.6875360720572313,0.5454172858767907,1.59838364686744,nm,0.0
14.080554962158203,7.335170428424621,74.05124451614357,-32.01728233955535,3.360280104230983,0.1453683602769373,0.044332771293860505,-0.5166084754533983,0.32581602732664394,1.8425460577632338,nm,0.0
14.082717180252075,2.203452163849953,74.2665356525951,-28.276453951360555,2.8557623518681683,0.7918789179250291,-1.0188499763382046,-0.2299019435706638,0.17134709739619933,1.78720387405569,nm,0.0
14.126355171203613,6.547378465482549,74.13682195740734,-10.740873032505913,1.6843766357114516,1.9833096636917196,-1.088435343459939,0.14921762085024864,-0.12345797921873528,1.2331156942115131,nm,0.0
14.130202054977417,9.766507749876958,69.17027845428683,-1.8015819290398487,0.38790602354357817,1.4586440193651222,0.6725799672916487,-0.08326837634032963,-0.36881620367089896,0.03176180145200301,nm,0.0
14.133389711380005,8.761870161985632,68.062287164386,-4.244718005252533,-0.1224986245346114,0.8977801177100602,0.833918956446397,-0.08880941447197704,-0.2284782124459448,-0.3113829819539875,nm,0.0
14.189664363861084,11.35999516653904,67.94922766764888,-8.062103168161336,0.08480904889199868,-0.1117815466054012,-0.3937342847794216,0.16897059147534266,0.03993882300022502,-0.668326045338061,nm,0.0
14.192022562026978,25.898856920366665,68.4281781368242,-2.476682448694504,-1.497692046577601,0.09924635582185669,-0.9801929923557866,0.6424893859256174,-0.13388646175210997,-0.9116966040933231,nm,0.0
14.208502054214478,34.96119762547484,66.12209409230687,1.0581228307548483,-1.1823470146602004,-0.4419708028688001,0.1351196026221802,0.6887704515698277,-0.4757356063368518,-1.0078773512948744,nm,0.0
14.22771668434143,49.62741209768431,61.26495523923539,3.521650227299479,-2.123595462392926,-0.9244296878128792,2.117586394952267,0.6803009406572249,-0.332583750202186,-1.188421291982616,nm,0.0
14.229901790618896,55.7248646921124,61.920833562756734,3.3048070343223004,-1.5729540884941566,-1.537245457103219,2.3306241896295417,0.564870131580525,0.1640850400980851,-1.1692720489373856,nm,0.0
14.232091188430786,59.635299541573175,64.7029479106527,2.0888157238833145,-2.224074991600387,-1.1382350337947744,0.3698094173348645,0.31681338797525593,0.5724873596058936,-0.9846238715376291,nm,0.0
14.235153436660767,64.8587920144188,68.48641649348782,1.5723831480909318,-1.6307116355985118,-1.6403572885705782,-0.743760727162887,0.381844972612499,0.771561530695353,-1.0987075618568523,nm,0.0
14.250556707382202,71.34608945575474,72.10557107738572,2.789005789820054,-1.1332039704724481,-1.8874353833287567,-1.427014172673511,0.4004107441101203,0.7430056737947971,-0.9926663620621659,nm,0.0
14.257986783981323,75.70317243402302,74.43770825258906,3.6673928253199413,-1.8978965142999404,-1.165367389555041,-2.3907712972501716,0.21428355081934605,0.4836590320201539,-0.6720187806948618,nm,0.0
14.262122392654419,78.51051879948018,74.97732382267168,3.3300250164670655,-1.7296190858421758,-1.1989699889154768,-2.502338357979768,0.13151117015537825,0.11962497898016355,-0.6384210827036914,nm,0.0
14.28262209892273,78.40621569894384,72.42066935163301,0.005753673243540126,-1.2421835022780645,-1.1115130200760341,-1.157448907407809,-0.07565887716532169,-0.3230528087097241,-0.20496723781037984,nm,0.0
14.291222333908081,76.42592029349981,71.07490835860666,-1.9855606953726819,-0.6011998782828116,-1.3934737537585566,-0.4036050261340252,-0.1373696264299263,-0.2658827422225184,-0.04208154240636366,nm,0.0
14.323683023452759,67.09577294893715,71.95568533777573,-4.557792519112545,0.06821001737523504,-0.7857826400404301,0.6606401309890596,-0.39822259137374,0.24460847273982284,0.8925685967705602,nm,0.0
14.326238870620728,56.00192344136443,73.40099073421149,-10.12027896299987,1.2300293243566984,-0.8868540819165679,1.0897680864344292,-0.6267507923925908,0.37138271534802975,1.029077650773103,nm,0.0
14.32857084274292,39.146060746782986,74.31438417116772,-19.32257190249115,2.4020243608512435,-1.183427371952572,1.3448183932406412,-0.8663549683947147,0.41326801478770303,1.4612729598046885,nm,0.0
14.349093675613403,10.933627818855486,73.8328728540446,-30.310909750947303,2.8504410472818837,0.07452230156541574,0.26026648796324775,-0.5910520587693288,0.20417820257119954,1.6395322052015597,nm,0.0
14.386049032211304,3.883026343916265,72.81677428510882,-22.85701890833549,2.2911035609397215,1.2601402608681724,-0.643434202036652,-0.13001424099319545,-0.05632347973715844,1.3811507055776433,nm,0.0
14.388532638549805,5.216880224751948,72.38558692900645,-16.790728771711603,1.5855818409515254,1.6230251380010026,-0.6590783058409906,0.03800739745616232,-0.11758688120670868,0.9520483139239834,nm,0.0
14.409292697906494,7.314227639488364,71.72199012156472,-12.144445149511606,1.0658331058033825,1.7540251796946131,-0.334564173830566,0.08517967963665866,-0.170807522419122,0.5224622869087089,nm,0.0
14.412262201309204,10.374952485392896,69.37970431744786,-8.989067327636487,0.8285144391004001,0.88862129926713,0.48426522303111214,0.06002156930567652,-0.2656603011951163,-0.14172067550907474,nm,0.0
14.41429591178894,12.956553074734057,68.67907823958227,-8.371328391567564,0.6522836486949724,0.44806953847609066,0.8439727067946726,0.15605579208329307,-0.17615346905269835,-0.3688005688328431,nm,0.0
14.437804698944092,16.762147398583807,68.4298462749281,-7.035742120203577,0.195571561686089,0.10066096842286607,0.7921467848977087,0.26344122754290494,-0.09562792378604802,-0.4520287788949236,nm,0.0
14.439903259277344,21.869399878643364,68.42506546626981,-4.617064045668957,-0.07707541980835982,-0.1928619066713133,0.36733952368930445,0.36754150536759383,-0.04720775891256749,-0.47728510174646377,nm,0.0
14.45921802520752,42.548809541149154,68.21298088343109,6.07729676151881,-0.9181912683209931,-0.3520762859324092,-0.8262907102605794,0.47093069020264233,-0.06321660836482604,-0.6110947015464948,nm,0.0
14.466782808303833,46.87513288556513,66.94601964154818,6.288341601288891,-1.3214549982935426,-0.5175168058824682,-0.3925836867876864,0.3486036858486429,-0.222010388264369,-0.7700218801264639,nm,0.0
14.495500087738037,54.362334179203835,65.2278134772523,-0.14196893280432896,-2.2219378466250315,-0.9824794604665094,1.3189064593756878,0.23338229807494562,0.11543355418603181,-0.9183927380853617,nm,0.0
14.522665977478027,59.86018256798784,69.81388182736254,-1.8299711162082704,-2.405214341239965,-0.8924894479931417,-0.5588011383612393,0.1821939637387059,0.5099645892149742,-0.588459820434753,nm,0.0
