timestamp,roll,pitch,yaw,acc_x,acc_y,acc_z,gyro_x,gyro_y,gyro_z,markers,motor_input
32.54423499107361,38.38132414197574,6.769354178652532,-82.30625749620106,0.117735058649239,-0.038133316095737176,0.12975013575227812,0.03953259214498646,-0.006942755423308925,-0.17324164097913933,nm,0.0
32.54653024673462,38.48134203307393,6.955208031415787,-83.00135226041994,0.09039798353242193,-0.06411037275035283,0.1575928583786555,0.03446963837032908,-0.02162014350942455,-0.17364689938494407,nm,0.0
32.60135102272034,38.77744561763758,7.127844845775538,-84.2151458965265,0.07838479223010174,-0.011092356281873886,0.1514314933887679,0.007173680924651206,-0.03725965148310226,-0.15303504684631727,nm,0.0
32.6044237613678,38.96203050240291,7.098044502414458,-84.74418603321948,0.08124233007383735,0.050425443452550275,0.15290914003657718,-0.007489815351515506,-0.0435782797938224,-0.1432869891265458,nm,0.0
32.60707139968872,39.17974380636365,7.061877229044914,-85.23568973376597,0.10885687014777698,0.1143204534280616,0.10987745396524275,-0.008525055157737129,-0.05018534593142409,-0.1341021890593954,nm,0.0
32.60934329032898,39.46698884179111,7.076026582382244,-85.71025117432151,0.0980956168067176,0.17309656684666969,0.11241907977853377,0.002250499308771649,-0.06307476233878617,-0.13005001133374935,nm,0.0
32.61169362068176,39.82658449677079,7.153884965215123,-86.27864764106144,0.11516669711763647,0.22224888601394113,0.056736413054514837,0.015432877187148275,-0.0765161718402886,-0.1346936888815519,nm,0.0
32.61406183242798,40.25229651060652,7.297064732895303,-86.87865119040481,0.0994565991957436,0.22631682326256006,0.018482746513185207,0.028572460987863195,-0.0889439056342511,-0.14288383654660525,nm,0.0
32.63672947883606,40.81830263735793,7.746438283386136,-87.47481525972364,0.07171328356331604,0.20583605760669407,-0.026919896497014956,0.04420170492981126,-0.09748525612064299,-0.14648478666421721,nm,0.0
32.65742588043213,42.31832593025686,8.958003278994576,-89.14659851228758,-0.05854263359401509,0.01903800117782925,-0.1262921472661307,0.05679024185953244,-0.09519923993775933,-0.12918462556384955,nm,0.0
32.675143003463745,42.864471632707115,9.466120981917834,-89.98430429809606,-0.10624042379753786,-0.02523266055074711,-0.1400509167959821,0.04003181035630296,-0.04292323695465186,-0.0981303453413659,nm,0.0
32.68054127693176,42.85584032847691,9.612112197944079,-90.34698571441102,-0.12546797806479965,-0.03892180162249038,-0.12456574741388553,0.024303217983286097,-0.0037551137960286324,-0.0848172316135004,nm,0.0
32.72029519081116,42.689148369390516,9.70736351070699,-90.6559926993563,-0.09517993649548578,-0.008993146685329446,-0.12962617386434205,0.014364032453925566,0.02741210020586951,-0.06874719641348476,nm,0.0
32.723397731781006,41.94597206096119,9.8930264149148,-91.17866294259866,-0.029044928456433663,0.05593359463323795,-0.09055955233687867,0.0021727219993399106,0.06236416140701277,-0.047583916804581496,nm,0.0
32.727375745773315,41.63397127235482,10.043722634574978,-91.36265173584724,0.009266000020959522,0.07730478838652027,-0.08085006812015334,0.0076200033048841025,0.057915003980881986,-0.03838951307116934,nm,0.0
32.74363040924072,41.43154882174582,10.262460611730775,-91.49093318928848,0.04833492320363844,0.0892273523144556,-0.09479087916218884,0.017661305108525746,0.04549962831729585,-0.03090428063306534,nm,0.0
32.74576258659363,41.33188242245462,10.495543710929288,-91.58677464421025,0.051526471670499195,0.06414286731768253,-0.10175450624322355,0.0,0.0,0.0,nm,0.0
32.748310804367065,41.28586320436784,10.722043003490919,-91.65718922964129,0.00657015552004888,0.014649090887370514,-0.0783360626877753,0.0,0.0,0.0,nm,0.0
32.76391077041626,41.24897012356755,10.904353636580291,-91.72020001262025,-0.05585217149451767,0.010997563311729859,-0.048357516622630055,0.0,0.0,0.0,nm,0.0
32.785810470581055,40.930699625925634,10.968542973872148,-91.83337489662433,-0.16599578357636777,-0.0714590138297467,-0.047898792860286775,0.0,0.0,0.0,nm,0.0
32.78822636604309,40.68476347584615,10.969881112672478,-91.83558239280494,-0.22460236537435463,-0.07124666961237763,0.0362589649201172,0.0,0.0,0.0,nm,0.0
32.79257845878601,40.34959098153949,11.01879702631669,-91.84353042908896,-0.22436567006715202,-0.05392389614642799,0.059021431677557856,0.0,0.0,0.0,nm,0.0
32.81655693054199,39.56203675649098,11.590157577321902,-91.96132302834873,-0.14615634720726564,-0.003875634832327413,0.043276023273622184,0.07158064151193355,0.041313445844075945,-0.012334721861866392,nm,0.0
32.819188833236694,39.2143511779435,12.122176113553026,-92.1022458708296,-0.06645892393202053,0.013915275238522597,-0.05339262938473641,0.09830760501105114,0.042425460065120955,-0.02638556250502374,nm,0.0
32.82827877998352,38.94250532637077,12.632906091309916,-92.29444029670573,-0.06585376656347124,-0.06353396703216284,-0.0672073906300052,0.11315292412932822,0.031071602701870506,-0.039332492427163336,nm,0.0
32.83768153190613,38.80298619701679,13.247694508942647,-92.46982502381616,-0.030245604032677682,-0.1759954144560715,-0.18302081965460953,0.11827483882535943,0.017653023992355587,-0.04133129480258827,nm,0.0
32.855002641677856,38.78545306452064,13.80421907592807,-92.62250383593808,-0.044764262702357886,-0.2954913104692869,-0.25798681304760773,0.10561291580235069,-0.005842187445012271,-0.042260101904968164,nm,0.0
32.879337310791016,39.27579191119963,14.280851483517315,-93.07059775841604,-0.18192594776042492,-0.3483485120452805,-0.2285758927144958,0.008432570284856342,-0.06949014412507745,-0.08455577971365637,nm,0.0
32.88215184211731,39.62978786406326,14.150988240698743,-93.39370919852554,-0.2573392105618635,-0.30657422957364583,-0.22217128008116582,-0.035641114870281085,-0.07128759092483004,-0.09467327885136055,nm,0.0
32.88542032241821,39.5664177655431,13.609355633473227,-93.75765304447273,-0.37224820118861895,-0.24597870510430878,-0.11078344912964547,-0.05660683358929224,-0.07159712362136346,-0.08196461118052137,nm,0.0
32.898014307022095,39.38816606628689,13.049179652426265,-94.04770070436363,-0.4088889480789047,-0.1688703556121718,-0.07773419353904411,-0.07771897719385154,-0.05401568663068809,-0.061906909555131354,nm,0.0
32.914700746536255,39.43557055254008,12.027278675029772,-94.13894562259921,-0.4781637791649471,-0.148885579037827,0.02019690306582367,-0.11409418061585426,0.016814584321966267,-0.006177751824846138,nm,0.0
32.93203163146973,39.16938538175254,11.442045455423225,-94.03944316372386,-0.4108892192948908,-0.07860801571001322,0.0404927490691746,-0.11915062021935095,0.055764821251590796,0.018487506396120408,nm,0.0
32.939555406570435,38.43368987896789,10.825621747198909,-93.97497413652668,-0.2926189251940538,-0.03217922437214052,0.03356103890315323,-0.11230484096282994,0.08672971634020676,0.029469844188062245,nm,0.0
32.95383834838867,37.01841895106065,10.250038091425486,-93.77157543036338,-0.06911960269979632,0.029454346708597492,0.026401782031774644,-0.037983751007502176,0.11820035415558874,0.033184792447906404,nm,0.0
32.97134256362915,36.42946520413864,10.182440733614008,-93.71306305445437,0.0,0.0,0.0,-0.008383819288931353,0.11184879558373519,0.020694303542730642,nm,0.0
32.976736545562744,35.994363180436636,10.093158052326181,-93.67598365635178,0.02742578820628913,-0.10319383860453514,-0.06554031816937159,0.005990525357351349,0.09207085182393518,0.010792255667013782,nm,0.0
33.00657773017883,35.72338682422768,9.890182218308173,-93.61276155791516,0.0407457329163058,-0.19396661065012588,-0.10794971029290203,0.003844885530005009,0.06330633509380153,0.010114060959226897,nm,0.0
33.00881242752075,35.75022674962419,8.970834604631591,-93.27400480637786,-0.050886022996956735,-0.28660273330336317,-0.07072549094762437,-0.04939062839726305,-0.028244370833964298,0.027318424081452197,nm,0.0
33.01103448867798,35.989612975574026,8.353877171622479,-92.98817384498611,-0.10610273487106603,-0.2354639460848169,-0.04660844332447896,-0.07879856994482368,-0.07005662155530588,0.03855654607045142,nm,0.0
33.02762532234192,36.27161654982246,7.741731246915296,-92.69653539690658,-0.1823629180676919,-0.14262844986593437,0.023777503251058756,-0.1011062391968705,-0.0942486618449856,0.03912583493585921,nm,0.0
33.02986431121826,36.479563113923014,7.201713825249679,-92.46969416951234,-0.24515486529350858,-0.0513025090496724,0.05329642865272528,-0.1055618169099941,-0.0928933922008995,0.028656133231351574,nm,0.0
33.03905153274536,36.546450201495645,6.826823938298348,-92.34169338203648,-0.2876141509062628,0.032326179077076446,0.04523395036956474,-0.08857674510051014,-0.07564509905611616,0.012607595556151815,nm,0.0
33.06449794769287,36.08002631087083,6.479364277755347,-92.44695951755234,-0.34039715830419476,0.07476041191925555,-0.0035301831392638944,-0.04665682812731822,-0.009194547275801195,-0.025544034300511397,nm,0.0
33.06870150566101,35.53997396076132,6.350564053703572,-92.60070737330533,-0.34191363890600274,0.018204445255778176,-0.024001693322347424,-0.03545369191833189,0.028036187941824782,-0.03002244344260295,nm,0.0
33.09254240989685,34.09765820937575,5.893537558621282,-92.76804849175664,-0.2568306000024704,-0.040142465600063466,0.007231431200170487,-0.04746692854635967,0.09207036536672857,-0.0045253211106152345,nm,0.0
33.09479308128357,33.327221141490504,5.514510990026698,-92.72806089166005,-0.18877001115657552,-0.06560458828472272,0.065977482423442,-0.06190564444427959,0.11204655071186453,0.012284599353667946,nm,0.0
33.15081071853638,32.71946258347101,5.172345957309309,-92.62096803120411,-0.07388776877347067,-0.049629933127895626,0.10701489729651145,-0.06990778256872811,0.11813314178785832,0.021803284762615376,nm,0.0
33.15419292449951,31.667104681254383,4.458276145408857,-92.59955723512779,0.08582910514071375,-0.014777119496866392,0.13940294024368852,-0.07298171533885744,0.09271191788982801,-0.012482863810392169,nm,0.0
33.15789580345154,31.205008129396298,3.911563715767343,-93.1010651409403,0.10520912229371633,-0.06042184503496813,0.1492953870280135,-0.05752882280115208,0.023830174025194918,-0.07203011965507992,nm,0.0
33.1743438243866,31.39304403650358,3.2398410531038753,-93.8648598120785,8.920734363456973e-06,-0.22168587606414522,0.2129451040393356,-0.0851547966945679,-0.03051715903016287,-0.08680023342727854,nm,0.0
33.17776846885681,31.54548517686658,2.7174281091782766,-94.14955307858108,-0.019258757523301924,-0.22970199771057306,0.20692195669900904,-0.11403572431363979,-0.02949279094768534,-0.06912501507951872,nm,0.0
33.183462381362915,31.69103837078209,2.0430150246271235,-94.31924885332342,0.0017298916303430507,-0.16999060487339537,0.1886900393188853,-0.14438465156849684,-0.02556492412360679,-0.0456540274481093,nm,0.0
33.20149755477905,31.821980784870306,1.2984072186656836,-94.37765025617108,0.03078422415853157,-0.033632290540656376,0.22473411772052784,-0.1582097414019571,-0.02145128663462016,-0.022846422413070534,nm,0.0
33.22276067733765,32.19463131422771,0.0004065349230197274,-94.34693018682948,0.10242494983763883,0.18625646970630075,0.12294946635087708,-0.12826104255336276,-0.048506704048785584,-0.006257437717033841,nm,0.0
33.24657845497131,33.2672614604144,-0.37126133862251387,-94.64958246173126,-0.06028519845306388,0.0641958263932254,0.09913848356714246,0.010860547101313381,-0.08298222398501055,-0.04468253274280473,nm,0.0
33.250410318374634,33.54007701022677,-0.14429493069608199,-94.90416173027779,-0.10865645291985129,-0.04590208480624578,0.016601956557749986,0.03345704791970212,-0.06507199892055349,-0.06117511870855894,nm,0.0
33.25799059867859,33.57043664485958,-0.10595398851857435,-95.2036861323351,-0.1558699017173726,-0.12976697254174033,-0.020941971895006663,0.028754926678395316,-0.04850325492758973,-0.07041468436821098,nm,0.0
33.28023052215576,33.266704765613646,-0.3505531878402114,-95.65256609302281,-0.17274707292657426,-0.12109579415743411,-0.027428802845960148,0.0,0.0,0.0,nm,0.0
33.29801416397095,32.96849094155551,-0.5573824599979232,-95.7320488064686,-0.1436062372930878,-0.04884077739435037,0.004515253707108588,0.0,0.0,0.0,nm,0.0
33.30800533294678,32.59556135919837,-0.7707563278895058,-95.72661706165752,-0.10293402779375592,0.011009094012179881,0.05078316292007659,-0.04695734286821323,0.05023805331987994,-0.00997024161410916,nm,0.0
33.31118702888489,32.186459125159004,-0.9239069866854688,-95.65930254351211,-0.03842714403983136,0.0687360314449117,0.07049235574801826,-0.04443146838722506,0.06844274232048767,0.002158682062147676,nm,0.0
33.32405209541321,31.46044956841314,-1.017128883363967,-95.56845216982221,0.06319539225822925,0.06490906066158089,0.06973195455384311,-0.019183252596016727,0.07416175907963185,-0.007835753439391437,nm,0.0
33.341041564941406,31.211585386376015,-1.0235384047508955,-95.64142350755337,0.08281273568542204,0.03128562234976105,0.07785235177346209,-0.010644765580474712,0.05991141668828887,-0.025524627046873267,nm,0.0
33.37609243392944,31.00493580111636,-1.0208364711384457,-96.02824883128115,0.0815262206978843,-0.0077277510567687,0.049204439648662696,-0.008416089157480522,0.018921084741254722,-0.05551601745960223,nm,0.0
33.37824201583862,31.03173524569187,-1.0333813574165456,-96.28279937286025,0.04236219643871506,-0.003326340978867649,0.07371067690758716,-0.014851096790456644,-0.0025532387673330354,-0.060890247980005044,nm,0.0
33.38043189048767,31.105832944804366,-1.0514106727365955,-96.530814989473,0.016888222409871794,0.040965115252997404,0.05866911277177214,-0.021772623824027042,-0.017516609359023914,-0.05942131664158586,nm,0.0
33.38719058036804,31.219395019184525,-1.078953358104808,-96.75464822449271,-0.01603448036468419,0.059413346065531204,0.03673312989320791,-0.028399100534566707,-0.029336793731734246,-0.05443807599675378,nm,0.0
33.412628173828125,31.36785693856256,-1.162682788088824,-97.09869726297262,-0.03950184299674698,0.005128510939098127,0.01022913850656173,-0.021895287931737437,-0.023212947064764566,-0.040474004366806225,nm,0.0
33.4150276184082,31.364623118471158,-1.226601620601821,-97.23145670613056,-0.03315568585682382,-0.02574880736134728,-0.017441620874892157,0.0,0.0,0.0,nm,0.0
33.43117332458496,31.305266274764534,-1.3647077174732898,-97.37939175900829,-0.030065652472147736,-0.07740514403477583,-0.04081400461521425,0.0,0.0,0.0,nm,0.0
33.44049525260925,31.20155114833013,-1.6076145510002404,-97.57217548401984,-0.03059359912571452,-0.11818789479571527,-0.0391382016185527,-0.02639994867812889,0.01314423062285194,-0.04911749793305853,nm,0.0
33.443188190460205,31.03741174990031,-1.7849433385680902,-97.81643551853601,-0.16065064859988276,-0.13725593541682135,0.397704039326386,-0.038914922284102864,0.03063955703185938,-0.059792118874825384,nm,0.0
33.46519422531128,30.48213114546556,-2.003787093146268,-98.07567997913957,-0.03395875706967804,-0.24589835331107163,0.3414432375949369,-0.036294122168139986,0.10948005193608573,-0.06539466890993617,nm,0.0
33.46853566169739,29.765449473027854,-2.3332796342266873,-98.29120489239477,0.23169230410768119,-0.23670386870421717,-0.19334908365722298,-0.05330845216819364,0.1447013956448604,-0.05825743210184719,nm,0.0
33.479994773864746,29.734175347053363,-2.932909119122154,-98.46478486062588,0.2794204998067395,-0.08400645709124191,-0.06447429502217455,-0.10689991528431254,0.08128700619017801,-0.04497287182428375,nm,0.0
33.49675011634827,29.76677967418143,-3.840822813552356,-98.54985869819551,0.2836312674467613,0.12399516542725168,0.1391472705957232,-0.07608614744043696,-0.020486382993678352,-0.008806280909436994,nm,0.0
33.50574040412903,30.009160186179813,-3.934767838952464,-98.62805997863397,0.3016115767275319,0.13488540110929223,0.09576209573934653,-0.03427543066443138,-0.05197058747282011,-0.021858038311538607,nm,0.0
33.53266453742981,31.021444584574873,-3.869758185786872,-99.27722984527998,0.09777003287143045,-0.10306598212309472,0.02468451439851978,3.702400238422678e-05,-0.08631982140225092,-0.0768283831866963,nm,0.0
33.53644275665283,31.4996801752246,-3.860524137217016,-99.63184860403152,0.0020019794441227066,-0.16453723619560795,0.029044737265252116,0.013683377099077566,-0.09990141635161885,-0.07409163057721975,nm,0.0
