timestamp,roll,pitch,yaw,acc_x,acc_y,acc_z,gyro_x,gyro_y,gyro_z,markers,motor_input
32.037068367004395,33.1575579915514,3.1858137856466118,-66.62368270801318,-0.04729717488854797,-0.05732213208508027,0.09953712491665273,0.11625680501412282,-0.06345534925155756,-0.09543067847265728,nm,0.0
32.05568528175354,34.0675433156677,3.8815151989814223,-67.07779524346509,-0.013646596397034855,-0.11794564464066054,0.140298637649891,0.0866081942418707,-0.06458609168937213,-0.05103871490715334,nm,0.0
32.06191110610962,34.435747076198844,4.0924890687250395,-67.2009900917563,0.013922836732695319,-0.10409610232727924,0.14615201049976115,0.06408408018696082,-0.06001362676618226,-0.04087213591508372,nm,0.0
32.08560585975647,35.002466658574164,4.4172532693161335,-67.56584561463738,0.0722794287824849,-0.035587404899723334,0.14367601247934741,0.04650845844872296,-0.042920721538593595,-0.05932033000148061,nm,0.0
32.110880851745605,35.492492622101395,4.788849790294365,-68.29512868625616,0.09013518090009548,-0.007673569758395946,0.11685510375942892,0.05005857925146452,-0.040313399771901105,-0.09636544952639196,nm,0.0
32.16712665557861,35.72461053677598,4.957567699573768,-68.71367275219419,0.07925020644285131,-0.03083920671637595,0.10021183104221254,0.044901616669340845,-0.03901625917036772,-0.0990745628646383,nm,0.0
32.18079948425293,36.187694020759864,5.116002472266181,-69.29264718416772,0.04515820246429403,-0.05245601803310812,0.04344588059127962,0.020535931389853358,-0.05262795428033159,-0.062292986676204073,nm,0.0
32.184168100357056,36.650102249835925,4.802202423513935,-69.50371862992202,0.038943379541278224,-0.015598189748625733,0.020785193805752132,-0.02517991935732669,-0.05849636398526445,-0.030433204916665218,nm,0.0
32.18623900413513,36.98924410477155,4.396238536597342,-69.57203053307929,0.07002726851611839,0.02676925371822107,-0.008379258438677397,-0.039520266580160994,-0.03068771241510914,-0.04173846081713688,nm,0.0
32.19820427894592,37.05136701737834,4.169794635180834,-70.01496874799875,0.057641842689276614,0.05417016460420277,0.021226351479139993,-0.032998977783977194,-0.0012890934061329136,-0.07211663412792217,nm,0.0
32.20357584953308,36.86438597067196,3.98819150008688,-70.6166710421829,0.0717089047219157,0.09001058512483663,-0.028041996489371415,-0.04778787233041687,0.021398403378328823,-0.06492834467769121,nm,0.0
32.2287232875824,36.53621573081752,3.7595049047208615,-70.71038212920404,0.06499826156670319,0.1589825914783057,0.02351523846566379,-0.07399484739073343,0.031117609078858906,-0.020417014756123134,nm,0.0
32.25256419181824,36.235973274481196,3.526759179773001,-70.59250656906258,0.10383770587632507,0.18318593447125978,0.0760580923687917,-0.06996205776772943,0.029613922399898514,0.0056188113887097315,nm,0.0
32.259069204330444,35.896520254959206,3.3326017403431063,-70.57776499432954,0.12463617835535315,0.16450031431938078,0.09021171527958749,-0.06286404436723811,0.042616868933259375,-0.004110236821427374,nm,0.0
32.26334500312805,35.74343772455283,3.296594743494819,-70.64719404822462,0.15145547096447964,0.14369784650051942,0.0460961022124152,-0.05075698227055389,0.04978673552362083,-0.023230369415036128,nm,0.0
32.29046440124512,35.542660533491016,3.2879472171867516,-70.99938922260196,0.1690871590402524,0.09747569814659728,-0.004253818791039739,-0.03032298198887467,0.04440851767910968,-0.05950966123429705,nm,0.0
32.29269456863403,35.521407290494565,3.2894700284689122,-71.19772806093052,0.16320712964592746,0.0862649639361904,-0.021914702863832562,-0.024179519480552858,0.032371452772977545,-0.06506879328605959,nm,0.0
32.299784660339355,35.5520490800236,3.299681320379578,-71.37751000507568,0.1664474005980489,0.05753974624891016,-0.023853997005457078,-0.018073993730818184,0.02211099378338889,-0.06077960687135348,nm,0.0
32.32228326797485,35.84551443767051,3.4527099754090953,-71.60073586377128,0.15274706245072545,0.11981259485705205,-0.0638859920111835,-0.00021420919982949722,-0.006329510301966318,-0.05200806235056279,nm,0.0
32.33975577354431,36.241781600357186,3.775458035422805,-72.00703105138358,0.09631578329310088,0.12933495296257985,-0.060541866348884595,0.01688055492067901,-0.01203125982072535,-0.08143231112391731,nm,0.0
32.35766363143921,36.45961969144154,4.008767420843479,-72.28736789283545,0.0563647252949333,0.10516540119679152,-0.02122024257777789,0.03030495632381717,-0.022381847264348418,-0.10353823637723919,nm,0.0
32.383371353149414,36.79084611774827,4.430337278331814,-73.02832563066939,0.02852242942534705,0.012030155887201103,-0.04105099105626485,0.03978623420991171,-0.023321561349773288,-0.12619944501913383,nm,0.0
32.38579344749451,36.938898996556226,4.55270480798192,-73.43783914287422,-0.020878558680161426,-0.03989122679229325,-0.026242192093236735,0.036030615617634966,-0.030917511829733367,-0.12156309310339333,nm,0.0
32.38804340362549,37.068217979712394,4.5973044007626385,-73.80788167013749,-0.007730275862599953,-0.05336430941815131,-0.06412977108618612,0.024547306647469003,-0.03206496100160464,-0.11204396364022653,nm,0.0
32.442155838012695,37.199791475086364,4.596882322681096,-74.1459760901186,0.002222446450838308,-0.04254313460780226,-0.07891079690675873,0.013454112188097432,-0.03267469691687062,-0.10363522144022669,nm,0.0
32.44466257095337,37.510069167775896,4.658142161293886,-74.87982799206138,0.05178781363823291,0.02004498786982999,-0.07170496979550839,0.007726221655634981,-0.027664285838037882,-0.11505743766230654,nm,0.0
32.44735860824585,37.700081518723465,4.785191184658497,-75.38092864859952,0.057845407127157425,0.05574124994763581,-0.04290684635100765,0.01740755238619644,-0.02438309739222124,-0.13362561688898503,nm,0.0
32.44976353645325,37.99938404078138,5.242510886131155,-76.61413684510885,0.045436240997676035,0.047517380462066855,-0.06767802150392549,0.038586520404442895,-0.00925161362109969,-0.16470980773474275,nm,0.0
32.45196294784546,38.117040488743264,5.45667112740739,-77.28702481037716,0.030322271564629535,0.010811379498167016,-0.040548189730909935,0.04052842860388924,-0.010190138739406319,-0.1668502448523932,nm,0.0
32.46967959403992,38.1800467896359,5.625307346647269,-77.90802011833993,0.02413905933574008,-0.02447902872354316,-0.0264644631458409,0.03665957862533962,-0.005148456707034603,-0.15635241270523298,nm,0.0
32.473031997680664,38.22878030015173,5.7498545550245295,-78.45773302994102,0.007322897803202117,-0.03585777379550619,-0.0036851188272596733,0.02866764382757976,-0.003753674498940393,-0.14056086524705336,nm,0.0
32.479084491729736,38.2570905214734,5.831790423373854,-78.93865858393819,0.03890947950397295,0.004419747573967554,0.030620930808045684,0.01610597891877773,0.0011072869330635473,-0.12855372995767875,nm,0.0
32.48590898513794,38.272100856905844,5.902549983318589,-79.38040381662825,0.06407340240794537,0.006713018790287277,0.05039310715385642,0.006739806103745246,0.008640552018570006,-0.12324904518398178,nm,0.0
32.4991455078125,38.29272080066247,6.004127983011857,-79.84410537574551,0.09119561456945498,0.043209117096778084,0.0800967245234643,0.006686947727604526,0.013299285244816052,-0.1259920768582823,nm,0.0
32.51069974899292,38.326387589902126,6.150612420618007,-80.36267776824127,0.13031573425663517,0.05525413556323888,0.07891884188422565,0.014195844256868423,0.018142940108872258,-0.1364696395759446,nm,0.0
32.51737833023071,38.38811491850433,6.333653839270046,-80.95331974335052,0.1502632054932596,0.014902569007728109,0.08027402075623397,0.0262745650663431,0.016881852723776968,-0.15042034018097183,nm,0.0
32.54423499107361,38.38132414197574,6.769354178652532,-82.30625749620106,0.117735058649239,-0.038133316095737176,0.12975013575227812,0.03953259214498646,-0.006942755423308925,-0.17324164097913933,nm,0.0
32.54653024673462,38.48134203307393,6.955208031415787,-83.00135226041994,0.09039798353242193,-0.06411037275035283,0.1575928583786555,0.03446963837032908,-0.02162014350942455,-0.17364689938494407,nm,0.0
32.60135102272034,38.77744561763758,7.127844845775538,-84.2151458965265,0.07838479223010174,-0.011092356281873886,0.1514314933887679,0.007173680924651206,-0.03725965148310226,-0.15303504684631727,nm,0.0
32.6044237613678,38.96203050240291,7.098044502414458,-84.74418603321948,0.08124233007383735,0.050425443452550275,0.15290914003657718,-0.007489815351515506,-0.0435782797938224,-0.1432869891265458,nm,0.0
32.60707139968872,39.17974380636365,7.061877229044914,-85.23568973376597,0.10885687014777698,0.1143204534280616,0.10987745396524275,-0.008525055157737129,-0.05018534593142409,-0.1341021890593954,nm,0.0
32.60934329032898,39.46698884179111,7.076026582382244,-85.71025117432151,0.0980956168067176,0.17309656684666969,0.11241907977853377,0.002250499308771649,-0.06307476233878617,-0.13005001133374935,nm,0.0
32.61169362068176,39.82658449677079,7.153884965215123,-86.27864764106144,0.11516669711763647,0.22224888601394113,0.056736413054514837,0.015432877187148275,-0.0765161718402886,-0.1346936888815519,nm,0.0
32.61406183242798,40.25229651060652,7.297064732895303,-86.87865119040481,0.0994565991957436,0.22631682326256006,0.018482746513185207,0.028572460987863195,-0.0889439056342511,-0.14288383654660525,nm,0.0
32.63672947883606,40.81830263735793,7.746438283386136,-87.47481525972364,0.07171328356331604,0.20583605760669407,-0.026919896497014956,0.04420170492981126,-0.09748525612064299,-0.14648478666421721,nm,0.0
32.65742588043213,42.31832593025686,8.958003278994576,-89.14659851228758,-0.05854263359401509,0.01903800117782925,-0.1262921472661307,0.05679024185953244,-0.09519923993775933,-0.12918462556384955,nm,0.0
32.675143003463745,42.864471632707115,9.466120981917834,-89.98430429809606,-0.10624042379753786,-0.02523266055074711,-0.1400509167959821,0.04003181035630296,-0.04292323695465186,-0.0981303453413659,nm,0.0
32.68054127693176,42.85584032847691,9.612112197944079,-90.34698571441102,-0.12546797806479965,-0.03892180162249038,-0.12456574741388553,0.024303217983286097,-0.0037551137960286324,-0.0848172316135004,nm,0.0
32.72029519081116,42.689148369390516,9.70736351070699,-90.6559926993563,-0.09517993649548578,-0.008993146685329446,-0.12962617386434205,0.014364032453925566,0.02741210020586951,-0.06874719641348476,nm,0.0
32.723397731781006,41.94597206096119,9.8930264149148,-91.17866294259866,-0.029044928456433663,0.05593359463323795,-0.09055955233687867,0.0021727219993399106,0.06236416140701277,-0.047583916804581496,nm,0.0
32.727375745773315,41.63397127235482,10.043722634574978,-91.36265173584724,0.009266000020959522,0.07730478838652027,-0.08085006812015334,0.0076200033048841025,0.057915003980881986,-0.03838951307116934,nm,0.0
32.74363040924072,41.43154882174582,10.262460611730775,-91.49093318928848,0.04833492320363844,0.0892273523144556,-0.09479087916218884,0.017661305108525746,0.04549962831729585,-0.03090428063306534,nm,0.0
32.74576258659363,41.33188242245462,10.495543710929288,-91.58677464421025,0.051526471670499195,0.06414286731768253,-0.10175450624322355,0.0,0.0,0.0,nm,0.0
32.748310804367065,41.28586320436784,10.722043003490919,-91.65718922964129,0.00657015552004888,0.014649090887370514,-0.0783360626877753,0.0,0.0,0.0,nm,0.0
32.76391077041626,41.24897012356755,10.904353636580291,-91.72020001262025,-0.05585217149451767,0.010997563311729859,-0.048357516622630055,0.0,0.0,0.0,nm,0.0
32.785810470581055,40.930699625925634,10.968542973872148,-91.83337489662433,-0.16599578357636777,-0.0714590138297467,-0.047898792860286775,0.0,0.0,0.0,nm,0.0
32.78822636604309,40.68476347584615,10.969881112672478,-91.83558239280494,-0.22460236537435463,-0.07124666961237763,0.0362589649201172,0.0,0.0,0.0,nm,0.0
32.79257845878601,40.34959098153949,11.01879702631669,-91.84353042908896,-0.22436567006715202,-0.05392389614642799,0.059021431677557856,0.0,0.0,0.0,nm,0.0
32.81655693054199,39.56203675649098,11.590157577321902,-91.96132302834873,-0.14615634720726564,-0.003875634832327413,0.043276023273622184,0.07158064151193355,0.041313445844075945,-0.012334721861866392,nm,0.0
32.819188833236694,39.2143511779435,12.122176113553026,-92.1022458708296,-0.06645892393202053,0.013915275238522597,-0.05339262938473641,0.09830760501105114,0.042425460065120955,-0.02638556250502374,nm,0.0
32.82827877998352,38.94250532637077,12.632906091309916,-92.29444029670573,-0.06585376656347124,-0.06353396703216284,-0.0672073906300052,0.11315292412932822,0.031071602701870506,-0.039332492427163336,nm,0.0
32.83768153190613,38.80298619701679,13.247694508942647,-92.46982502381616,-0.030245604032677682,-0.1759954144560715,-0.18302081965460953,0.11827483882535943,0.017653023992355587,-0.04133129480258827,nm,0.0
32.855002641677856,38.78545306452064,13.80421907592807,-92.62250383593808,-0.044764262702357886,-0.2954913104692869,-0.25798681304760773,0.10561291580235069,-0.005842187445012271,-0.042260101904968164,nm,0.0
32.879337310791016,39.27579191119963,14.280851483517315,-93.07059775841604,-0.18192594776042492,-0.3483485120452805,-0.2285758927144958,0.008432570284856342,-0.06949014412507745,-0.08455577971365637,nm,0.0
32.88215184211731,39.62978786406326,14.150988240698743,-93.39370919852554,-0.2573392105618635,-0.30657422957364583,-0.22217128008116582,-0.035641114870281085,-0.07128759092483004,-0.09467327885136055,nm,0.0
32.88542032241821,39.5664177655431,13.609355633473227,-93.75765304447273,-0.37224820118861895,-0.24597870510430878,-0.11078344912964547,-0.05660683358929224,-0.07159712362136346,-0.08196461118052137,nm,0.0
32.898014307022095,39.38816606628689,13.049179652426265,-94.04770070436363,-0.4088889480789047,-0.1688703556121718,-0.07773419353904411,-0.07771897719385154,-0.05401568663068809,-0.061906909555131354,nm,0.0
32.914700746536255,39.43557055254008,12.027278675029772,-94.13894562259921,-0.4781637791649471,-0.148885579037827,0.02019690306582367,-0.11409418061585426,0.016814584321966267,-0.006177751824846138,nm,0.0
32.93203163146973,39.16938538175254,11.442045455423225,-94.03944316372386,-0.4108892192948908,-0.07860801571001322,0.0404927490691746,-0.11915062021935095,0.055764821251590796,0.018487506396120408,nm,0.0
32.939555406570435,38.43368987896789,10.825621747198909,-93.97497413652668,-0.2926189251940538,-0.03217922437214052,0.03356103890315323,-0.11230484096282994,0.08672971634020676,0.029469844188062245,nm,0.0
32.95383834838867,37.01841895106065,10.250038091425486,-93.77157543036338,-0.06911960269979632,0.029454346708597492,0.026401782031774644,-0.037983751007502176,0.11820035415558874,0.033184792447906404,nm,0.0
32.97134256362915,36.42946520413864,10.182440733614008,-93.71306305445437,0.0,0.0,0.0,-0.008383819288931353,0.11184879558373519,0.020694303542730642,nm,0.0
32.976736545562744,35.994363180436636,10.093158052326181,-93.67598365635178,0.02742578820628913,-0.10319383860453514,-0.06554031816937159,0.005990525357351349,0.09207085182393518,0.010792255667013782,nm,0.0
33.00657773017883,35.72338682422768,9.890182218308173,-93.61276155791516,0.0407457329163058,-0.19396661065012588,-0.10794971029290203,0.003844885530005009,0.06330633509380153,0.010114060959226897,nm,0.0
33.00881242752075,35.75022674962419,8.970834604631591,-93.27400480637786,-0.050886022996956735,-0.28660273330336317,-0.07072549094762437,-0.04939062839726305,-0.028244370833964298,0.027318424081452197,nm,0.0
33.01103448867798,35.989612975574026,8.353877171622479,-92.98817384498611,-0.10610273487106603,-0.2354639460848169,-0.04660844332447896,-0.07879856994482368,-0.07005662155530588,0.03855654607045142,nm,0.0
33.02762532234192,36.27161654982246,7.741731246915296,-92.69653539690658,-0.1823629180676919,-0.14262844986593437,0.023777503251058756,-0.1011062391968705,-0.0942486618449856,0.03912583493585921,nm,0.0
33.02986431121826,36.479563113923014,7.201713825249679,-92.46969416951234,-0.24515486529350858,-0.0513025090496724,0.05329642865272528,-0.1055618169099941,-0.0928933922008995,0.028656133231351574,nm,0.0
