timestamp,roll,pitch,yaw,acc_x,acc_y,acc_z,gyro_x,gyro_y,gyro_z,markers,motor_input
39.007079124450684,1.3576803430756323,33.35729410294397,127.08692000195828,0.05427555444158383,0.8001139172930065,0.5522789725947065,0.09068613508070103,-0.13262411664641885,0.17782304555432207,nm,0.0
39.00923705101013,-0.029592914532798973,33.48374922586303,127.50004015367253,-0.01725402510857548,0.5146523644927793,0.4677904379848927,0.1273112731273634,-0.1902620904904021,0.2274600787359804,nm,0.0
39.07893705368042,-4.841240116268365,34.41130688152336,128.43612838221824,-0.2136307967025142,-0.20387363108095097,0.18486185387260165,0.11465497088331987,-0.251920709993971,0.2137655117137386,nm,0.0
39.08160448074341,-7.4934748139879215,35.11728836151113,128.28462156594722,-0.15429016599600898,-0.37961718685733103,-0.05551288653707773,0.06149047768977572,-0.16133414116721445,0.08421203713459831,nm,0.0
39.08463263511658,-8.827940884731927,36.06177283751016,128.11011180285612,-0.14951874644432792,-0.5730531602639045,-0.08268224024071424,-0.05729446586856424,-0.04685907532375783,0.014902212844804417,nm,0.0
39.099265336990356,-8.672569934265393,36.59825722998668,128.38757364361177,-0.1161742134907471,-0.6016742249352094,-0.11568394541065138,-0.09301271341117946,-0.03628198569473076,0.03009628428551556,nm,0.0
39.10324263572693,-8.270485177024563,37.16624940308269,128.81987650842882,0.07435587123439547,-0.6324048784476729,-0.24888303383523377,-0.12222075841557146,-0.010150524745175754,0.031086764822391064,nm,0.0
39.12271070480347,-7.486638589735825,37.693646427776805,129.32335315554482,0.023829994218195264,-0.6033891531273011,-0.08638833175674475,-0.1537346661099663,0.040603091573781835,-0.0019269384410664483,nm,0.0
39.125004291534424,-6.63658966649821,38.17931075816354,129.7459263239457,0.14018512935006183,-0.543526420403911,-0.09367205315160174,-0.15365601467917986,0.05192363585558207,-0.027543653375127777,nm,0.0
39.15441656112671,-4.886904948262642,39.105348662986486,130.0552870461797,0.18413836766723718,-0.3664623223963727,-0.006132947956136296,-0.14670926762860023,0.05171930432099705,-0.10108149362803129,nm,0.0
39.19998121261597,-3.9839063789672124,40.94097534759855,130.0310249537676,0.164672700725785,-0.17506627312128453,-0.048186011981373365,-0.0294389698848985,-0.06204181994473682,0.041480362212891086,nm,0.0
39.20313048362732,-4.264143253310644,42.44545961039341,130.40969826309518,0.1789795036111243,-0.23707114654350353,-0.07473059068678665,-0.048808327886639045,-0.04523342068709103,0.0405643450359398,nm,0.0
39.20662045478821,-4.433875120877735,42.7022285397757,130.49164079365636,0.41175510868293397,-0.40918705490995294,-0.29859776282838024,-0.015716422858432392,-0.042831630463184396,0.03135750747496471,nm,0.0
39.22012495994568,-4.6713121934818105,42.814901629026025,130.38635187347867,0.35259565858729647,-0.3478415203228162,-0.26341629905396374,0.0,0.0,0.0,nm,0.0
39.2271568775177,-5.107711004440431,43.04958134515717,130.12492434875583,0.20546282672675184,-0.267344280720815,-0.18674041571818262,0.012714728422302602,-0.06959556732346474,-0.0007470564071078479,nm,0.0
39.246978759765625,-6.936146898062813,44.03215527081953,129.708422308889,0.07543459207738373,-0.07976928657084797,-0.3961324765640674,0.016566551036935207,-0.1694164312746626,0.1047689706817772,nm,0.0
39.252721548080444,-7.704829934552835,44.62215737504492,129.88994985662362,-0.12365235923899602,-0.004738928471221625,-0.4415349875623979,-0.01298116114728019,-0.15048247613838728,0.13630773389830506,nm,0.0
39.28168845176697,-8.464482481241816,45.66966004222841,132.0765728908633,0.27273009023173356,-0.29561720802459185,-0.4616823919120274,-0.034793155437628814,0.014841322663312817,0.1486429312891017,nm,0.0
39.29886817932129,-7.519196791550392,45.86113337467955,133.14715920842988,0.08489607812488453,-0.3107235356422148,-0.27632843672608803,-0.11073052181251045,0.0812615006772934,0.07086547857593185,nm,0.0
39.30892515182495,-4.385834591729334,45.93453503981444,135.84643227952483,-0.07439751263443714,0.024682410846302415,-0.30043255663342827,-0.16556505803700142,0.20672678324495497,0.031854099098574416,nm,0.0
39.32597804069519,-2.325858975557161,45.71123003760248,137.59047395544656,0.04306511447222054,-0.0684745022301293,-0.31662929915612387,-0.1720421543420819,0.2395485747009314,0.06020827577617109,nm,0.0
39.35061168670654,1.1316125859233597,44.38191873341271,140.9852890854258,0.11996750086989949,-0.19688167602849924,0.39887512847913625,-0.057116985155534636,0.2738483220502822,0.09844781519666006,nm,0.0
39.352747201919556,1.9663906953191974,43.78602466203558,142.04707962068545,0.07105632282754748,-0.1672511798294042,0.7165082022656017,-0.014029808896778012,0.1779441267242148,0.09317922909760706,nm,0.0
39.378710985183716,0.9106570587849518,43.9036230768702,142.63621586290728,-0.5808601643732353,0.024771669637878684,-0.09195636131064076,0.10002235078913009,-0.12805963988763952,0.15942800407451957,nm,0.0
39.38131523132324,0.007232682082364195,43.87480775943478,142.6883559869569,-0.18299660913278679,-0.07712867226440995,-1.1359320313555477,0.1125986193351915,-0.0643713086703284,0.12712936753127163,nm,0.0
39.39045166969299,0.20276267988158728,42.732679929347874,142.9948540836712,-0.7122126114776327,-0.07475940410465023,-0.6876202308350426,0.12073082271933162,0.20981748950149112,0.025660487635568444,nm,0.0
39.40351390838623,0.5238984487114563,40.736526939662404,143.51352099095223,-0.4444144977955263,-0.10932302713522295,-0.3790344760361635,0.20570701212414952,0.35957735452708683,0.05214782816886268,nm,0.0
39.420095920562744,2.9687628233665344,36.99387154270815,144.77971065244313,0.24244361065951756,-0.6954645216268069,1.0019028799380245,0.017161238088488684,0.4283247327464719,-0.0691200517977611,nm,0.0
39.449376583099365,4.976061610819466,35.448613582193396,145.1559435076498,0.32078188379014955,-0.4175383394882588,0.8804605681345781,-0.09982523507714054,0.15667234215520678,-0.11640576796153543,nm,0.0
39.45181202888489,5.832200286173445,36.066505349977554,145.0530664841524,-0.01988084288420164,-0.15663535002106704,0.770516030326605,-0.1807212818805799,-0.011722484739147604,-0.13012263827658405,nm,0.0
39.468002796173096,7.226687578426582,37.38360543807106,144.90900300078727,-0.5967948081651766,0.5550954007455258,0.0812733470616087,-0.16714578185638812,-0.003739471784859366,-0.13520762579843887,nm,0.0
39.47428798675537,8.173239673873855,37.844108283064635,145.1694350386705,-0.532672032904759,0.5810987738836747,-0.26369797979975884,-0.17142721072236852,0.01997842932448895,-0.09040952134093624,nm,0.0
39.492082834243774,10.493624858074288,37.12841149036541,146.3755377114534,-0.1777120618041085,0.3144339792136118,0.04398895381468118,-0.07048646391881942,0.23454657453547828,-0.02594443902801847,nm,0.0
39.50863766670227,11.34107710676587,36.24340569520818,147.05354238683017,0.07473166565515091,0.18443224505952963,0.31258089696758595,-0.0124239869756506,0.23232805501550582,0.024109700926814078,nm,0.0
39.51068067550659,11.938847831628056,35.64580789423149,147.66946153542548,0.3814235376456318,-0.09232927738036285,0.5103436110676698,-0.013173495050157205,0.16251420998794483,0.04275463721560642,nm,0.0
39.537686586380005,11.966546613401283,35.174300276048115,148.22684917745835,0.1737976246338957,-0.057872081997057054,0.36985340673501044,0.03764845359279936,0.0061768312204284505,0.04708537226176552,nm,0.0
39.54133939743042,11.673982409132295,35.4706778473353,148.38194757346733,-0.062384729878352814,0.011637693380432685,0.17098074070415445,0.013213322409258007,-0.066085504025151,0.05474446165527427,nm,0.0
39.54534149169922,11.358090676812854,35.71079807189716,148.59654892266317,-0.2373943244299912,0.05566540370154468,-0.14765865038714635,0.022446430663456616,-0.0583097926468279,0.06963412188496698,nm,0.0
39.57253313064575,11.377752151974795,35.13672396119928,149.5090540158761,-0.38249800515480176,0.037769921274525074,-0.3110302553390254,0.027222556075705326,0.10052136039856863,0.08219957612413868,nm,0.0
39.58461356163025,11.703483884892284,34.326266341355065,150.1366590208941,-0.18352423643722382,-0.10750134899100583,-0.16329400793222637,0.03852763596242136,0.17704261820910872,0.07828200938069076,nm,0.0
39.588151693344116,12.065844063618606,33.185554522602956,150.6436963502666,-0.010335178387907004,-0.19361593869507734,0.06343783250922028,0.06344844374508699,0.2382949992478316,0.0509815107446831,nm,0.0
39.612837076187134,12.283753714923886,31.10322718284011,150.89487354982296,0.28055821290282984,-0.26130155432877294,0.24792794271362786,0.09568577760553292,0.17309218988093225,-0.012431739355063389,nm,0.0
39.68644118309021,11.033735631394158,28.895653875130048,149.796477683792,-0.07428125554660919,0.08514930512521421,-0.19189862011352396,0.15642997428804353,0.08792356497137316,-0.042387626001901296,nm,0.0
39.68930172920227,10.527615159702961,27.927941928887662,149.52878054670614,-0.19695901785846823,0.1527132774334157,-0.3016726472024777,0.17716912309916072,0.13282826622007232,-0.026725272076584206,nm,0.0
39.69165372848511,9.763594891539157,25.240909779462513,149.35720403343015,-0.3587944012971107,0.2600671957541034,0.05462740582187582,0.19932833322708418,0.22254292890256944,0.01242582599492056,nm,0.0
39.6944055557251,9.48594013698798,23.92210812274765,149.4712420601947,-0.18468907647878827,0.171902185262271,0.24591517477196725,0.1797226907951028,0.21265780848278693,0.03220326049511814,nm,0.0
39.69725298881531,9.19455180990248,21.794258240793265,149.8366735420324,0.15128266753092193,-0.05830503719916227,0.23437147450301804,0.10485853795059417,0.16795480498702872,0.021642905705413273,nm,0.0
39.70032453536987,9.121387038167777,21.269085344880526,149.98806691332456,0.19205727821955093,-0.13281854608917082,0.23873856932361523,0.0658262479397379,0.09545401535132553,0.01221507497684437,nm,0.0
39.71682047843933,8.91956362084832,21.052500598791827,150.06665378061828,0.16315481752250646,-0.08282651311951446,0.1361135002022069,0.05562137740709359,0.030056628828523467,0.0072009527261102,nm,0.0
39.71921396255493,8.712919162226736,21.005334437156485,150.14058109677504,-0.030750830048160673,-0.037468169369198785,0.1532072934563974,0.0,0.0,0.0,nm,0.0
39.72876787185669,8.419817560363564,21.078763986072826,150.2751825943526,-0.19968201272517377,0.03697506924765425,0.10227265437422306,0.041544460704826744,-0.028604825526991617,0.01889093253957203,nm,0.0
39.74434471130371,7.990377666849285,21.09128520389782,150.70389635935632,-0.3000521798304865,-0.06438324741632652,0.010037785271295096,0.03696507895237543,0.007585187461858202,0.0352599672073315,nm,0.0
39.7620062828064,8.11457647094017,20.711477872118817,150.99524026898416,-0.22861967696156077,-0.14135933975682294,-0.013940538944437829,0.047060641674247165,0.03877251854019499,0.02412154236788706,nm,0.0
39.76869034767151,8.075854567548456,20.422977855569012,151.08874796986427,-0.11957986064449828,-0.2406527175120273,0.08011479810185305,0.035311277187218215,0.05853035759845799,-0.005492083421994483,nm,0.0
39.78990697860718,8.153513642409186,20.00349011257569,150.80085626673403,0.04838567925089928,-0.2866931324003663,0.1506956961687401,0.005226124984950004,0.04412659403887638,-0.07101998208640874,nm,0.0
39.807302713394165,8.29936206219273,20.031795731335542,150.5290033967762,0.05307232645613929,-0.23829136371384865,0.14341752566149668,-0.025639253441848305,0.019943588182338955,-0.08611517650939897,nm,0.0
39.811341524124146,8.512873322101143,20.185492892046145,150.27501348780473,0.01247509684837868,-0.12963865170773795,0.08583816802597888,-0.04897820418714511,0.0044621060473749845,-0.08022449413712728,nm,0.0
39.81422424316406,8.853987959995727,20.387601534642172,150.16358368015668,-0.09101910666376871,-0.01835085669492289,0.046226533464699196,-0.07453287897421987,0.00802004738913087,-0.06006366994775721,marker_3,0.0
39.83648324012756,9.718922684054624,20.34365556439979,150.48613988962362,-0.14107240105098767,0.08727474232071358,-0.021279811655232628,-0.0749571692473131,0.02836480282798282,-0.0029112977145102237,nm,0.0
39.85300827026367,10.122579914789195,20.169722668549507,150.72625950838977,-0.13270353101881044,0.046113764726983836,0.03074630729940323,-0.057825633136113656,0.05030143805216006,0.003351388448448982,nm,0.0
39.884817361831665,10.511405671497384,19.98377328325023,150.5451072604427,0.14389185006268357,-0.11573472677629706,0.07218495533181479,0.004991968109717034,-0.007451819983434496,-0.062183715194695996,nm,0.0
39.901936292648315,10.504022559475223,20.349242858535835,150.40749912643986,0.12897347272001183,-0.07324480322209631,0.05501036586250262,-0.01807673578399946,-0.029263853444702035,-0.05711756406665976,nm,0.0
39.90525436401367,10.529347842993218,20.74346702958482,150.38101481512672,0.04152532175500058,-0.013088942777314299,0.06873070528174421,-0.037867261903113014,-0.047488179319198257,-0.03222775786057235,nm,0.0
