timestamp,roll,pitch,yaw,acc_x,acc_y,acc_z,gyro_x,gyro_y,gyro_z,markers,motor_input
25.514055728912354,-29.340969552541612,18.31785886640804,132.1499264207031,-0.34251123527765875,-0.3694193309325717,-1.2653330682176178,0.30885437660785614,0.19429518237710766,-0.17907534817968712,nm,0.0
25.51911163330078,-28.826227210963225,16.785264167455242,131.47132038315888,-0.3223091022972209,-0.09005488009261704,-1.0351957184010376,0.16777675430540764,0.2915375135573743,-0.15394699768980874,nm,0.0
25.521214246749878,-27.46211098930998,15.685627221643985,131.25797041275564,-0.2163997939800557,0.04588906115905313,-0.7826672623204644,-0.003194092011126064,0.35610825835644144,-0.093774021633122,nm,0.0
25.544414281845093,-22.665190419274804,14.877526363318058,132.17503129584418,0.03551260362635449,0.1113978738315177,-0.4533710427349864,-0.31472230287608544,0.42947941754740376,0.026834778828281117,nm,0.0
25.548386573791504,-19.34230456277122,14.98086801067662,132.8647827942078,-0.22360603671507961,-0.03797044211331828,0.016295253532121995,-0.44418047490276347,0.47468266410417526,0.02708349703278066,nm,0.0
25.564117431640625,-16.295510073690885,15.244551322306192,133.47630333378314,-0.022637767740856737,0.314203760450469,0.11058007815700444,-0.43627279676288916,0.4079443348712198,0.015972047926580135,nm,0.0
25.569096565246582,-12.994438328644216,15.593783296343767,133.96836917953118,0.1058310640813169,0.6927849961989363,0.18349643589472572,-0.48605120802061086,0.42629160464757265,-0.04081498419648667,nm,0.0
25.60258650779724,-6.05865559684616,16.282634467145506,134.49478242385916,-0.057742738071291204,1.3892191761737598,0.8512023630334219,-0.4794379640459022,0.41418360185257364,-0.11478832996114863,nm,0.0
25.604921102523804,-2.8897195273633636,16.52877156860817,134.69487107428847,0.029520603451169646,1.7364625615290836,0.8816342154318566,-0.4579284115130138,0.4118301393344859,-0.11657899266096898,nm,0.0
25.60728120803833,0.07815749365594346,16.624625876052498,135.02778172263817,-0.07300855894535065,1.9074415597482175,1.1811793035401668,-0.41125787090298976,0.40252175533576046,-0.09755548788183381,nm,0.0
25.627583980560303,2.1990140052906924,16.501262743233877,135.43137919613648,0.04022342435060654,2.0650287041970348,1.0424342899649481,-0.26778754888503004,0.3161116084968205,-0.04765947368941299,nm,0.0
25.630439281463623,3.586016122618905,16.17788566011255,135.81146426430016,0.022565758740480845,2.0674526357085625,0.991466779103081,-0.14151918404195357,0.24446657704745411,-0.009650796261010276,nm,0.0
25.635000944137573,4.114846223816257,15.75296320165368,136.11531536758943,-0.07162304075114709,1.9065567612683538,0.9730676289790574,-0.010451504984883276,0.14370226913974898,0.02405794054676106,nm,0.0
25.662654876708984,3.699113114084721,15.294451490845997,136.36772758135513,-0.12245800851096507,1.6948770528916286,0.8022397552327896,0.1249676822056457,0.022755059582024,0.050928478608378465,nm,0.0
25.665455102920532,1.1990982711263931,14.53571280738742,136.61339734699865,-0.4113279421817365,1.1636369005904632,0.6941097781592119,0.25787653278511685,-0.1382472238159949,0.06233271390475439,nm,0.0
25.68263602256775,-2.081710185031533,14.139333904534926,136.56437496907705,-0.4739296759973562,0.6978559323495691,0.21278548842479014,0.24874831995363866,-0.17370563401715242,0.05403596939690503,nm,0.0
25.690528392791748,-3.449114985816203,14.099848550258201,136.59970840401925,-0.4732062533253495,0.5356165798882644,0.07983826783059245,0.2020400376742608,-0.16398022545580268,0.04822963616634977,nm,0.0
25.709877967834473,-5.080104874184762,14.446289976255954,136.73390718052238,-0.3196695338187383,0.24982524908724874,-0.20869781294707204,0.05728442254900447,-0.09904633173526713,0.019969103490994584,nm,0.0
25.726754188537598,-5.3006595254427165,14.736877242314442,136.76606570178518,-0.2947188797361934,0.1515469945356831,-0.2094907640309677,-0.00514398688728765,-0.058903415535406595,0.002266479583791296,nm,0.0
25.75236678123474,-5.133493941769209,15.62064003800826,136.88071144140622,-0.10272122983263322,-0.06841377769086454,-0.2424516091733939,-0.08512003420476445,-0.03658679174129642,-0.015659038032906223,nm,0.0
25.754633903503418,-4.972758121268665,16.09167364502841,136.96380530403286,0.0197952929073959,-0.24145324383688274,-0.223780091476665,-0.0834070297513698,-0.03513702456009906,-0.011190258909693463,nm,0.0
25.75791645050049,-4.954752500853754,16.53458822875016,137.0537698003228,0.1698647306138563,-0.477037829864677,-0.1708038091159856,-0.05936066243914687,-0.0499098462963423,0.0013940908911899306,nm,0.0
25.783956289291382,-6.2998676461274625,17.32251975937913,137.17492446323737,0.6513338726157055,-1.0252780667366794,-0.08974466094800573,0.09016479640355207,-0.16848053871014051,0.05841102222115386,nm,0.0
25.81933355331421,-11.408315654338217,18.302894661552312,137.49732194625489,0.6919664834284137,-2.0088257357142054,0.1768071804697729,0.28967687959441346,-0.3397772433659284,0.14309021037001105,nm,0.0
25.821420669555664,-13.936661176897008,18.614401766660766,137.62433918159076,0.5699118984185768,-2.199644311431455,0.05429200441408461,0.31634219376226314,-0.3565494279717767,0.15708557591980876,nm,0.0
25.82475447654724,-16.654115693944966,18.840981289171744,137.69154713031733,0.2986908542007129,-2.2795305889276993,-0.07506975467239321,0.3542799320082645,-0.36689426764685057,0.16152394647430662,nm,0.0
25.867478370666504,-22.169905554206185,18.810917652848275,137.11992256465447,0.09559991050756203,-1.8219833592250583,-1.0135972993958053,0.3886279959441767,-0.3008635789289345,0.05831462837706248,nm,0.0
25.869834423065186,-24.27418993301221,18.223870263131563,136.25848277821947,-0.13192767728266072,-1.4436191104536054,-1.2496004979615734,0.3749710209195656,-0.17456292345712576,-0.051893131380685374,nm,0.0
25.872125148773193,-26.329554322565276,15.669664255689236,133.58256385855728,-0.4250617478871951,-0.5804982280956624,-1.2605074273120254,0.299679678186502,0.133777229598469,-0.2524277847508053,nm,0.0
25.889904022216797,-26.109325083347183,14.061344367737036,132.16967824106953,-0.41867278612066305,-0.1693797337993545,-1.0281455405178168,0.2114254492652304,0.26405521707812607,-0.2843274944171802,nm,0.0
25.897331714630127,-24.91172525420671,12.68584025274094,131.06222129707433,-0.41395576501329473,0.06299412484401971,-0.6213241354177371,0.05573470672103709,0.3710260047544254,-0.2648734586762714,nm,0.0
25.901734828948975,-22.89049981583081,11.816880330692726,130.35609556921617,-0.38890809857663994,0.1479153222689052,-0.20157735990560685,-0.12077452687784992,0.4270712277803949,-0.19811892292718555,nm,0.0
25.922693014144897,-16.94123081551838,11.733981850222046,130.3791768241126,-0.37091807738912724,0.17335796177061233,0.3424188798956531,-0.4446320226356777,0.4834183732011536,-0.045116530830117914,nm,0.0
25.927189111709595,-13.841819933735454,12.23551292908643,130.76600813757247,-0.19063148538502087,0.4556918242600128,0.42719331355505136,-0.4654269612653866,0.41018133385851563,0.0006664864747696255,nm,0.0
25.977742433547974,-3.9098167352528397,14.027220702142966,131.63776115105202,-0.04441709789609378,1.3778058024114346,0.8767510274507012,-0.4752552514941683,0.3933726145100832,-0.11090867590036853,nm,0.0
25.979808807373047,-1.1201261290789204,14.466725359899305,131.53758647712232,0.079406624818017,1.6975384667789988,0.928153464340731,-0.4204361971253764,0.35900384476405783,-0.14707245935583843,nm,0.0
25.982688426971436,1.2587759906430096,14.802850935321517,131.4133196891241,0.08048161577057902,1.862494055282541,1.1528432756773164,-0.3511853151092432,0.3126133158942942,-0.1522462733534413,nm,0.0
26.005876541137695,3.497084233627641,15.122688526739609,131.2791812385309,0.2976771010917776,1.8557517424686647,0.8362217811424358,-0.10573808017396251,0.10556123408291085,-0.048379600086404205,nm,0.0
26.008414268493652,3.56605194512966,15.144400511390606,131.39715052620141,0.23928383837475206,1.6197658922610816,0.8534111358573995,0.0,0.0,0.0,nm,0.0
26.01714277267456,2.9389924314473013,15.130742659168458,131.65191701780137,0.1880511119750963,1.3544900755733027,0.7445076594983353,0.0869794940308235,-0.07728348604529475,0.05857440415007309,nm,0.0
26.03861403465271,0.5906179882129508,15.274495725497946,131.82088634459797,-0.06619837335333663,0.7890270545924958,0.5438632484408797,0.15835762994289762,-0.19332751922304506,0.04412780488267278,nm,0.0
26.045519828796387,-0.9021025158529381,15.41666976555117,131.57239777278454,-0.10789720475256215,0.626537896241073,0.2669887208777112,0.1753838681927077,-0.222106850070332,0.0023184068772998966,nm,0.0
26.06726908683777,-3.3925621935272448,15.708762702383956,130.51766066982435,-0.24127832881173938,0.5233214761059202,-0.01081452880646585,0.12496986180209542,-0.17265440236689258,-0.07676156145973016,nm,0.0
26.085712671279907,-4.478495471104263,15.883197582672326,129.64110533334642,-0.19934176886278013,0.4881044955175421,-0.23097860339564177,0.034051503213879376,-0.04151488204248475,-0.06991634386785382,nm,0.0
26.103204488754272,-4.423401830068005,15.946407384738034,129.47724626304165,-0.13011588898290435,0.4196222184558403,-0.23713803056988136,-0.011300633883701595,0.012172452001925783,-0.047204743705046515,nm,0.0
26.119648694992065,-3.6517509910642203,16.05826756964101,129.38358413531824,0.09336942841934542,0.12422560409338267,-0.12810790421824814,-0.056287046295651205,0.07184625412360192,-0.042797225513841734,nm,0.0
26.121785879135132,-3.2994126336863214,16.168948839750822,129.16608997401707,0.21398654813971676,-0.04776721517591921,-0.10901703616700383,-0.05480535764890411,0.050359122674115235,-0.06937918950912611,nm,0.0
26.139066219329834,-3.149610787235149,16.420730924363873,128.71979213376142,0.32000115871430596,-0.25044562379694824,-0.14587499024332998,-0.05194743305151936,0.002537542455457682,-0.1040650179811065,nm,0.0
26.141303777694702,-3.2835818917855266,16.783150042837114,128.15386511906803,0.3644279127680332,-0.4357482290900741,-0.14507860910476555,-0.03531757190504401,-0.053524992005837754,-0.12535041850950268,nm,0.0
26.17052912712097,-4.62809141691675,17.80573187581171,127.13012976369406,0.3338740153955576,-0.7976327488473473,-0.12964950215680918,0.014776186025493444,-0.18789453025008349,-0.057623429410550694,nm,0.0
26.17256450653076,-6.0754307810045285,18.449195440638288,127.07227482203028,0.369008943922773,-1.021609794763276,-0.10269365835540308,0.0697035374872931,-0.2856158072373721,0.04221867944397092,nm,0.0
26.17586660385132,-7.833286758692691,19.08753560317523,127.33966842841932,0.6357354959856932,-1.2328793327612737,-0.41223104830365676,0.10588831329117043,-0.33085223022126653,0.1465253071262563,nm,0.0
26.198070764541626,-11.6281334766374,20.117457380114256,128.62390230310552,0.25325412880534065,-1.9833177608967387,-0.03786104491447484,0.1960751716150337,-0.3765466661352344,0.29674794098075863,nm,0.0
26.21459937095642,-16.616737498249037,20.57307142292593,129.94855864105423,0.012302086759128453,-2.2448639295762836,-0.2841865106725231,0.2755469502353466,-0.3614217893668701,0.2539102055381305,nm,0.0
26.223684787750244,-19.42324082697318,20.526545601327797,129.9478666673667,0.052796959954534366,-2.045230038336996,-0.7199674463245996,0.35063237737920544,-0.38426812519518005,0.17695690298505168,nm,0.0
26.26594042778015,-23.805366912531827,19.33935470161178,128.47885226160332,-0.31865762451577156,-1.3367555666648945,-1.0740413497930128,0.352895843591065,-0.16319257893121453,-0.0735828634551421,nm,0.0
26.26803493499756,-25.624777280737366,16.94006368868135,126.26638302122105,-0.24225852964970473,-0.35659538549517894,-1.1455306562467922,0.255955243817811,0.10434497078121999,-0.1847561483068759,nm,0.0
26.285772562026978,-25.026717434121117,15.74389272629154,125.56720284792868,-0.2993628832820538,-0.12907737283356305,-0.8135756055865152,0.13261812588104588,0.2466271030743021,-0.16251922589493495,nm,0.0
26.287837505340576,-23.672486542984213,14.815730670347355,125.26185140604896,-0.16702453612107368,0.07629687730524058,-0.5472128386044861,0.006463292500984753,0.3339557878315162,-0.09296951449009769,nm,0.0
26.30362820625305,-18.614199941414242,14.229031794073588,126.0858090150738,-0.11246456749072803,0.01152201672672606,-0.013476054022227821,-0.3064686761066459,0.47846809185477973,0.015977522010475444,nm,0.0
26.319719076156616,-15.721763002843124,14.401204623227839,126.69001989233938,-0.17022613558079266,0.043649679186373413,0.3698841176482249,-0.3536621947406181,0.4451961997799366,0.0404434635039548,nm,0.0
26.32181739807129,-13.157582601029437,14.73676855917445,127.23461229928157,0.20358151919231104,0.4033588485925234,0.1714253028494301,-0.34591222877297684,0.3702569707130066,0.034102062679787375,nm,0.0
26.349238634109497,-7.541480138346312,15.639976926309695,128.00128425089335,0.049730340721669694,0.9211387021373503,0.7001353419909965,-0.3862905185426171,0.3669031133079381,-0.0525283946114213,nm,0.0
26.352745532989502,-5.220773126442626,16.043655319543216,128.2173907996953,0.24450975865663577,1.3204752535019955,0.6333939878535121,-0.33361393519172233,0.3144424141536608,-0.05552267107733721,nm,0.0
26.355232000350952,-2.8993802070401395,16.372901718753294,128.53982942384175,0.16241694233498527,1.5737802274115227,1.0030400326320397,-0.32312684553202076,0.3212021630603594,-0.046755553369956085,nm,0.0
26.380974054336548,0.21362940747374207,16.75970827220252,129.61633321270995,0.22091165235364976,1.7795574179770342,1.0150622767034407,-0.16494682528075721,0.17761204454965945,0.05184785789313564,nm,0.0
26.397894859313965,0.9270326727405639,16.761463236658294,130.2786875611482,0.13602241363341028,1.7075517997964835,0.9964397248115847,-0.08313448299927384,0.1161953196200893,0.08424814524607628,nm,0.0
26.42933177947998,0.4681501836567947,16.613546532026135,131.26792256110338,-0.02223548751650183,1.335517308510435,0.6764802357763992,0.08136199633124089,-0.051755840048905155,0.0919031738307999,nm,0.0
26.431493282318115,-0.403383280775796,16.560363045040912,131.46900711762024,-0.16768056781033525,1.104686708052939,0.668927034910721,0.12342021975098326,-0.10661071655992387,0.0632307399793145,nm,0.0
26.43398952484131,-2.935130088843267,16.624806712175765,131.1272669331171,-0.21695083383870098,0.7027110739887752,0.2814952343504134,0.16174912767403674,-0.1861315356652757,0.009552973742306532,nm,0.0
26.448269844055176,-4.1390602226878395,16.79809272404279,130.81642635764962,-0.2854101666437437,0.5725038138486209,0.2508032264524492,0.13029950800321027,-0.18498965553764363,-0.00919902232079165,nm,0.0
26.479955434799194,-5.19443687966949,17.172002690297997,130.53586276343816,-0.24379223481276763,0.46959846215533957,0.06899350874004669,0.08020660003599249,-0.18994709994947243,-0.017620036070403213,nm,0.0
26.48329186439514,-6.55101467533105,19.1900145821803,129.54827300907186,-0.1563535440234708,0.24947565056070115,-0.18905131357330968,-0.08595115331805113,-0.12222078678723933,-0.09691847682665591,nm,0.0
26.500357151031494,-6.666650288109858,20.98027907683328,127.99343007436217,-0.06475302841313074,0.11265270040469251,-0.21715132639836499,-0.13058219899492582,-0.10983494762220386,-0.1976938984287924,nm,0.0
