timestamp,roll,pitch,yaw,acc_x,acc_y,acc_z,gyro_x,gyro_y,gyro_z,markers,motor_input
35.04356646537781,-6.087514672423516,28.360624190583227,126.8813119717731,-0.3727656812608734,0.24938069769226315,0.016310010701905967,0.17170852473609174,-0.2296088531329981,0.1624802545584725,nm,0.0
35.04727864265442,-7.278015692464939,28.502392923043626,127.10607742619867,-0.22065846434378347,0.18648525113915523,-0.22615136071644615,0.1100794439271927,-0.17356212331465018,0.15186592493174816,nm,0.0
35.04939889907837,-7.639176033030859,28.731247020156676,127.63761755318546,-0.2573045572600841,0.05717075133474484,-0.24079649421391894,0.008615534236489633,-0.06721146291635662,0.13444181302501643,nm,0.0
35.06533169746399,-5.02096100901602,29.999727111290746,132.41326705090455,0.03141888636179719,-0.6968861935971241,-0.10747650775311228,-0.15630469520870977,0.10132056143522462,0.2015850620140634,nm,0.0
35.06930136680603,-4.1112126328237055,30.28965112262998,133.87117385297907,0.17781757734340822,-0.9000649819478016,-0.11617840229605077,-0.1445811498381135,0.08649443329891929,0.20750063484654369,nm,0.0
35.100260734558105,-3.495319087868571,31.045552713845133,137.29604222844415,0.38438110799608305,-1.4970978414622271,-0.139270721251153,0.010610279545830516,-0.056050717978523595,0.210393946454481,nm,0.0
35.10235905647278,-4.2371970137341135,31.21678666710051,137.93862441013923,0.3600383036192824,-1.610726763344591,-0.21600448786774237,0.07558783165731886,-0.09962632216639883,0.198031772001868,nm,0.0
35.111361265182495,-5.377728564751017,31.253323546489636,138.27861687462033,0.26316025188355036,-1.6541799536372273,-0.2945316888413789,0.14516303732412142,-0.1242510380902164,0.17929368735143375,nm,0.0
35.12217116355896,-6.895113978846821,31.056872143899884,138.31648024060925,0.11826511777933181,-1.7161978214341262,-0.16983948541240795,0.22491575338052885,-0.13181831911272815,0.1578738380667291,nm,0.0
35.15385842323303,-10.550768607687385,29.76210366650235,137.4931278355815,0.14088722971934833,-1.616551273580751,-0.5420100710846856,0.3377908160902697,-0.0836026943643007,0.06291498361106068,nm,0.0
35.15598249435425,-13.520342704600033,28.06239447344718,135.56843466425235,-0.17053020280533931,-1.1895152706857282,-0.6633127201335065,0.30616921483192316,-0.03434035068412624,-0.08646317786306458,nm,0.0
35.17236614227295,-14.577254145380572,27.095438801647827,134.37694505174974,-0.2883657182499169,-0.819485180406125,-0.7506555254101428,0.27437212521777826,0.016779042070242268,-0.14568941986643308,nm,0.0
35.18162655830383,-15.161614034257592,26.120225345163437,133.1993402760638,-0.43394342041811773,-0.4969723728334341,-0.7116156635688471,0.21834357901033383,0.07227708560294221,-0.18829003630089905,nm,0.0
35.206522941589355,-14.03567752837057,23.72008900203231,130.79008672826242,-0.3969533969981846,0.23372555723761984,-0.39986100125806634,0.0001388330317146669,0.23245970422936546,-0.18024820831205116,nm,0.0
35.21136689186096,-12.584589819107615,23.210368405445774,130.4403703358653,-0.25282686802925414,0.3369590807016277,-0.3077415349203763,-0.09034596534102965,0.2812736723587878,-0.16937079645452946,nm,0.0
35.24240255355835,-5.562473050452306,22.784166281454358,130.17293362295615,0.18452676881139737,0.7336360562246815,0.25686643652200253,-0.2848816269143605,0.33685164567394654,-0.19304005636409674,nm,0.0
35.317121744155884,4.722057824345442,24.714975754710956,129.67488750074838,0.3009705372955836,1.8598730826592067,0.8928420285496905,-0.3315476098147683,0.23810933392680428,-0.20624294649685,nm,0.0
35.319247007369995,6.598067882090004,25.434270641670203,129.45400709694545,0.36618467063155374,1.9082621530326782,0.5070047776686494,-0.0905144338619277,0.04317914690730147,-0.08752414934646514,nm,0.0
35.32202911376953,6.36863419498558,25.522661149078697,129.14443073818575,0.2159181031597852,1.7452455792183001,0.5891644663290607,0.018352157386036003,-0.03345312995883355,-0.0464450493403311,nm,0.0
35.32402324676514,5.250137442821529,25.505174015197433,128.75728003572377,0.15327796587580633,1.4779775721798603,0.5161761959093416,0.13576502294141785,-0.1450058857939011,0.0022367661506340637,nm,0.0
35.33919882774353,1.4163541759250986,25.48645897758798,127.75313234299202,-0.06470906886049307,0.8247808982973643,0.4343482937129948,0.24039732805607117,-0.2943295256271628,0.04986628060398434,nm,0.0
35.37082481384277,-5.140177626681051,26.318408943277955,126.5706928465091,-0.20421656284605916,0.25173308889017704,0.013754285335669476,0.14143150444104247,-0.325324198121822,0.10436085485816808,nm,0.0
35.38691735267639,-6.740992416004711,26.959866838248963,126.54698981060278,-0.22580125454269392,0.11015625184011847,-0.12876240410466938,0.07421805319110152,-0.2956775292379647,0.12289301155810703,nm,0.0
35.38900566101074,-8.005024356499428,27.701146638656834,126.73457973155368,-0.2731594688772919,0.024459876931042217,-0.12851973697088726,0.021752276355760318,-0.2579572255156079,0.1415020979105738,nm,0.0
35.39927434921265,-8.900513325967431,28.513508178244617,127.11908459294065,-0.11647450485575876,-0.06759974277300972,-0.29088031082104915,-0.028460716117984366,-0.21304529616143508,0.15514146684778757,nm,0.0
35.418869733810425,-9.33989474600126,30.355096887970117,128.60110479955873,-0.15519313440498644,-0.5302665552230851,-0.12891194884625484,-0.12832992568261709,-0.12694850985925468,0.17900702450665162,nm,0.0
35.43401074409485,-9.162156723498553,32.40891878230832,131.11325632416106,0.0461408209978859,-1.0604913060611,-0.025856016197709976,-0.1752628373429999,-0.09750466068503945,0.25250408623747705,nm,0.0
35.46422457695007,-8.87787159435122,35.48295525818603,136.42613368741547,0.28780880560089306,-1.7863615448060344,-0.08022088272441004,-0.13440490242468,-0.12801939490652917,0.35801900096835176,nm,0.0
35.508915185928345,-9.987456187681763,37.086926365296215,139.12836568802052,0.25863720168930016,-1.9425108301459963,-0.015536295690878457,-0.0005807050156595996,-0.17454697530475088,0.30506014200887177,nm,0.0
35.51287388801575,-12.549783530316727,37.49400304087984,139.2932584504661,0.09820613354031614,-1.8192934936466938,-0.26086298322276497,0.18363709892505323,-0.14441271757425747,0.11690897327984873,nm,0.0
35.515318393707275,-14.296470167178073,37.1896997150591,138.35150320194285,-0.03321944389114254,-1.5908943739472297,-0.45771940378060033,0.2541647065689065,-0.1248692435434206,0.005335562200067233,nm,0.0
35.53164839744568,-16.09897822520271,36.55710225295264,136.9451828089023,-0.15466088219795346,-1.3078202771730347,-0.6567558642906748,0.3035786015797683,-0.08833586054573568,-0.08634172536038508,nm,0.0
35.53383708000183,-17.718182641738792,35.58049845316875,135.35416321559538,-0.24218838289501088,-0.9419696982259742,-0.8246567766237609,0.3294428649790987,-0.027955805333056992,-0.13961299449675887,nm,0.0
35.54485034942627,-19.520677712252095,33.21129926896014,132.7687441940258,-0.2856780184262705,-0.3922673200722029,-0.8191435016154491,0.2515997982449937,0.1008727568528429,-0.15880183862597633,nm,0.0
35.56187891960144,-19.575604438626062,32.049154563246084,132.0732506116663,-0.2505616969627974,-0.26708684461918103,-0.676847178903758,0.1833792339713903,0.1627910968148074,-0.13808611395649045,nm,0.0
35.57935357093811,-18.43013191576791,30.138867224435938,131.40471667595833,-0.15808163144827525,-0.11947133083504412,-0.2840613180222562,0.04925873711332591,0.22238498654232638,-0.12783258579766132,nm,0.0
35.608208417892456,-15.56713260380951,28.912700129402786,130.6165059096918,-0.1114007374936197,0.04577448393037379,-0.010255610656052384,-0.10703550077904553,0.3127512210798416,-0.25390813736822504,nm,0.0
35.61089205741882,-13.530344201824747,28.453223452661998,130.03440027252324,-0.2436434372483136,0.22573128675537002,0.25257587168772694,-0.15550484807110604,0.34450060373313657,-0.309353135862741,nm,0.0
35.61310291290283,-11.389626981429513,28.113777846840357,129.40881926221516,0.12871089572189204,0.6461324261343401,0.1907137999226667,-0.1828898289121225,0.3457139676945621,-0.3257179483088262,nm,0.0
35.629735708236694,-8.365537380536066,27.872584274794832,128.92254756271888,0.053310747759948034,0.9598534377128071,0.5758995217134681,-0.2938469026369067,0.45682407325839386,-0.37017838156768,nm,0.0
35.63919734954834,-4.962698647537399,27.69763116454156,128.67688174997824,-0.01304410037245575,1.2795025021669857,0.9520908991151089,-0.34381441077312536,0.5032281009881855,-0.3512128399352678,nm,0.0
35.64099478721619,-1.7802687313955872,27.599533385298958,128.67406590295303,0.29675077062321853,1.546459378325826,0.8438158650976763,-0.3308869239177911,0.4639931233555943,-0.2838740716941772,nm,0.0
35.650856256484985,1.1900621107079763,27.520877369829726,128.85059197575518,0.36204085157519056,1.6989662596283737,0.9875783011661129,-0.3115632572888563,0.43154608997333305,-0.23642447054129925,nm,0.0
35.67432236671448,3.3121900247858345,27.38246463133623,129.00015097635875,0.4056245086176511,1.7918125264995752,1.0477499887161632,-0.20928078282586782,0.3209214301463021,-0.1697531289213517,nm,0.0
35.677656412124634,4.195854911472245,27.095208578437493,128.74476096051455,0.40178819411862715,1.604326300153638,0.7615583269318523,0.03286465644720115,0.017974519825117944,-0.0496578650733951,nm,0.0
35.693111419677734,3.1014868683766625,26.934184604770063,128.35424362128032,0.2548821061832252,1.4289217910132406,0.7241357259793858,0.15306526643297377,-0.12257513675675688,0.013007300081541363,nm,0.0
35.70630145072937,1.3138152765056637,26.72784069087785,128.0504120981229,0.05508059298409402,1.1970016026764492,0.6820559025506318,0.2364516139246995,-0.2150944751394188,0.07658093693093025,nm,0.0
35.72178316116333,-3.1776706205277896,26.387370703702576,128.06195858424678,-0.16517892811103352,0.5855803190285227,0.37083583205244636,0.2839164184387729,-0.29662044669260945,0.2193803244616432,nm,0.0
35.73327565193176,-5.189993299098315,26.33877557532999,128.52634917853456,-0.27857908649443597,0.28938581074530906,0.2649961081784473,0.23769533518262465,-0.2662122322482582,0.25771035675262444,nm,0.0
35.75161528587341,-8.432015465140442,26.660477429127777,129.85951328874305,-0.2196850548755028,-0.1696331374723748,0.021080718367696035,0.15063347694211432,-0.23026318330087622,0.27162685258107633,nm,0.0
35.758151054382324,-9.424573520363857,26.86788388533062,130.5457391457626,-0.12216799404265813,-0.3332491298773044,-0.1151578043260932,0.08861556517309269,-0.15063904351027022,0.22077102333717016,nm,0.0
35.76385831832886,-9.87758729553052,27.069748192141446,131.22291227037135,-0.4098445610360562,-0.5514326751680372,0.11812422287671392,0.02799235509702205,-0.07575506318348754,0.1706511952785995,nm,0.0
35.79150414466858,-10.594946267656944,27.468037888174575,132.9233463228287,-0.06542333236308524,-0.7652255289688599,-0.1886611929987731,-0.004961924985724062,-0.03215981421465859,0.20354197576284302,nm,0.0
35.79403638839722,-10.34130301086,27.66775357513529,134.27895622826287,-0.15689037681279933,-0.983015978148026,-0.038200863096810325,-0.054983798195618334,0.01714968438742243,0.24181885336448283,nm,0.0
35.79877519607544,-10.118185507242169,27.921214289609598,135.95131444929626,0.10146497566677998,-1.1770533831251715,-0.17476360802980923,-0.05911250411141457,0.0041458370306048315,0.3078262084039448,nm,0.0
35.85070586204529,-9.39993102124324,28.26189074043198,139.3277540812416,0.31701035848310466,-1.6898961694086487,-0.11278649623110601,-0.0537085072732687,0.03181304971522158,0.2980792001407634,nm,0.0
35.853105783462524,-9.502744283125102,28.403101518936055,140.4034995833131,0.4321210282211038,-1.7650234339857,-0.18471700523125179,-0.0005734707861427096,-0.020849560288863825,0.22496330210598145,nm,0.0
35.855820178985596,-10.748340580155926,28.600507316378664,140.13482801133952,0.19659500760926832,-1.6076681668676311,-0.31271577405629297,0.11347024421194069,-0.08470829566244914,-0.04975014465109095,nm,0.0
35.873929262161255,-11.998223308831298,28.40073354702984,138.85455021661906,0.02289525131018572,-1.2575374455035706,-0.5664016309874342,0.1972968726226564,-0.09968977030430873,-0.1588245475197683,nm,0.0
35.87672829627991,-13.387743019859062,27.986555109188682,137.17199021723854,-0.20258073600079274,-0.9077971950106442,-0.7339786395320448,0.2420922369000679,-0.08959529222027522,-0.22443296424858608,nm,0.0
35.88120985031128,-14.799318707783618,27.33185364839582,135.51966591179925,-0.32694137688015673,-0.563866168887941,-0.8824375799113094,0.27621863888457115,-0.06509578399224106,-0.21769165810572907,nm,0.0
35.89864802360535,-16.79944483157424,25.624967880888324,133.34189664926268,-0.43521168421193396,-0.2154711510479091,-0.8791954489601417,0.23243644012319123,0.025554304695344563,-0.1111702034636775,nm,0.0
35.91427969932556,-17.464259901658323,24.770503714529024,132.83958732478004,-0.3520664308816629,-0.20614964112710615,-0.7963381184299727,0.2121319078735262,0.04187585336414236,-0.05397653377206655,nm,0.0
35.9211688041687,-17.92987289022893,23.957216114515496,132.46504659595655,-0.28314849885147586,-0.21231361953552588,-0.6822422133960605,0.18224214607207673,0.06083204261079014,-0.04073024929973841,nm,0.0
35.94857120513916,-18.28476946561453,22.79963316176985,131.29629005581828,-0.2579744450582645,-0.10647195845669227,-0.4361650029389814,0.09060478259454693,0.064363252517015,-0.13654407910657068,nm,0.0
35.95074486732483,-18.099397207797036,22.433017767536718,130.41271857058254,-0.2491777598240337,0.10344708596582076,-0.3901452516235958,0.03836266613279956,0.08681586705977204,-0.1951490397333735,nm,0.0
35.96794414520264,-15.933734550999477,22.177149632338804,128.83215839661966,-0.3201082834235624,0.5244545699660611,-0.22384422875391438,-0.16596972212629754,0.23390168873867212,-0.2552740871575863,nm,0.0
35.9715461730957,-13.902298762142637,22.243293601183467,128.52497934687065,-0.47729212969963497,0.6769963367743471,0.22167337826878605,-0.23996596093886524,0.2981270156413193,-0.22008276293718995,nm,0.0
