timestamp,roll,pitch,yaw,acc_x,acc_y,acc_z,gyro_x,gyro_y,gyro_z,markers,motor_input
31.007529973983765,3.294497961174168,24.776910593833602,130.6687788136045,0.03785026009652003,0.38014363290122244,0.5712354190878303,0.3255491812749756,-0.2937722656668797,0.15154701804755902,nm,0.0
31.01285696029663,-1.2439121172005503,24.548085800922497,131.34131773614567,-0.26835890338881646,0.0597513790766178,0.25534808696231404,0.2732246511948269,-0.26463935677574624,0.25697197257217336,nm,0.0
31.018635511398315,-3.2883064501631956,24.445772199674316,131.95465650432342,-0.2078714905665633,-0.011466612025972317,-0.06953779894733725,0.2682908495240399,-0.25340151494773433,0.2854961610466439,nm,0.0
31.040391206741333,-4.713543835976596,24.307254389477833,132.61566449923103,-0.12118263970152603,-0.17031703805547616,-0.3119566620903191,0.20067713658559985,-0.16204464796272097,0.24335069233554202,nm,0.0
31.042666912078857,-6.5737552088936,23.6456588971995,133.53634370445434,-0.05881396530813676,-0.5846449769876267,-0.31781898468750336,0.18862186884037851,-0.06864695308792548,0.1460017656944861,nm,0.0
31.137919902801514,-7.538286992676615,23.026266344361243,133.89302239169322,0.08526530892166558,-0.9702445439519797,-0.12341615297845057,0.08613281238145698,-0.001490874279788122,0.05213701697574636,nm,0.0
31.140631198883057,-7.961751114469344,22.982580103004327,134.09564553852874,0.3815631559689706,-1.0653916494578644,-0.43149058147263525,0.0652754592756985,-0.03784728541558093,0.06766858383737728,nm,0.0
31.144299507141113,-8.546573693155969,24.683266011794657,135.76608067937735,0.404925082446418,-1.3962844868038102,-0.584098977922049,-0.0752171971830488,-0.13955940608132278,0.15875061904381074,nm,0.0
31.1467924118042,-9.241641627810152,26.44756643614884,136.97513014166302,0.17111537714023528,-1.489071161126669,-0.6629999096685165,-0.058618635422735224,-0.1669387388373799,0.13117951268071548,nm,0.0
31.149291515350342,-9.886502262127847,27.104012123655522,137.08750839033465,0.07960884905459513,-1.4584686061146674,-0.7816343648489815,-0.0008707849269066836,-0.16243834094971055,0.07465125689269056,nm,0.0
31.151182174682617,-10.738920259507648,27.402175449652162,136.7911072819894,-0.06357643749614132,-1.3636255643980162,-0.8658887645242217,0.07460858813945694,-0.13480824624032342,0.001043168278728086,nm,0.0
31.168275356292725,-12.694743829650193,26.870552424783497,135.06630252594024,-0.2813582318847044,-0.9785755410791523,-0.9709737937826305,0.1866688461950785,-0.04146758279848631,-0.13054619543941315,nm,0.0
31.17048692703247,-13.386472666593583,26.14147752923052,134.01725334838108,-0.367956074657617,-0.7612686384772834,-0.9086648849017241,0.19585452756394423,0.02668122130498644,-0.16109019752724685,nm,0.0
31.23754596710205,-12.995898360510633,23.821810310776286,132.03923511670098,-0.38841240341521305,-0.21099632218540548,-0.5202884265458536,0.03429199369973032,0.17894881817490602,-0.12472988659265682,nm,0.0
31.23997950553894,-12.011722008648317,23.322073023901122,131.899800580124,-0.3519957828813471,-0.05233244625975148,-0.3975219247397268,-0.041237552283133014,0.213685903001459,-0.1120430926531952,nm,0.0
31.242576122283936,-10.598425082308234,23.02627366280881,131.8732424282319,-0.3255344780932236,0.06281158359618866,-0.2655191777047468,-0.1244536945105895,0.24559200053413854,-0.12225460616485162,nm,0.0
31.244704008102417,-6.8273673545254185,22.706202753759168,131.68861168849165,-0.14389592257613926,0.3999538490915486,-0.14444440660900676,-0.22390326922740822,0.31246175922228686,-0.1692229838023459,nm,0.0
31.246732234954834,-4.114259200620142,22.628755761378276,131.5688158467892,-0.2541293783173374,0.510349706961895,0.22184461513376244,-0.3159436688100486,0.39701187600929444,-0.22226302498789124,nm,0.0
31.262141227722168,-1.3355432894225647,22.608331808681946,131.42850722981737,-0.29665016440245917,0.7223346307424027,0.7677691908401366,-0.33184381606493285,0.39902656614394616,-0.23585321406974935,nm,0.0
31.26416325569153,1.2924607770716001,22.586420930743373,131.26254954588302,0.16873293303526868,1.043531062890756,0.5771834209362757,-0.3123480446767351,0.3788503161725539,-0.2358431559809846,nm,0.0
31.27309274673462,4.481940398568925,22.571164748022674,131.08380640065133,0.07015262561432983,1.2315046898326485,1.0023684880425359,-0.3807279319182701,0.4567135712496515,-0.2849711580165111,nm,0.0
31.300299406051636,9.231125467128072,22.740046892418455,130.29345928417462,0.38540028007389243,1.6259071704555377,0.8020662776362207,-0.2517523967493968,0.27637847518105496,-0.2587497897218162,nm,0.0
31.30720829963684,10.79179838670904,22.836056619245014,129.65405714060904,0.2810351995423562,1.7457074846123561,0.9978311287968603,-0.1946425176156455,0.2181735251300904,-0.2584405921160371,nm,0.0
31.30974268913269,11.290779634506022,22.8689001851957,128.85350133769654,0.2917257636201333,1.7750351475598032,0.9195341845307488,-0.058019521311323735,0.07668796490495573,-0.20853121200523028,nm,0.0
31.32755184173584,10.902315644524633,22.827641752824217,128.07780890611767,0.3327471984601887,1.670281311600926,0.7325525977552357,0.05660425933120516,-0.04144350653169083,-0.15116540098809222,nm,0.0
31.36382007598877,6.5903157037183835,22.43428577423745,126.43236130056783,0.08156564926310479,0.8168591469799364,0.614162920526638,0.22488316493451435,-0.24198325740399698,0.04076222128007919,nm,0.0
31.366254568099976,4.834873944978611,22.402294416684462,126.31305322761814,-0.009917771531716716,0.4394317678729871,0.6802374331971311,0.2040699987783308,-0.24769038385390593,0.09242953949465144,nm,0.0
31.36997365951538,3.0930352376915633,22.417108249700036,126.47946648023385,0.024608755904503586,0.16697931870745159,0.531585110658219,0.1952049668614204,-0.25093951708102746,0.147687994166168,nm,0.0
31.384474754333496,1.5947507229730749,22.558037667883045,126.96326651522574,-0.08707029783280508,0.008305399920221357,0.5078972760541408,0.14935006222994404,-0.2285115955326195,0.1930746368065638,nm,0.0
31.392726182937622,0.31912275910096405,22.944493362330842,127.75057079672837,0.07805968949516276,-0.10029357836600424,0.11584993836298985,0.08753128267522065,-0.22349196304710092,0.2399781524772413,nm,0.0
31.410351753234863,-0.515913669823728,23.710596956544055,129.94113247061549,-0.27970096844202413,-0.40212439414760015,0.1470347213295265,-0.006879910014304421,-0.07125927410906674,0.26369910983704303,nm,0.0
31.414389610290527,-0.8307676907328956,23.869858507690733,131.14332082529413,-0.1102355472357481,-0.5103124529898503,-0.2348424415848568,0.018663104541653888,-0.053501866935769554,0.28155918509715183,nm,0.0
31.44465684890747,-0.8112337700289554,23.646915672170586,133.72114149742362,-0.03632099556332165,-0.9456401344635368,-0.11188155790592438,0.041526726557719496,0.03842930314286428,0.25132310194471275,nm,0.0
31.446876525878906,-0.9895605608089156,23.267896188343766,134.88211644412837,0.19363287810855354,-1.1540537417797767,-0.25430175759388807,0.08188416322246922,0.04108341189191968,0.23922468448315148,nm,0.0
31.46971035003662,-1.7934666501173449,22.680452125523658,136.69543776916413,0.2943554038537476,-1.5834243020402978,-0.13453883386030677,0.11242137546246322,-0.03205249015874815,0.19804948343992806,nm,0.0
31.471825122833252,-2.764502885508172,22.561945142178715,137.2366169970404,0.354646188294934,-1.7341280607981169,-0.2496817028214367,0.15153260085858927,-0.09320172647145865,0.1761473585312857,nm,0.0
31.50896644592285,-5.648679415241115,22.482717829865578,137.7233516397613,0.07051494529933991,-1.6400070308401107,-0.6279930830544979,0.21932765328887233,-0.19198392515228507,0.12641617416301792,nm,0.0
31.51176643371582,-7.3591303587491055,22.68084262978114,137.64582664227552,-0.09170485082587154,-1.4549532829584293,-0.9113479298011588,0.2113156517152865,-0.229678479276713,0.09464985713194811,nm,0.0
31.514075756072998,-8.952402514497392,22.81658847295613,137.39928393161466,-0.338615677305852,-1.1901695250010529,-1.0951879991585536,0.2028077876292576,-0.20606913887347675,0.05537268975470161,nm,0.0
31.530142784118652,-10.30022939865802,22.72369115985486,136.99729393007107,-0.5389870184251262,-0.8977283720614787,-1.2394248961013132,0.1993758232641873,-0.14268591097358246,0.009249067878276552,nm,0.0
31.532236337661743,-11.289040323591639,22.35760046919026,136.45711777821143,-0.6255159339778407,-0.6439835333386115,-1.2402227607442005,0.18757295432251445,-0.05915120411271068,-0.04471245922080683,nm,0.0
31.560010194778442,-11.858263203118364,20.963542008028895,135.14139829668528,-0.5503739276521176,-0.2557550617561185,-0.827345816461668,0.11513173226522713,0.11707361474470546,-0.14903626879747625,nm,0.0
31.56216049194336,-11.401751477107888,20.36386378384683,134.37197018907258,-0.4684369160336808,-0.11826985690687854,-0.4710699738215122,0.029488979752907176,0.15809607452053306,-0.1913973431075253,nm,0.0
31.571118116378784,-10.530737602438316,20.124162095812665,133.59321179611166,-0.3927570938645757,0.08353035823246341,0.010216304851438304,-0.07451391399071186,0.16376881169879595,-0.22149702472931213,nm,0.0
31.599172592163086,-6.739762341445919,20.589740547670207,132.29152638605115,-0.045269132680294,0.48638775993484284,0.3104625042007608,-0.3381287920187773,0.29327761553598,-0.2841328477437349,nm,0.0
31.60248327255249,-3.6318679421098157,21.018454943224302,131.92008616860622,-0.4122353664596135,0.747210423252856,0.9158005014096303,-0.4487973372431862,0.38593592076453714,-0.30208588968274974,nm,0.0
31.606298685073853,-0.7516783447631835,21.801372741121288,131.68014082530553,-0.021370394887934047,1.2933788354638602,0.8286332011048136,-0.46971054123464656,0.30724739457444794,-0.26586701536095847,nm,0.0
31.62891411781311,6.424229470249104,23.18607046432429,131.26551838371532,0.005677026591025843,1.885039297907509,1.2857726336438668,-0.521722724439741,0.44984970920599987,-0.32719083641154884,nm,0.0
31.63290286064148,9.125873999229585,23.564399377853807,130.8392429057816,0.3643800575890375,2.1183235609074154,0.9187027773535431,-0.3780812815571264,0.33481079338177017,-0.3037157045842685,nm,0.0
31.66159415245056,12.3763342601881,24.13336852520905,129.2667933274098,0.6240028550449448,1.8091707193525737,0.9777050924913068,-0.15826853333774465,0.14408265982307772,-0.2997107682499844,nm,0.0
31.66365385055542,12.104223552799478,24.2409264279939,128.19364682042004,0.8353083021530404,1.5597498700543588,0.6588330413390285,0.019900709123469758,-0.043052504295343644,-0.22351109962117896,nm,0.0
31.690420866012573,9.593126080461058,24.620380679600043,126.66140505865535,0.4900593716864648,0.8378919063386798,0.8281900458903025,0.15642830229559523,-0.24743247283615938,-0.014598856908288702,nm,0.0
31.6971755027771,7.263362570876625,24.640138052442115,126.54964795891097,0.319870660629761,0.6879850089153077,0.5817264827051992,0.2561207259041377,-0.33310125039763405,0.14630260508580117,nm,0.0
31.72460436820984,0.40559343361392297,25.030482786191886,129.53311067866946,-0.3210704685607175,0.1685181001161308,-0.10037965650979608,0.2656878200069625,-0.3272450462190575,0.45829660992445875,nm,0.0
31.729904413223267,-1.250235208678682,24.8446805457248,130.8814906790982,-0.455261201525509,0.03434377641690496,-0.2722669486117051,0.2281699386216424,-0.19463156612486487,0.40226102359976806,nm,0.0
31.738781452178955,-2.4515477137574284,24.43039061178323,131.87612507478934,-0.7554476196401927,-0.23373370991638195,-0.009642603762636242,0.2121213429739767,-0.09813569889958966,0.3124811176498928,nm,0.0
31.748018741607666,-3.825432453659565,23.676490328678547,132.48173971156487,-0.41447029033021776,-0.36210613808748615,-0.4150419722364424,0.2857354690613616,-0.07348051722411057,0.24684014079412894,nm,0.0
31.786332845687866,-4.6585216283416875,21.577974756548883,133.3456367766792,-0.3514960324267928,-0.6740800349849255,-0.08725681455858993,0.178941078294633,0.1360222178733384,0.09243109985161393,nm,0.0
31.806706190109253,-2.822916709094254,19.95092465153695,137.51768786039378,0.22526579414760112,-1.2912538014271635,-0.3635848300435988,-0.09590804966601348,0.07697781026477094,0.23459552077111429,nm,0.0
31.816645622253418,-2.2175256020625507,20.261852044138543,138.73637148285584,0.20596073663034564,-1.48380711610246,-0.4111401806341369,-0.12273947844191509,0.041886418381875956,0.20895978352771855,nm,0.0
31.834081649780273,-1.9794762112746385,20.59534309476507,139.51180238878135,0.23804644180372003,-1.5917894075928363,-0.517321185830051,-0.07405588362468615,-0.009032746741702073,0.14677204383317233,nm,0.0
31.84322214126587,-2.5149256907760726,21.07018097057257,139.5152419653963,0.20170840748920216,-1.5709056563164094,-0.6448277566984972,0.03248901333866389,-0.06865988416346383,-0.046799815699653975,nm,0.0
31.861088514328003,-3.1780452511849533,21.25872042227892,138.826980391155,0.16380609838262114,-1.443548199598883,-0.6764797544383061,0.07273631527864421,-0.09725839958026378,-0.11422646608455767,nm,0.0
31.863216400146484,-3.8665456178399644,21.377163022599,137.9846018862496,0.09222716541794845,-1.2462886093873873,-0.7292805968871808,0.08423453227717075,-0.0906903589176642,-0.14828246077789065,nm,0.0
31.88980197906494,-4.809187513726319,21.45886493694114,136.55523066297624,-0.12340392608180185,-0.7669077331937207,-0.7140663147618025,0.05354384440281109,-0.042818789947341715,-0.12318289795377452,nm,0.0
31.907158374786377,-4.884294504337575,21.50777759477795,135.79799636601533,-0.21932967592137834,-0.40458799169972337,-0.5697590463276051,-0.007941384838990555,0.02045257035868054,-0.0856418086015706,nm,0.0
31.909398555755615,-4.594069886650112,21.525041674839095,135.49921344442478,-0.2167784177523609,-0.24712953795178177,-0.4762601217147487,-0.03674547341729576,0.04744342562341942,-0.09761269296003819,nm,0.0
31.926199197769165,-4.121860098281773,21.579106962172116,135.10666558719802,-0.18738422943740557,-0.1515473395691362,-0.33341464245582386,-0.06572279481179398,0.06619753152739946,-0.12821176955473002,nm,0.0
31.932515382766724,-3.536516614849045,21.627750771088,134.623537875892,-0.13688107755450998,0.02588063456909795,-0.1983214322602037,-0.07928820573021632,0.0822924713088966,-0.15750505828061506,nm,0.0
31.953407526016235,-1.608159824163016,22.116840178691398,133.6991309431763,-0.053473835257784756,0.36959427533461653,0.12718688899896147,-0.18678321579100746,0.10964787174690777,-0.17781388747430302,nm,0.0
31.980037212371826,1.8950953484584812,23.240829781803317,133.63959824402656,-0.18809348546144206,0.6289198989942691,0.7340202198030121,-0.3355775906754498,0.19080439676125124,-0.13690606087110854,nm,0.0
31.982600927352905,3.6595302289739644,23.983892149409,133.98855388526272,0.03116952655810733,0.8969196896605164,0.6740194755754677,-0.32673305696548255,0.14144772011384948,-0.07995789419824235,nm,0.0
31.98563528060913,5.792756334448461,24.77678711366489,134.46804018014424,0.13560900754623945,1.0874522888487683,0.7080520537491322,-0.3804490121306589,0.17859575573431546,-0.08908411094244986,nm,0.0
