timestamp,roll,pitch,yaw,acc_x,acc_y,acc_z,gyro_x,gyro_y,gyro_z,markers,motor_input
26.008414268493652,3.56605194512966,15.144400511390606,131.39715052620141,0.23928383837475206,1.6197658922610816,0.8534111358573995,0.0,0.0,0.0,nm,0.0
26.01714277267456,2.9389924314473013,15.130742659168458,131.65191701780137,0.1880511119750963,1.3544900755733027,0.7445076594983353,0.0869794940308235,-0.07728348604529475,0.05857440415007309,nm,0.0
26.03861403465271,0.5906179882129508,15.274495725497946,131.82088634459797,-0.06619837335333663,0.7890270545924958,0.5438632484408797,0.15835762994289762,-0.19332751922304506,0.04412780488267278,nm,0.0
26.045519828796387,-0.9021025158529381,15.41666976555117,131.57239777278454,-0.10789720475256215,0.626537896241073,0.2669887208777112,0.1753838681927077,-0.222106850070332,0.0023184068772998966,nm,0.0
26.06726908683777,-3.3925621935272448,15.708762702383956,130.51766066982435,-0.24127832881173938,0.5233214761059202,-0.01081452880646585,0.12496986180209542,-0.17265440236689258,-0.07676156145973016,nm,0.0
26.085712671279907,-4.478495471104263,15.883197582672326,129.64110533334642,-0.19934176886278013,0.4881044955175421,-0.23097860339564177,0.034051503213879376,-0.04151488204248475,-0.06991634386785382,nm,0.0
26.103204488754272,-4.423401830068005,15.946407384738034,129.47724626304165,-0.13011588898290435,0.4196222184558403,-0.23713803056988136,-0.011300633883701595,0.012172452001925783,-0.047204743705046515,nm,0.0
26.119648694992065,-3.6517509910642203,16.05826756964101,129.38358413531824,0.09336942841934542,0.12422560409338267,-0.12810790421824814,-0.056287046295651205,0.07184625412360192,-0.042797225513841734,nm,0.0
26.121785879135132,-3.2994126336863214,16.168948839750822,129.16608997401707,0.21398654813971676,-0.04776721517591921,-0.10901703616700383,-0.05480535764890411,0.050359122674115235,-0.06937918950912611,nm,0.0
26.139066219329834,-3.149610787235149,16.420730924363873,128.71979213376142,0.32000115871430596,-0.25044562379694824,-0.14587499024332998,-0.05194743305151936,0.002537542455457682,-0.1040650179811065,nm,0.0
26.141303777694702,-3.2835818917855266,16.783150042837114,128.15386511906803,0.3644279127680332,-0.4357482290900741,-0.14507860910476555,-0.03531757190504401,-0.053524992005837754,-0.12535041850950268,nm,0.0
26.17052912712097,-4.62809141691675,17.80573187581171,127.13012976369406,0.3338740153955576,-0.7976327488473473,-0.12964950215680918,0.014776186025493444,-0.18789453025008349,-0.057623429410550694,nm,0.0
26.17256450653076,-6.0754307810045285,18.449195440638288,127.07227482203028,0.369008943922773,-1.021609794763276,-0.10269365835540308,0.0697035374872931,-0.2856158072373721,0.04221867944397092,nm,0.0
26.17586660385132,-7.833286758692691,19.08753560317523,127.33966842841932,0.6357354959856932,-1.2328793327612737,-0.41223104830365676,0.10588831329117043,-0.33085223022126653,0.1465253071262563,nm,0.0
26.198070764541626,-11.6281334766374,20.117457380114256,128.62390230310552,0.25325412880534065,-1.9833177608967387,-0.03786104491447484,0.1960751716150337,-0.3765466661352344,0.29674794098075863,nm,0.0
26.21459937095642,-16.616737498249037,20.57307142292593,129.94855864105423,0.012302086759128453,-2.2448639295762836,-0.2841865106725231,0.2755469502353466,-0.3614217893668701,0.2539102055381305,nm,0.0
26.223684787750244,-19.42324082697318,20.526545601327797,129.9478666673667,0.052796959954534366,-2.045230038336996,-0.7199674463245996,0.35063237737920544,-0.38426812519518005,0.17695690298505168,nm,0.0
26.26594042778015,-23.805366912531827,19.33935470161178,128.47885226160332,-0.31865762451577156,-1.3367555666648945,-1.0740413497930128,0.352895843591065,-0.16319257893121453,-0.0735828634551421,nm,0.0
26.26803493499756,-25.624777280737366,16.94006368868135,126.26638302122105,-0.24225852964970473,-0.35659538549517894,-1.1455306562467922,0.255955243817811,0.10434497078121999,-0.1847561483068759,nm,0.0
26.285772562026978,-25.026717434121117,15.74389272629154,125.56720284792868,-0.2993628832820538,-0.12907737283356305,-0.8135756055865152,0.13261812588104588,0.2466271030743021,-0.16251922589493495,nm,0.0
26.287837505340576,-23.672486542984213,14.815730670347355,125.26185140604896,-0.16702453612107368,0.07629687730524058,-0.5472128386044861,0.006463292500984753,0.3339557878315162,-0.09296951449009769,nm,0.0
26.30362820625305,-18.614199941414242,14.229031794073588,126.0858090150738,-0.11246456749072803,0.01152201672672606,-0.013476054022227821,-0.3064686761066459,0.47846809185477973,0.015977522010475444,nm,0.0
26.319719076156616,-15.721763002843124,14.401204623227839,126.69001989233938,-0.17022613558079266,0.043649679186373413,0.3698841176482249,-0.3536621947406181,0.4451961997799366,0.0404434635039548,nm,0.0
26.32181739807129,-13.157582601029437,14.73676855917445,127.23461229928157,0.20358151919231104,0.4033588485925234,0.1714253028494301,-0.34591222877297684,0.3702569707130066,0.034102062679787375,nm,0.0
26.349238634109497,-7.541480138346312,15.639976926309695,128.00128425089335,0.049730340721669694,0.9211387021373503,0.7001353419909965,-0.3862905185426171,0.3669031133079381,-0.0525283946114213,nm,0.0
26.352745532989502,-5.220773126442626,16.043655319543216,128.2173907996953,0.24450975865663577,1.3204752535019955,0.6333939878535121,-0.33361393519172233,0.3144424141536608,-0.05552267107733721,nm,0.0
26.355232000350952,-2.8993802070401395,16.372901718753294,128.53982942384175,0.16241694233498527,1.5737802274115227,1.0030400326320397,-0.32312684553202076,0.3212021630603594,-0.046755553369956085,nm,0.0
26.380974054336548,0.21362940747374207,16.75970827220252,129.61633321270995,0.22091165235364976,1.7795574179770342,1.0150622767034407,-0.16494682528075721,0.17761204454965945,0.05184785789313564,nm,0.0
26.397894859313965,0.9270326727405639,16.761463236658294,130.2786875611482,0.13602241363341028,1.7075517997964835,0.9964397248115847,-0.08313448299927384,0.1161953196200893,0.08424814524607628,nm,0.0
26.42933177947998,0.4681501836567947,16.613546532026135,131.26792256110338,-0.02223548751650183,1.335517308510435,0.6764802357763992,0.08136199633124089,-0.051755840048905155,0.0919031738307999,nm,0.0
26.431493282318115,-0.403383280775796,16.560363045040912,131.46900711762024,-0.16768056781033525,1.104686708052939,0.668927034910721,0.12342021975098326,-0.10661071655992387,0.0632307399793145,nm,0.0
26.43398952484131,-2.935130088843267,16.624806712175765,131.1272669331171,-0.21695083383870098,0.7027110739887752,0.2814952343504134,0.16174912767403674,-0.1861315356652757,0.009552973742306532,nm,0.0
26.448269844055176,-4.1390602226878395,16.79809272404279,130.81642635764962,-0.2854101666437437,0.5725038138486209,0.2508032264524492,0.13029950800321027,-0.18498965553764363,-0.00919902232079165,nm,0.0
26.479955434799194,-5.19443687966949,17.172002690297997,130.53586276343816,-0.24379223481276763,0.46959846215533957,0.06899350874004669,0.08020660003599249,-0.18994709994947243,-0.017620036070403213,nm,0.0
26.48329186439514,-6.55101467533105,19.1900145821803,129.54827300907186,-0.1563535440234708,0.24947565056070115,-0.18905131357330968,-0.08595115331805113,-0.12222078678723933,-0.09691847682665591,nm,0.0
26.500357151031494,-6.666650288109858,20.98027907683328,127.99343007436217,-0.06475302841313074,0.11265270040469251,-0.21715132639836499,-0.13058219899492582,-0.10983494762220386,-0.1976938984287924,nm,0.0
26.50968837738037,-6.8025032669711845,21.8794595282725,126.95995636350747,0.039919324811142666,-0.009158459939796026,-0.22583643321323532,-0.12123570390575834,-0.11827900437133693,-0.23008841984741865,nm,0.0
26.51800775527954,-7.078874202026016,22.738116300647064,125.79891383084568,0.18212708039936304,-0.24197681656476439,-0.24250968382547478,-0.10157399178574837,-0.13193516703345565,-0.23386416490893286,nm,0.0
26.531716108322144,-7.576920949897824,23.512816893831285,124.69763909023362,0.2853435096502162,-0.5039732053901596,-0.17137454637108498,-0.06701147408318256,-0.15326930791210347,-0.19861732016875583,nm,0.0
26.537614345550537,-8.298803255429076,24.266974616772305,123.8821320264706,0.34159629554968785,-0.8265031876027722,-0.025582451543387237,-0.043261301935707465,-0.1832212949746411,-0.13024541021932348,nm,0.0
26.562002897262573,-11.260983004898387,25.97441280098558,123.27823510705997,0.6608815969973075,-1.4629037248784302,0.016333979390854656,0.03799289071534483,-0.35757605443454454,0.10531906661341098,nm,0.0
26.57170033454895,-12.810133312519252,26.869744869647345,123.56502085812139,0.41472928884049787,-1.772756915108848,0.1627268961462029,0.010710562380824682,-0.3193616358928648,0.1735190376435847,nm,0.0
26.600842475891113,-14.657054015620925,27.72826660301151,124.146490986272,0.053906331212170235,-1.989710958758279,0.21498205226361639,0.04759359561550057,-0.3572366430563564,0.2646594453811669,nm,0.0
26.603007078170776,-19.057255287658954,28.856834645184477,125.5962055721007,0.0823240484038742,-2.0743442665724423,-0.5359534966841006,0.14761148172971023,-0.32766981466317296,0.3355928501453147,nm,0.0
26.72769045829773,-8.867381269258892,18.115691367748518,126.59374859075992,0.062434431310031374,0.6801946687349728,0.5120261074032596,-0.3714779606746991,0.5242653329019702,-0.0482011019455602,nm,0.0
26.72968077659607,-5.930391666701535,18.192599458628127,126.7288870979102,0.0182638947576623,0.9653155247146882,0.8845055927927814,-0.33909175720792345,0.4517368102131069,-0.10811823495903693,nm,0.0
26.731846570968628,-3.743739985269363,18.34223962512734,126.59453775131685,0.2994912158453053,1.365532999594283,0.7561647814066339,-0.2659387936739729,0.32762871405549227,-0.13694576590220356,nm,0.0
26.740032196044922,-1.8386771604861138,18.559089351244424,126.42347985268461,0.2353468543242515,1.6388192851797132,1.0299981527000248,-0.24410904509778217,0.2765377003224975,-0.14625672670676004,nm,0.0
26.80451202392578,-0.5747130721042284,19.4486701490219,127.94047516039815,-0.030839183507371068,1.6356466260329783,0.9960731748886531,0.03649534807273086,-0.08025650872455287,0.16174664481877682,nm,0.0
26.807446241378784,-4.187087916406141,20.068407255422088,129.0367007813173,-0.2623166214026964,0.819951235149275,0.5247107851786714,0.14323130036817106,-0.23560265746144643,0.07060526497472616,nm,0.0
26.82521653175354,-5.680188418555569,20.340001758811226,128.6034718346358,-0.2454618908674078,0.6698563496267198,0.2970253951687464,0.13945390239306615,-0.2409217899667828,-0.007430383355578947,nm,0.0
26.842341423034668,-8.017748475343689,21.052696044936624,127.17493377262535,-0.2278116926271495,0.5541003437094697,0.019304800674273648,0.06060742275843688,-0.1910835703532688,-0.08160564483157332,nm,0.0
26.8445987701416,-8.69376377787482,21.585099004207986,126.73651777427463,-0.16853456757311236,0.5161509958644898,-0.0833719311138909,-0.0030705334736218994,-0.1531827823003789,-0.06300442811978903,nm,0.0
26.866363286972046,-8.943073002312548,22.256950226752803,126.6294962249126,-0.16177249592771137,0.42709716074613535,-0.08289551208654224,-0.07389180926143862,-0.10593006778285434,-0.029292431264928115,nm,0.0
26.86914372444153,-8.902087221448701,23.04470073071298,126.75758788501305,-0.11852466106280084,0.28283926836419837,-0.11392185170267081,-0.12472024559480835,-0.07665639543977043,0.003851612027453227,nm,0.0
26.871480703353882,-8.702391708213012,23.885793614145502,126.99347149107575,-0.07092002370950347,0.10634139291057139,-0.10898538170626,-0.15047029662317077,-0.060247921062859686,0.016495815564834537,nm,0.0
26.89605212211609,-8.33425303440688,25.481905242358653,127.20437201091079,0.040868233356580644,-0.2347552406015331,-0.09642177208900225,-0.13096510710041406,-0.06428626338724631,-0.018077585413933783,nm,0.0
26.898560047149658,-8.386849848744001,26.196870285796653,127.12549681027143,0.10607219286832188,-0.3993041392438764,-0.13490518152329764,-0.10195238981920128,-0.08277055564554178,-0.0277758213684788,nm,0.0
26.90738558769226,-8.634836279726779,26.83047027554461,127.12425855791285,0.12032448970816789,-0.5633557944424747,-0.06257276150013,-0.06783070003633052,-0.10077824432893423,-0.003243168420995996,nm,0.0
26.945451974868774,-10.230780761201869,27.89565988165976,127.94516965902713,0.5076587125331551,-0.9504119309967151,-0.24177543299027454,0.02825526462170991,-0.18803971305361847,0.18995686958853877,nm,0.0
26.970137119293213,-13.596188860972783,29.998585963661263,131.77764460364617,0.4525690648309475,-1.8090663085997407,-0.24174206253786817,0.05663492031239091,-0.297700817075104,0.41293603359963427,nm,0.0
26.979859113693237,-16.58492768313351,31.438664978650486,133.69558732211243,0.1207870845966415,-1.9335301038868309,-0.48581667614032437,0.11013900813123328,-0.2739492266619661,0.29536513736955095,nm,0.0
27.000094890594482,-18.36026892639799,31.551287223470947,133.81135441338915,0.18457550647926424,-1.6957188315701093,-0.9056593271604793,0.19849270126944224,-0.22186041869475534,0.19199350703432705,nm,0.0
27.002691745758057,-19.825997052499577,31.0216065126742,133.3692500637119,-0.09968956603740523,-1.4615697268681374,-0.9876499256785696,0.2548023474943674,-0.09565794246869552,0.048926742923119805,nm,0.0
