timestamp,roll,pitch,yaw,acc_x,acc_y,acc_z,gyro_x,gyro_y,gyro_z,markers,motor_input
8.008970737457275,56.051700251222464,7.361210828692884,-9.43203349493801,-0.9140503160242539,1.2282438403108789,-0.4825927290554712,-0.05460203336181857,-0.17120997622912412,-0.19351772639173268,nm,0.0
8.027328729629517,55.46322738660734,6.150777886097729,-10.268518928642754,-1.3431655572911356,1.6240170458635177,-0.45167797502970713,-0.07336293405328517,-0.07832654780171713,-0.07772693354828354,nm,0.0
8.063349962234497,54.86554664916949,6.557617635387239,-10.10337366173614,-0.9061454058657751,1.567611255823776,-0.5663365882240599,-0.04002396604216656,0.08380414963167061,0.040319992523821076,nm,0.0
8.065519571304321,54.12955070775182,7.291627014195144,-9.131466106494914,-0.23841133300673864,1.0334434322034294,-0.6651344922703579,-0.06426474808997716,0.06108119333394011,0.13377751068203386,nm,0.0
8.093159675598145,53.089459539647365,6.687576747603958,-7.095682177482762,-0.12174446071966473,0.23257107551887274,-0.44867270385706565,-0.12268481780271702,-0.08558436395369541,0.23938099857068224,nm,0.0
8.095326662063599,52.26148527034196,5.9765214480015265,-5.741753139105436,-0.2445180732908308,-0.2539265364498338,-0.1499732024356265,-0.1739430200502218,-0.12652886577073594,0.2834708995285398,nm,0.0
8.121808290481567,49.41765961659936,5.323961551661934,-2.362434601402589,-0.2878791542815182,-1.1939244593088374,0.7670228119306545,-0.32895060624539874,0.0007804842361304942,0.3969933198011792,nm,0.0
8.124090909957886,47.12648122176986,5.931295530523167,-0.4225113001844322,-0.05448526263677853,-1.3931091360985457,0.9329860265657992,-0.4474499364552585,0.1287169040772795,0.42100650077606233,nm,0.0
8.15734052658081,42.79335519110714,9.004472921151644,2.893658958764437,1.1764762774623327,-1.5935559580046508,1.2438182637540387,-0.40423409646817143,0.34135111686280967,0.3523177061406133,nm,0.0
8.18747615814209,41.161586479606946,10.850351020373756,4.063133912595138,1.6321046893191382,-1.3130673392764822,0.9107195214589598,-0.33826026798911224,0.34468028458529,0.27800201995202245,nm,0.0
8.18960428237915,40.02467514062878,12.436296058595964,5.1746119116062665,1.5967201053272724,-0.8400175016981617,0.5996264113376688,-0.03481719688984894,0.06173060387819315,0.07464213389967382,nm,0.0
8.191590785980225,40.638456091741816,11.99309302562263,5.373248539966981,1.0489229009226853,-0.700821398588717,0.5948187248215566,0.13318363559094473,-0.0821850791608847,0.0012966344647349815,nm,0.0
8.194000005722046,43.89391194264807,9.787410925155289,4.700081062037425,-0.19061123565161914,-0.28689354402799555,0.3787797793851003,0.393154067125795,-0.2117812102931839,-0.1929326424377983,nm,0.0
8.228147268295288,48.87268173023742,8.595821643918178,2.6615785984054914,-0.638578427619858,-0.0020062939297614147,-0.01318471147310453,0.5357854566865169,-0.03473793824231754,-0.31908750143040754,nm,0.0
8.231103420257568,51.29728547374429,8.708207504946042,1.330442529746936,-0.4756959701733959,-0.09833791049882105,-0.21038326360505386,0.484546790604401,0.03632719443149939,-0.36321291088292024,nm,0.0
8.248393774032593,55.430171324381575,9.059018915854915,-1.524880351481738,-0.10195132823437358,0.06409472191456751,-0.6499028350994719,0.38460837065567854,0.012174421931405464,-0.3652461189034945,nm,0.0
8.250925779342651,56.61849615521851,8.692743026669323,-2.8353686443385206,-0.07477325496402383,0.2924487914903364,-0.8423906318273718,0.23760559781543245,-0.08446027585967814,-0.3299038734275067,nm,0.0
8.275897741317749,56.73199899933881,6.628314013177981,-4.929024563675049,-0.42716493316172055,0.6329721508897052,-0.623959877209453,-0.07272396477035155,-0.23230479889074498,-0.19896803831969392,nm,0.0
8.300955057144165,54.45763382565322,4.32055475339333,-6.5596956569103355,-0.7404388353688135,1.0180882719731894,-0.30223633154531904,-0.29668724117703194,-0.18411084777771344,-0.1707964070426377,nm,0.0
8.310263872146606,52.84178329032598,3.6801342778071575,-7.475560785203368,-0.683186812169607,1.1984607546944297,-0.29759610857339025,-0.3298628095127774,-0.0915877605742887,-0.1733371797066418,nm,0.0
8.325942754745483,49.5100501359674,3.3702628148143225,-9.35216037029794,-0.4988683368786038,1.2034720761236184,-0.22832856075240146,-0.3246407994482714,0.030770512047712698,-0.18491014485124874,nm,0.0
8.32790994644165,48.0064361124582,3.2625348751281398,-10.162027119053409,-0.3834261611908571,1.0454767141691992,-0.15145089765955183,-0.2939845636632651,0.024666176053579403,-0.15696636204399908,nm,0.0
8.345003128051758,46.74358873675431,3.11594302047382,-10.50391909739605,-0.40408384127747055,0.9290419026704795,-0.07573560423506583,-0.2477835332488504,0.011121262098567779,-0.06648801519205828,nm,0.0
8.352585315704346,45.702911503296484,2.9143774829833053,-10.246853692216717,-0.5319981389258454,0.6970683974053822,0.12592228892829718,-0.20605724297692493,-0.007675835483255578,0.05046426920234768,nm,0.0
8.362195014953613,44.82903108457675,2.731109183915397,-9.455420827094342,-0.5962714555712796,0.39772969841695993,0.2784493570937711,-0.1724821285704036,-0.011661802147257268,0.16999045472927643,nm,0.0
8.371198177337646,44.161756642011866,2.7818833863625607,-8.102733929442062,-0.5594340342927361,0.04682573053007723,0.4213297314551808,-0.12421215241258297,0.025067656994066632,0.28714325704582444,nm,0.0
8.388442754745483,43.22921720906133,4.02945349246572,-4.578911312048285,-0.1415325053671635,-0.5604058448116106,0.6564245678355907,-0.07130561992529372,0.1654809236479549,0.3809351182702359,nm,0.0
8.415572166442871,42.97209716119907,6.555663695625259,-1.8962981379725143,0.7099304201467361,-1.2500027146245032,0.7294113272572066,0.029286470777604462,0.27401999882218747,0.25632131157526183,nm,0.0
8.417715549468994,43.40865006132285,8.03148875331672,-1.1129726115833611,1.0943616410338388,-1.4323188290040458,0.5961352816465533,0.10050980855901329,0.2882269462007257,0.16616288811710075,nm,0.0
8.420682430267334,44.19512178221335,9.279998175836143,-0.6964912445259807,1.3157271965096586,-1.4188425509418583,0.34951302363078096,0.1652991889324098,0.24273244538827668,0.07147287388284859,nm,0.0
8.441784858703613,46.341392735564085,10.14293949386937,-0.6923304000064137,0.9605854145905094,-1.1841435259309565,-0.03497994741017002,0.23355887728424288,0.015531310273800076,-0.08161321411117647,nm,0.0
8.47839617729187,50.54638905085142,8.510473197970253,-2.184652626728145,-0.3289521316389059,-0.44044825285425737,-0.14677421406377245,0.27862173096437637,-0.12335807024933396,-0.22359096999551725,nm,0.0
8.495195627212524,51.696025073598875,8.314138134348408,-3.1332575332994557,-0.447187807387683,-0.22288977721783543,-0.1943659016209819,0.23116588083427603,-0.053028763445424267,-0.26277877556907486,nm,0.0
8.498409748077393,52.91837439497427,9.14083789838036,-5.549337085551175,-0.21246023130764413,0.23174749599574526,-0.46481346756522457,0.09573963996058882,0.10130999975883136,-0.29391123998634283,nm,0.0
8.521991729736328,52.51848782721877,9.659061152573608,-8.24602924572739,-0.08653560845666211,0.4568473203155792,-0.46625838501993677,-0.07663169197731383,0.01691502014018463,-0.28356870851983595,nm,0.0
8.539421796798706,50.5084398649328,8.109025951039007,-10.423481123383503,-0.47312856228498995,0.8229322490853137,-0.35871714751195155,-0.25169998758353096,-0.16937005354509752,-0.20094156650737488,nm,0.0
8.556364059448242,49.152227254121314,6.892102559760978,-11.091628985124741,-0.674007142703473,1.0387427752907523,-0.2585879966675426,-0.30464705715895624,-0.19434292023627564,-0.14331738133079358,nm,0.0
8.5626802444458,47.53103859467144,5.8626455142753935,-11.525938211948505,-0.8630185496326551,1.1255047389247181,-0.09108614927913128,-0.35141145537935553,-0.14442749478921044,-0.0892551407217331,nm,0.0
8.564876556396484,45.69871313857792,5.185075047337457,-11.949307422158604,-0.9135296247643803,1.2168785764894992,-0.05595081752371216,-0.3799008750716191,-0.06423851513128824,-0.06901881411406435,nm,0.0
8.591130018234253,41.72913071330014,5.12197910504041,-12.559283559872908,-0.5988177477439156,1.0588894810068832,-0.08142810810839173,-0.38226858884772724,0.12063900818189986,-0.015645732145911986,nm,0.0
8.59326720237732,39.774455980091886,5.581945091474307,-12.475772102380372,-0.5216532697848265,0.8523376686757551,-0.04858299900870282,-0.3554639725794908,0.16789879028593926,0.05531136777690929,nm,0.0
8.623363971710205,36.088867653588096,6.450828617904481,-10.823175984832591,-0.2932527030069714,0.2622702835008195,0.34276407025719335,-0.3382933228852749,0.15035846764914373,0.2908159979050164,nm,0.0
8.625435590744019,34.572757991427174,6.958729992355248,-8.921274555303073,-0.21543643921771205,0.11237950672813826,0.40192302984851674,-0.2744928131518219,0.14500808161319587,0.43338678928763336,nm,0.0
8.653790712356567,33.216451177894015,8.21561347382869,-4.370559302881761,0.19094734947590744,-0.37370596131458717,0.2987389617246534,-0.04284163443010265,0.13790243446760053,0.4667314425176115,nm,0.0
8.655965566635132,33.961079205862134,9.265540416087449,-2.485749438513688,0.5369046693267621,-0.8322919277764015,0.719196677705178,0.16513650125239623,0.19425628173441362,0.3555960228783009,nm,0.0
8.65865969657898,35.2272130552088,10.573587271741966,-1.348099110907104,0.8145168047123191,-1.1910168766738234,0.7914233915146178,0.26370556033704995,0.24690487401952332,0.18391234941084428,nm,0.0
8.675508499145508,36.84430250471241,11.82356165851162,-1.0591225754643174,1.0728744085397628,-1.4670935264503,0.5903514516612406,0.32780448811427976,0.2374702654492936,-0.01719400123055635,nm,0.0
8.677603483200073,38.98586041850303,12.832961842266814,-1.436729245378663,1.11424564788838,-1.4931013621332019,0.37034207592306284,0.4279470275106154,0.18719227645831876,-0.17965492338880093,nm,0.0
8.706686735153198,45.026239731286374,13.031555788138647,-3.6848338094508915,0.2861020104572781,-0.9205443618507768,-0.13767919764454994,0.33770426242862006,-0.09463514704403908,-0.27545047941818795,nm,0.0
8.736724138259888,46.59288166967496,12.188153338306922,-4.853745128768405,-0.3156935131186795,-0.11188161950243741,-0.15805259780709485,0.0784310367711125,-0.09385466080558577,-0.19587329747476406,nm,0.0
8.75434684753418,44.62308660522193,11.896993792196472,-6.896105413920867,-0.5137308829803221,0.6038241037826988,-0.6299676235469371,-0.2534997289433741,0.016411149345201576,-0.22673696388338346,nm,0.0
8.785516738891602,41.445092743078774,11.730536262710599,-10.321234888662062,-0.33435198620692885,1.072563632319365,-0.26956205068083433,-0.386873047910613,0.031538718933865804,-0.31956118689290486,nm,0.0
8.7877197265625,39.20650562434206,11.398142943663158,-12.12078998232737,-0.40510251833109673,1.2096811824884335,-0.36904302744503986,-0.4400104585677887,0.013174028440853299,-0.301789112898171,nm,0.0
8.790056705474854,37.10677393382151,10.718183901992367,-13.647877797739424,-0.45558215987191986,1.3889551715974109,-0.10620983985924876,-0.42896091223689337,-0.04818257823663897,-0.2538376605118458,nm,0.0
8.811163425445557,34.710719503050555,9.79680706662466,-14.708870947349856,-0.5252415012519058,1.5545879548548316,-0.19278072515023922,-0.49928225133280485,-0.07131198974990245,-0.15651875435148938,nm,0.0
8.815733671188354,32.44407033637041,8.875232435630092,-15.182044988508498,-0.6398737093720174,1.7131146105687511,-0.37609634158826916,-0.47661517731712044,-0.07126909643875252,-0.04814052334288063,nm,0.0
8.817832231521606,30.589830837283376,8.068448634255898,-15.137692062962822,-0.633021726648947,1.6787063445381991,-0.19958445011951917,-0.3929021263183564,-0.06869848972956837,0.03493442561096573,nm,0.0
8.838103294372559,27.946036142763216,7.2595621038266,-14.199469634614019,-0.5227203696174153,1.1762895540602072,0.05922239589175171,-0.22110347745838738,-0.004321902702512649,0.1201383974325194,nm,0.0
8.8413987159729,27.084921789560912,7.188591946312027,-13.590447363616452,-0.42767009045684096,0.743878393103468,0.25728159708873055,-0.16536344815782328,0.01827717406823852,0.13316908525455048,nm,0.0
8.848671436309814,26.423977962603132,7.205483512284983,-12.836353793535004,-0.2550707172429436,0.2685014677264112,0.20821325479391448,-0.12284217133022865,0.02425086678513157,0.1572074628436869,nm,0.0
8.887288808822632,26.52262046043401,7.893960357337652,-10.101402282775595,0.1304325764423874,-0.644236772100198,0.5488377485665697,0.08081980356611122,0.07570909887296105,0.304439646559731,nm,0.0
8.889450311660767,29.042623392209002,9.44634787996679,-6.046847016269024,0.522053163949661,-1.2504152366523038,0.5566970817821049,0.35422759381323726,0.12748887535431194,0.3593411513119755,nm,0.0
8.899488687515259,31.624333153288863,10.647378146784828,-3.8818977375104216,0.805227350738709,-1.500441277404338,0.8168039544224499,0.5329404906522276,0.18826506277310742,0.3318513110252066,nm,0.0
8.926270484924316,34.52441657328025,12.000857011049533,-1.8720360814585888,0.9475161579362907,-1.7109026334606143,0.46584318727353463,0.5872269316321161,0.23552886293094963,0.27646187017367496,nm,0.0
8.928213119506836,41.27980671010857,13.7592395781524,0.7641124141568266,1.0083334886018338,-1.7522016115497205,0.04047530352751423,0.6752458300510201,0.13136140664418836,0.026954574563878463,nm,0.0
8.945525646209717,44.205149185646064,14.078172318769589,1.2823221171848793,0.6632046083090475,-1.5018006057539826,-0.45249572915418046,0.5718125355791028,0.07015581239507444,-0.07648398467288171,nm,0.0
8.947867155075073,46.745727925528946,14.081064641494043,1.1979355240729308,0.2966992880538737,-1.255158620394386,-0.6043230955915116,0.49779022725881633,0.008040228886170415,-0.19141649888310555,nm,0.0
8.963630199432373,49.696318245362015,13.746454896121474,-0.3267533500622738,-0.33612561430705495,-0.657806347463757,-0.8290154052036814,0.21356314308271077,-0.03196207975105637,-0.3031349668207305,nm,0.0
8.98066234588623,50.341836721422226,13.772542793947258,-1.2101629946586119,-0.5788799272211026,-0.33086002138120335,-0.6958567838845372,0.1299123119070042,0.0003540031554890158,-0.2816151521648039,nm,0.0
8.982776880264282,50.207948336523266,13.88659962156902,-2.100007216825621,-0.7390358320423467,0.017041738559599097,-0.634159386309914,-0.021204173864971598,0.01991767996612644,-0.23854721186516017,nm,0.0
