timestamp,roll,pitch,yaw,acc_x,acc_y,acc_z,gyro_x,gyro_y,gyro_z,markers,motor_input
9.01318883895874,47.75049440952252,13.89719501227295,-3.618850333060576,-0.6702305142933838,0.28622687076973957,-0.4273711118696411,-0.2895736960874078,0.0019759407585342443,-0.11679339089815172,nm,0.0
9.017062664031982,45.43504959417796,13.665025414461365,-4.032235214136442,-0.6628373994930526,0.5329424354562516,-0.7703886444377831,-0.44827603526447696,-0.021819221600468564,-0.0243190135836827,nm,0.0
9.022477865219116,43.14190174713917,13.085088231285578,-4.221133278090435,-0.5770086659116941,0.6700248225908159,-0.37849459249363654,-0.4495867994912964,-0.08957923837233288,0.01956976057807378,nm,0.0
9.043214559555054,40.271212190244064,12.221519419518224,-4.264445716886696,-0.5284443831725547,0.8372029614613841,0.14862368707855844,-0.5675358287803449,-0.1376063493280617,0.0688200389945854,nm,0.0
9.060102462768555,28.28171857937099,10.09956739591335,-3.9883567445060404,-0.748217654137869,1.6843783314701148,0.3766995909646325,-0.8571661375804841,-0.05194097151464578,0.14439726019734156,nm,0.0
9.077678203582764,19.924731688384714,9.617387691948684,-3.769074636357434,-0.38262709973043507,1.7537396546890838,-0.1468193676364665,-0.7568165750085738,0.013509958139784261,0.15861998575555725,nm,0.0
9.096823930740356,16.64072371559221,9.534097977647662,-3.2338111603599065,-0.1552151134269808,1.6474355672967194,-0.24014139680008437,-0.6429554235097847,0.013229156052928116,0.2074082638342679,nm,0.0
9.106604814529419,12.653282644033956,8.766626899269447,-0.909992025294297,0.08726652275612966,1.086977789089968,-0.1158148536765807,-0.284957201833837,-0.1023207484363653,0.3116314567538502,nm,0.0
9.123708963394165,11.987477849781312,8.15360062918534,0.698122064172604,-0.034427572656712084,0.6520729098905887,0.01740103633211184,-0.12572394100946865,-0.13248773752500906,0.3334483225737143,nm,0.0
9.125775337219238,12.38265382452123,7.58961582096143,2.3131565141568498,-0.12821453670995242,0.10843691844764523,0.18077941267583364,0.08810153575273712,-0.1205725040652789,0.3043718024527301,nm,0.0
9.134994745254517,14.048080672557772,7.390152456121208,3.741962057862614,-0.08117655054840107,-0.3633744101286994,0.8271973542373676,0.3393424157878089,-0.03174741647092067,0.2341488649515664,nm,0.0
9.158106803894043,20.2070542048204,8.475291121718874,5.524175579489432,0.530015338573859,-1.3578446216474132,1.474099398840092,0.6907021801025539,0.20170395067860553,0.028887636183227646,nm,0.0
9.166287422180176,23.877560393118063,9.462234758872016,5.900363360023382,1.1742420432738483,-2.0195878052652345,1.2149157619322324,0.7094935659499041,0.2612140622672054,-0.04959637553962433,nm,0.0
9.19310450553894,31.743956559702873,10.886189340359243,6.558544404192893,1.7746053458146651,-2.216127970792716,0.3531677157260507,0.7475357156680048,0.16984761509754434,-0.08622480262226931,nm,0.0
9.199265241622925,34.676790972864204,10.488565573560145,6.760214023522422,1.4395846215183188,-1.9732823477959758,-0.3275473079888881,0.5886010268381422,-0.017931659012686053,-0.08029305187272706,nm,0.0
9.222980737686157,38.049720364355764,8.21432228300706,6.40006912750505,0.09442128051812237,-1.362645458331306,-0.22418613905580329,0.2695527402424668,-0.21439480237369868,-0.11430359481370511,nm,0.0
9.227351188659668,38.11984388051678,7.461492157583592,5.688041043853747,-0.6265578055980373,-0.9012210875458658,-0.26859092263436857,0.03619101615122235,-0.15370910296684118,-0.1563188505179849,nm,0.0
9.229541778564453,37.17623513436693,7.420989346970994,4.575016849767854,-1.021983060735727,-0.44798032893463907,-0.09044978127291031,-0.1794951763255327,-0.030388331405881784,-0.21016893910722526,nm,0.0
9.238157749176025,35.00901280753143,8.070389550424597,3.1741831662579054,-1.0741826550071554,-0.18068187850596645,-0.04911873372073414,-0.4316821309538834,0.09456773595815367,-0.23362069856914655,nm,0.0
9.311278820037842,10.783461813738652,8.594359930659774,5.082816692029958,-0.527686940852058,1.818007652761814,0.031156069213906623,-0.8536872331590191,-0.19971868775269488,0.5144111990390301,nm,0.0
9.313485383987427,6.326046282522901,8.129318693833804,6.704543260443112,-0.9690855652972015,2.155223697875287,-0.07545754223754847,-0.8614085037509961,-0.1933725111073834,0.4423310831935372,nm,0.0
9.321494340896606,1.85430860881069,7.82495329633918,7.453946047069076,-1.2416434924369735,2.1854837881441993,-0.43144202598605264,-0.8647124568545542,-0.17999687161895972,0.26795856687483777,nm,0.0
9.332218170166016,-2.134890982690614,7.5557744198976255,7.218893770789981,-1.2208302591778215,2.150796540200017,-0.6767138284893291,-0.7702920082507406,-0.16513972694509188,0.05432008642255679,nm,0.0
9.346365451812744,-7.980022501178106,6.97242207267942,4.968606062870444,-0.4360508717066531,1.4674433765600277,-1.2057303143519293,-0.4711429852539415,-0.11343532264379291,-0.19441037568781866,nm,0.0
9.353833198547363,-8.844472381446488,6.912053883253244,4.067002051781495,0.1006227213688107,0.9778528524333028,-0.995222040410221,-0.16257603729424366,-0.03703724075899318,-0.1637447727338385,nm,0.0
9.42137885093689,-4.5720807059316595,7.64803965585814,4.897417105444208,0.8147504851957202,-0.03251742885831031,0.24833629899188253,0.6462777995050238,0.13736724635432918,0.0944356753843599,nm,0.0
9.424190521240234,1.0125934741498175,8.232237167411913,6.646244818387878,0.8743836440144191,-0.4799630446637015,1.173144365595221,1.0982665325372685,0.21731321269905726,0.18924030184567667,nm,0.0
9.426948547363281,15.982607875065673,8.620516705651996,10.400101689889565,0.9748429034994731,-1.9468152533075813,2.493333331314027,1.4870277611294251,0.2504353488434033,0.10253978335216747,nm,0.0
9.429471731185913,23.744419838149387,8.751667065740042,11.39240651647007,0.9464130126994865,-2.626989917916317,1.9698914888783812,1.5114746303452824,0.3092378389017725,-0.04651717843936682,nm,0.0
9.431860208511353,37.41708627104835,9.919253636585932,10.966095670146341,0.7611129492797775,-2.7638952741860563,0.3722003891373908,1.172095838417576,0.377603755748309,-0.3366046684732175,nm,0.0
9.446292638778687,42.01552296010768,10.979106577172592,10.081000487070176,0.670158966604627,-2.398933259129514,-0.5555040797425825,0.8576501448194003,0.369895669258736,-0.3567784021653295,nm,0.0
9.450363397598267,45.09093337403104,12.151547138002252,9.385430046993545,0.3989598685607118,-1.920941664726271,-1.0919477871822219,0.5605210569620088,0.3297786898921855,-0.27569653193107746,nm,0.0
9.513121604919434,46.69273211662007,12.961727355124351,8.900166246329162,0.16361455999279964,-1.3211266397068282,-1.3742775375332537,0.2885436917671914,0.20657262536412335,-0.18003196808108632,nm,0.0
9.517805099487305,33.65695107318017,12.429012168755234,9.256906909597292,-0.5391912375262263,0.5477323445047714,-0.08463663618143843,-1.0411694988393771,-0.22085280312989197,0.2051288100573927,nm,0.0
9.53379487991333,21.031125191311897,12.106524339917497,8.333685222244844,-0.8032215681448621,1.3829354231152773,1.025737390332381,-1.262181777947526,-0.2464181640982599,0.1542284530201984,nm,0.0
9.539164066314697,13.38882245136738,11.750122854634128,7.781082816338923,-0.8409811935455445,1.766027446501377,0.5081945048723783,-1.4657599406817836,-0.28948760309577193,0.19697654467459724,nm,0.0
9.544579029083252,6.044871775828754,11.421419848679733,7.650468589879127,-0.823496175610097,2.0725909477296027,0.2278105481481766,-1.4116242138666024,-0.2684547174179021,0.2617404502022911,nm,0.0
9.598665237426758,-12.01820283518265,10.929965371813703,9.837694566453987,-0.7464789248107846,1.9015804029368781,-1.4536648088867627,-0.9254759281207489,-0.17006338235421203,0.375063791588698,nm,0.0
9.600801944732666,-14.722077669887245,10.908640901705407,10.697748785457758,-0.7269360870137622,1.8065375729665323,-1.522580063578752,-0.5134284996283517,-0.10975451626440601,0.2714570325327515,nm,0.0
9.603009223937988,-15.624454170566995,10.644516485143752,11.224483862319788,-0.5409719266873059,1.2911310724846239,-1.4860453889355485,-0.1550446352961704,-0.09639388088605821,0.1361532181162783,nm,0.0
9.620421409606934,-10.131182713013823,9.917841204844674,11.39367071825204,0.3282739081192107,0.5061782408155092,0.42319640545703946,0.8017716002707377,0.0963816403140351,-0.14935960284643543,nm,0.0
9.636513233184814,4.898263677545916,10.96085352191202,11.997382953026314,0.9599005236637294,-0.8220129452871863,2.6844331663094807,1.644026054376328,0.4863056704017273,-0.22085555024052272,nm,0.0
9.639848947525024,14.199902534926508,11.801921525646218,12.924501403398004,1.2690487071698209,-1.9427634673402505,2.9363579081405313,1.7547233437546728,0.549956110050298,-0.19136904550723582,nm,0.0
9.656116962432861,23.428737858260007,12.401440183462924,13.938208665909615,1.256045797896168,-2.7454485956385546,1.7736125266675182,1.737106273990814,0.529453368197153,-0.19541396015900556,nm,0.0
9.660207509994507,32.444399184640645,12.740814185427874,14.644290121671991,1.175986397992865,-3.0011479860539017,1.1252145532875166,1.6975322937726647,0.4953803677813177,-0.26358045429201665,nm,0.0
9.691007375717163,45.94289480866703,13.53921733299403,14.262273622794917,0.5750393516989887,-2.541535508468854,-0.6680835699183738,1.0800231962281273,0.3762001380434612,-0.3787313071121935,nm,0.0
9.710816383361816,51.86414623909641,15.140913082147494,12.339278020945043,-0.12573545391529764,-1.3258395815767754,-1.3701029139062921,0.3423971628332353,0.25660562522805364,-0.3214917230216658,nm,0.0
9.712892293930054,51.91954544014666,16.126037672256924,11.49533738510509,-0.15875127438471354,-0.9739248743769774,-1.2093576425055572,-0.025961261339619908,0.1930039634977425,-0.1856831672219809,nm,0.0
9.715216875076294,50.32700097470491,17.09209274352016,11.055718040861876,-0.44144267385818625,-0.2541368313398406,-1.3507653238834634,-0.33338718530852784,0.12734578626707652,-0.010523709142320035,nm,0.0
9.746474742889404,42.948403437608754,17.923400493754627,10.742471110966266,-0.2598129328721008,0.18097381525282719,-0.2509554661207063,-0.8391849672447139,-0.12223026894470411,0.24473239322031165,nm,0.0
9.748856782913208,36.958791825483935,17.926404879929027,10.984713629841906,-0.5233333013628366,0.5755595483000411,-0.30007332635412504,-1.1162079625302057,-0.21972845974851363,0.4050689590778479,nm,0.0
9.768203973770142,23.361754314244696,17.32407316131834,12.191275692998873,-0.5603911777869974,1.4415439344323864,1.094041065853067,-1.3112674285539065,-0.36009393666161243,0.5576898733964559,nm,0.0
9.770325422286987,15.242849592855258,17.074798275502197,13.04994987317328,-0.6907853098438658,1.9178778531688039,0.7349584878936941,-1.4982338035066807,-0.3963427404419062,0.6428871579763777,nm,0.0
9.787469148635864,7.294808858599833,17.025867392626488,14.046909880666783,-0.7589308149153647,2.310842229194493,0.46032349159130576,-1.4697828807049451,-0.37509799755504153,0.6578250525798558,nm,0.0
9.790969371795654,-0.21114978696704417,17.006183084189797,15.021935313692087,-0.806073679389793,2.63044845578487,0.018993285714249145,-1.3822812338859174,-0.37411742533713155,0.6280289397348031,nm,0.0
9.820457220077515,-11.956579899554653,16.596377019993984,16.462638761565806,-0.822980222814456,1.6695462545892084,-1.8209064489016296,-0.8786891191618017,-0.3301502962155962,0.4042499131678013,nm,0.0
9.822597026824951,-14.38010789748078,15.951928761462703,16.905004533331073,-0.6819136611916693,1.3175495265583557,-1.8901811748702055,-0.39946307686543964,-0.2672064985561514,0.2205826638321414,nm,0.0
9.829145908355713,-14.336772954034569,15.153968750617443,17.132658143633847,-0.2431076924090302,0.8292760618315521,-1.49656534385724,0.06469252351727339,-0.16012595520607067,0.039316678652833795,nm,0.0
9.8551766872406,-4.835288564276142,14.914414914777108,17.105955445466634,0.6342642248636988,0.04886694766947792,0.6043669431019951,1.1869052427748,0.387453316781452,-0.34307341216230725,nm,0.0
9.859550476074219,4.41685255620895,15.163278433403963,17.181223321321166,1.0728564984767741,-0.3265993187931449,1.9780447063112419,1.7040199352827965,0.5662690232547442,-0.4734046922496084,nm,0.0
9.892386674880981,24.555316780550353,15.12948830696708,17.308552285506593,1.0887708754945278,-2.424741326812569,1.425025944996581,1.8454014630864424,0.5570829975153198,-0.5250484915723371,nm,0.0
9.894747972488403,34.22308132517536,15.050264236260228,17.10810733458327,0.44351907117417866,-2.710777563648252,0.7780446691601272,1.7966524330995381,0.5330007663866784,-0.556226043091463,nm,0.0
9.8974449634552,42.357374209908365,15.098094756612205,16.422513037721444,0.06696597764473085,-2.6990523947678557,0.08889987286608685,1.508911790340408,0.45929164708184844,-0.5736709781875582,nm,0.0
9.923493385314941,52.42237104166498,16.88603752867887,14.689058201119717,-0.3963490975065374,-1.6043542832859643,-1.3682339946105067,0.703622018043995,0.43104584817194075,-0.4103511479041921,nm,0.0
9.926525592803955,54.21291952264974,18.296062730057795,13.954155332985659,-0.0256286459086827,-1.1946009777596638,-1.4198416719056721,0.26511036246103326,0.3564443757787803,-0.2694755343155291,nm,0.0
9.94859004020691,51.34964836095451,20.213048650473084,13.083478627588704,0.1661279625282461,-0.29422071243681214,-1.1598120844832696,-0.4484229935899632,0.022218862457307784,0.06437630108436394,nm,0.0
9.963203191757202,39.97634807264265,19.211891500728253,12.039460727203412,0.056781792597921904,0.10396359055877381,0.44398478864110935,-1.2168810846077223,-0.4273398881619726,0.34738801053489005,nm,0.0
9.98019552230835,31.692210009235943,18.344544165054643,11.785309549198358,-0.42900091632544457,0.401913524977278,0.9933819046082168,-1.4959898859949134,-0.5000044874246272,0.4712427976125115,nm,0.0
9.982390403747559,22.906216075356443,17.487917902350077,11.63234175191618,-0.6485817577964293,1.0598885303727887,1.9464262407476323,-1.5987644165324224,-0.5148990280039003,0.49990961489447977,nm,0.0
9.99149203300476,13.374986262459036,16.848057646672796,11.548065844765663,-0.8009764315331148,1.875488927956884,1.9263911730289571,-1.7542295476887293,-0.5003818013258681,0.5373034342880837,nm,0.0
