timestamp,roll,pitch,yaw,acc_x,acc_y,acc_z,gyro_x,gyro_y,gyro_z,markers,motor_input
37.01992869377136,-14.783095918176583,21.704314430178208,135.76816379868976,-0.24987630611333433,-0.5100709318738839,-0.6170674842554764,0.10312303893287003,0.17096979239471538,-0.14287707627567373,nm,0.0
37.054924964904785,-13.02958052178193,19.904305698192637,135.26891019785043,-0.3206071418974429,-0.10968185870650941,-0.2927948568213465,-0.01719320380164348,0.28030598922124905,-0.10079458424687697,nm,0.0
37.057164430618286,-11.694983718440675,19.221335867101622,135.4039685703771,-0.20814855369446433,-0.008093838351521459,-0.1453614676167445,-0.0788395948541424,0.2872823521442269,-0.06741753772599991,nm,0.0
37.07361030578613,-7.999228391409093,18.639208843458405,135.88067671834648,-0.16696923848181963,0.06082748138069028,0.27453800320921395,-0.2534442491624048,0.3078364810140248,-0.08331371933918783,nm,0.0
37.07663679122925,-4.319573066641428,19.07557413277104,135.84308198773238,0.03421876124861062,0.6291451638903195,0.3715316312459787,-0.2762442218039626,0.19376044259804132,-0.13602080560140706,nm,0.0
37.08276700973511,-2.0988886269944795,19.454382341334707,135.63533551844392,-0.13260497476700905,0.904138654639341,0.724490077082315,-0.34949707429346066,0.25075976326363886,-0.19513669120627486,nm,0.0
37.11021018028259,1.9728905353023491,20.051178640766057,134.99719418511032,0.009316056772375006,1.536174417932031,0.7025230305220286,-0.28862547308802733,0.2308380730426179,-0.20678404708371823,nm,0.0
37.11308813095093,3.828023172640895,20.13476668997399,134.64173758354198,0.019723134774368777,1.619549159048985,0.7970484947541533,-0.2535265270398563,0.24698040812516248,-0.20676657239181914,nm,0.0
37.14642262458801,5.560082260786933,19.77042459708734,133.58792096195268,0.3141824468499248,1.5252736109495093,0.5775856376381237,-0.02592177759925978,0.11340691590024381,-0.16328867187769963,nm,0.0
37.1489782333374,5.4273283374129395,19.490024579923105,132.8661694574004,0.33216697974178344,1.3119956069577885,0.5970079164564392,0.06261026853730497,0.031255440318060386,-0.15624755005991042,nm,0.0
37.15748071670532,4.52094918816573,19.243296227683242,131.973786658426,0.33722246732215605,1.1163170770403545,0.5052250304455321,0.15680420078839277,-0.08191364039975597,-0.14378805738170525,nm,0.0
37.160552740097046,3.1096005488315006,19.09958595482728,130.9744945242584,0.25298890910137883,0.9079777110549389,0.40559814535379607,0.2035105663083843,-0.16964675880202515,-0.13596272657375194,nm,0.0
37.18341064453125,-0.7666919526157493,19.157711649602273,129.0518352904075,-0.0169806003087207,0.5890909039124936,0.17104822882079804,0.24604883777242026,-0.3052128474793791,-0.0838653926243918,nm,0.0
37.2107880115509,-4.827427088518356,19.66411844949335,127.67092792726825,-0.2873679772498028,0.35091463468450956,0.0015569252563389397,0.18775255932840262,-0.32045535054754154,-0.012590528582107992,nm,0.0
37.21295428276062,-6.642850473481265,20.029515515674888,127.30012803637644,-0.30200039416149194,0.2666221518402962,-0.1537860497952531,0.1563413884559133,-0.3040554376050761,0.02034828363574157,nm,0.0
37.249820947647095,-9.511461864370698,20.86495278414059,126.96285883068279,-0.46969549536963584,0.07552324859469886,-0.10791741202566683,0.0923763023147521,-0.2440053856836622,0.059859975394124784,nm,0.0
37.25257325172424,-10.818042456262265,21.264706643616872,126.9524269227172,-0.24827458768737987,0.06742583941356112,-0.3532519000028155,0.08896346428356298,-0.23131209696111096,0.08667675883741376,nm,0.0
37.25501728057861,-11.564274334781707,21.625316394728358,127.16488957738092,-0.38069369563282734,-0.0936733868453615,-0.19340242097717567,0.03229069816468315,-0.14251638018629365,0.09198833569403891,nm,0.0
37.27203845977783,-12.74749509193953,22.239001337141,128.36492320072887,-0.11208747253755197,-0.46958352783985063,-0.3581038421183946,0.022798172605048524,-0.10387555709489403,0.1963783489265719,nm,0.0
37.288317918777466,-12.891172299578914,22.527910778825607,129.50425232231194,-0.1345601168203361,-0.7636499530065013,-0.19759561769104056,-0.022673821427718985,-0.044734956212398036,0.25026790518902436,nm,0.0
37.30514740943909,-12.996020318125412,23.161378674672495,133.10037210715092,0.1853791238819264,-1.2840890568023378,-0.22375060671079777,-0.043308394547279146,-0.02955615331980933,0.40251052692356304,nm,0.0
37.30937337875366,-12.81157294615579,23.473695202960737,135.43159503408705,0.1583611771529995,-1.5725184375421917,-0.07752042556294568,-0.06402548951951184,-0.006621315346165872,0.44687174278396335,nm,0.0
37.3139443397522,-12.760671805245824,23.79054180609733,137.8153271569732,0.24106026644519538,-1.7754312299252812,-0.09600208067999322,-0.046431502393550754,-0.02681849859434467,0.4678701180176552,nm,0.0
37.34110999107361,-12.931440529715127,24.249146607646853,141.58839244002263,0.3202535314423464,-2.0477899227970875,-0.2369263262547039,-7.164654132884778e-05,-0.02759461941911885,0.3286309918752783,nm,0.0
37.34502673149109,-13.293644173486038,24.17868018358342,142.37217644762686,0.3370215268512088,-2.035900091787754,-0.41369602078790946,0.06367888992701053,-0.016426243203248685,0.18150866816522446,nm,0.0
37.381484031677246,-14.157760418205674,22.995630383390143,141.17947583012563,0.07364169668212842,-1.5547545961452127,-0.6390268171667661,0.15198488215067557,0.09099241623228313,-0.1800819593307629,nm,0.0
37.38380765914917,-14.320114464112907,22.012775255914104,139.6701150437622,-0.11104150968908802,-1.1341554627714656,-0.6763531989902027,0.15170041417603972,0.14599488794901377,-0.3118248379122228,nm,0.0
37.386645793914795,-13.367899228876771,20.126899896987318,136.59028950244164,-0.2826282855929018,-0.3110762355318459,-0.5313123669821345,0.020290832076472174,0.2359120486493898,-0.352475438220866,nm,0.0
37.40384101867676,-12.14436485916494,19.50861386284404,135.69889649164526,-0.2517774714837451,-0.0589298854927265,-0.3967578433481539,-0.07647780496097531,0.26199003617700306,-0.27496193610904385,nm,0.0
37.410117864608765,-10.509323347639436,19.176820226272255,135.3606238523301,-0.18509210760575437,0.0629825054059132,-0.23368919135218252,-0.16978806976818464,0.2767291400994759,-0.18133773539769332,nm,0.0
37.414626121520996,-8.598242725366003,19.08439704494458,135.4491124362342,-0.035248202802335246,0.15266631056958413,-0.16818080875779637,-0.24034389406824042,0.2797644640422962,-0.11325721137181631,nm,0.0
37.474772930145264,-2.442599121173699,19.741199152179206,135.27487626498126,0.1538913279066782,0.6696151668040656,0.19297170096008553,-0.2640093032989962,0.17787198640942323,-0.1836398620011573,nm,0.0
37.47687315940857,-0.5134061617681296,20.209404438419483,134.6589168551937,-0.050436509205274704,0.9266572802407526,0.6223620194867737,-0.3185914702096269,0.20242118474983845,-0.262458377596111,nm,0.0
37.48197603225708,2.0028649682738586,21.359102812370065,133.19691353819036,0.14207133917109882,1.520536070848971,0.5477037924850577,-0.21033535390307778,0.06912668323576635,-0.22032938842644362,nm,0.0
37.51802039146423,3.0510755690890807,21.848041544738017,132.75483538215948,0.03399305889936947,1.6166478973808922,0.8031920871577382,-0.19985175481720707,0.08708689837518226,-0.17375609341395193,nm,0.0
37.520768880844116,3.23199825026878,22.534569405211496,132.16448782788765,0.08533224878818887,1.2913476572028402,0.7336365022484106,0.03180724119496169,-0.05565740365436972,-0.028514660038148027,nm,0.0
37.522868394851685,2.1456328309957713,22.65142592216815,131.60584166711243,0.08955228991965072,1.0742051753900106,0.5709176124087982,0.12187577942622264,-0.15423125296495405,-0.03610866596798661,nm,0.0
37.53709530830383,0.5709835580217153,22.778255419761102,130.67779674615664,0.03559410777436596,0.8824506996206334,0.44992140996373103,0.17766810383390536,-0.22475480719853863,-0.07157645719112928,nm,0.0
37.54171180725098,-1.3487045174966399,22.88267910992407,129.49241507864423,-0.09404475969848546,0.7245141161871014,0.4089855977260794,0.21784286559485994,-0.27344482922593116,-0.095337287060178,nm,0.0
37.57285928726196,-5.547396098792798,23.01428617308945,127.64871012189329,-0.16765324006401283,0.5223341775283076,0.07769175203376565,0.22593817236696206,-0.2911332901720686,-0.020054723623674137,nm,0.0
37.575148582458496,-7.28199617968579,23.150311323044953,127.4273250630537,-0.2483515251512133,0.4044484966902056,0.002669727729961086,0.17945177080646013,-0.25838949102084374,0.07055789158871581,nm,0.0
37.578693866729736,-8.643896165448231,23.389176151624913,127.80288432906453,-0.2672522119943413,0.29291805649245195,-0.13628439955535485,0.12123012093192144,-0.2159787719594544,0.16830748902155046,nm,0.0
37.59389543533325,-9.512180649379264,23.727790697812143,128.6473432461128,-0.36216382175210526,0.13415756911345267,-0.1819078452090128,0.05130783035855796,-0.15538505116037368,0.23274586682662168,nm,0.0
37.598652601242065,-10.141919684526485,24.070570368895336,129.7458863824192,-0.44500700547491995,-0.017126364789183963,-0.1296463010845687,0.02541329298541446,-0.12080082265169786,0.2652842570401924,nm,0.0
37.62015104293823,-10.962676048658086,24.337192039805274,131.8207108269231,-0.23226593839338103,-0.17770422546899503,-0.2905551719477913,0.02394351786831436,-0.024027839090377652,0.207993548494133,nm,0.0
37.624632596969604,-11.003222662833783,24.22610792866183,132.68259102683024,-0.34543156619188053,-0.3905219448164525,-0.051739026144844,0.026555013153518124,0.021797410646535058,0.17028326355034398,nm,0.0
37.65385413169861,-11.341487540304312,23.72419097515408,134.81553127602035,0.08567173125873098,-0.6428085729516239,-0.14673212305738356,0.04589292106361999,0.04468309123418913,0.24423263788861618,nm,0.0
37.662421464920044,-11.221810593291535,23.618027016034375,136.56983294205048,0.06361551617603307,-0.9465685977536682,-0.01191784197597827,0.0033832485837135304,0.04323848774177628,0.3360481677828213,nm,0.0
37.66549754142761,-11.371207282203477,23.747949596564244,138.83767323309488,0.3042622389632049,-1.219913321448214,0.04517984229566828,0.006512676123807606,-0.024848514726952174,0.4605041952397687,nm,0.0
37.68630051612854,-11.749842933683333,23.869706210054712,144.30185783700645,0.45127404100855706,-1.948434490906359,0.2565292307336242,0.04057498883608279,-0.019317516706402003,0.571390662078803,nm,0.0
37.69031858444214,-12.493322787447104,24.095796755472108,146.63309767561677,0.6975491150399459,-2.1130456012465366,0.02611932081325832,0.08837934606196157,-0.10112858721208835,0.5218665746193125,nm,0.0
37.7162070274353,-14.449902902795658,24.248576032846135,148.8880363849145,0.40810585112294545,-2.2309354898565394,-0.16871340912949,0.18068011506307616,-0.07815474233258728,0.21832406888715516,nm,0.0
37.72255253791809,-15.949823419992269,23.966509675061292,148.5727521507451,0.3068626865062014,-1.9463952272800018,-0.6035106298336377,0.2649814609114314,-0.08022048951204994,0.03946276178066283,nm,0.0
37.736228227615356,-17.388924586549535,23.4795566044128,147.4108983378719,0.11769665433768968,-1.6650072898940458,-0.8367252403239053,0.276856714113823,-0.04315659404243618,-0.14308853630062013,nm,0.0
37.73842430114746,-18.617804243943567,22.669774188798893,145.76126679310312,-0.2799885834591515,-1.3006523148493516,-0.8029111014156796,0.279923149728551,0.024793124475978295,-0.2624111682774513,nm,0.0
37.76726174354553,-19.814091565509415,20.91890478015623,142.34698767506666,-0.5047208300809609,-0.41781957652767954,-0.759348421704952,0.13805354325993136,0.11610288848593936,-0.33062923987231996,nm,0.0
37.8057165145874,-17.29498451341948,19.572184804269703,139.66111014191225,-0.31328084438156917,0.0727720518849022,-0.15033108300971718,-0.16294081107468167,0.19726961338697516,-0.21023098626866385,nm,0.0
37.80859971046448,-13.026594789477935,20.026534373599713,138.3118602934536,-0.4026343937538139,0.19259815847649742,0.4139686070881176,-0.37922271650890393,0.26484464094251486,-0.30454801494804934,nm,0.0
37.82997798919678,-8.336014546041243,21.237370488635513,136.21062720711717,-0.09776168943605877,1.019128891247474,0.3142885355769508,-0.43956179157755243,0.23844193722942947,-0.41550701124352246,nm,0.0
37.85025382041931,-3.393347033373665,22.729755297415107,134.00018202556316,0.01568522963111346,1.6161294889129443,0.5590063294139959,-0.38656677872468453,0.19640123102440438,-0.38582811869164096,nm,0.0
37.8524067401886,-1.3033709730869416,23.436867087730626,133.13706717238838,0.15449508100223963,1.6936053718828792,0.619154249040344,-0.3630448887607047,0.19284270836566125,-0.34417661210083794,nm,0.0
37.879828453063965,0.8986708294625525,24.374608951049026,131.58930868783304,0.3721683788276327,1.5401077430999524,0.5692559850191936,-0.12492540766231124,0.040435652251979745,-0.2170404131971214,nm,0.0
37.881901264190674,0.8069819126152751,24.67240012879438,130.63028550339422,0.344740994382657,1.3536362504629416,0.5626238072029691,-0.028396321430626505,-0.040980671115328396,-0.1921438052558498,nm,0.0
37.91397738456726,-1.7310428753291485,24.874319266830362,128.23597915773567,0.1564480181724862,0.9865800324833276,0.415226465828777,0.1913376127437241,-0.22181198495437904,-0.14435783413476616,nm,0.0
37.91622591018677,-3.701060185226931,24.756864495698622,126.95211932512419,-0.04421629208518202,0.8403934823624365,0.369125444338898,0.2436012952289209,-0.25831078829141657,-0.11234107924876004,nm,0.0
37.919570446014404,-5.924862205448506,24.59163283968764,125.87977006113323,-0.17590053130154898,0.7112292626274085,0.33105580948594093,0.27355390012856345,-0.2948387104251168,-0.04534965887545752,nm,0.0
37.94319176673889,-9.973844528412885,24.121711432548164,125.05423499834788,-0.34231225750165634,0.41591622471315,0.2068523182108129,0.24238825488999013,-0.23654339971901395,0.10818420130592031,nm,0.0
37.95209527015686,-11.528510272011168,23.987665796723018,125.34551896894232,-0.3907408544500377,0.27565580242296106,0.12399451237801706,0.19249652064717163,-0.20518950208230585,0.17454904887861875,nm,0.0
37.97429084777832,-13.52769452938298,24.04629316838051,126.72904066428981,-0.4051172751465303,0.012645604495282414,-0.055613726773999644,0.0893882253244366,-0.11887061426427119,0.23036850658446967,nm,0.0
37.98066687583923,-14.032986340870853,24.13538809868192,127.62600471236873,-0.21448380636631575,0.0005578636356468319,-0.311485458329225,0.047674636636030346,-0.07231230800860608,0.23047656334139346,nm,0.0
38.00347638130188,-13.617248149155062,24.29895411402141,129.94335096519853,-0.3079970662412731,-0.23872372036306694,-0.2745823057786972,-0.03564563025013427,0.046105995290484966,0.23226359547458814,nm,0.0
