timestamp,roll,pitch,yaw,acc_x,acc_y,acc_z,gyro_x,gyro_y,gyro_z,markers,motor_input
32.02287411689758,9.985478067150957,26.013305280957262,134.98603630653614,0.12018314831336643,1.5165176535603089,0.9310708900069036,-0.30620509594549317,0.16687612994751633,-0.14603023753332273,nm,0.0
32.0253803730011,11.480602854921369,26.39343262056342,134.76944749504804,0.19514116548267543,1.5981652833414504,0.8586481248853549,-0.23878368275162512,0.14624765851772115,-0.1853089655818584,nm,0.0
32.027671575546265,12.37886263937506,26.569641828598055,134.26207622314607,0.17683081149798316,1.6185742939092214,0.9506919946610299,-0.13325015796179812,0.0994734370399455,-0.1916621071425222,nm,0.0
32.04772114753723,12.359549495723813,26.563855956705424,133.6112922375129,0.3183279793016301,1.5213768295195849,0.7238383904108906,0.008162185680036857,0.007654724389527532,-0.13841326816444985,nm,0.0
32.05957889556885,10.735938207240189,26.204564056172874,132.8793042977296,0.19699001754816772,1.1140806394261062,0.7540876620909259,0.16819364328280698,-0.09887713410655785,0.022424669115763983,nm,0.0
32.07368183135986,7.693109489851016,25.64779593646724,133.18366386693475,0.009928832809501915,0.526686878089642,0.473086268688427,0.23865063858127689,-0.15904493622955035,0.1835393690600562,nm,0.0
32.08322095870972,6.096014984323346,25.404804066132787,133.63091149046016,-0.10618720895298792,0.27510854609088403,0.37455979456582195,0.23872454214455366,-0.16595013835101016,0.2185754284556747,nm,0.0
32.1060254573822,4.46978203175165,25.15624540105988,134.1043338887695,-0.24004788810293035,0.10816984357971583,0.3766170458490579,0.2449240622766177,-0.16724165293596788,0.2253626590542759,nm,0.0
32.12340760231018,1.5915937464922725,24.553437493077947,134.89118171183839,-0.12763071771680742,-0.12111875056638838,-0.0714650764966722,0.1971153851251931,-0.09051873774727741,0.16365851428056916,nm,0.0
32.125688314437866,0.7708478357083904,24.161807623494827,135.27318745422625,-0.31754892906924054,-0.29388350570539035,0.13602365289481674,0.16607987299025148,-0.038931657886910734,0.13649018325056217,nm,0.0
32.12908744812012,-0.14130835510073497,23.74264073703362,135.7097576741833,-0.07644840312310898,-0.37997779877811355,-0.20471385248080012,0.18245194487708996,-0.045724714685824425,0.1539813780102774,nm,0.0
32.15045118331909,-0.7212934454955798,23.140517515049126,137.07463280906393,-0.023126726698551786,-0.7238054368060579,-0.04846715559066877,0.06015326554916341,0.023434977072969362,0.15871337977793298,nm,0.0
32.1653356552124,-0.8631427894155078,23.09858822973608,137.90392137677875,0.2009392657002917,-0.8784714288012785,-0.20682354669150171,0.02896622507696593,0.00027954181228125356,0.1697682381990656,nm,0.0
32.16983485221863,-0.7654039426556029,23.274566418088625,138.68896474717926,0.26341525276190225,-1.0895072737443015,-0.2665749696776341,-0.03300079466622083,-0.002571257591051808,0.14202190412343163,nm,0.0
32.19327259063721,-0.8157956379552459,24.556984139915656,139.497469352986,0.32727974542049654,-1.2255319322617724,-0.3972221533627598,-0.0905367675491665,-0.12035309964401655,0.036334065231896376,nm,0.0
32.201029777526855,-0.9815668577325464,25.531269642997866,139.31174169401578,0.21531966393453794,-1.2381268117815574,-0.34925388705892557,-0.10008300018847163,-0.15615533940875537,-0.04559965551839689,nm,0.0
32.220623254776,-2.0934779325801007,27.212703080284857,137.78869319563046,0.056289183617893174,-1.0868960819492395,-0.5716310732351233,-0.00846045121040303,-0.18016761041776977,-0.1436827389217856,nm,0.0
32.224289655685425,-2.916923211721694,27.769452983494812,136.76042959336874,-0.036824373905913955,-1.011422262999506,-0.6328787243710758,0.03645535787963301,-0.16965905598249206,-0.13704814570742396,nm,0.0
32.24693727493286,-4.674975661340628,28.245461518328014,135.36455062408353,-0.17883700211763437,-0.8497980220949031,-0.7230446617778172,0.09090070556748238,-0.11260807966573122,-0.0365478707333126,nm,0.0
32.251017570495605,-5.417129895726676,28.250574893169908,135.10289434891567,-0.25231610986553804,-0.7912461418292218,-0.7067419645057751,0.09724250854995564,-0.0813108490604724,0.011005180590767872,nm,0.0
32.261587381362915,-6.061924528984289,28.119800108795918,134.97648218218825,-0.2984583801995217,-0.7292067355445639,-0.6985446627564366,0.10405760527701678,-0.05019981918815693,0.0288443247104902,nm,0.0
32.27001643180847,-6.644379649829489,27.86493804125691,134.779435872769,-0.3577627202948391,-0.6342065478612784,-0.6276114712679634,0.11386399713311912,-0.025200909460813017,0.00858463048506287,nm,0.0
32.29439306259155,-7.631891924450234,27.057642300538223,133.65126133959956,-0.36094086422881566,-0.290076225990468,-0.48149399422093014,0.12299576228135782,0.019440980761785995,-0.10674827365099887,nm,0.0
32.319785833358765,-6.5253958198441415,25.871807481617278,131.43846040204537,-0.15055076811036316,0.34336282324114165,-0.10140039796371748,-0.0642086570977208,0.17784929433343047,-0.19833655055174584,nm,0.0
32.33686685562134,-4.859849690318617,25.734242163147393,131.31237110112855,-0.035879590822650076,0.5042067826709675,0.06154729221191785,-0.17228428777673382,0.25501857604438183,-0.17731576578913216,nm,0.0
32.343125343322754,-2.2924559185225215,25.80335884838742,131.49584110739625,-0.09706110074269121,0.5625150362897416,0.40768762837232203,-0.310790966375567,0.34963049576268224,-0.1726105379860779,nm,0.0
32.35656452178955,2.910369830581474,26.334270844957075,132.14724861461576,0.2520393867635748,0.9698614778515406,0.6079514591236587,-0.33469660904850956,0.2983874834161779,-0.13936087688225862,nm,0.0
32.3731575012207,5.701134550918672,26.656670756784948,132.228434218447,0.11204761782047773,1.1872625144090068,0.9582212358319459,-0.37807999901530076,0.3377984639258944,-0.21904726002446523,nm,0.0
32.375298500061035,7.884405851795244,26.97190165472309,131.98931748336264,0.11736936117057421,1.4213810030646576,1.0654960809178062,-0.30307367273671265,0.25704023979544843,-0.24872110565780806,nm,0.0
32.387415409088135,9.196702727539819,27.21517133019252,131.40264120751687,0.3648639836574227,1.535315351812662,0.6673335872182886,-0.18655916660230953,0.15182448801197693,-0.24655307626879003,nm,0.0
32.41280007362366,9.972708177308272,27.26397666594526,130.00053275835995,0.3367564812311694,1.4993367443638193,0.745472206515455,0.021377330234160285,0.008426371039951709,-0.14588941330694927,nm,0.0
32.435734272003174,8.119926294589701,26.70902780104152,129.50964707605007,0.20848915723645728,0.9760885282268351,0.7783404758592164,0.18264147128903227,-0.0985744075938467,0.07143438238931377,nm,0.0
32.437920570373535,6.536931873563371,26.363057420960406,129.7570112812757,0.13337967169698983,0.6314447360698704,0.6834380447724989,0.2401043471596164,-0.16443042011073472,0.17828231392979435,nm,0.0
32.47101664543152,3.1167868242524297,25.970841089228557,130.72927559520804,-0.10464749250618369,0.017990303270296215,0.5646896893669395,0.22412028971620132,-0.20176213909402246,0.24446562658919346,nm,0.0
32.47445726394653,-0.4408527659159172,25.83060018828017,131.58523402931047,0.096364176043391,-0.1665235792688601,-0.1840888952621977,0.21236808514547717,-0.20577317741098583,0.217385875859797,nm,0.0
32.49147844314575,-1.1461752472803899,25.7285128160692,132.03392871185912,-0.33596534899679237,-0.30084215343127496,0.1482771702863505,0.10548293571241271,-0.07012978574451721,0.14370434508732846,nm,0.0
32.49509072303772,-1.9216890796601378,25.53120289192866,132.5396593387441,-0.26698180448233694,-0.35894776377115695,-0.09088894855580494,0.12879000105822494,-0.06579798588556664,0.1610224928816524,nm,0.0
32.556482553482056,-1.794674405744468,24.44561050298898,135.09926273040935,0.03009280558935169,-0.6579524187662492,-0.24818499515235995,0.028748207020721853,0.09868299996093138,0.17089887758818081,nm,0.0
32.558714151382446,-1.3338527453157911,24.113382489522316,136.10480601959355,0.1489646073674171,-0.7656562672877006,-0.26176985902187966,-0.009061366804961892,0.11798445997934578,0.15593139412119109,nm,0.0
32.56147789955139,-0.6844941459894588,23.86991758888872,137.61453159818888,0.26279410066631725,-0.8783147655903671,-0.3705400408898708,-0.014286910704127928,0.03956559061344788,0.10486315230338478,nm,0.0
32.56397724151611,-0.5815691873665954,23.98024760231082,137.99245330411648,0.16039890164316192,-0.8916169690998675,-0.36077796586412675,-0.024716780549354164,0.007935031049215382,0.05978356286531358,nm,0.0
32.56603455543518,-0.7932170830173818,24.238566962977544,138.1266934229614,0.1012926686567264,-0.872489572544267,-0.4281336932987546,-0.0017217470612790348,-0.05268175765096443,0.03670665082189691,nm,0.0
32.58104991912842,-1.2424173168903947,24.581152415123988,138.07885094803697,0.09737918906622108,-0.8745892622680006,-0.5784665582967626,0.019274392121459656,-0.09409793588353232,0.020180530636069147,nm,0.0
32.607473373413086,-2.664724037587744,25.178133064917112,137.67123734416364,0.06468645838310012,-0.990096590916143,-0.6683843913643412,0.08128390094278382,-0.12970286472228224,0.004555683151637417,nm,0.0
32.617107629776,-3.585438090512915,25.349196781570406,137.30793760163405,0.09749702905445233,-1.042017170698723,-0.681929322753308,0.10415349679437465,-0.12606381428303431,-0.010292413875560711,nm,0.0
32.63898253440857,-5.4107405752335875,25.453002126947727,136.1867205143891,0.0859909064317247,-1.0136900928753074,-0.6435956156947067,0.12010904311639425,-0.10415246954380811,-0.05861090934429496,nm,0.0
32.65348482131958,-6.728965506204971,25.429996185217835,134.61359258862151,-0.020014858200762806,-0.7171322727217013,-0.5937588645262998,0.08049287119773033,-0.05845521355409805,-0.11209016984526117,nm,0.0
32.65674090385437,-7.095311529476147,25.434258432224027,133.86812333025702,-0.09343469650461093,-0.4587189572579005,-0.559241001546301,0.05059292095584903,-0.036115226273461615,-0.12413015370706011,nm,0.0
32.672712564468384,-7.191778795286626,25.476836560392144,133.212633286545,-0.1370999172005898,-0.24499917926922374,-0.4690174043523186,0.010948690471134472,-0.006619374980596337,-0.1293097784030892,nm,0.0
32.674941539764404,-7.017855882275473,25.52456764287288,132.68262991863116,-0.16373385607510063,-0.01805975116785257,-0.35117253489228567,-0.023187415205077916,0.028330576117963312,-0.127532489314643,nm,0.0
32.70188498497009,-5.582538337960862,25.630570087466616,131.99495683327697,-0.10870671842609146,0.3357663597096873,-0.002590657167886263,-0.11617675700597034,0.1258508152651589,-0.14446267298458493,nm,0.0
32.70385456085205,-4.06471857372652,25.77405618821194,131.79152967842506,-0.014947991613941213,0.4492858987844545,0.13487889854826468,-0.1988385101853117,0.1961103745189675,-0.17957781383022825,nm,0.0
32.71898865699768,-2.0286716592903784,26.065730239516295,131.56335073692003,-0.22421899884506397,0.494007252386193,0.6624701894945536,-0.28182926555709026,0.2463893056070229,-0.2169002594358702,nm,0.0
32.72285580635071,-0.3033975478676013,26.5195924741985,131.34030945905837,0.10524880012549487,0.7485871067185266,0.5915894783701133,-0.2675412166885374,0.1829621706549075,-0.1965152747300437,nm,0.0
32.72672915458679,1.7422277593057134,27.102511625960922,131.17572381509694,0.15610720954102106,0.9687087180571038,0.6980672583293778,-0.323177477771172,0.2084895332674323,-0.2195733895494801,nm,0.0
32.75536251068115,5.181761674440133,28.499867115562914,131.005982758457,0.11333064144040217,1.3803012643227703,0.7791115606698688,-0.25977455585556003,0.09916753789925302,-0.1449320028633555,nm,0.0
32.75755333900452,6.276055113952514,29.051651753709383,131.04146533093203,0.06204213428026656,1.4639460623780196,0.728633130941785,-0.20365600543068269,0.08203442542738776,-0.10744867483194265,nm,0.0
32.783119678497314,6.701744618288455,29.368303653224768,131.10981762655769,0.06449443591848877,1.275980364147151,0.5018478582854891,0.0,0.0,0.0,nm,0.0
32.78521752357483,6.23590530173204,29.14253399256308,131.03807022025723,-0.040266569220141685,1.0857797429686942,0.6311509870522745,0.0934119624905792,-0.022018184962016747,0.022178780195304316,nm,0.0
32.80134677886963,5.286310533266111,28.74743231217376,130.81955888157933,-0.06986151296127623,0.8516532893705868,0.6362782394280115,0.17467926239331513,-0.06410551841952279,0.039432013767140665,nm,0.0
32.80710816383362,4.027449215083963,28.272706522183014,130.46986431490345,-0.01653119806861763,0.6001229157728959,0.46034531506575077,0.22235215666084163,-0.09618801434375376,0.04171451429989086,nm,0.0
32.82954144477844,1.368642743240452,27.328640070352613,129.7184991811442,-0.13300984118854728,0.2988537592042275,0.30041810293153326,0.23235303062422324,-0.1178354745110643,0.04863069500365091,nm,0.0
32.83226227760315,0.19243472392012714,26.91500199142678,129.5512385169528,-0.1773552042038706,0.21615503315729834,0.15520947259784795,0.2035422477169332,-0.09809211447600116,0.06603525745982662,nm,0.0
32.84993886947632,-0.7337282203301584,26.53640242034099,129.65821464110596,-0.26568164509539444,0.16805366791902282,0.1640878968663218,0.16999598567838373,-0.06861480299682557,0.0971441263835532,nm,0.0
32.855480670928955,-1.5699188173650618,26.179077411632395,130.05620548234174,-0.09312911182394681,0.1136565634294055,-0.14785821986722994,0.15697332721482823,-0.058463288782411554,0.14650784867021296,nm,0.0
32.8938102722168,-1.706824067548723,25.521743036252538,131.54216476266808,-0.2005353664802776,-0.18233073325229368,-0.007287704047349629,0.04253645240300888,0.06502189155453973,0.15695341737324398,nm,0.0
32.89610552787781,-1.6855779149909365,25.063178921547212,133.13999476088352,0.09788642105259607,-0.44332486542504934,-0.17461695927002485,0.020346885311964297,0.050958049062168574,0.15008855186397105,nm,0.0
32.89862036705017,-1.5888308661363524,25.020012784004063,133.8119976899673,0.076399356816132,-0.609277430726987,-0.04048461302044407,-0.0007664306380670677,0.0300257897382156,0.12851878555620402,nm,0.0
32.914273738861084,-1.7857179297636194,25.179041428935694,134.37743265709466,0.2077708228404669,-0.7315080627408078,-0.1636773648355991,0.006890582331589263,-0.036419096234381644,0.12853497623758356,nm,0.0
32.92638349533081,-2.082594951726316,25.552305739453104,134.91681334183622,0.21837984191051693,-0.8565718585316112,-0.17722549906012483,-0.01057840695151501,-0.07932362171153187,0.12608694144218097,nm,0.0
32.947903871536255,-3.308087261184326,26.856369036123706,136.06116929951244,0.23417259805215074,-1.1197411518537108,-0.31678488537532024,-0.001608783274435326,-0.18620343930578007,0.17889129963581285,nm,0.0
32.95248794555664,-4.086544749659228,27.674764765670677,136.71948663097982,0.19342417124048875,-1.260695078166689,-0.33475146510629455,-0.008045980398079591,-0.20265026849234782,0.19605221102990242,nm,0.0
32.99215292930603,-6.850578747672058,29.93014407616202,137.96433857878637,0.09858740133701427,-1.5174938918938001,-0.5274750595876205,0.04731939169187381,-0.1916850082405896,0.11068218068875096,nm,0.0
