timestamp,roll,pitch,yaw,acc_x,acc_y,acc_z,gyro_x,gyro_y,gyro_z,markers,motor_input
12.524847984313965,11.760848653485143,-6.115085919601424,-44.863755966587306,-0.304367621392829,0.14400554540313354,-0.12060157339755878,0.1738466630128354,-0.09688498406122549,0.012935418253901348,nm,0.0
12.527997732162476,12.711683311657286,-5.6335991142116,-44.59979765368657,-0.204074264232157,0.23438528608666392,-0.13568905987845667,0.2012717648247877,-0.07744797423013793,0.049327832717489056,nm,0.0
12.554598808288574,14.163209697678685,-4.3630710830134545,-44.609579201642966,-0.15820574289730197,0.22173905270605634,-0.44353752531132945,0.1896162753521643,-0.015868416315151422,-0.03793589656377097,nm,0.0
12.558686017990112,15.338795037530549,-3.6830298143778366,-45.1200111931625,-0.10355788596686419,0.3351826794103677,0.06411919022889735,0.2613407150872641,-0.08140411439000747,-0.10435599856820713,nm,0.0
12.586936950683594,16.519707600252715,-2.2350065612597794,-46.949962144844534,-0.23845059600619636,0.34844427086571955,0.2595601521341789,0.1447255479659756,0.03765995053781706,-0.21715155811332212,nm,0.0
12.5899178981781,16.592278466114188,-1.7091472752291488,-47.86306844447765,-0.1994307879443024,0.40025861799105317,0.12045632543500713,0.08545207635508292,0.048629165431311336,-0.20357310005896567,nm,0.0
12.59812307357788,16.387353188765495,-1.31012068393154,-48.487626916063995,-0.15305092144417104,0.43839453239843845,0.041929710613262956,0.030097202373201352,0.07191926320687915,-0.14320398972623127,nm,0.0
12.620455741882324,15.358990849760495,-0.4784703201418807,-48.63519840864168,-0.06892322241023088,0.6672236419230695,0.01941082754078464,-0.017656476814784567,0.13279802424104306,0.010002785746031626,nm,0.0
12.624934911727905,14.72078256675829,-0.08884900432374793,-48.39559576676262,0.03458530636571018,0.6987799485757685,-0.005973215048706949,-0.028527894411454688,0.13546570844359124,0.039606063164484236,nm,0.0
12.648754835128784,13.7563531396663,0.5677821534191482,-48.210526083015274,0.23307771467295102,0.680351721667063,-0.19605824477770123,-0.01509161982054946,0.08669346725865164,-0.008309106324849795,nm,0.0
12.653694868087769,13.52855175715699,0.6409581580407816,-48.45240215295587,0.2770143687432768,0.5911546655953852,-0.21863490717201614,-0.02189892769284174,0.031806790304364736,-0.05558528559401502,nm,0.0
12.677326202392578,14.251901821564598,0.3854389285911917,-48.99720316152181,0.17571996906596143,0.42531329571963483,-0.23695271997247422,-0.039965979789266186,-0.07729903950709645,-0.07849483052348293,nm,0.0
12.681103944778442,14.877602490500585,0.09818325235527704,-49.0840594437269,0.06383322826642443,0.38896038945232425,-0.18463550122091388,-0.06240110626785259,-0.1278482035200744,-0.048101532831634146,nm,0.0
12.702033758163452,15.68464974251791,-0.8362278404597911,-48.67861316369693,-0.17224226085481076,0.34913232557559803,-0.10513417914406434,-0.1145127648363203,-0.16748818481819586,0.04046578955292662,nm,0.0
12.719590663909912,15.894023499749395,-1.3987514689547793,-48.27181678154816,-0.24031404758767386,0.3022239628133307,-0.08603279225607088,-0.12903782745320405,-0.17213333400133388,0.0683209299518888,nm,0.0
12.724557161331177,15.95256028821639,-2.0760439751603053,-47.79346053825357,-0.24726839729849218,0.1960412176700334,-0.07014844373866912,-0.1398351217861431,-0.16872190793027653,0.07801136978075453,nm,0.0
12.745339155197144,15.4677561111828,-3.8157453351311834,-46.845722679719074,-0.20813054112310747,-0.08427219986487446,0.017944717712845094,-0.17392668907571493,-0.1264213604861013,0.08050264144873628,nm,0.0
12.750641345977783,15.099873765242869,-4.851822449410473,-46.30547047419274,-0.19236930212310824,-0.1812168046660658,0.021977696990313413,-0.20261878929840674,-0.10175122586784352,0.09547878052238429,nm,0.0
12.77584719657898,13.52650611461959,-6.824519598954969,-44.60698835294062,-0.15938094092025057,-0.1423797010341932,0.1126786530919202,-0.2691167207472795,-0.010995679133167815,0.1663071510654255,nm,0.0
12.789791345596313,10.89049536668415,-7.675798877329761,-42.18419700022547,-0.011953035235517785,0.06359231138809586,-0.0551232051142171,-0.23328003566577354,0.12716482185306568,0.20647990639046163,nm,0.0
12.806232452392578,9.849757777403223,-7.618905543239766,-41.22782956322336,0.11664722230455314,0.11949712661685384,-0.06709276109646518,-0.17172370096470727,0.1643207273957812,0.1733403043580728,nm,0.0
12.815852642059326,7.581973212202407,-6.544805885212027,-40.49218929857406,0.4656414871380146,-0.1137815618948454,0.11567879899118344,-0.08423548161691907,0.2267409181126447,0.012367721944053835,nm,0.0
12.847705841064453,5.586127328278916,-5.82154622084503,-41.21196467922905,0.5524959826699135,-0.2888324203234616,0.19404040689436777,-0.12193070992875914,0.14321165052164953,-0.117602527230082,nm,0.0
12.849817037582397,4.774573414713819,-5.9058074242653325,-41.69119847284873,0.3919006757078791,-0.23999059312459747,0.2263171746317404,-0.13364425326959442,0.08095311228721663,-0.11774326845645734,nm,0.0
12.866318225860596,4.237251491846283,-6.061451136956528,-42.0284455715874,0.1415587964830587,-0.07384848376951321,0.20114688822874202,-0.1019109390585092,0.03473484389830889,-0.08379849503491711,nm,0.0
12.869258880615234,3.9813768017583255,-6.1255397318279865,-42.222394489404735,-0.06567339021786953,0.0922653609160384,0.2569446905943248,-0.04786018285129119,0.01117416386144911,-0.049264243397710836,nm,0.0
12.886530876159668,3.911491773968847,-5.967059207143293,-42.402670893302805,-0.1402031639172646,0.15177841574295547,0.24879201041201715,0.0,0.0,0.0,nm,0.0
12.950047731399536,4.620888306561638,-4.761983969247644,-46.579104917276176,0.13230244362689217,-0.4026444253972829,-0.22981257423419446,0.018047415193026297,-0.07732991498990836,-0.2405767325061835,nm,0.0
12.953085660934448,5.856710397976263,-5.532580315912812,-48.09123221092656,-0.26389064852323674,-0.1332117409901771,-0.06742421051054945,0.06493554533639652,-0.23896620205871857,-0.13078856436589245,nm,0.0
12.977203369140625,8.969743873660075,-6.4632201918086105,-49.039766770953044,-0.5962148016860348,-0.06395437642937948,0.000984124007737646,0.12145054545215055,-0.19894736622254922,-0.0582971228197372,nm,0.0
12.986082077026367,9.90159507061071,-6.482156120828788,-49.50323204242373,-0.44004202335990006,-0.14752793697352476,0.24207830604112887,0.1157050722602438,-0.1557778589351348,-0.10009997526016726,nm,0.0
13.019976615905762,9.663082718801789,-6.653034341645493,-52.12844998092638,-0.18744748046231965,-0.42613614318137966,-0.11141486726515785,-0.0787864602611877,0.014114168502047194,-0.215452505432132,nm,0.0
13.022257566452026,9.086577596012658,-6.937999363103494,-52.96641032151901,-0.23478384644323408,-0.2635232517151402,-0.18135709562411306,-0.11844645325919788,0.043484234495860606,-0.1950422192230392,nm,0.0
13.037895679473877,8.42501994090492,-7.303243753437382,-53.680624797657465,-0.2841581677680862,-0.02506531380509308,-0.1556520049058701,-0.14080440061341742,0.04894636804504284,-0.16509120256481322,nm,0.0
13.085822105407715,6.357792523337108,-7.771381565862034,-55.16698666010994,-0.2054507496454921,0.2191369549800052,-0.16679280653318923,-0.08822781471289733,0.04727231943738522,-0.11198934853476926,nm,0.0
13.087834596633911,6.375078305626454,-8.28732838530291,-55.80785350287015,-0.17134367944085513,0.030603982253816935,-0.16040243200069756,-0.031080885103286136,-0.07713345294449671,-0.05374747202161158,nm,0.0
13.090060710906982,6.844830322214826,-8.686969878714264,-55.860937807447904,-0.24974645103116502,0.014831948174516026,-0.1884422551803824,-0.018146477563200928,-0.13478336173566724,-0.0019001312636535393,nm,0.0
13.093225002288818,7.134794679126262,-8.985344592569652,-55.633915275337614,-0.3370047451223638,0.04199496053228882,-0.1451534513797548,-0.03136950914612848,-0.17739015947689057,0.04924204834004566,nm,0.0
13.108094692230225,7.379564951154041,-9.304973407499974,-55.23099491393246,-0.3988283384373056,0.11103031788709138,-0.12999690449610105,-0.05530907366825511,-0.1843185886617487,0.08333311314391874,nm,0.0
13.11029052734375,7.803742689743311,-10.06454721959628,-54.83272248019807,-0.44583534440429623,0.1462832077917899,-0.2718528867476569,-0.08043382633752615,-0.16879378313282745,0.08891556036751531,nm,0.0
13.137858629226685,8.185242237954162,-10.882031848034018,-54.54040292051432,-0.42029387561027676,0.14568235120042375,-0.21855064717603673,-0.09378488680729544,-0.16899493773817664,0.06734858800439994,nm,0.0
13.155179977416992,8.657485485425598,-12.653659993188498,-54.594880986758426,-0.24553442778521695,-0.14007966444459707,-0.20808264696205356,-0.13254791677877206,-0.1518208423078712,-0.023635089952647903,nm,0.0
13.253888368606567,6.614483741603756,-16.568859408153063,-54.00177057060029,0.17255863224376197,-0.07855626008542597,0.6877772206700695,-0.28109344419680626,0.08346533949369482,0.06324384993028245,nm,0.0
13.275407314300537,4.1298971749867235,-15.666134659834324,-57.180045715884454,0.10779784768015012,-0.2767324957544136,0.3051195496299575,0.19799777599010993,-0.0890480394765077,0.04273950497379685,nm,0.0
13.278218507766724,4.797017288975697,-15.031768684907206,-56.66183596086565,-0.02001681441977132,-0.26470105465340404,0.21444851115447988,0.17246965124498836,-0.05197092147375047,0.14751885564044379,nm,0.0
13.28110671043396,5.402752715677849,-14.371690404942786,-55.809589825387334,-0.03556435618518298,-0.1292859953727339,0.15744835408313734,0.17107111437977132,-0.03738310506563865,0.20139513320941768,nm,0.0
13.305558443069458,5.920793202915517,-13.72497018778384,-55.040704362705746,-0.044453060218453015,0.02716688338142871,0.19545163604257437,0.15992975765912562,-0.02264411146257152,0.17492249953151176,nm,0.0
13.307746171951294,6.235840464287505,-13.143776926697829,-54.68351280555433,-0.024752037018744934,0.08150839084644033,0.17412579876162365,0.1267596388122609,0.0035598043803242293,0.08180800190163195,nm,0.0
13.325128555297852,6.580454582000179,-12.032738394103548,-55.417581993846575,-0.08933802403557042,0.09785316373019057,0.13166953600701783,0.10665223904146413,0.020422819448316278,-0.09071568306868465,nm,0.0
13.34977674484253,6.531741544527027,-11.036454795045655,-56.38109253247227,-0.09536691739401765,0.1056564525805869,0.15867222906976164,0.06635099694682609,0.0577456170421692,-0.08030074540599362,nm,0.0
13.351961612701416,6.215484518346334,-10.533294259617845,-56.40308555274379,-0.11623319193321013,0.11112022089416938,0.056903361067736705,0.04521337258139939,0.09464942754519089,-0.021026361111611908,nm,0.0
13.368844747543335,5.993917502823937,-10.049775574738645,-56.11470970240025,-0.05927132900498872,0.22683428113904722,0.06410164272825745,0.05202372943834361,0.07714847716532343,0.04502166968439656,nm,0.0
13.373116254806519,5.78998913173493,-9.592060557295,-55.72889175951517,0.024354973866392144,0.38181090169168724,0.19544192750723646,0.0491715593927183,0.07174748690262982,0.06546708397331806,nm,0.0
13.400635004043579,5.662383242140699,-8.402940850944473,-56.12796276867663,0.05582932246518061,0.42020297083942065,0.05217918996788635,0.06352731650579985,0.01083503658579655,-0.10402569941943178,nm,0.0
13.43161416053772,6.171634417972322,-7.735108210654759,-57.77254018956926,0.04736308924862689,0.2010786605458537,0.05151060398139343,0.08473048006699478,-0.028881588023805804,-0.16805668254164602,nm,0.0
13.4350905418396,6.511453168952834,-7.357915317327651,-58.49553136390033,0.02782326846204634,0.060695722579604594,-0.05868417506583809,0.08064038897875396,-0.02331159164707181,-0.14110759673060233,nm,0.0
13.43849802017212,6.89515562485216,-7.023695218382224,-58.93644211555453,0.03753204446167998,0.011471764440005049,-0.07742781952719928,0.08630120608820192,-0.0354823332739589,-0.0840527930094488,nm,0.0
13.45479416847229,7.680267564342697,-6.454931213871639,-59.16817525522765,0.019569926663596006,0.06877903154701445,-0.13942055822764413,0.07464288905250432,-0.05071310059461019,-0.007221111479017775,nm,0.0
13.482285737991333,8.691040064093345,-6.077786212826198,-59.572092423342895,0.011281932122498924,0.03637345287068764,-0.18792255379057243,0.07899806146756724,-0.08906256439431977,-0.053829019043670524,marker_3,0.0
