timestamp,roll,pitch,yaw,acc_x,acc_y,acc_z,gyro_x,gyro_y,gyro_z,markers,motor_input
31.50896644592285,-5.648679415241115,22.482717829865578,137.7233516397613,0.07051494529933991,-1.6400070308401107,-0.6279930830544979,0.21932765328887233,-0.19198392515228507,0.12641617416301792,nm,0.0
31.51176643371582,-7.3591303587491055,22.68084262978114,137.64582664227552,-0.09170485082587154,-1.4549532829584293,-0.9113479298011588,0.2113156517152865,-0.229678479276713,0.09464985713194811,nm,0.0
31.514075756072998,-8.952402514497392,22.81658847295613,137.39928393161466,-0.338615677305852,-1.1901695250010529,-1.0951879991585536,0.2028077876292576,-0.20606913887347675,0.05537268975470161,nm,0.0
31.530142784118652,-10.30022939865802,22.72369115985486,136.99729393007107,-0.5389870184251262,-0.8977283720614787,-1.2394248961013132,0.1993758232641873,-0.14268591097358246,0.009249067878276552,nm,0.0
31.532236337661743,-11.289040323591639,22.35760046919026,136.45711777821143,-0.6255159339778407,-0.6439835333386115,-1.2402227607442005,0.18757295432251445,-0.05915120411271068,-0.04471245922080683,nm,0.0
31.560010194778442,-11.858263203118364,20.963542008028895,135.14139829668528,-0.5503739276521176,-0.2557550617561185,-0.827345816461668,0.11513173226522713,0.11707361474470546,-0.14903626879747625,nm,0.0
31.56216049194336,-11.401751477107888,20.36386378384683,134.37197018907258,-0.4684369160336808,-0.11826985690687854,-0.4710699738215122,0.029488979752907176,0.15809607452053306,-0.1913973431075253,nm,0.0
31.571118116378784,-10.530737602438316,20.124162095812665,133.59321179611166,-0.3927570938645757,0.08353035823246341,0.010216304851438304,-0.07451391399071186,0.16376881169879595,-0.22149702472931213,nm,0.0
31.599172592163086,-6.739762341445919,20.589740547670207,132.29152638605115,-0.045269132680294,0.48638775993484284,0.3104625042007608,-0.3381287920187773,0.29327761553598,-0.2841328477437349,nm,0.0
31.60248327255249,-3.6318679421098157,21.018454943224302,131.92008616860622,-0.4122353664596135,0.747210423252856,0.9158005014096303,-0.4487973372431862,0.38593592076453714,-0.30208588968274974,nm,0.0
31.606298685073853,-0.7516783447631835,21.801372741121288,131.68014082530553,-0.021370394887934047,1.2933788354638602,0.8286332011048136,-0.46971054123464656,0.30724739457444794,-0.26586701536095847,nm,0.0
31.62891411781311,6.424229470249104,23.18607046432429,131.26551838371532,0.005677026591025843,1.885039297907509,1.2857726336438668,-0.521722724439741,0.44984970920599987,-0.32719083641154884,nm,0.0
31.63290286064148,9.125873999229585,23.564399377853807,130.8392429057816,0.3643800575890375,2.1183235609074154,0.9187027773535431,-0.3780812815571264,0.33481079338177017,-0.3037157045842685,nm,0.0
31.66159415245056,12.3763342601881,24.13336852520905,129.2667933274098,0.6240028550449448,1.8091707193525737,0.9777050924913068,-0.15826853333774465,0.14408265982307772,-0.2997107682499844,nm,0.0
31.66365385055542,12.104223552799478,24.2409264279939,128.19364682042004,0.8353083021530404,1.5597498700543588,0.6588330413390285,0.019900709123469758,-0.043052504295343644,-0.22351109962117896,nm,0.0
31.690420866012573,9.593126080461058,24.620380679600043,126.66140505865535,0.4900593716864648,0.8378919063386798,0.8281900458903025,0.15642830229559523,-0.24743247283615938,-0.014598856908288702,nm,0.0
31.6971755027771,7.263362570876625,24.640138052442115,126.54964795891097,0.319870660629761,0.6879850089153077,0.5817264827051992,0.2561207259041377,-0.33310125039763405,0.14630260508580117,nm,0.0
31.72460436820984,0.40559343361392297,25.030482786191886,129.53311067866946,-0.3210704685607175,0.1685181001161308,-0.10037965650979608,0.2656878200069625,-0.3272450462190575,0.45829660992445875,nm,0.0
31.729904413223267,-1.250235208678682,24.8446805457248,130.8814906790982,-0.455261201525509,0.03434377641690496,-0.2722669486117051,0.2281699386216424,-0.19463156612486487,0.40226102359976806,nm,0.0
31.738781452178955,-2.4515477137574284,24.43039061178323,131.87612507478934,-0.7554476196401927,-0.23373370991638195,-0.009642603762636242,0.2121213429739767,-0.09813569889958966,0.3124811176498928,nm,0.0
31.748018741607666,-3.825432453659565,23.676490328678547,132.48173971156487,-0.41447029033021776,-0.36210613808748615,-0.4150419722364424,0.2857354690613616,-0.07348051722411057,0.24684014079412894,nm,0.0
31.786332845687866,-4.6585216283416875,21.577974756548883,133.3456367766792,-0.3514960324267928,-0.6740800349849255,-0.08725681455858993,0.178941078294633,0.1360222178733384,0.09243109985161393,nm,0.0
31.806706190109253,-2.822916709094254,19.95092465153695,137.51768786039378,0.22526579414760112,-1.2912538014271635,-0.3635848300435988,-0.09590804966601348,0.07697781026477094,0.23459552077111429,nm,0.0
31.816645622253418,-2.2175256020625507,20.261852044138543,138.73637148285584,0.20596073663034564,-1.48380711610246,-0.4111401806341369,-0.12273947844191509,0.041886418381875956,0.20895978352771855,nm,0.0
31.834081649780273,-1.9794762112746385,20.59534309476507,139.51180238878135,0.23804644180372003,-1.5917894075928363,-0.517321185830051,-0.07405588362468615,-0.009032746741702073,0.14677204383317233,nm,0.0
31.84322214126587,-2.5149256907760726,21.07018097057257,139.5152419653963,0.20170840748920216,-1.5709056563164094,-0.6448277566984972,0.03248901333866389,-0.06865988416346383,-0.046799815699653975,nm,0.0
31.861088514328003,-3.1780452511849533,21.25872042227892,138.826980391155,0.16380609838262114,-1.443548199598883,-0.6764797544383061,0.07273631527864421,-0.09725839958026378,-0.11422646608455767,nm,0.0
31.863216400146484,-3.8665456178399644,21.377163022599,137.9846018862496,0.09222716541794845,-1.2462886093873873,-0.7292805968871808,0.08423453227717075,-0.0906903589176642,-0.14828246077789065,nm,0.0
31.88980197906494,-4.809187513726319,21.45886493694114,136.55523066297624,-0.12340392608180185,-0.7669077331937207,-0.7140663147618025,0.05354384440281109,-0.042818789947341715,-0.12318289795377452,nm,0.0
31.907158374786377,-4.884294504337575,21.50777759477795,135.79799636601533,-0.21932967592137834,-0.40458799169972337,-0.5697590463276051,-0.007941384838990555,0.02045257035868054,-0.0856418086015706,nm,0.0
31.909398555755615,-4.594069886650112,21.525041674839095,135.49921344442478,-0.2167784177523609,-0.24712953795178177,-0.4762601217147487,-0.03674547341729576,0.04744342562341942,-0.09761269296003819,nm,0.0
31.926199197769165,-4.121860098281773,21.579106962172116,135.10666558719802,-0.18738422943740557,-0.1515473395691362,-0.33341464245582386,-0.06572279481179398,0.06619753152739946,-0.12821176955473002,nm,0.0
31.932515382766724,-3.536516614849045,21.627750771088,134.623537875892,-0.13688107755450998,0.02588063456909795,-0.1983214322602037,-0.07928820573021632,0.0822924713088966,-0.15750505828061506,nm,0.0
31.953407526016235,-1.608159824163016,22.116840178691398,133.6991309431763,-0.053473835257784756,0.36959427533461653,0.12718688899896147,-0.18678321579100746,0.10964787174690777,-0.17781388747430302,nm,0.0
31.980037212371826,1.8950953484584812,23.240829781803317,133.63959824402656,-0.18809348546144206,0.6289198989942691,0.7340202198030121,-0.3355775906754498,0.19080439676125124,-0.13690606087110854,nm,0.0
31.982600927352905,3.6595302289739644,23.983892149409,133.98855388526272,0.03116952655810733,0.8969196896605164,0.6740194755754677,-0.32673305696548255,0.14144772011384948,-0.07995789419824235,nm,0.0
31.98563528060913,5.792756334448461,24.77678711366489,134.46804018014424,0.13560900754623945,1.0874522888487683,0.7080520537491322,-0.3804490121306589,0.17859575573431546,-0.08908411094244986,nm,0.0
32.02287411689758,9.985478067150957,26.013305280957262,134.98603630653614,0.12018314831336643,1.5165176535603089,0.9310708900069036,-0.30620509594549317,0.16687612994751633,-0.14603023753332273,nm,0.0
32.0253803730011,11.480602854921369,26.39343262056342,134.76944749504804,0.19514116548267543,1.5981652833414504,0.8586481248853549,-0.23878368275162512,0.14624765851772115,-0.1853089655818584,nm,0.0
32.027671575546265,12.37886263937506,26.569641828598055,134.26207622314607,0.17683081149798316,1.6185742939092214,0.9506919946610299,-0.13325015796179812,0.0994734370399455,-0.1916621071425222,nm,0.0
32.04772114753723,12.359549495723813,26.563855956705424,133.6112922375129,0.3183279793016301,1.5213768295195849,0.7238383904108906,0.008162185680036857,0.007654724389527532,-0.13841326816444985,nm,0.0
32.05957889556885,10.735938207240189,26.204564056172874,132.8793042977296,0.19699001754816772,1.1140806394261062,0.7540876620909259,0.16819364328280698,-0.09887713410655785,0.022424669115763983,nm,0.0
32.07368183135986,7.693109489851016,25.64779593646724,133.18366386693475,0.009928832809501915,0.526686878089642,0.473086268688427,0.23865063858127689,-0.15904493622955035,0.1835393690600562,nm,0.0
32.08322095870972,6.096014984323346,25.404804066132787,133.63091149046016,-0.10618720895298792,0.27510854609088403,0.37455979456582195,0.23872454214455366,-0.16595013835101016,0.2185754284556747,nm,0.0
32.1060254573822,4.46978203175165,25.15624540105988,134.1043338887695,-0.24004788810293035,0.10816984357971583,0.3766170458490579,0.2449240622766177,-0.16724165293596788,0.2253626590542759,nm,0.0
32.12340760231018,1.5915937464922725,24.553437493077947,134.89118171183839,-0.12763071771680742,-0.12111875056638838,-0.0714650764966722,0.1971153851251931,-0.09051873774727741,0.16365851428056916,nm,0.0
32.125688314437866,0.7708478357083904,24.161807623494827,135.27318745422625,-0.31754892906924054,-0.29388350570539035,0.13602365289481674,0.16607987299025148,-0.038931657886910734,0.13649018325056217,nm,0.0
32.12908744812012,-0.14130835510073497,23.74264073703362,135.7097576741833,-0.07644840312310898,-0.37997779877811355,-0.20471385248080012,0.18245194487708996,-0.045724714685824425,0.1539813780102774,nm,0.0
32.15045118331909,-0.7212934454955798,23.140517515049126,137.07463280906393,-0.023126726698551786,-0.7238054368060579,-0.04846715559066877,0.06015326554916341,0.023434977072969362,0.15871337977793298,nm,0.0
32.1653356552124,-0.8631427894155078,23.09858822973608,137.90392137677875,0.2009392657002917,-0.8784714288012785,-0.20682354669150171,0.02896622507696593,0.00027954181228125356,0.1697682381990656,nm,0.0
32.16983485221863,-0.7654039426556029,23.274566418088625,138.68896474717926,0.26341525276190225,-1.0895072737443015,-0.2665749696776341,-0.03300079466622083,-0.002571257591051808,0.14202190412343163,nm,0.0
32.19327259063721,-0.8157956379552459,24.556984139915656,139.497469352986,0.32727974542049654,-1.2255319322617724,-0.3972221533627598,-0.0905367675491665,-0.12035309964401655,0.036334065231896376,nm,0.0
32.201029777526855,-0.9815668577325464,25.531269642997866,139.31174169401578,0.21531966393453794,-1.2381268117815574,-0.34925388705892557,-0.10008300018847163,-0.15615533940875537,-0.04559965551839689,nm,0.0
32.220623254776,-2.0934779325801007,27.212703080284857,137.78869319563046,0.056289183617893174,-1.0868960819492395,-0.5716310732351233,-0.00846045121040303,-0.18016761041776977,-0.1436827389217856,nm,0.0
32.224289655685425,-2.916923211721694,27.769452983494812,136.76042959336874,-0.036824373905913955,-1.011422262999506,-0.6328787243710758,0.03645535787963301,-0.16965905598249206,-0.13704814570742396,nm,0.0
32.24693727493286,-4.674975661340628,28.245461518328014,135.36455062408353,-0.17883700211763437,-0.8497980220949031,-0.7230446617778172,0.09090070556748238,-0.11260807966573122,-0.0365478707333126,nm,0.0
32.251017570495605,-5.417129895726676,28.250574893169908,135.10289434891567,-0.25231610986553804,-0.7912461418292218,-0.7067419645057751,0.09724250854995564,-0.0813108490604724,0.011005180590767872,nm,0.0
32.261587381362915,-6.061924528984289,28.119800108795918,134.97648218218825,-0.2984583801995217,-0.7292067355445639,-0.6985446627564366,0.10405760527701678,-0.05019981918815693,0.0288443247104902,nm,0.0
32.27001643180847,-6.644379649829489,27.86493804125691,134.779435872769,-0.3577627202948391,-0.6342065478612784,-0.6276114712679634,0.11386399713311912,-0.025200909460813017,0.00858463048506287,nm,0.0
32.29439306259155,-7.631891924450234,27.057642300538223,133.65126133959956,-0.36094086422881566,-0.290076225990468,-0.48149399422093014,0.12299576228135782,0.019440980761785995,-0.10674827365099887,nm,0.0
32.319785833358765,-6.5253958198441415,25.871807481617278,131.43846040204537,-0.15055076811036316,0.34336282324114165,-0.10140039796371748,-0.0642086570977208,0.17784929433343047,-0.19833655055174584,nm,0.0
32.33686685562134,-4.859849690318617,25.734242163147393,131.31237110112855,-0.035879590822650076,0.5042067826709675,0.06154729221191785,-0.17228428777673382,0.25501857604438183,-0.17731576578913216,nm,0.0
32.343125343322754,-2.2924559185225215,25.80335884838742,131.49584110739625,-0.09706110074269121,0.5625150362897416,0.40768762837232203,-0.310790966375567,0.34963049576268224,-0.1726105379860779,nm,0.0
32.35656452178955,2.910369830581474,26.334270844957075,132.14724861461576,0.2520393867635748,0.9698614778515406,0.6079514591236587,-0.33469660904850956,0.2983874834161779,-0.13936087688225862,nm,0.0
32.3731575012207,5.701134550918672,26.656670756784948,132.228434218447,0.11204761782047773,1.1872625144090068,0.9582212358319459,-0.37807999901530076,0.3377984639258944,-0.21904726002446523,nm,0.0
32.375298500061035,7.884405851795244,26.97190165472309,131.98931748336264,0.11736936117057421,1.4213810030646576,1.0654960809178062,-0.30307367273671265,0.25704023979544843,-0.24872110565780806,nm,0.0
32.387415409088135,9.196702727539819,27.21517133019252,131.40264120751687,0.3648639836574227,1.535315351812662,0.6673335872182886,-0.18655916660230953,0.15182448801197693,-0.24655307626879003,nm,0.0
32.41280007362366,9.972708177308272,27.26397666594526,130.00053275835995,0.3367564812311694,1.4993367443638193,0.745472206515455,0.021377330234160285,0.008426371039951709,-0.14588941330694927,nm,0.0
32.435734272003174,8.119926294589701,26.70902780104152,129.50964707605007,0.20848915723645728,0.9760885282268351,0.7783404758592164,0.18264147128903227,-0.0985744075938467,0.07143438238931377,nm,0.0
32.437920570373535,6.536931873563371,26.363057420960406,129.7570112812757,0.13337967169698983,0.6314447360698704,0.6834380447724989,0.2401043471596164,-0.16443042011073472,0.17828231392979435,nm,0.0
32.47101664543152,3.1167868242524297,25.970841089228557,130.72927559520804,-0.10464749250618369,0.017990303270296215,0.5646896893669395,0.22412028971620132,-0.20176213909402246,0.24446562658919346,nm,0.0
32.47445726394653,-0.4408527659159172,25.83060018828017,131.58523402931047,0.096364176043391,-0.1665235792688601,-0.1840888952621977,0.21236808514547717,-0.20577317741098583,0.217385875859797,nm,0.0
32.49147844314575,-1.1461752472803899,25.7285128160692,132.03392871185912,-0.33596534899679237,-0.30084215343127496,0.1482771702863505,0.10548293571241271,-0.07012978574451721,0.14370434508732846,nm,0.0
32.49509072303772,-1.9216890796601378,25.53120289192866,132.5396593387441,-0.26698180448233694,-0.35894776377115695,-0.09088894855580494,0.12879000105822494,-0.06579798588556664,0.1610224928816524,nm,0.0
