timestamp,roll,pitch,yaw,acc_x,acc_y,acc_z,gyro_x,gyro_y,gyro_z,markers,motor_input
27.518831253051758,-1.0444279228708468,21.520490145566608,125.89833744360048,-0.05473600082089332,2.021544772307346,1.2131742642796557,-0.22574321927274624,0.3600560274013297,-0.18312418214896278,nm,0.0
27.521825313568115,0.45954824021259405,21.119042219600736,125.76542289465833,0.01291542747184491,2.1154615469156863,1.1142502164421415,-0.09278552909155123,0.2853298760824674,-0.13543894613560764,nm,0.0
27.536484956741333,1.280284484069161,20.427367111121615,125.61810680511068,0.15562053857038613,1.9906280100536162,0.8941474749167061,0.028997013966328443,0.21634240750272235,-0.09534336186605408,nm,0.0
27.538591861724854,1.58473295576615,19.517614158786316,125.40253312560702,0.14274226385780175,1.6971283727171418,0.9680309344748835,0.12115167524463699,0.16322210838672677,-0.07150838327405967,nm,0.0
27.565086841583252,0.4830175625615893,17.664308545769583,124.86081596482056,0.21105878162844582,1.0652935595208317,0.8607274655305895,0.22758412112918983,-0.0034373193059373374,-0.026568592289824212,nm,0.0
27.5723979473114,-0.4137895612933824,17.105126157841692,124.65800956985863,0.136122955670489,0.7895356345419264,0.7340433557290736,0.1959398666332163,-0.06576745841906005,-0.006535592389466312,nm,0.0
27.60888981819153,-2.7855368240752023,17.36899371320596,125.24335130382251,-0.14505897476046847,0.5851899778541677,0.10049155616964521,0.005550160389640245,-0.11542886905976574,0.09762427399758064,nm,0.0
27.6111159324646,-3.059802220401878,17.896879224843598,125.85189913882583,-0.20693480591335014,0.5393903938732746,-0.05884926955014691,-0.049481243973001965,-0.09269064235179943,0.12372784437608768,nm,0.0
27.628471851348877,-3.0493957977927355,18.46538535813202,126.52620966863016,-0.2111761542443346,0.43049882076293355,-0.1526292780861401,-0.0870913911420609,-0.05422466720816255,0.1277994870269652,nm,0.0
27.630597829818726,-2.8298536498766858,19.006794856309995,127.17997917588393,-0.2026000901821591,0.26710952154384887,-0.11548119517335333,-0.1058677520513581,-0.02031126746149224,0.11011802781448293,nm,0.0
27.63280463218689,-2.5757776260249305,19.53837807638343,127.70516640701145,-0.10576989299145627,0.04473189526078613,-0.11058886501589392,-0.10793543772005322,-0.015204601581870428,0.08160940326759007,nm,0.0
27.651684999465942,-2.3844141768242064,20.678039114557713,128.31043513478247,0.1472633520453199,-0.46739179185858454,-0.14232139235025756,-0.08813830657486184,-0.05901354839821033,0.04132085273367086,nm,0.0
27.66865563392639,-2.6892447031428293,21.307812267308194,128.5636004392588,0.1597806951723606,-0.6468817821516846,-0.04187042882605994,-0.057606426575826965,-0.11174049526342673,0.06568507625567502,nm,0.0
27.675049781799316,-3.5123567501640602,21.973839363872788,128.9698477453983,0.3700534943154352,-0.7570732954907006,-0.29192075234821263,-0.0023136210744003566,-0.19162477664846458,0.13534763744942468,nm,0.0
27.757632732391357,-7.03677599132638,23.991169583693612,131.85312051644667,0.1259938285860696,-1.5010545010053387,-0.1752973290415826,0.11382746776107461,-0.31477048252263484,0.33207836090845394,nm,0.0
27.76031756401062,-9.054057839324837,24.595777225372302,132.71492445167394,0.060429065263859306,-1.796972371206271,-0.1625376052910384,0.16357008094158568,-0.34173661964166707,0.3188683569534813,nm,0.0
27.763058185577393,-14.514377477748207,25.208241239518333,132.94429461760018,0.013642036465786083,-2.029027325174927,-0.5087867224346917,0.3510732824101396,-0.4087660033963723,0.19010497284856112,nm,0.0
27.76773238182068,-23.54870343199755,22.993005522012936,129.14697460931123,-0.19764098246120687,-0.929521855276075,-1.2126837653697584,0.29109277012844137,-0.06669275629858834,-0.11293753629300674,nm,0.0
27.78440546989441,-24.132561428965907,22.159635984831105,128.3826675174503,-0.21277173768858093,-0.6161304248935582,-1.1250279228173474,0.2031740867520444,0.03349296581903844,-0.11954047045842275,nm,0.0
27.786494970321655,-23.978837868437633,21.39638629649255,127.88557430266397,-0.11967376213268704,-0.3225956749298153,-1.0224934502238563,0.10812644294233874,0.12995976705583026,-0.11365947118544509,nm,0.0
27.80376887321472,-21.569282397805534,20.222792887681138,127.46727122307432,-0.14464181397938497,-0.03789728095968435,-0.5290360440192051,-0.0760079016079474,0.2915726899283455,-0.12427714396081882,nm,0.0
27.821478128433228,-19.60902247242089,19.81314373313274,127.31744237100418,0.009517730802656646,0.14474766926015206,-0.4693654497697118,-0.15273100026219416,0.35583752846036304,-0.14773037387362906,nm,0.0
27.851938247680664,-14.78142390391738,19.368157860253337,127.0603965857439,-0.03865340994760318,0.5111933716082866,0.13292794674699923,-0.22816215365413062,0.3718199283919714,-0.168058170583479,nm,0.0
27.854174852371216,-12.180342534558406,19.410051298621156,127.02448819043212,0.162916216773905,0.8084166876710492,0.2534277377324632,-0.2964568923040963,0.3996293928710645,-0.1686341872118464,nm,0.0
27.85623526573181,-9.12761285383848,19.629260758234786,127.1749911691875,-0.057900938558624486,0.9774923749697833,0.8791234009243998,-0.3761982260588283,0.44550040442975575,-0.15644535352573535,nm,0.0
27.873326778411865,-6.373222789047132,19.95628160129925,127.57986720946597,0.16760369887552135,1.2960965006028622,0.9450167052423741,-0.3609672756883522,0.3847135938846005,-0.09520629430169285,nm,0.0
27.89210820198059,-0.8624351575887772,20.558182205419456,128.8207679493871,0.15072864458653135,1.6796426157345017,1.312847938564213,-0.3501694700136242,0.3766423745874517,-0.03643291334729178,nm,0.0
27.89418315887451,1.2002075494833193,20.67205376525373,129.45993878427296,0.28385463438453895,1.7856106371000848,1.0984597445019642,-0.25613800238716616,0.296698864913188,-0.011767550439244882,nm,0.0
27.912094354629517,2.7657442465833015,20.614302423633493,129.86392611533122,0.26537334374015137,1.7695366733419238,1.0154592579667068,-0.17287337934609884,0.2443159103225105,-0.020110805614780274,nm,0.0
27.92036747932434,3.619559135008749,20.394362021577184,130.03773987336317,0.18736479442707232,1.6674868435578762,0.9911442608820392,-0.063796098721762,0.16195545303467382,-0.026353019649974135,nm,0.0
27.922553300857544,3.673541771552909,20.050731718404023,130.05368358549185,0.2007736615532837,1.5137729034671736,0.7913413226002352,0.051342947642571635,0.0629672021096336,-0.019088531735903396,nm,0.0
27.935363292694092,2.450453534914549,19.2515192404125,129.91113552721788,0.0007370216960847662,1.0626180537521928,0.6853199718130709,0.16553895164321328,-0.057203097498334916,0.035753604204401344,nm,0.0
27.953303813934326,0.5002465279201024,18.637341392329922,130.55398791863828,-0.0477074314937836,0.5826837639089331,0.3149769253866251,0.15819028926968434,-0.08692464370392798,0.13624149109241998,nm,0.0
27.9623441696167,-0.2698763556528845,18.526440932691127,131.22097647869072,-0.09788786229272155,0.3957513886736599,0.24246539158424327,0.11748669891639257,-0.08439878379420661,0.17117358373658179,nm,0.0
27.991135120391846,-1.179240362414019,18.784846347515916,132.71326049381253,-0.1130304324901407,0.12051631668500486,0.010518686267684214,0.017222886470653564,-0.060064490934369476,0.16110155159539113,nm,0.0
27.993700742721558,-1.3009790287483616,19.068801881217887,133.38390082164835,-0.12452282532088794,0.033745229033613704,-0.0396613809209729,-0.021191715984218484,-0.04388069207801917,0.12235320136335578,nm,0.0
28.002702713012695,-1.31597401602909,19.407509410388766,133.86384939491654,-0.07607073662801943,-0.059480250411903544,-0.11844449042938877,-0.04261000666009739,-0.037053334069817714,0.08015211737539411,nm,0.0
28.030354738235474,-1.246866838899157,20.12690834683491,134.37421396172545,0.02632507999944473,-0.31071705252637855,-0.07319698728954753,-0.04932059155437587,-0.03859224716435198,0.03704377160035465,nm,0.0
28.043784856796265,-1.5219544039012747,20.566407292123365,134.62115738302978,0.17756664038806166,-0.4344569566129811,-0.14612732032655004,-0.02211838606787355,-0.08673767250173461,0.06156546385855511,nm,0.0
28.061548709869385,-2.408439715221055,21.792373115528477,135.46869341997473,0.17165082482417535,-0.8898073941375437,-0.07385233535086701,-0.02377923099757633,-0.15017508346875083,0.12709473966673154,nm,0.0
28.063822984695435,-3.4414888703757276,22.597331753317178,136.0438192236749,0.16762009534482256,-1.1148907507065382,-0.13776961239003668,0.029275419812834744,-0.23720487804645154,0.17130048216308846,nm,0.0
28.082817316055298,-6.623494720592431,24.19343564878687,136.6830194896599,0.05588880751535798,-1.614898901377951,-0.1963868688674669,0.13501381563416168,-0.3161795503078688,0.15747192627299078,nm,0.0
28.1011905670166,-8.855902915810217,24.75406418834317,136.48046545765058,0.0500597874853961,-1.762280144122774,-0.31011737816656354,0.22301553140766603,-0.3487193146584358,0.12281524317779119,nm,0.0
28.10935139656067,-11.282597258777043,25.05308924050161,135.95327534009309,0.0684074997790816,-1.8202352242116957,-0.4748995375802396,0.2816302164985551,-0.3353819428345243,0.06767625961051234,nm,0.0
28.11158514022827,-13.642593969461643,25.04580428907754,135.1594887627898,-0.03485580651463658,-1.7926795698879743,-0.5644734149785382,0.3115430335846689,-0.2857389825514945,0.011879736938467562,nm,0.0
28.12528896331787,-17.646885688611523,24.401300740772417,133.19807056129608,-0.13636409593928062,-1.404543574840074,-0.911213686282426,0.28966887214930154,-0.16972755511684393,-0.06161777836777467,nm,0.0
28.143553733825684,-18.953700827476776,23.886229466571383,132.34359904441942,-0.18812610984462283,-1.1151913557106847,-0.9858389489766731,0.24283792287916756,-0.09206211528456339,-0.08671383155026834,nm,0.0
28.145804405212402,-19.66992445410516,23.270036464516217,131.60172029863116,-0.2364131548420906,-0.7854549568751181,-1.000771169883437,0.18464185140778844,-0.002043319318540116,-0.11089555359510288,nm,0.0
28.17198133468628,-19.57105630267824,21.88936733434715,130.29755651263753,-0.23031158161323556,-0.31430846832577464,-0.7720453438630703,0.08205709589989273,0.14276150583602037,-0.1512676966273275,nm,0.0
28.176916360855103,-18.902013159902232,21.183664868893835,129.74012933741506,-0.26944032994992745,-0.13416659193332162,-0.5675151789014047,0.03341613122642971,0.19926646914946178,-0.16449244292761353,nm,0.0
28.242857933044434,-16.906447689099746,20.232561369979283,128.78778955245258,-0.15776739135420584,0.14471389090886427,-0.36406575664901025,-0.06414323220743065,0.22057508645803175,-0.16032684047718648,nm,0.0
28.24989128112793,-7.325826627336895,21.969911664000477,129.2210755817958,-0.017161204299858634,1.1097153109461888,0.6391338308289641,-0.3112371079232737,0.21622033190369175,-0.03745178326389172,nm,0.0
28.26734495162964,-5.007490401331723,22.55670357377879,129.73593902555004,0.0027810678711104285,1.198885883717437,0.9401358271897914,-0.3579806786832092,0.26894324798932695,-0.05391188068518966,nm,0.0
28.27227282524109,-2.7222973320406196,23.08625704411101,130.26145196492078,0.13681348895733175,1.3229311211781305,1.0840736405276679,-0.34657105943656674,0.2666980338999292,-0.05547440061018548,nm,0.0
28.27754044532776,-0.6184991943089514,23.58261549706795,130.77083194002768,0.3443175797022378,1.4348802471859576,1.0483290302054136,-0.32127646583587177,0.24087161785274633,-0.055925241013036836,nm,0.0
28.294784784317017,1.248261832372492,24.06303009318954,131.21280506562937,0.3768142542230821,1.4748784677884725,1.0934743851542186,-0.29145311890341474,0.2060921443104776,-0.05666381560059882,nm,0.0
28.31093454360962,2.856687093530164,24.925771412332654,131.938901772691,0.3704566591771668,1.5674344302918086,0.8078616652397484,-0.10792045058024084,0.010981205704413041,0.022300752229694767,nm,0.0
28.3276948928833,1.7657018231733128,25.535543159254512,132.61531388556946,0.11471547126783348,1.2587299356651154,0.5162387790006523,0.07672406797536604,-0.13565917193882293,0.137242282798284,nm,0.0
28.34452247619629,-1.3102941917927464,25.541501757210014,133.48799339060076,-0.07619209872768545,0.6878926931666683,0.31845671708490536,0.22179889388718388,-0.20547487727824545,0.2319661876045855,nm,0.0
28.36950659751892,-5.034666433319364,25.3120912502739,134.57485795016404,-0.08089129078429341,0.10648525915690493,0.17378282127696595,0.2592138594727502,-0.21122140566129777,0.2526301496238841,nm,0.0
28.371633052825928,-6.731600158804141,25.208575266469143,135.1110149191309,-0.05869018193999371,-0.09391853094787217,0.07977591343642125,0.2362550925480463,-0.19124579499296698,0.23922761488994088,nm,0.0
28.382407188415527,-8.139452722367476,25.2068019763599,135.69083383837574,-0.1100923575281564,-0.27149325382886896,0.05033582495176104,0.18657864523121923,-0.16659242907255883,0.2199357293327188,nm,0.0
28.40364670753479,-10.713494644470044,25.663694597213503,136.9050922279127,0.11092939653565413,-0.3512642056404486,-0.3455423211626364,0.12003795132989335,-0.18196997652882868,0.21408083759871754,nm,0.0
28.419497966766357,-11.27248964944963,26.074519277860375,137.5184619089161,-0.14781280746877445,-0.5919330174167857,-0.16617325495153715,0.022204328099881043,-0.1162157271548171,0.1659419464490537,nm,0.0
28.43930745124817,-12.578515764052218,26.852051416435927,138.45167364343087,0.08519209938938718,-0.8216958246110553,-0.44495014040398945,0.04261627665179449,-0.11817424194983125,0.13319399620704866,nm,0.0
28.441617250442505,-12.949830216507216,27.12996828166309,138.7131612105354,0.005805395080523209,-1.0726848734810182,-0.3012825764396997,0.01677170157370615,-0.07279755493273896,0.08062440712365786,nm,0.0
28.450621366500854,-13.52844493172073,27.333017136681754,138.78837375753415,0.17389267083992205,-1.252898274992369,-0.37786386596257426,0.05452507255037889,-0.08568218704020814,0.06270385370210167,nm,0.0
28.473328113555908,-14.80220752432157,27.542381022582457,138.43978120487077,0.3913898877196411,-1.6100062006718427,-0.3674194318076672,0.0753755810035775,-0.06961872218105516,0.000656530977256868,nm,0.0
28.475897550582886,-15.568854610126552,27.561010812089172,138.069510209731,0.46958421129376665,-1.67540420344746,-0.4017661744025946,0.10307511209353529,-0.08038994184339349,-0.024099561509497328,nm,0.0
