timestamp,roll,pitch,yaw,acc_x,acc_y,acc_z,gyro_x,gyro_y,gyro_z,markers,motor_input
9.513121604919434,46.69273211662007,12.961727355124351,8.900166246329162,0.16361455999279964,-1.3211266397068282,-1.3742775375332537,0.2885436917671914,0.20657262536412335,-0.18003196808108632,nm,0.0
9.517805099487305,33.65695107318017,12.429012168755234,9.256906909597292,-0.5391912375262263,0.5477323445047714,-0.08463663618143843,-1.0411694988393771,-0.22085280312989197,0.2051288100573927,nm,0.0
9.53379487991333,21.031125191311897,12.106524339917497,8.333685222244844,-0.8032215681448621,1.3829354231152773,1.025737390332381,-1.262181777947526,-0.2464181640982599,0.1542284530201984,nm,0.0
9.539164066314697,13.38882245136738,11.750122854634128,7.781082816338923,-0.8409811935455445,1.766027446501377,0.5081945048723783,-1.4657599406817836,-0.28948760309577193,0.19697654467459724,nm,0.0
9.544579029083252,6.044871775828754,11.421419848679733,7.650468589879127,-0.823496175610097,2.0725909477296027,0.2278105481481766,-1.4116242138666024,-0.2684547174179021,0.2617404502022911,nm,0.0
9.598665237426758,-12.01820283518265,10.929965371813703,9.837694566453987,-0.7464789248107846,1.9015804029368781,-1.4536648088867627,-0.9254759281207489,-0.17006338235421203,0.375063791588698,nm,0.0
9.600801944732666,-14.722077669887245,10.908640901705407,10.697748785457758,-0.7269360870137622,1.8065375729665323,-1.522580063578752,-0.5134284996283517,-0.10975451626440601,0.2714570325327515,nm,0.0
9.603009223937988,-15.624454170566995,10.644516485143752,11.224483862319788,-0.5409719266873059,1.2911310724846239,-1.4860453889355485,-0.1550446352961704,-0.09639388088605821,0.1361532181162783,nm,0.0
9.620421409606934,-10.131182713013823,9.917841204844674,11.39367071825204,0.3282739081192107,0.5061782408155092,0.42319640545703946,0.8017716002707377,0.0963816403140351,-0.14935960284643543,nm,0.0
9.636513233184814,4.898263677545916,10.96085352191202,11.997382953026314,0.9599005236637294,-0.8220129452871863,2.6844331663094807,1.644026054376328,0.4863056704017273,-0.22085555024052272,nm,0.0
9.639848947525024,14.199902534926508,11.801921525646218,12.924501403398004,1.2690487071698209,-1.9427634673402505,2.9363579081405313,1.7547233437546728,0.549956110050298,-0.19136904550723582,nm,0.0
9.656116962432861,23.428737858260007,12.401440183462924,13.938208665909615,1.256045797896168,-2.7454485956385546,1.7736125266675182,1.737106273990814,0.529453368197153,-0.19541396015900556,nm,0.0
9.660207509994507,32.444399184640645,12.740814185427874,14.644290121671991,1.175986397992865,-3.0011479860539017,1.1252145532875166,1.6975322937726647,0.4953803677813177,-0.26358045429201665,nm,0.0
9.691007375717163,45.94289480866703,13.53921733299403,14.262273622794917,0.5750393516989887,-2.541535508468854,-0.6680835699183738,1.0800231962281273,0.3762001380434612,-0.3787313071121935,nm,0.0
9.710816383361816,51.86414623909641,15.140913082147494,12.339278020945043,-0.12573545391529764,-1.3258395815767754,-1.3701029139062921,0.3423971628332353,0.25660562522805364,-0.3214917230216658,nm,0.0
9.712892293930054,51.91954544014666,16.126037672256924,11.49533738510509,-0.15875127438471354,-0.9739248743769774,-1.2093576425055572,-0.025961261339619908,0.1930039634977425,-0.1856831672219809,nm,0.0
9.715216875076294,50.32700097470491,17.09209274352016,11.055718040861876,-0.44144267385818625,-0.2541368313398406,-1.3507653238834634,-0.33338718530852784,0.12734578626707652,-0.010523709142320035,nm,0.0
9.746474742889404,42.948403437608754,17.923400493754627,10.742471110966266,-0.2598129328721008,0.18097381525282719,-0.2509554661207063,-0.8391849672447139,-0.12223026894470411,0.24473239322031165,nm,0.0
9.748856782913208,36.958791825483935,17.926404879929027,10.984713629841906,-0.5233333013628366,0.5755595483000411,-0.30007332635412504,-1.1162079625302057,-0.21972845974851363,0.4050689590778479,nm,0.0
9.768203973770142,23.361754314244696,17.32407316131834,12.191275692998873,-0.5603911777869974,1.4415439344323864,1.094041065853067,-1.3112674285539065,-0.36009393666161243,0.5576898733964559,nm,0.0
9.770325422286987,15.242849592855258,17.074798275502197,13.04994987317328,-0.6907853098438658,1.9178778531688039,0.7349584878936941,-1.4982338035066807,-0.3963427404419062,0.6428871579763777,nm,0.0
9.787469148635864,7.294808858599833,17.025867392626488,14.046909880666783,-0.7589308149153647,2.310842229194493,0.46032349159130576,-1.4697828807049451,-0.37509799755504153,0.6578250525798558,nm,0.0
9.790969371795654,-0.21114978696704417,17.006183084189797,15.021935313692087,-0.806073679389793,2.63044845578487,0.018993285714249145,-1.3822812338859174,-0.37411742533713155,0.6280289397348031,nm,0.0
9.820457220077515,-11.956579899554653,16.596377019993984,16.462638761565806,-0.822980222814456,1.6695462545892084,-1.8209064489016296,-0.8786891191618017,-0.3301502962155962,0.4042499131678013,nm,0.0
9.822597026824951,-14.38010789748078,15.951928761462703,16.905004533331073,-0.6819136611916693,1.3175495265583557,-1.8901811748702055,-0.39946307686543964,-0.2672064985561514,0.2205826638321414,nm,0.0
9.829145908355713,-14.336772954034569,15.153968750617443,17.132658143633847,-0.2431076924090302,0.8292760618315521,-1.49656534385724,0.06469252351727339,-0.16012595520607067,0.039316678652833795,nm,0.0
9.8551766872406,-4.835288564276142,14.914414914777108,17.105955445466634,0.6342642248636988,0.04886694766947792,0.6043669431019951,1.1869052427748,0.387453316781452,-0.34307341216230725,nm,0.0
9.859550476074219,4.41685255620895,15.163278433403963,17.181223321321166,1.0728564984767741,-0.3265993187931449,1.9780447063112419,1.7040199352827965,0.5662690232547442,-0.4734046922496084,nm,0.0
9.892386674880981,24.555316780550353,15.12948830696708,17.308552285506593,1.0887708754945278,-2.424741326812569,1.425025944996581,1.8454014630864424,0.5570829975153198,-0.5250484915723371,nm,0.0
9.894747972488403,34.22308132517536,15.050264236260228,17.10810733458327,0.44351907117417866,-2.710777563648252,0.7780446691601272,1.7966524330995381,0.5330007663866784,-0.556226043091463,nm,0.0
9.8974449634552,42.357374209908365,15.098094756612205,16.422513037721444,0.06696597764473085,-2.6990523947678557,0.08889987286608685,1.508911790340408,0.45929164708184844,-0.5736709781875582,nm,0.0
9.923493385314941,52.42237104166498,16.88603752867887,14.689058201119717,-0.3963490975065374,-1.6043542832859643,-1.3682339946105067,0.703622018043995,0.43104584817194075,-0.4103511479041921,nm,0.0
9.926525592803955,54.21291952264974,18.296062730057795,13.954155332985659,-0.0256286459086827,-1.1946009777596638,-1.4198416719056721,0.26511036246103326,0.3564443757787803,-0.2694755343155291,nm,0.0
9.94859004020691,51.34964836095451,20.213048650473084,13.083478627588704,0.1661279625282461,-0.29422071243681214,-1.1598120844832696,-0.4484229935899632,0.022218862457307784,0.06437630108436394,nm,0.0
9.963203191757202,39.97634807264265,19.211891500728253,12.039460727203412,0.056781792597921904,0.10396359055877381,0.44398478864110935,-1.2168810846077223,-0.4273398881619726,0.34738801053489005,nm,0.0
9.98019552230835,31.692210009235943,18.344544165054643,11.785309549198358,-0.42900091632544457,0.401913524977278,0.9933819046082168,-1.4959898859949134,-0.5000044874246272,0.4712427976125115,nm,0.0
9.982390403747559,22.906216075356443,17.487917902350077,11.63234175191618,-0.6485817577964293,1.0598885303727887,1.9464262407476323,-1.5987644165324224,-0.5148990280039003,0.49990961489447977,nm,0.0
9.99149203300476,13.374986262459036,16.848057646672796,11.548065844765663,-0.8009764315331148,1.875488927956884,1.9263911730289571,-1.7542295476887293,-0.5003818013258681,0.5373034342880837,nm,0.0
10.012173175811768,-4.019289764370747,16.342836135295194,12.160590025493887,-0.5563380712045636,2.473569550403935,0.3553209371020949,-1.4822782263698022,-0.3639379496650266,0.5446541669990004,nm,0.0
10.030848741531372,-14.12951841072852,16.137039655686255,14.399106211766684,-0.20602704324364943,1.6907056944431271,-1.4668734683123865,-0.7056638779370625,-0.19182790759521273,0.47170798989661894,nm,0.0
10.040492296218872,-15.033112921655645,16.18880761619751,15.983685397078236,-0.31732631845562936,1.6001234258837982,-1.3105588984342755,-0.16079406679608121,-0.04555188939456124,0.36383384143915165,nm,0.0
10.120845079421997,-5.770525915792118,16.54220194938266,20.523781190083405,-0.5840792391766836,0.26889249498497914,-0.08908751076380382,0.900078122694795,0.37947544490092416,-0.03774772273947539,nm,0.0
10.123754739761353,7.971242260711004,17.32247910581638,21.380168357201857,0.254378261298713,-0.4895635620660412,1.1446409769132002,1.3067523362810856,0.5793103734507191,-0.42500887382314073,nm,0.0
10.126358032226562,22.194247227705795,18.229492982291127,19.86926414578126,1.1870827332082505,-1.575877041211307,0.45350169794689393,1.20177713617294,0.5363824955796899,-0.6302673795102619,nm,0.0
10.128863096237183,33.23368720774249,18.496285657897822,17.456571124920142,0.8684001150419172,-1.807147379030123,-0.5567697782151425,0.8818636915526071,0.2730305848305276,-0.5711378612663788,nm,0.0
10.146498441696167,36.725394985446464,18.09301507913473,16.168888103548035,0.5246602882712582,-1.6792146774107601,-0.9843104211003505,0.6642438991760987,0.10990150588148145,-0.4899131085925633,nm,0.0
10.14864444732666,39.082692441248106,17.485992192881735,14.910589696200411,0.31511948208546253,-1.477998650967108,-0.8341040298306446,0.4707945375489566,-0.001210029110539334,-0.408970171805051,nm,0.0
10.152389287948608,39.881696308440254,16.969079469044594,13.692673836310687,0.2554676487877874,-1.182538838025336,-0.32593668070166437,0.17874396868102932,-0.06702721917016852,-0.30410744047022664,nm,0.0
10.17506742477417,36.25724639263719,16.927961048220105,11.140096436118528,-0.5650312213081862,-0.18200446853599694,-0.42002300361346145,-0.4616824629419479,-0.08737141495516497,-0.1449942609770391,nm,0.0
10.200278282165527,32.28466616944689,16.903157824356832,9.410874624220115,-0.4386773563621105,0.01111969033180634,0.47588269988670945,-0.7428730123679878,-0.14686420014126994,-0.12673768406942967,nm,0.0
10.20343542098999,20.12645225614108,16.59163362859569,6.488889212390763,-0.6693400539846119,0.5325538697035442,0.6225578153923006,-1.1774495985843978,-0.2066545556209657,0.10758831178127552,nm,0.0
10.218812465667725,13.831199940164279,15.987469142523972,6.114667872957685,-0.4699739074259083,1.2159222773321838,1.3828922152435446,-1.1835777899001292,-0.2622174212728788,0.26944410199542523,nm,0.0
10.232340335845947,1.2670501898625532,15.22278073596693,8.518462374588271,-0.2743310802502937,1.720782478705472,0.2691401044219961,-1.084644717789534,-0.18834275798492658,0.6434875281207608,nm,0.0
10.251307725906372,-2.9417968025578767,15.389668397269617,10.96024266212696,-0.2687025590275909,2.1110457499751734,0.1991308012533843,-0.7991137463040284,-0.11488135388534879,0.7051291847986667,nm,0.0
10.253519773483276,-6.039463181053771,15.582635879647901,13.586810438289797,-0.32358307360297095,1.790023866863125,-0.5794377180457605,-0.5838605273177992,-0.09942318381283768,0.6859427431620078,nm,0.0
10.258305311203003,-7.323993460159297,15.707264989012906,16.007878925531532,-0.367376271819619,1.522898661359904,-0.6905685480838244,-0.23675198520811347,-0.04890288316959712,0.5488490743447465,nm,0.0
10.301583290100098,-5.8691482900144765,15.53698706780714,19.37725071161848,-0.26227204416731714,0.48078354436639475,-0.44383459373762235,0.25660532813391645,0.04552747467952162,0.2097768244716981,nm,0.0
10.303789854049683,0.9447898989636493,15.966597498612765,21.47379241158236,0.0804220341142319,-0.30710929907754997,-0.13136582035806096,0.6961249689130827,0.3430986210027494,-0.02517186782479065,nm,0.0
10.307291030883789,5.723604175597366,16.559272261224915,22.455453756675087,0.3348832424043231,-0.5344886206188839,0.3542600295959586,0.8168023593382722,0.4457712755613903,-0.07953273179448943,nm,0.0
10.34035325050354,19.11386820645789,16.739201783706683,23.278556822353806,0.6516113484597086,-1.3657782384042472,0.1955329919197993,0.7205182966506295,0.24181723227976776,-0.30892173012210844,nm,0.0
10.342749118804932,21.97329379254859,16.288108085576326,22.148446553137994,0.42106958353123325,-1.520353076738306,-0.1700602170917184,0.548950599754628,0.12241437183353564,-0.3997048327285315,nm,0.0
10.360464811325073,24.071798805273044,15.84429099261428,20.418289604988008,0.18019646811225926,-1.4825284020341907,-0.14451283639836535,0.41588535344498295,0.05757916100956605,-0.4736821569158112,nm,0.0
10.370874166488647,25.2823215898989,15.553091554160327,18.366488952523635,-0.11423519941227092,-1.2954938333443702,-0.31215961111054447,0.2465346591756007,0.01620424593337346,-0.4875565530018352,nm,0.0
10.390170335769653,25.860456025878353,15.322387223405656,14.455049956756458,-0.2366937452129977,-0.6822398015994116,-0.4584192687029311,0.02077264576649037,-0.021380416403351903,-0.38319297212420056,nm,0.0
10.394727945327759,25.35679137539412,15.146599896764341,12.902516346341413,-0.1712124777512181,-0.4334816899357781,-0.3803957604396186,-0.07982319447501492,-0.06410662705147663,-0.2954486865744606,nm,0.0
10.419936895370483,22.508712895143695,14.604513948444609,10.425637407658536,0.03873017307569394,-0.10256231765780308,0.7884038050607997,-0.3449026575414177,-0.12020342616104,-0.14728301031750812,nm,0.0
10.422146558761597,19.819589981737305,14.720990617840972,9.343977126520201,-0.4512339316023174,-0.031615252766597116,-0.16038129589699024,-0.510911924647901,-0.07452560179873421,-0.09045499929957684,nm,0.0
10.444671869277954,15.025673616874665,15.104723727861709,7.356624364306697,-0.32590826139306206,0.5580705207803944,0.8506653118611394,-0.5191500166150163,-0.036941072867548864,-0.057925180313243535,nm,0.0
10.447242736816406,11.900663814744682,15.509966200523891,6.855044278846904,-0.3215892038544912,0.47323984621591,0.23893185431854655,-0.6027159115490309,-0.003530103407915321,0.055813077869923906,nm,0.0
10.463726997375488,9.62847469500434,15.947089909638745,7.07627449691376,-0.11125070100458768,0.8012898075249331,0.6940530602201028,-0.438947851446746,0.02441166181173701,0.17214241445881137,nm,0.0
10.467557430267334,7.4547803148916785,16.2752729314525,8.102457337952197,0.05911574168523484,1.0243601016860884,0.5914084218354745,-0.4165675436844707,0.0005546148727844845,0.3385634539839577,nm,0.0
10.497583389282227,4.8895812440795465,17.029401718758827,12.173212085450128,-0.05460722243344587,1.3214943417916085,0.04760386123144333,-0.1583142386930205,0.03804277868909532,0.522690024533716,nm,0.0
