timestamp,roll,pitch,yaw,acc_x,acc_y,acc_z,gyro_x,gyro_y,gyro_z,markers,motor_input
34.51457071304321,-8.34559119852286,23.983253519996097,129.42813877655564,0.04989734164680926,0.21258094606801956,-0.33570890359762584,-0.141006890524243,0.4290986617476264,-0.21039791845484612,nm,0.0
34.51677107810974,-5.423221972135375,23.540871676004187,129.3097815972601,-0.11838573220814727,0.24664806636328523,0.1798290579193107,-0.26509865163066654,0.48207492036547744,-0.2454265836554112,nm,0.0
34.54521059989929,-0.20721381160705152,23.707147380065077,128.47969794769588,0.2717860149361115,1.023966911147269,0.32649841200962865,-0.32885259711995,0.34827877756228004,-0.3038833374712793,nm,0.0
34.54742908477783,2.6409569325557847,24.243367500740877,127.87432571355765,-0.01097143398340696,1.5147955632278967,0.8735540042948715,-0.40052796238157046,0.35384227892114695,-0.3561346685024009,nm,0.0
34.57108116149902,6.48563553699367,25.612058974763933,126.76643712032521,0.1807666210629015,2.2670972538278433,0.560901603157274,-0.28149274179360434,0.17175737815956985,-0.25007234517892873,nm,0.0
34.57970476150513,7.786766363203173,26.054091709206702,126.48491027685786,0.040110164595409566,2.365838580848665,0.6977680483785195,-0.20476539368200053,0.14476566537918462,-0.1790159042471218,nm,0.0
34.60163855552673,8.11810579664652,26.151929631240655,126.29219868836564,0.15553638635107406,1.8144884752861283,0.35793351427638836,0.0,0.0,0.0,nm,0.0
34.60961937904358,7.454355835784071,25.966268631660405,126.13737433997969,0.04366520379846797,1.3729933974094823,0.5571260608057313,0.10685652826898735,-0.0650387129906235,0.018354845825084655,nm,0.0
34.613083600997925,6.076400516864018,25.83123198128329,125.7840823335971,0.08967200428282243,0.9887428091980462,0.5129649058242034,0.17407966072634068,-0.17556539080453037,0.04101864026273357,nm,0.0
34.62222981452942,4.490870454432725,25.922118718985,125.2947206113062,0.050949008471239815,0.6927793054874695,0.4311804972987198,0.1578112272098062,-0.23343072674352391,0.03210136891020333,nm,0.0
34.6499981880188,1.4132722848767303,26.927365240915645,124.71417853129462,-0.08257327831547197,0.38837890977357686,-0.0313911142409954,0.060000670870357084,-0.28041275917251607,0.07291308425961873,nm,0.0
34.653072357177734,0.33184964859312766,27.6401334559113,124.96696814413514,-0.2018815253163147,0.3995074630638874,-0.17054569424943472,-0.00017421559108303234,-0.22964757670060362,0.1270345831308331,nm,0.0
34.6577844619751,-0.36977742692238047,28.404019279050654,125.78311104987444,-0.2570468197463475,0.35793065726034184,-0.3727128154168472,-0.046033138726896246,-0.17976391720491663,0.2100354230178928,nm,0.0
34.68054795265198,-0.1404919524699731,29.643539006564612,128.8620983719321,-0.2945090778853991,-0.1334347754531818,-0.3629093029823644,-0.11971715243943319,0.004068177383120415,0.30026099691483327,nm,0.0
34.685755491256714,0.1603549511213069,29.908753753491396,130.7094903250347,-0.182070280933828,-0.461001127514588,-0.25436799162803514,-0.0682037614838456,0.016481900922343605,0.3317835575255195,nm,0.0
34.69896125793457,0.3098034012316484,30.045692352606995,132.44368216388466,0.09128601695023734,-0.8292099310027626,-0.21204225314542605,-0.03193997896840863,0.011628748559993093,0.3240510716536124,nm,0.0
34.719507932662964,0.015682181127749883,30.258640521309584,135.34962209013946,0.29713219587701367,-1.396735149686607,0.19124774345925857,0.03229799600159921,-0.050732165220772014,0.3024418040581844,nm,0.0
34.72424650192261,-0.6456624572040494,30.535222859526005,136.7098484559712,0.3242329255748072,-1.5532413281310706,0.2489279433195707,0.04879281318162143,-0.10827757699118043,0.3313064548822031,nm,0.0
34.737799644470215,-1.5600233013174702,31.04211913725859,138.1917407176685,0.15606909164684044,-1.6941267075103945,0.38879422621712784,0.052029171203772914,-0.17007800143137938,0.38250329786948417,nm,0.0
34.74773287773132,-2.86371322165113,31.747080876322535,139.78673267752208,0.14582486511729886,-1.812444182908429,0.15417083760370187,0.08005412187222498,-0.2414784424974631,0.4475961648568079,nm,0.0
34.751672983169556,-4.289361707596866,32.58140830696612,141.34705714517486,0.01963194294664488,-1.8960842995750034,-0.011104761014940004,0.08479780298910776,-0.271049948297501,0.4568331149769537,nm,0.0
34.77751803398132,-7.930629615615561,34.09775771629921,143.05989730127516,-0.038255693553313166,-2.0030540437720643,-0.47311375954283763,0.1924216757130375,-0.2951701921807323,0.3188261967294121,nm,0.0
34.78254771232605,-10.069403427063149,34.39645751902134,142.64028845552,-0.15366425045604867,-1.8611472944296241,-0.6393594908673529,0.24988605364120775,-0.24926486386916705,0.15048673036207624,nm,0.0
34.79351282119751,-12.271648884185156,34.30061025716666,141.24027405630252,-0.23209562716320742,-1.6525900655682577,-0.8159284925020218,0.30244960341087873,-0.19694904174548722,-0.03755663728590078,nm,0.0
34.80057144165039,-14.394619117461714,33.70300106170066,139.15584237474604,-0.2343644741226236,-1.2992861898950714,-0.9584477542719807,0.35163502270658625,-0.12090953443661616,-0.19947441255893322,nm,0.0
34.84937286376953,-17.007753690100404,31.442100754068232,134.46157247215731,-0.258486624088105,-0.4676765025494417,-0.7613518561464327,0.2884368771645199,0.07275505799080993,-0.38035932806047573,nm,0.0
34.85160803794861,-15.975005608072848,29.603635079575042,131.2921989748036,-0.0662410388816326,0.021840782966577547,-0.28057277979055417,0.0024092243755782033,0.24832976762906905,-0.3637547191499839,nm,0.0
34.854002714157104,-13.975318120565753,29.18310897807671,130.63049183311682,0.1451582866166449,0.1231735425496742,-0.21407497151513397,-0.15944600072556797,0.3308308200243649,-0.33452832048721426,nm,0.0
34.87053036689758,-11.022598483625892,29.05419120961254,130.327968152342,-0.025745318745044442,0.20526723848488024,0.17299671534623007,-0.30955554885380626,0.42175306923108885,-0.336338430926363,nm,0.0
34.96774196624756,1.9849466125808022,28.642597285427126,126.6300811811665,-0.053457845048034934,1.1116039282152974,0.6689291468962736,0.27259616064071746,-0.2213718552830366,0.1955037888226145,nm,0.0
34.97455096244812,-2.426120286494867,28.292874842284885,126.79745359366137,-0.3105954605007944,0.5419368930044778,0.34966192025114284,0.2508268485728775,-0.2853056328193862,0.21225764752009899,nm,0.0
35.04356646537781,-6.087514672423516,28.360624190583227,126.8813119717731,-0.3727656812608734,0.24938069769226315,0.016310010701905967,0.17170852473609174,-0.2296088531329981,0.1624802545584725,nm,0.0
35.04727864265442,-7.278015692464939,28.502392923043626,127.10607742619867,-0.22065846434378347,0.18648525113915523,-0.22615136071644615,0.1100794439271927,-0.17356212331465018,0.15186592493174816,nm,0.0
35.04939889907837,-7.639176033030859,28.731247020156676,127.63761755318546,-0.2573045572600841,0.05717075133474484,-0.24079649421391894,0.008615534236489633,-0.06721146291635662,0.13444181302501643,nm,0.0
35.06533169746399,-5.02096100901602,29.999727111290746,132.41326705090455,0.03141888636179719,-0.6968861935971241,-0.10747650775311228,-0.15630469520870977,0.10132056143522462,0.2015850620140634,nm,0.0
35.06930136680603,-4.1112126328237055,30.28965112262998,133.87117385297907,0.17781757734340822,-0.9000649819478016,-0.11617840229605077,-0.1445811498381135,0.08649443329891929,0.20750063484654369,nm,0.0
35.100260734558105,-3.495319087868571,31.045552713845133,137.29604222844415,0.38438110799608305,-1.4970978414622271,-0.139270721251153,0.010610279545830516,-0.056050717978523595,0.210393946454481,nm,0.0
35.10235905647278,-4.2371970137341135,31.21678666710051,137.93862441013923,0.3600383036192824,-1.610726763344591,-0.21600448786774237,0.07558783165731886,-0.09962632216639883,0.198031772001868,nm,0.0
35.111361265182495,-5.377728564751017,31.253323546489636,138.27861687462033,0.26316025188355036,-1.6541799536372273,-0.2945316888413789,0.14516303732412142,-0.1242510380902164,0.17929368735143375,nm,0.0
35.12217116355896,-6.895113978846821,31.056872143899884,138.31648024060925,0.11826511777933181,-1.7161978214341262,-0.16983948541240795,0.22491575338052885,-0.13181831911272815,0.1578738380667291,nm,0.0
35.15385842323303,-10.550768607687385,29.76210366650235,137.4931278355815,0.14088722971934833,-1.616551273580751,-0.5420100710846856,0.3377908160902697,-0.0836026943643007,0.06291498361106068,nm,0.0
35.15598249435425,-13.520342704600033,28.06239447344718,135.56843466425235,-0.17053020280533931,-1.1895152706857282,-0.6633127201335065,0.30616921483192316,-0.03434035068412624,-0.08646317786306458,nm,0.0
35.17236614227295,-14.577254145380572,27.095438801647827,134.37694505174974,-0.2883657182499169,-0.819485180406125,-0.7506555254101428,0.27437212521777826,0.016779042070242268,-0.14568941986643308,nm,0.0
35.18162655830383,-15.161614034257592,26.120225345163437,133.1993402760638,-0.43394342041811773,-0.4969723728334341,-0.7116156635688471,0.21834357901033383,0.07227708560294221,-0.18829003630089905,nm,0.0
35.206522941589355,-14.03567752837057,23.72008900203231,130.79008672826242,-0.3969533969981846,0.23372555723761984,-0.39986100125806634,0.0001388330317146669,0.23245970422936546,-0.18024820831205116,nm,0.0
35.21136689186096,-12.584589819107615,23.210368405445774,130.4403703358653,-0.25282686802925414,0.3369590807016277,-0.3077415349203763,-0.09034596534102965,0.2812736723587878,-0.16937079645452946,nm,0.0
35.24240255355835,-5.562473050452306,22.784166281454358,130.17293362295615,0.18452676881139737,0.7336360562246815,0.25686643652200253,-0.2848816269143605,0.33685164567394654,-0.19304005636409674,nm,0.0
35.317121744155884,4.722057824345442,24.714975754710956,129.67488750074838,0.3009705372955836,1.8598730826592067,0.8928420285496905,-0.3315476098147683,0.23810933392680428,-0.20624294649685,nm,0.0
35.319247007369995,6.598067882090004,25.434270641670203,129.45400709694545,0.36618467063155374,1.9082621530326782,0.5070047776686494,-0.0905144338619277,0.04317914690730147,-0.08752414934646514,nm,0.0
35.32202911376953,6.36863419498558,25.522661149078697,129.14443073818575,0.2159181031597852,1.7452455792183001,0.5891644663290607,0.018352157386036003,-0.03345312995883355,-0.0464450493403311,nm,0.0
35.32402324676514,5.250137442821529,25.505174015197433,128.75728003572377,0.15327796587580633,1.4779775721798603,0.5161761959093416,0.13576502294141785,-0.1450058857939011,0.0022367661506340637,nm,0.0
35.33919882774353,1.4163541759250986,25.48645897758798,127.75313234299202,-0.06470906886049307,0.8247808982973643,0.4343482937129948,0.24039732805607117,-0.2943295256271628,0.04986628060398434,nm,0.0
35.37082481384277,-5.140177626681051,26.318408943277955,126.5706928465091,-0.20421656284605916,0.25173308889017704,0.013754285335669476,0.14143150444104247,-0.325324198121822,0.10436085485816808,nm,0.0
35.38691735267639,-6.740992416004711,26.959866838248963,126.54698981060278,-0.22580125454269392,0.11015625184011847,-0.12876240410466938,0.07421805319110152,-0.2956775292379647,0.12289301155810703,nm,0.0
35.38900566101074,-8.005024356499428,27.701146638656834,126.73457973155368,-0.2731594688772919,0.024459876931042217,-0.12851973697088726,0.021752276355760318,-0.2579572255156079,0.1415020979105738,nm,0.0
35.39927434921265,-8.900513325967431,28.513508178244617,127.11908459294065,-0.11647450485575876,-0.06759974277300972,-0.29088031082104915,-0.028460716117984366,-0.21304529616143508,0.15514146684778757,nm,0.0
35.418869733810425,-9.33989474600126,30.355096887970117,128.60110479955873,-0.15519313440498644,-0.5302665552230851,-0.12891194884625484,-0.12832992568261709,-0.12694850985925468,0.17900702450665162,nm,0.0
35.43401074409485,-9.162156723498553,32.40891878230832,131.11325632416106,0.0461408209978859,-1.0604913060611,-0.025856016197709976,-0.1752628373429999,-0.09750466068503945,0.25250408623747705,nm,0.0
35.46422457695007,-8.87787159435122,35.48295525818603,136.42613368741547,0.28780880560089306,-1.7863615448060344,-0.08022088272441004,-0.13440490242468,-0.12801939490652917,0.35801900096835176,nm,0.0
