timestamp,roll,pitch,yaw,acc_x,acc_y,acc_z,gyro_x,gyro_y,gyro_z,markers,motor_input
24.01021718978882,-16.060632600229575,14.050695577447113,135.36441885236673,-0.21413436512848016,0.8166381473569393,0.06794989717207967,-0.307926500762298,0.4099078021223504,-0.28349075560432735,nm,0.0
24.027776956558228,-13.066560878045768,13.937668210031369,134.49769903324798,-0.4093317860382696,1.136434122676798,0.5318063275026488,-0.3900624125092666,0.44197231856664965,-0.2776292764902722,nm,0.0
24.03024435043335,-10.131218354655921,13.965041312365083,134.02414821508924,-0.360965977465236,1.4910185917024843,0.7970767466416203,-0.3973799173832074,0.4184280639269337,-0.20699776155050117,nm,0.0
24.04826283454895,-7.2839211444868806,13.997236251182574,133.94285891139396,-0.14353651801266767,1.7999155200590655,0.8899706078021576,-0.38406961410118623,0.40719341736646714,-0.11879667622951354,nm,0.0
24.05055260658264,-4.422978049015684,13.932456156303122,134.15244607206057,-0.08142433591832052,1.9147845317755785,1.254880500659086,-0.37239312929568613,0.4220354102615852,-0.05665410477206844,nm,0.0
24.076424598693848,-0.21180454632271983,13.614893156591785,134.84376013236448,0.2110905955655254,2.0347635780004376,1.3378041232607545,-0.2199660091252712,0.28369812290563073,-0.047599434404061454,nm,0.0
24.080817937850952,0.8882323458296564,13.547641135299543,134.63776645668486,0.2127770237698234,2.0081545816875908,1.3210336895513903,-0.13737473020421553,0.17377355253614638,-0.09976746742433393,nm,0.0
24.100755214691162,0.6233177910841038,13.821033505174183,133.04632502284352,0.031084674934715235,2.019763359819393,1.2066602767403947,0.042293893094973944,-0.08673068222402183,-0.1708681252671795,nm,0.0
24.102916955947876,-0.3501795287295051,14.08742300364161,132.23065484133517,-0.14289179201859867,1.8695826271659073,0.966073731953801,0.09353727129030494,-0.16314969253858194,-0.15169310087297969,nm,0.0
24.140602111816406,-3.192322613171962,14.749796387346152,131.3575421671542,-0.3123631574831306,1.4014329402692138,0.486167257061808,0.1441324387531795,-0.25273513081443555,-0.00481851593960275,nm,0.0
24.142656326293945,-4.587899641579958,15.194146193501265,131.43021213201936,-0.34879965941892666,1.0816298980237529,0.3302951201696344,0.11679757054711323,-0.24900847698371364,0.05890319287641143,nm,0.0
24.145700931549072,-5.8470952342631035,15.81184017326106,131.6409798369665,-0.3191455951664855,0.7784652206095332,0.12283954395781167,0.07354879791064808,-0.25150945454347695,0.08394514008773271,nm,0.0
24.153611421585083,-6.915817028332411,16.623032232093525,131.7711832659189,-0.2796345222352551,0.5461777827387727,-0.041466916737985804,0.020504807087200566,-0.24910087056446734,0.05896198887992969,nm,0.0
24.179452419281006,-8.522076117591958,18.598033862265787,131.20136842427056,-0.2824172893176614,0.4124542910918361,-0.3576614519481712,-0.056706950365470986,-0.22946753622656543,-0.06954726242355475,nm,0.0
24.189332485198975,-9.485781787193808,20.773937789963327,130.07437416814562,-0.2059405254734226,0.46918067629927673,-0.6372635354520682,-0.11567248449895759,-0.1828490959859561,-0.11806761516308965,nm,0.0
24.205941915512085,-9.644543042486827,21.851961930153934,129.7526828855981,-0.13062969723283166,0.38649126126454847,-0.6646783792178744,-0.14092243259519482,-0.14927003404347994,-0.07577108217480558,nm,0.0
24.24400806427002,-9.60494996213292,24.888136100392735,131.1564550603972,0.4310097352815772,-0.7520845982159875,-0.48709558185778007,-0.1260038649292324,-0.11593640532252383,0.15584516149913377,nm,0.0
24.327181816101074,-13.306776291849317,26.459781940161417,133.9405026647128,0.9883444083750809,-2.1950445407219035,0.2775215145087383,0.16658166575508265,-0.2594936243467304,0.3141815035741258,nm,0.0
24.330146551132202,-19.75681122666759,26.895225690995858,135.37518863792127,0.8554185495074689,-2.6984544006583007,0.449725572909675,0.4734978177121541,-0.51366505235884,0.4776635273851787,nm,0.0
24.334575414657593,-33.23611120879589,25.7392747013016,135.9531615060244,0.2697563131316061,-2.0414169606499497,-1.2702638815077791,0.48061292792900634,-0.18430919511781738,0.13223783332815167,nm,0.0
24.33819556236267,-36.741739348875484,22.243445223512563,133.8160136372755,0.13727601126899813,-0.9567124996156587,-1.674068610473327,0.47760447827875474,0.09277800898666733,-0.1253412714979738,nm,0.0
24.353670358657837,-35.94630912358546,18.139435576935867,131.83113140096177,-0.3335762092500662,-0.33723082114792435,-1.0757153017018746,0.19286151012112224,0.39282892828468874,-0.22025866123153334,nm,0.0
24.3698787689209,-31.487770683744067,15.872973525098473,131.71083458582547,-0.25748771811826343,-0.056080023481255806,-0.5673567627464532,-0.22414292663320023,0.5171644219376813,-0.10962055980270596,nm,0.0
24.386685371398926,-28.244000989452168,15.49204338233257,132.06365373358923,-0.10719643964357636,0.022729068589566324,-0.46020814588250086,-0.3550020071853117,0.5314276441628526,-0.036937681517140636,nm,0.0
24.38909649848938,-24.527272027932977,15.286555705578296,132.60635846451697,-0.24985484278979905,-0.04269226133641485,-0.13830301498074138,-0.4467879439629361,0.5734121585164391,-0.015402770561243371,nm,0.0
24.397221326828003,-20.9401102761389,15.068847023693344,132.99608478468647,-0.14545197834174348,0.20350883838444198,0.03729290977240916,-0.43307564257933456,0.5533353864526895,-0.03859691466743645,nm,0.0
24.41358256340027,-17.356682981425518,14.771630428567487,133.01135198237506,-0.030540614669005657,0.5526901761329474,0.1653800405773523,-0.4234452742233794,0.5624255509274567,-0.11592722613866872,nm,0.0
24.429282665252686,-13.702612954178909,14.403684524996176,132.6785331799157,-0.1874586413081389,0.8671899069745662,0.6506345834671166,-0.42187798507967245,0.5834878309064264,-0.2043137241229055,nm,0.0
24.446672201156616,-7.316082931780538,13.801640815032124,131.82205235653686,0.03937033646524666,1.7357719875451547,0.8936794100766969,-0.3584319192203426,0.4918427462176061,-0.2447227550639326,nm,0.0
24.44883441925049,-4.494399982906108,13.561589142053943,131.5617024830716,0.06998684504840302,1.9866770604594082,1.0832881495623266,-0.3247181877518757,0.4544436579341788,-0.19153017046493534,nm,0.0
24.455491065979004,-2.2749096672381794,13.269828109385273,131.60810793333184,0.14657477657902535,2.1628845205534755,1.1338056300743728,-0.2387641581124521,0.37447187831627593,-0.1000123269135057,nm,0.0
24.477959632873535,0.08295804154611142,12.624488376398903,132.40796074064974,0.1497566562829546,2.09464439119517,1.2094379492997585,-0.05609181170990739,0.17578168158644195,0.0504063386320699,nm,0.0
24.487998247146606,0.06882630090358811,12.335383190530738,132.7878225429614,0.06438179039285218,1.9600290765287147,1.246190694303788,0.04863321310656553,0.049374719823230044,0.07013281493121465,nm,0.0
24.512728214263916,-1.6159480380575706,12.155345837576338,132.6243822520279,-0.2985063110570218,1.6334102049081243,1.2490992977224376,0.14421179244229315,-0.13599215592767497,-0.016315802131350973,nm,0.0
24.51648736000061,-2.9323392611624928,12.217646994704749,131.98042154382094,-0.396741008375469,1.4519745329944536,0.8413834406719541,0.168613057821088,-0.1865673595686858,-0.0791511709990709,nm,0.0
24.545807600021362,-5.385708553223115,12.355795287419458,130.32926381206784,-0.46118327011153837,1.1840125908594603,0.3251994438358995,0.13479089080482604,-0.1672193718895308,-0.13775210947763697,nm,0.0
24.548320055007935,-6.204937338105734,12.630396967577225,129.64242685549124,-0.37169145320643004,0.9870520710827859,0.08654550422906693,0.0658669771510512,-0.14558430729077562,-0.11628948620765653,nm,0.0
24.550457239151,-6.658927479391743,13.11281229192019,129.22048107655527,-0.2534402221995347,0.7642262944691035,-0.10137663897504848,-0.013160710573682493,-0.1174030432977647,-0.07461035030492305,nm,0.0
24.58102583885193,-6.534903187992576,14.803154300786032,129.2977575585065,-0.1070690359180027,0.34443109006020733,-0.3033620333768303,-0.17283816042233063,-0.08068639031888271,-0.011860106993017537,nm,0.0
24.58330512046814,-6.144201334414175,16.034297783055795,129.47883413755085,-0.02247888986089146,0.17767811528681088,-0.43808416461306604,-0.23307904845968586,-0.08624205205470228,-0.016009228160816756,nm,0.0
24.590463161468506,-5.604484810392815,17.415799648841165,129.53019833888428,0.017980291682170125,0.054461125325582234,-0.5279135578624686,-0.273948800531752,-0.08431868054667252,-0.045410081701383415,nm,0.0
24.611798524856567,-4.582182163366234,20.300435384829825,129.10587389043292,0.05616112051512792,-0.2241635397436404,-0.56598944675028,-0.26988883996735474,-0.10581183193024069,-0.10508005016423747,nm,0.0
24.638784885406494,-4.469096516958497,22.657984238622323,128.59621707850002,0.21391908491106507,-0.8279900082925198,-0.26952215303247046,-0.14237181278178007,-0.14326165642477892,-0.04889041629239209,nm,0.0
24.64139699935913,-5.310657566352477,23.474991174710233,128.62005118487193,0.6933363849813151,-1.191705351520579,-0.44040043543554647,-0.025091295075869706,-0.21189303306684826,0.05554251865407385,nm,0.0
24.645459413528442,-6.158659751816042,24.04389410222745,129.04660274232518,0.7200365443858051,-1.7151398906766637,-0.06680917396745892,0.014656924261867514,-0.18105180405029347,0.141882661843837,nm,0.0
24.668486833572388,-9.859205682920091,24.520120268521,131.02738595427456,0.7415602266703969,-2.460735768148,0.19903911993563758,0.25339376564431515,-0.3267648492974939,0.4085934359244087,nm,0.0
24.690597534179688,-14.674330804492882,24.56861088241855,133.84182620003145,0.4380609350577516,-2.7828810926925196,0.0663539413908003,0.308535795353704,-0.29886971708392823,0.4670922176444598,nm,0.0
24.69274640083313,-17.411621752829166,24.336225538511336,134.72543578005843,0.296456805763711,-2.6504285958199008,-0.19559690593142728,0.38623820337458264,-0.31174839584984837,0.3994325907074977,nm,0.0
24.71055769920349,-20.022738909835276,23.834905718685736,134.87770868002426,0.3560432260060618,-2.2357118979585753,-0.8197434264780171,0.41190814383142105,-0.2547335971358529,0.24011064372741273,nm,0.0
24.720353841781616,-22.007078697844747,22.863066656241834,134.35275731766123,-0.020526749180065206,-1.8721132523273585,-1.0116919085451888,0.3990903944773332,-0.1093546511538895,0.034519620725013855,nm,0.0
24.768943548202515,-24.659178499916447,19.427776486929616,131.75242615955958,-0.2856879035996022,-0.6640123642210218,-1.3262899532169818,0.4154737984480701,0.13263675761264562,-0.22269143535712158,nm,0.0
24.77416753768921,-23.97495931765821,15.619149156620217,129.71805056441454,-0.37661079261557073,0.08640344213958735,-0.8760007357600111,0.18908174495036043,0.3546059917345558,-0.18393659686115904,nm,0.0
24.776538133621216,-22.459400852309695,14.253849374925847,129.58031567128927,-0.2465628955041101,0.20155119899923382,-0.6484649019707899,0.02896356120537988,0.4136462633962678,-0.07738207072991066,nm,0.0
24.780407905578613,-17.588706608905866,12.868524671818369,130.80428993822778,-0.10394974605079348,0.08478805798505057,-0.21719498616207872,-0.26031224527019187,0.4810473062980527,0.07724205002730694,nm,0.0
24.79541516304016,-14.739706380087917,12.617282323796049,131.51557318573347,-0.17499507473241843,0.11204601179628418,0.17636305995927015,-0.32269533295195196,0.46609162279565713,0.0657920063960529,nm,0.0
24.797685384750366,-12.055092898303672,12.500616594327182,131.86912865244557,0.07008955815822626,0.533695424568843,0.10440543830421892,-0.32614357035035113,0.4212378999045134,-0.00017032593657137198,nm,0.0
24.822317838668823,-5.956596117793972,12.360368202080041,131.51397274149548,-0.163426932641734,1.3431946262640992,0.8372740900531948,-0.37644480059349766,0.4612583673302337,-0.17636338296187992,nm,0.0
24.87455916404724,1.5943272031814173,11.920683086482134,131.2844269561441,0.138349795146324,2.253888585764567,1.2092633351872024,-0.24399626189473142,0.36849289691073955,-0.05559312906173495,nm,0.0
24.87695002555847,2.9923842008979293,11.542734849667784,131.82532441838916,0.2903804580653372,2.284682006151715,1.1065114938856093,-0.1210629653648658,0.2673156548313931,0.04434251762133094,nm,0.0
24.878767728805542,3.636412416027819,10.699536340933703,133.23128116239647,0.13541598579166386,1.9276827899000106,1.1241863785178778,0.07622280513521466,0.050423029623740366,0.13268776822534978,nm,0.0
24.90251088142395,1.6854076873631745,10.349742878625376,133.80082278430584,-0.20420246689184732,1.5412485879111049,0.9413474668219615,0.1704416638035321,-0.1372737070881908,0.049234636120078855,nm,0.0
24.904672861099243,0.20579249439445682,10.408616534610568,133.70523427455618,-0.3047282733658605,1.3305023540818892,0.5673173914539591,0.19716560417052573,-0.20600016348773442,-0.005192653423977308,nm,0.0
24.91315484046936,-1.318278297119956,10.485634105648225,133.42431610711466,-0.34003580087574603,1.20385508955452,0.2967806368226455,0.19993069874388583,-0.21533382025855638,-0.03920037809382013,nm,0.0
24.94260835647583,-3.6048196454345534,10.953763365274368,133.14440926134785,-0.3628361670800255,0.8996655119312404,-0.02748871396015037,0.09151220174478078,-0.17943907208803891,-0.0013549334954102142,nm,0.0
24.944766759872437,-4.236054601851415,11.524127745079939,133.41738740126627,-0.27880347547961315,0.6990216210464718,-0.21564993515886666,0.006128866428759079,-0.15589546360273632,0.04549801442962675,nm,0.0
24.968260288238525,-4.326787957979773,14.77638122268851,134.70911463658592,-0.15163102822148683,0.19092222407031859,-0.42687934777208564,-0.2202528723226566,-0.1538118292985977,0.05443959660584929,nm,0.0
24.985585927963257,-3.9523837908955697,16.347649527192967,134.94201082841766,-0.1408943584638425,0.03137853511668176,-0.4379457374409209,-0.2699095221536135,-0.15843243261736217,0.0002470610742577046,nm,0.0
25.001221179962158,-3.1928953444400126,19.893501931263753,134.7916579768647,0.05092360930538529,-0.2856577771348802,-0.6593615109801241,-0.30594001340845517,-0.19682540575062119,-0.09027941799504721,nm,0.0
