timestamp,roll,pitch,yaw,acc_x,acc_y,acc_z,gyro_x,gyro_y,gyro_z,markers,motor_input
5.533018589019775,39.78531869876497,13.942281459142052,-5.292283874517101,0.4572812040376135,-1.0959526663486943,1.15993550434241,-0.5170104266548284,0.15080846594974834,0.40282796493006595,nm,0.0
5.536372184753418,37.04142221877365,14.732294540419842,-4.208207477567874,0.7044789109924585,-1.0142446393920737,1.274369242581507,-0.5134129670737648,0.19587238667312976,0.3582745092208017,nm,0.0
5.5624098777771,32.703310284251586,16.203194913850123,-3.246907174984979,1.1034842965059755,-0.6860705475891331,0.9354280491803681,-0.34352060987317656,0.13657628384511253,0.1357209301764787,nm,0.0
5.578360080718994,31.8057611150585,16.3437085340219,-3.435777246311563,1.114928185610032,-0.575483778491134,0.8608724124504561,-0.16682044666827556,0.03091855595673164,0.0006148053720986154,nm,0.0
5.580514192581177,32.812210330634166,14.916844116367905,-4.636848854718228,0.517916135128448,-0.36958982099494037,0.6714209420549647,0.17490304588352623,-0.2157387931374136,-0.2008805688653525,nm,0.0
5.597556829452515,34.53869758060489,13.717434166174463,-5.304602653435079,0.0646150351478603,-0.2925208347426034,0.5789356142108529,0.31704832920358333,-0.2752626268256713,-0.23121539234171132,nm,0.0
5.59966516494751,36.897825183018995,12.54536368169897,-5.867701344268071,-0.3379051909691122,-0.1841398470238434,0.4336942563722921,0.4393372177935816,-0.2849365188261794,-0.23223521592081073,nm,0.0
5.61637020111084,42.34575272749743,10.699123975132279,-6.909224349351515,-0.4802252709475325,0.0018944050378015456,-0.0577247167734825,0.522328441900972,-0.22984891078394634,-0.22371650629081782,nm,0.0
5.6411683559417725,44.99051179552594,10.090905014137846,-7.4953260337387375,-0.3281375677676128,0.15578663449447874,-0.3885754988759708,0.5062334910761805,-0.19129362258052507,-0.22560056148314764,nm,0.0
5.646238565444946,49.28668705788335,8.984409727892869,-9.174806129414529,-0.012627392812101275,0.5060534899694576,-0.8176856187588464,0.35754091895362683,-0.17321444072101772,-0.26231591265953086,nm,0.0
5.661563396453857,50.64219086887838,8.419341737020787,-10.243004947902078,-0.15925406457106328,0.853036697293703,-1.2008773568457591,0.2503100047999128,-0.16110185199653515,-0.26788679585363595,nm,0.0
5.667525768280029,51.78827348621393,7.826884732704273,-11.418691070834235,-0.3709788503254692,1.014878648197269,-1.0920950074337477,0.20585540782188794,-0.163435782437572,-0.28078029727007475,nm,0.0
5.673753261566162,52.34507681819108,7.330626295945039,-12.575952603407226,-0.644319279813737,0.9255382763271572,-0.8997281474703163,0.09248466036476341,-0.1244019497537491,-0.2593551682466852,nm,0.0
5.683833599090576,52.38160882442054,7.084464101517752,-13.490208007058165,-0.8409506986754594,1.0851610185921912,-0.9971809589952726,0.0009674056312123448,-0.053944324921270534,-0.19688982748344194,nm,0.0
5.693896770477295,52.06490751383247,7.132126011895223,-14.051345628246812,-0.8761820713643461,0.9761898473984658,-0.8850784026758399,-0.05390451609863331,0.019886275185928746,-0.11740530250181315,nm,0.0
5.7020134925842285,51.334801093394994,7.450660100479238,-14.202190824177945,-0.8233896943063909,0.8588886728977597,-0.8763700516804026,-0.12023348867350347,0.0927752016727658,-0.024531095204519796,nm,0.0
5.72868537902832,48.81270598216043,8.451279610797302,-13.250648322694724,-0.5587911182385418,0.1317342314422924,-0.4381174244101741,-0.24660426332297403,0.16349055253109157,0.1646964216698435,nm,0.0
5.73587703704834,47.18610851573259,8.930189484308006,-12.280813078771054,-0.35809791436513383,-0.3072784992305779,-0.027410365537492803,-0.28822024756850356,0.1598761935292516,0.24775930129408882,nm,0.0
5.75377631187439,43.1065779902432,9.83505543121321,-9.685895797967872,0.047964279162551006,-0.9870933820813721,0.8846065181949194,-0.40361730344772173,0.16265116383567227,0.3472832322403896,nm,0.0
5.756958484649658,40.707031065778516,10.452931672892037,-8.465276960748742,0.34532315190793156,-1.240741191245985,1.2937021031154878,-0.4429839401516617,0.1913676344403656,0.34363127108940184,nm,0.0
5.783162832260132,36.09451188456309,12.833490615748648,-6.424531023943888,0.9479048365782557,-1.1122291560741915,1.5013396640158354,-0.39293304310257016,0.317951520431335,0.25139339538491773,nm,0.0
5.791768789291382,34.39277958886887,14.211998594514393,-6.081017390208913,1.1491525737589126,-0.8806776149060921,1.1339086191329912,-0.29546413801894933,0.30357708269239886,0.13637304937757405,nm,0.0
5.813425540924072,33.34429207855791,15.714959412028861,-6.550766798376316,1.0895874711413667,-0.49744477060827186,0.753124625799067,-0.017275280008223294,0.08941174388985294,-0.07806514720833291,nm,0.0
5.8194873332977295,33.92984183621206,15.474519359163802,-7.102910106493265,0.6813776526690017,-0.23961359687345146,0.528420151602059,0.10992454181803114,-0.06835218397320864,-0.1542029053350985,nm,0.0
5.859461784362793,40.21182063286895,13.205479595093637,-8.764368474722215,-0.5986135355790456,0.22743055368833134,0.3862186826792025,0.5030264292047575,-0.2160054005143177,-0.25933372443247815,nm,0.0
5.861854791641235,42.79164455308309,12.873271735042954,-9.36163756634983,-0.5957957153627556,0.1677589168094315,0.2057378195154447,0.49056458698914,-0.1501067658955026,-0.27306914728650167,nm,0.0
5.864161252975464,45.25949489481381,12.970608095171404,-9.983052081653717,-0.4493357006752813,0.3889970630753044,-0.3890714498821418,0.48201130360379085,-0.06631780285881965,-0.27586598579330657,nm,0.0
5.880890130996704,47.67550512355839,13.280626280832355,-10.796649756143607,-0.22936691101332968,0.4349050859120405,-0.570856038187286,0.47837894500623107,-0.028645420772899454,-0.2859805156509182,nm,0.0
5.909294605255127,51.0843759176392,13.485002034078624,-12.558558281461082,-0.16092302831293093,0.6662530977733218,-1.0394194004446655,0.2843580890459009,-0.06830225047562158,-0.2546921329740241,nm,0.0
5.911648988723755,52.15235051288813,13.201084367333307,-13.25346986349243,-0.4107329136378422,0.9025414007128129,-1.1112516046057845,0.19380577016732775,-0.10587567676349038,-0.20193354567443975,nm,0.0
5.9378297328948975,53.125531842755144,12.211534806207245,-14.068591754619687,-0.8695548219247858,1.2140240353179128,-1.0715554861777932,0.03799941360484985,-0.1149040526177382,-0.08484318896979089,nm,0.0
5.939912557601929,53.05857940648631,11.936322745128997,-14.052869956653465,-0.9423484786191277,1.2419708330661408,-1.0542781057130273,-0.022182712409540475,-0.05414771393797879,-0.007389267339012442,nm,0.0
5.956759929656982,51.88158881889579,12.191363405094506,-13.264173728659863,-0.6787565370137283,0.8694212077464293,-0.9640873125887788,-0.12960098818401142,0.07658976830388667,0.11774311224356908,nm,0.0
5.962347984313965,50.80493752880987,12.484281592363528,-12.556992649888853,-0.4283212720852628,0.6127803033625893,-0.9416537568163529,-0.18841397856217093,0.10001539045677095,0.1663626336193026,nm,0.0
5.984658479690552,47.79037448192626,12.626456602075843,-10.76484076631833,-0.07689369379232043,-0.10500495011955178,-0.5412027520720678,-0.31259594723749806,0.050148691903998587,0.25669569223298033,nm,0.0
5.989138841629028,45.8714146915307,12.387912629124108,-9.594191426014886,0.03389348424190481,-0.4741119891709549,-0.08351840799583697,-0.3737771985655439,0.014332406449336293,0.3047169332826857,nm,0.0
6.039033651351929,38.109465066380025,12.148436519983514,-6.040006087295757,0.2649893515928044,-1.1327246712732861,1.3502601823035816,-0.5232935261849362,0.09962259330798669,0.315690177924579,nm,0.0
6.041177749633789,35.531083001132835,12.877113231946124,-5.492232424212244,0.4718550170977484,-1.0981473128356014,1.4603059928449154,-0.48244150750077,0.1897805496476677,0.24049512065119322,nm,0.0
6.043529272079468,33.39380333233654,13.893801991705553,-5.294050471413971,0.7252851981780495,-0.9376140021318893,1.3067004841340637,-0.39139732760333257,0.23474976466132885,0.126821344843377,nm,0.0
6.066546201705933,31.753155829341775,14.9362663564523,-5.503709825737805,0.9823496487689884,-0.9406560163324031,1.3865267212780301,-0.2933571797665564,0.2303915088331943,0.027958198682237492,nm,0.0
6.069178819656372,30.647168197273757,15.776908908999447,-5.877437021651524,0.9399663960279676,-0.8084233044647594,1.159914916799114,-0.1922226878015105,0.18109967096104845,-0.02796614184454489,nm,0.0
6.078914165496826,30.82215985375574,16.243539933312928,-6.290701355903494,0.5357278604549655,-0.5730890933915104,1.0341657675058493,0.10008229339786827,-0.008594109018047668,-0.05732320826122835,nm,0.0
6.09724497795105,32.12455354854422,16.05430830946729,-6.120009788011769,0.1461666661653178,-0.20422843692514514,0.6823503091040274,0.24849153013485561,-0.07209860333127831,-0.050294759087569356,nm,0.0
6.10334324836731,33.90385844991806,15.679009166322922,-5.905347762772287,-0.07384046259829165,-0.055399506852131374,0.5586288751621641,0.33660600459123685,-0.11765904288623673,-0.06653388415313102,nm,0.0
6.105692148208618,35.9813629953626,15.426045051694803,-5.7428617064586875,-0.1871320363900956,0.0030486639688602725,0.3363671954757398,0.3972678827983435,-0.09768629226131655,-0.09132532878469123,nm,0.0
6.129456043243408,40.58158089808146,15.58389193267493,-6.127464354675499,-0.1357824970231982,0.10046796728835514,-0.1414116274055625,0.4391038325117003,-0.025513292194022093,-0.21067403235311497,nm,0.0
6.132650136947632,42.703457888987366,15.724232786158812,-6.809799209073035,0.029713894144911806,0.08861573956086145,-0.4223725427127165,0.4131944392033914,-0.023570771245490514,-0.2642896284918705,nm,0.0
6.138640642166138,44.57856334441784,15.844553286284771,-7.530523935869779,0.03926304660051982,0.17985765781760507,-0.5986029131489192,0.3649061755558413,-0.02625939992645221,-0.2596246366906248,nm,0.0
6.1602795124053955,47.10088232380488,15.23572510341517,-8.950529901933564,-0.18560235271823589,0.38512211143590014,-0.8931448991036851,0.20510067521379743,-0.13444519611126915,-0.21459625293812784,nm,0.0
6.178421497344971,47.847774680067964,14.533998939656826,-9.535093369733817,-0.33533196008561034,0.4576231598756666,-0.7919709046982937,0.12362533149169987,-0.1664977827163308,-0.16872688470254182,nm,0.0
6.180778741836548,48.13294654806708,13.77045075909202,-10.021465150162303,-0.5085685372730403,0.7227557440612156,-0.9123333660936441,0.0322569772405422,-0.1646669334744619,-0.12455967336050461,nm,0.0
6.187013149261475,48.08987198945868,13.034538911682223,-10.504019186192243,-0.5296085417595033,0.7984066918949594,-0.7637659456551197,-0.03073213907764082,-0.14816500223704435,-0.1077738955281663,nm,0.0
6.21072244644165,46.8506136237823,12.17898678876593,-11.343405804784371,-0.39432186706726857,1.0392679664277065,-0.8612549887275979,-0.15418776678069956,-0.03790619091442524,-0.05838376710342803,nm,0.0
6.216413974761963,45.9028107356031,11.925149893464809,-11.722633959769853,-0.2945744192152432,0.9877359575788743,-0.7952286886851679,-0.18816966058430998,-0.017892399030900816,-0.04923090472070274,nm,0.0
6.241577863693237,43.8336908112248,11.102577443709519,-12.033645073073016,-0.2609119294078316,0.5672863485662742,-0.45787928989130133,-0.20843564151137636,-0.05880184341615991,0.011653894746919463,nm,0.0
6.243896961212158,42.89694702338186,10.450376300946973,-11.727928947567566,-0.36197174801371595,0.28289948214293653,-0.24727450702420306,-0.20307556781491926,-0.09582079149784752,0.07206159581981167,nm,0.0
6.267832040786743,41.20852966973398,8.97399211852634,-9.983249200747807,-0.42260558754501487,-0.44604887479535693,0.4906156324464378,-0.18381188968908663,-0.11424999795769972,0.2226857139894907,nm,0.0
6.2849204540252686,40.18574975015126,8.511642203731187,-8.669705684237412,-0.3427095769011397,-0.7614055047903516,0.8163326819361003,-0.20999934978669654,-0.0647189029940225,0.2820946439697379,nm,0.0
6.2871253490448,39.029883084891495,8.409946460642281,-7.308341570591871,-0.08405216091964783,-1.1289580701936675,1.2222774035716815,-0.22463878355070716,0.005391247762514496,0.29469968541603386,nm,0.0
6.296618223190308,37.831337857190455,8.756803370139894,-6.158794684486983,0.3014439774890493,-1.3420766737294727,1.4537467161095947,-0.22251333072989224,0.09058044811633027,0.26934609832328216,nm,0.0
6.322550535202026,35.97607406569045,10.176578967509112,-4.772045198394874,0.989147387046057,-1.167731061231555,1.1514766773293623,-0.1324360044363028,0.15200312079457284,0.12938263543069614,nm,0.0
6.327679872512817,35.6265197509867,10.665902599622015,-4.50664645649653,1.0903832106493458,-0.9996990880303864,0.9816029387031129,-0.05591096034718293,0.09657908943166058,0.05391479711071254,nm,0.0
6.330583572387695,35.84615710284958,10.782133760936976,-4.421684385609145,0.9223159152071995,-0.7668401433745983,0.7907333085762929,0.049674577877723086,0.013213931468408803,-0.0030902272010181198,nm,0.0
6.35657000541687,38.10406715441328,9.999136217885743,-4.523673731825578,0.19228069933741612,-0.24498184610851725,0.4704514798236894,0.27522653160883365,-0.13018001655302644,-0.08827259484407259,nm,0.0
6.3626039028167725,40.07968829323376,9.49031580338279,-4.699234469037957,-0.13483672056692758,-0.05335995713046316,0.31148739337575576,0.38554447634797134,-0.13868085254268459,-0.12144277627331126,nm,0.0
6.3812620639801025,45.04565270462431,9.10498649114371,-5.417747736170569,-0.2830103288979395,0.22118001167943144,-0.14712753908611637,0.5131577638802093,-0.06438141265577368,-0.19687583584420695,nm,0.0
6.3880743980407715,47.522242415096414,9.251498132312983,-6.0127561434373025,-0.12181604445577876,0.17821826335465699,-0.2893777271687466,0.49511596215604226,-0.02366461820864087,-0.23116144170243022,nm,0.0
6.419506549835205,51.861103401247206,9.622631433483948,-7.868392421270417,0.010922413103013605,0.3548445090067386,-0.7179902586324064,0.4172445416665938,-0.029841383893656096,-0.28308349040253183,nm,0.0
6.436878442764282,54.50524745206432,9.474030485695357,-9.981591895255741,-0.4426012131277352,0.6198245588012543,-0.8527240254981646,0.20928234184830774,-0.06253780516438676,-0.2548112780627483,nm,0.0
6.459524154663086,55.51270229646029,9.406890963417819,-11.547149508542132,-0.9238495650282359,0.993618723936217,-0.7494512337901058,0.06394819679494504,-0.004564143566736486,-0.15756308665451862,nm,0.0
6.461645603179932,55.45221890236598,9.765468301644361,-11.911598705808984,-0.9730964222505518,1.0733675382839076,-0.6773884199574444,0.007555096823240831,0.06940764905187215,-0.08427272805705376,nm,0.0
6.465684413909912,55.12913672654781,10.429736560103002,-11.975899472803153,-0.8678131691195835,1.1984788929963643,-0.6796580688158831,-0.030303925331810973,0.13998327713803949,-0.014896499967999837,nm,0.0
6.482344627380371,54.565484218582505,11.246323109518903,-11.836238760975192,-0.6514358976435546,1.1832756372504682,-0.6618928298671161,-0.07045166894322308,0.17948482312597702,0.035776443770600984,nm,0.0
6.484837770462036,53.83920002222938,11.996282245302718,-11.59184857926501,-0.3977745831035395,1.1884694628212595,-0.7625609669092294,-0.10489918995655038,0.1724898267885561,0.06479854680331806,nm,0.0
6.490673542022705,53.06199872108618,12.492177126201007,-11.292507200060497,-0.19439108929776805,1.0207086628721247,-0.7121571952888454,-0.12539415222238973,0.12389322031890027,0.07952514975912829,nm,0.0
