timestamp,roll,pitch,yaw,acc_x,acc_y,acc_z,gyro_x,gyro_y,gyro_z,markers,motor_input
24.512728214263916,-1.6159480380575706,12.155345837576338,132.6243822520279,-0.2985063110570218,1.6334102049081243,1.2490992977224376,0.14421179244229315,-0.13599215592767497,-0.016315802131350973,nm,0.0
24.51648736000061,-2.9323392611624928,12.217646994704749,131.98042154382094,-0.396741008375469,1.4519745329944536,0.8413834406719541,0.168613057821088,-0.1865673595686858,-0.0791511709990709,nm,0.0
24.545807600021362,-5.385708553223115,12.355795287419458,130.32926381206784,-0.46118327011153837,1.1840125908594603,0.3251994438358995,0.13479089080482604,-0.1672193718895308,-0.13775210947763697,nm,0.0
24.548320055007935,-6.204937338105734,12.630396967577225,129.64242685549124,-0.37169145320643004,0.9870520710827859,0.08654550422906693,0.0658669771510512,-0.14558430729077562,-0.11628948620765653,nm,0.0
24.550457239151,-6.658927479391743,13.11281229192019,129.22048107655527,-0.2534402221995347,0.7642262944691035,-0.10137663897504848,-0.013160710573682493,-0.1174030432977647,-0.07461035030492305,nm,0.0
24.58102583885193,-6.534903187992576,14.803154300786032,129.2977575585065,-0.1070690359180027,0.34443109006020733,-0.3033620333768303,-0.17283816042233063,-0.08068639031888271,-0.011860106993017537,nm,0.0
24.58330512046814,-6.144201334414175,16.034297783055795,129.47883413755085,-0.02247888986089146,0.17767811528681088,-0.43808416461306604,-0.23307904845968586,-0.08624205205470228,-0.016009228160816756,nm,0.0
24.590463161468506,-5.604484810392815,17.415799648841165,129.53019833888428,0.017980291682170125,0.054461125325582234,-0.5279135578624686,-0.273948800531752,-0.08431868054667252,-0.045410081701383415,nm,0.0
24.611798524856567,-4.582182163366234,20.300435384829825,129.10587389043292,0.05616112051512792,-0.2241635397436404,-0.56598944675028,-0.26988883996735474,-0.10581183193024069,-0.10508005016423747,nm,0.0
24.638784885406494,-4.469096516958497,22.657984238622323,128.59621707850002,0.21391908491106507,-0.8279900082925198,-0.26952215303247046,-0.14237181278178007,-0.14326165642477892,-0.04889041629239209,nm,0.0
24.64139699935913,-5.310657566352477,23.474991174710233,128.62005118487193,0.6933363849813151,-1.191705351520579,-0.44040043543554647,-0.025091295075869706,-0.21189303306684826,0.05554251865407385,nm,0.0
24.645459413528442,-6.158659751816042,24.04389410222745,129.04660274232518,0.7200365443858051,-1.7151398906766637,-0.06680917396745892,0.014656924261867514,-0.18105180405029347,0.141882661843837,nm,0.0
24.668486833572388,-9.859205682920091,24.520120268521,131.02738595427456,0.7415602266703969,-2.460735768148,0.19903911993563758,0.25339376564431515,-0.3267648492974939,0.4085934359244087,nm,0.0
24.690597534179688,-14.674330804492882,24.56861088241855,133.84182620003145,0.4380609350577516,-2.7828810926925196,0.0663539413908003,0.308535795353704,-0.29886971708392823,0.4670922176444598,nm,0.0
24.69274640083313,-17.411621752829166,24.336225538511336,134.72543578005843,0.296456805763711,-2.6504285958199008,-0.19559690593142728,0.38623820337458264,-0.31174839584984837,0.3994325907074977,nm,0.0
24.71055769920349,-20.022738909835276,23.834905718685736,134.87770868002426,0.3560432260060618,-2.2357118979585753,-0.8197434264780171,0.41190814383142105,-0.2547335971358529,0.24011064372741273,nm,0.0
24.720353841781616,-22.007078697844747,22.863066656241834,134.35275731766123,-0.020526749180065206,-1.8721132523273585,-1.0116919085451888,0.3990903944773332,-0.1093546511538895,0.034519620725013855,nm,0.0
24.768943548202515,-24.659178499916447,19.427776486929616,131.75242615955958,-0.2856879035996022,-0.6640123642210218,-1.3262899532169818,0.4154737984480701,0.13263675761264562,-0.22269143535712158,nm,0.0
24.77416753768921,-23.97495931765821,15.619149156620217,129.71805056441454,-0.37661079261557073,0.08640344213958735,-0.8760007357600111,0.18908174495036043,0.3546059917345558,-0.18393659686115904,nm,0.0
24.776538133621216,-22.459400852309695,14.253849374925847,129.58031567128927,-0.2465628955041101,0.20155119899923382,-0.6484649019707899,0.02896356120537988,0.4136462633962678,-0.07738207072991066,nm,0.0
24.780407905578613,-17.588706608905866,12.868524671818369,130.80428993822778,-0.10394974605079348,0.08478805798505057,-0.21719498616207872,-0.26031224527019187,0.4810473062980527,0.07724205002730694,nm,0.0
24.79541516304016,-14.739706380087917,12.617282323796049,131.51557318573347,-0.17499507473241843,0.11204601179628418,0.17636305995927015,-0.32269533295195196,0.46609162279565713,0.0657920063960529,nm,0.0
24.797685384750366,-12.055092898303672,12.500616594327182,131.86912865244557,0.07008955815822626,0.533695424568843,0.10440543830421892,-0.32614357035035113,0.4212378999045134,-0.00017032593657137198,nm,0.0
24.822317838668823,-5.956596117793972,12.360368202080041,131.51397274149548,-0.163426932641734,1.3431946262640992,0.8372740900531948,-0.37644480059349766,0.4612583673302337,-0.17636338296187992,nm,0.0
24.87455916404724,1.5943272031814173,11.920683086482134,131.2844269561441,0.138349795146324,2.253888585764567,1.2092633351872024,-0.24399626189473142,0.36849289691073955,-0.05559312906173495,nm,0.0
24.87695002555847,2.9923842008979293,11.542734849667784,131.82532441838916,0.2903804580653372,2.284682006151715,1.1065114938856093,-0.1210629653648658,0.2673156548313931,0.04434251762133094,nm,0.0
24.878767728805542,3.636412416027819,10.699536340933703,133.23128116239647,0.13541598579166386,1.9276827899000106,1.1241863785178778,0.07622280513521466,0.050423029623740366,0.13268776822534978,nm,0.0
24.90251088142395,1.6854076873631745,10.349742878625376,133.80082278430584,-0.20420246689184732,1.5412485879111049,0.9413474668219615,0.1704416638035321,-0.1372737070881908,0.049234636120078855,nm,0.0
24.904672861099243,0.20579249439445682,10.408616534610568,133.70523427455618,-0.3047282733658605,1.3305023540818892,0.5673173914539591,0.19716560417052573,-0.20600016348773442,-0.005192653423977308,nm,0.0
24.91315484046936,-1.318278297119956,10.485634105648225,133.42431610711466,-0.34003580087574603,1.20385508955452,0.2967806368226455,0.19993069874388583,-0.21533382025855638,-0.03920037809382013,nm,0.0
24.94260835647583,-3.6048196454345534,10.953763365274368,133.14440926134785,-0.3628361670800255,0.8996655119312404,-0.02748871396015037,0.09151220174478078,-0.17943907208803891,-0.0013549334954102142,nm,0.0
24.944766759872437,-4.236054601851415,11.524127745079939,133.41738740126627,-0.27880347547961315,0.6990216210464718,-0.21564993515886666,0.006128866428759079,-0.15589546360273632,0.04549801442962675,nm,0.0
24.968260288238525,-4.326787957979773,14.77638122268851,134.70911463658592,-0.15163102822148683,0.19092222407031859,-0.42687934777208564,-0.2202528723226566,-0.1538118292985977,0.05443959660584929,nm,0.0
24.985585927963257,-3.9523837908955697,16.347649527192967,134.94201082841766,-0.1408943584638425,0.03137853511668176,-0.4379457374409209,-0.2699095221536135,-0.15843243261736217,0.0002470610742577046,nm,0.0
25.001221179962158,-3.1928953444400126,19.893501931263753,134.7916579768647,0.05092360930538529,-0.2856577771348802,-0.6593615109801241,-0.30594001340845517,-0.19682540575062119,-0.09027941799504721,nm,0.0
25.01821732521057,-3.054794166523936,21.693885405174726,134.61843947150655,0.133062567873459,-0.5419266444302724,-0.4688728721646307,-0.2695768946490539,-0.22382173084654108,-0.0859868974170393,nm,0.0
25.020415544509888,-3.4868410525966236,23.234195148646677,134.51382101037836,0.4566990524867557,-0.7977660228508358,-0.43635749729989176,-0.15858335919788294,-0.26191257772143267,-0.02746189016109473,nm,0.0
25.035320281982422,-5.165846271853238,25.48151758007006,134.8295705657504,0.646548495727853,-1.9052296610288595,0.358887507327108,-0.0016110635905418754,-0.2682674667166655,0.111976492733447,nm,0.0
25.052672863006592,-7.297253484579692,26.220139169284565,135.14937277967906,0.8282890979403664,-2.3222305628415905,0.45512399702922507,0.17201007917210115,-0.3641916688338111,0.22990234712450372,nm,0.0
25.055202960968018,-10.132803846464906,26.96359914749005,135.60478452530685,0.64760239276798,-2.5462753745616085,0.5449360009087517,0.26194838180368785,-0.45022438312725843,0.3207802297944449,nm,0.0
25.076225757598877,-16.49548750249607,28.648076195930177,136.3246030305051,0.14548351648054858,-2.80732089496013,0.251592833690349,0.31628406847267065,-0.4837110799218786,0.33039920531939787,nm,0.0
25.094237565994263,-20.255358572440294,28.946449968175607,136.03134204480898,0.2599042429585695,-2.4397039097884403,-0.5942287203589016,0.4395561243565104,-0.48637489487254226,0.2720502071956324,nm,0.0
25.09798526763916,-23.542894850230216,28.678106186084232,135.20009336140407,0.2322190015934743,-2.0090158890783076,-1.1500769465238752,0.4544891630975519,-0.35118603559621153,0.11712393478372952,nm,0.0
25.120893001556396,-27.792554032009797,25.771295117420024,132.67499808496785,-0.22299525138752296,-0.9945604298304931,-1.5496651949850608,0.4937952016518214,0.02577177788803658,-0.10949650558240662,nm,0.0
25.14897131919861,-26.456417375426852,19.83373790182566,130.4119148146632,-0.07017281711063662,-0.17137265165655716,-0.7462456857522548,0.10302292763763411,0.4385406337846937,-0.13115457508251951,nm,0.0
25.151166200637817,-24.05331175770575,18.609682059397894,130.58715357582622,-0.03944387776738876,-0.19559661131226908,-0.3649178792983478,-0.10289040585617461,0.5184119154860355,-0.08032010707789777,nm,0.0
25.1683669090271,-21.020874253653027,17.977753371171893,131.06549795142672,0.155405883630104,-0.15477403880002075,-0.2587118053610248,-0.27509536007268864,0.5330730651000503,-0.041191821469260696,nm,0.0
25.17305564880371,-17.388973073099837,17.719830386934696,131.69098101774688,0.0016435356885256911,-0.14589095976311886,0.08626857570808538,-0.41259279820578204,0.5679758830155159,-0.03834389128320406,nm,0.0
25.178682804107666,-13.778099166825127,17.62479215724136,132.302901355672,0.010772012970448594,0.23739917768071728,0.2966810044233387,-0.44095849991189123,0.5388023806511395,-0.04899203405784225,nm,0.0
25.193514823913574,-10.06213966580014,17.633116291792692,132.75302315900598,0.11926577227818921,0.7307395980320405,0.30980585827062496,-0.47499985291742997,0.5352026199957631,-0.0964898084700852,nm,0.0
25.218265056610107,-2.5041174051165123,17.486200883868804,133.14020059354482,0.029869387989607917,1.6013698157403187,0.824129161403766,-0.4416483240625352,0.5310317596981401,-0.15745052851337277,nm,0.0
25.234973669052124,5.046510955555885,16.386046900749562,134.0966559410299,0.35406885272868804,2.147346412971433,1.2162850688941822,-0.14753241727559674,0.3083416150427492,-0.02416270481313049,nm,0.0
25.24553918838501,5.724498459459298,15.857319734618551,134.50600381431886,0.3926309158614356,2.100261430109918,1.1384250989133484,-0.011450651029837127,0.17876218936726973,0.03629639288168403,nm,0.0
25.27494716644287,5.5255592247701415,15.400578901883184,134.8827756719084,0.21386913553077502,1.8877301126634458,1.1676740654530011,0.09578003963338555,0.048593800989833714,0.07829834638831147,nm,0.0
25.27742099761963,2.742879470545605,14.78652127935111,135.2756924194485,-0.1567826299629661,1.499892934319304,0.9058700694497304,0.2634167126902588,-0.17468071583780465,0.10267927956579104,nm,0.0
25.279367685317993,0.8180031655086404,14.661306135831357,135.39295052637465,-0.3791366156052784,1.25032881662922,0.7797713761575233,0.28684959405230603,-0.23181799155620703,0.08790654772477366,nm,0.0
25.331666707992554,-3.1353608996765816,14.56421583348243,135.3142410901472,-0.4848485776292413,0.871036552188298,0.23978079315824702,0.2660692885731444,-0.2365800571323001,0.0403663868793187,nm,0.0
25.334353923797607,-5.938563569009784,14.918431282125345,134.93996735374168,-0.3890291756768838,0.5226546915914109,-0.06263207260321906,0.13759993642995338,-0.19454456506484982,-0.0003614844549666265,nm,0.0
25.336374044418335,-6.7172108561444475,15.331960259999477,134.72055817194808,-0.33836035849507184,0.3862843086825504,-0.13669478634917648,0.05156270299235911,-0.15240769092396936,-0.021426256850174605,nm,0.0
25.351924419403076,-7.2447692877395,16.799588016842968,134.33125475493344,-0.21025956229600684,0.24450705716482493,-0.2652993997565012,-0.10276734359648525,-0.12194480479270645,-0.052899308202788646,nm,0.0
25.366487503051758,-7.104486489575577,17.800828000420026,134.19824976720437,-0.16434231247455994,0.15365404053423354,-0.29643712036794656,-0.1578795270593198,-0.10834260615098465,-0.05949911236201957,nm,0.0
25.37007427215576,-6.887367031221773,18.846551202690474,134.04996514385746,-0.09247301098488983,0.05395401748858877,-0.33505435423912644,-0.17462798484762415,-0.10374339596435714,-0.04915881251331771,nm,0.0
25.397247552871704,-6.604590780308584,20.9206445573903,134.22077315353707,0.1219636378908102,-0.39540134583177705,-0.2352927417052551,-0.15200714249800637,-0.11852295515853792,0.0099782164865896,nm,0.0
25.402313470840454,-6.861733225057036,21.776928750278213,134.53901627649267,0.22498672033363915,-0.7810678523799731,-0.0009219597061941189,-0.08434300395816267,-0.14204475901682825,0.06056299085744799,nm,0.0
25.43366503715515,-9.387247979033095,23.068408468111965,135.33507384535014,0.8578466601388677,-1.5230411040311185,0.025548230725520312,0.11435734238921787,-0.26343218882808306,0.18822034370708146,nm,0.0
25.436875581741333,-13.68466016815731,23.7575820462626,136.30489642277797,0.7080954362068791,-2.195811929749821,0.14528101766311807,0.3100060419594676,-0.3577209014360049,0.28459431173358246,nm,0.0
25.464274644851685,-19.517609495400308,24.004415705575067,136.69624991696324,0.36176110013448676,-2.380791180848656,-0.22366009482253232,0.394029055476507,-0.36191546712498857,0.23053443373128316,nm,0.0
25.489423274993896,-25.474012414461892,22.852964319645643,135.5255646206705,0.15110574033275476,-1.66526706526364,-1.1299750614665474,0.4782913074358235,-0.22404629521651073,0.04417635766023759,nm,0.0
25.49271321296692,-27.54495466707855,21.63478717703872,134.404288658034,-0.14411563426419147,-1.2964781825064629,-1.2958011562894387,0.44773337414798786,-0.0852676246157365,-0.07834874025244452,nm,0.0
