timestamp,roll,pitch,yaw,acc_x,acc_y,acc_z,gyro_x,gyro_y,gyro_z,markers,motor_input
3.035667657852173,28.9791876951932,1.9641474029522872,-5.743964021486442,0.3987859265655624,-0.409739113705618,1.1437393255698325,0.05298885976568969,0.049896783312761435,-0.09705960393948986,nm,0.0
3.037801504135132,29.57749494471871,2.1018393634156936,-6.219357859739017,0.27310624860366417,-0.13870392800350462,0.7526593516288489,0.12818040153016147,0.00674929507637279,-0.0933621343664813,nm,0.0
3.0557868480682373,30.70675396908016,2.1450246607774015,-6.592054951898301,0.119156822562942,0.0822216163036609,0.4607125897897668,0.23170840970707593,-0.024674034240828143,-0.08300302693759128,nm,0.0
3.0644752979278564,32.22562681110311,2.2187387865111434,-6.857723194621765,-0.03769613381535803,0.2252645043517569,0.3142084874794558,0.3097374306223677,-0.028641560467126178,-0.07537318922800272,nm,0.0
3.082789659500122,35.54756533297211,2.741365946187237,-7.437714597455143,-0.15730621333890188,0.32202892560448954,-0.13403146693859397,0.35082048800087506,0.016878209159978168,-0.08733983396264422,nm,0.0
3.097912311553955,38.72498681922247,3.771559674701913,-8.000033572732601,-0.10861600159327744,0.3188691243465646,-0.5639070743323725,0.3273731674917641,0.05819513075265127,-0.08235900011224691,nm,0.0
3.1148486137390137,40.17604749615442,4.230352835180973,-8.173521965881983,-0.1037183283860696,0.3286114486793713,-0.6912694142363763,0.30566637871383545,0.04388550810278644,-0.06671866269018557,nm,0.0
3.1170856952667236,41.41755681194682,4.541795221725818,-8.218690095326327,-0.1548560963834349,0.3943627637756384,-0.8446843940518111,0.2599535025697015,0.020342649810937082,-0.03990224503466882,nm,0.0
3.1257505416870117,42.42050732932933,4.7023468019734125,-8.126242841916328,-0.262065101569502,0.5050012586033034,-0.9594082711883788,0.2084267071707894,-0.0024669769396770433,-0.009611641547639212,nm,0.0
3.153538942337036,43.50211377003798,4.865983659634169,-7.599310786666048,-0.4543926125389287,0.7518054859018701,-1.0931206861890588,0.0816119097303946,0.0034914323853404206,0.033826967523719415,nm,0.0
3.1579298973083496,43.56121465503566,5.08609505320611,-7.2435590671836545,-0.487152889214826,0.857135634737683,-1.1323914070136465,0.02307599932997369,0.036701457633218575,0.044404617072313274,nm,0.0
3.1852123737335205,42.73944152613718,5.8200268557393295,-6.693720047373887,-0.3617789391381316,0.9041599123026884,-1.1776901770659196,-0.09691882012935803,0.08508342149613665,0.03833901514340768,nm,0.0
3.1957874298095703,40.83375034872346,6.250386412092004,-6.179847670259005,-0.13216884176520854,0.5753034320173745,-0.9995205638235766,-0.20383854236549379,0.04102935858408908,0.06120794854009455,nm,0.0
3.2134482860565186,39.5317574325322,6.098376080522244,-5.727975848611104,-0.05547011091997156,0.294095142166075,-0.7913242953398867,-0.25539238670807024,-0.009627180246384934,0.09609640632479038,nm,0.0
3.21581768989563,38.030998570246076,5.690132508795418,-5.112916998380628,0.04212985945315142,-0.0720433262709146,-0.4532381959289967,-0.29960712654079336,-0.059554262234897556,0.1382035870243543,nm,0.0
3.2180724143981934,36.408422510791056,5.1316275504900695,-4.346930978087185,0.10073053148625306,-0.5588020359643268,0.16144838104521947,-0.3257046254161564,-0.09137388214450244,0.17266920798869387,nm,0.0
3.244098663330078,32.92786797583059,4.204274316289937,-2.8753030031947606,0.1539543557154722,-1.2808420995081737,1.5626583418033293,-0.3533530474487923,-0.06250478346248269,0.1485798630757858,nm,0.0
3.2536518573760986,31.00448731428025,4.132040222536658,-2.5425191850635422,0.2518078887617415,-1.2887546757051649,1.7730286937301976,-0.37810634951492417,-0.003697742880350801,0.08398370827003071,nm,0.0
3.2712504863739014,27.92287817458492,4.62927930280738,-3.2325391729412414,0.5178865224729534,-0.9698456996048533,1.7314428033516513,-0.25719431099298057,0.0653792219126427,-0.07702043928019432,nm,0.0
3.2792210578918457,26.9399007987859,4.864035847236359,-3.907638400291059,0.5208288663337326,-0.7688870173934155,1.5633178853362941,-0.18686576548665268,0.05086134448614861,-0.12914241103408633,nm,0.0
3.285247325897217,26.59803766591898,4.926366788528467,-4.634556420178175,0.41347577554960846,-0.5406322660605576,1.1879368915031394,-0.061196097794273034,0.009115136052710537,-0.14992719141246302,nm,0.0
3.299316883087158,27.06821635741574,4.856350226734373,-5.200810786490443,0.26754911769406775,-0.33957500748846586,0.9992615920975759,0.09810946940517674,-0.030404539083882087,-0.13167238046984803,nm,0.0
3.3039565086364746,28.17267887840765,4.7493368206381374,-5.5163355796654,0.08889780406641053,-0.1109482908894092,0.6852236475631294,0.22325836480698225,-0.05020570410964158,-0.08635675175120712,nm,0.0
3.313422918319702,29.70662135076609,4.629651518312996,-5.577601624739532,-0.028689418171167574,0.05795730880731866,0.521275632091517,0.30826607784192334,-0.06141759416889922,-0.04793828212061132,nm,0.0
3.3458449840545654,33.405060251656245,4.580800212938747,-5.646492446073,-0.07461841795479222,0.23490478453243918,0.011597151282034443,0.39383013195905237,-0.040370823560635545,-0.05843990703957862,nm,0.0
3.347961902618408,35.311194409200034,4.7349024122965,-5.876124079866073,-0.026043454274683287,0.25149251560951713,-0.21989448906390976,0.38748744799950524,-0.014286700150439653,-0.09979826896603196,nm,0.0
3.3514492511749268,37.04758938112915,4.999342530418452,-6.273761511709855,-0.012866348154927664,0.2677585773873456,-0.4806939592828978,0.35588658777935706,0.00953792054776533,-0.13713454113471774,nm,0.0
3.365870475769043,38.5943155244296,5.309820074025995,-6.752452874740265,-0.06339669630328769,0.3036154148258441,-0.7145072011491448,0.3191981490496317,0.020545345355484433,-0.15125686813067665,nm,0.0
3.3885204792022705,41.06597831572998,5.671065725682775,-7.435989997600229,-0.3656562808191542,0.4658611023492188,-1.0116991522164298,0.22967536748625117,-0.01207971077030077,-0.10152711594517932,nm,0.0
3.4058916568756104,42.32046292856442,5.614360465796826,-7.214559113998624,-0.5307303034542055,0.7328019866483172,-1.1747029972971452,0.0965573756080023,-0.027845042384825217,0.015891827141688672,nm,0.0
3.4228909015655518,42.380960089127846,5.614357887716725,-6.246605939460636,-0.38702747503756263,0.9513789319085827,-1.2358153699571637,-0.01589646276910832,0.0027417694647614353,0.073176884442172,nm,0.0
3.4309380054473877,42.01622658444178,5.673843898626721,-5.847487617886667,-0.25814493123217336,0.9657304207210949,-1.2386740623788075,-0.06533970691229711,0.013802570854683395,0.059315634503558146,nm,0.0
3.45648455619812,40.59859545917633,5.52758540374551,-5.607763211369039,-0.10679699959079732,0.5845324853272206,-1.0322037250397489,-0.15791483111132348,-0.020476909250495497,0.003925010331258224,nm,0.0
3.4765233993530273,39.62411611924748,5.14301937885139,-5.593070348856143,-0.11842304290237424,0.18020562439184182,-0.7574784591216522,-0.19505811274545334,-0.06391814170564027,-0.002453616093382535,nm,0.0
3.478712558746338,37.32102211596089,3.8890600915928553,-5.01562562897878,-0.13887842600617803,-0.7780612091664603,0.15969528466998362,-0.24540497796147023,-0.11771229034481955,0.07935264155769818,nm,0.0
3.4949376583099365,35.9161053994225,3.310696251145905,-4.331855107235035,-0.0382224607538832,-1.219190301069223,0.9330827307719706,-0.28300638659843586,-0.0993406325996963,0.13762339673363666,nm,0.0
3.4977352619171143,34.049350408283765,2.9978652806898616,-3.527546831988359,0.15802418286765788,-1.4108931158555738,1.4528765286343497,-0.370284798744429,-0.043876652800762195,0.17076737078584245,nm,0.0
3.5050108432769775,31.96314471292761,2.9606537938835125,-2.828291416497316,0.4292333865998587,-1.4445225055561344,1.6470124233387877,-0.41050708954659954,0.008428018589217719,0.15110975454364184,nm,0.0
3.5296525955200195,28.944328730077174,3.002893055814427,-2.768253667093865,0.7810822788125785,-1.04537010486592,1.7787370419395239,-0.2513427370974974,0.0024934198162861816,-0.02448839972600599,nm,0.0
3.5441033840179443,27.904210154420696,2.4501015611666164,-4.265002340821449,0.281304517311259,-0.4748912582995156,1.3869324987256568,-0.04780864765068491,-0.079446614903152,-0.18453917007307,nm,0.0
3.560854434967041,29.486178818406522,1.7730898105048665,-6.012653053813582,-0.43613161953965424,0.0612178258037857,0.7818056624412307,0.2368183839973414,-0.08375906730521969,-0.1778564296092142,nm,0.0
3.5897724628448486,33.39666840880988,2.0192124425380706,-6.927645434587856,-0.5076416404962381,0.33402381908726464,0.23202363701653295,0.4461802778201101,-0.0072703933440089324,-0.09460567695508568,nm,0.0
3.591890573501587,35.94673378169909,2.4667986275359874,-7.1513331191357326,-0.32228883896681865,0.3738832267655144,0.03740115015833409,0.5235665904203873,0.01936167659935127,-0.0758390901250855,nm,0.0
3.6009202003479004,38.62073084869039,2.919661429686441,-7.418929083501414,-0.10516983680848777,0.4096273129629245,-0.2211955843649586,0.5481575240414842,0.015553725113882436,-0.09014060225340834,nm,0.0
3.624645471572876,43.42283128245368,3.472107295869817,-8.469669172277131,0.03540426914550563,0.4932400223645907,-0.620185281829331,0.45314841923228083,-0.024727178751050873,-0.16227734997393414,nm,0.0
3.6386306285858154,47.1268810899054,3.7855675331148047,-10.072245354177863,-0.34271912585629655,0.7383680319308776,-0.9596902338211418,0.3479272066321641,-0.030899631057641253,-0.22587351329956534,nm,0.0
3.65608811378479,48.34967774010011,4.097049858551874,-10.867874590169032,-0.5154818416335695,0.7371780458454186,-1.1697919698910524,0.25726904073001927,0.012177519829092381,-0.20824430077697284,nm,0.0
3.660266160964966,49.252412329449506,4.592476464019252,-11.381659371970768,-0.6313936414068825,0.6541276737809972,-1.11917658000418,0.2015754521929911,0.05789351971922207,-0.1447964734852399,nm,0.0
3.7026238441467285,48.942251248859236,6.227855451464367,-10.487742764287141,-0.3719888426174843,0.42839408873986057,-1.074397872124773,-0.07411824469456335,0.10923689986981999,0.13613479254315455,nm,0.0
3.7055273056030273,47.95364654877131,6.5414077849844565,-9.586744237104257,-0.26979769042718277,0.38759100558612336,-1.0346388091239533,-0.1775068161488861,0.09136928225312006,0.1898905391101541,nm,0.0
3.72152042388916,45.26721878641343,6.804747048998433,-7.6141587970883355,-0.09004295324290809,0.016082964953640783,-0.4914225301217126,-0.2772262264265628,0.057752410345702825,0.2227005767593326,nm,0.0
3.748702049255371,41.52147921190442,6.9756995596934965,-5.769471270905277,0.015591969417552042,-0.5220379157014243,0.29670681690035955,-0.3882860327249649,0.052556590560471156,0.2144544342421261,nm,0.0
3.75075626373291,39.10222851429401,7.173374026779322,-4.885102267271091,0.1875879408727879,-0.7180205982807274,0.6286070415966573,-0.4695509778612313,0.07828353390195834,0.2393271712140858,nm,0.0
3.7528529167175293,36.47770304079321,7.533310398713388,-3.8954025962134367,0.4051026280067454,-0.8602870633837028,0.8544346889404292,-0.5086933469450402,0.10563059531926333,0.26846882572961206,nm,0.0
3.7618980407714844,34.01134454318178,7.935930674657304,-2.9537031730609526,0.7627740533919491,-1.0173534718811448,1.2562284222930373,-0.4781430215422453,0.10331465694023788,0.26411208293453803,nm,0.0
3.784205198287964,30.330919990709212,8.489742886564365,-1.4362902261958375,1.2768413449484726,-0.9089781291350069,1.3950670987955949,-0.2971500425045977,0.03734230168146073,0.15689224274891803,nm,0.0
3.7935497760772705,29.436659789423985,8.16924890083071,-1.3016369165156727,1.1573497874413154,-0.7109838598916051,1.2996056154067286,-0.17294438662997305,-0.06746904308039285,0.04201728345899609,nm,0.0
3.8000757694244385,29.231702733530213,7.279779335727421,-1.6801395030373023,0.8092673049681093,-0.5355456004688437,1.116563518271464,-0.039423600486033286,-0.18465727529584133,-0.08104704451666336,nm,0.0
3.824810743331909,31.10155040219089,5.035465796062067,-3.254948042272097,-0.33971827410546496,-0.19793904503402296,0.7988393143004213,0.248085843291111,-0.2403007110798462,-0.20961816230320596,nm,0.0
3.8285670280456543,32.997415034551665,4.143049459218894,-4.166246868768131,-0.7003994365808396,-0.08301249626581948,0.5742614881337512,0.3722558047416976,-0.21011294980007506,-0.22375161898775078,nm,0.0
3.859165906906128,39.79139192831986,3.958100016686389,-5.724144169318453,-0.30461730720202995,0.15817574925291578,-0.18289221580154194,0.4100789728087875,0.009725345662810077,-0.10030296261584275,nm,0.0
3.8695592880249023,41.4317858653249,4.264456179451448,-5.8352542036452375,0.021982598043845888,0.3351272227655399,-0.6160123562538949,0.33816618096963724,0.022349900315300923,-0.06622281295745287,nm,0.0
3.8884146213531494,43.73435201608176,4.290956660019403,-6.006248789082912,0.0428288230389371,0.652579463613276,-1.0687986064762591,0.19279463153900286,-0.04811492920858896,-0.05204396963694174,nm,0.0
3.908107042312622,44.54059451324648,3.961851727829064,-6.1957299019516645,-0.24608454544942196,0.7116724498279788,-0.97663804900889,0.15919087030508045,-0.08790470320834608,-0.06157756754629422,nm,0.0
3.9107353687286377,44.9949099235731,3.6093542735413244,-6.303407200263847,-0.5744201130961483,0.8417269862292851,-1.0054189046309423,0.08877224059612743,-0.08516228567092733,-0.061370539302536255,nm,0.0
3.9134299755096436,45.11024840712602,3.449300071838082,-6.341153069850037,-0.8148350879492808,0.9234512425321204,-1.0623606730388997,0.02558507317018392,-0.03954016338804902,-0.04377088629610556,nm,0.0
3.9469268321990967,44.58498455004435,4.190304624187442,-6.013867255060361,-0.7808836694291463,0.9148066518726222,-1.0536800467692882,-0.0637154386216856,0.11315789698286542,0.0399771410580217,nm,0.0
3.951166868209839,43.98268489911571,4.930863847523239,-5.593127023738886,-0.5486221687698891,0.8259077747407897,-1.034818213619747,-0.098716952852094,0.1544726645295241,0.08173027587485204,nm,0.0
3.9538421630859375,43.17417282723885,5.620382888771532,-5.033733333072525,-0.27792106593340044,0.6736980237145089,-0.9736074119016789,-0.14194692597247666,0.1471043286841203,0.1147894159208627,nm,0.0
3.9774045944213867,41.094047454254834,6.110666110361164,-3.62278949383663,0.024887526790919004,0.1986391797594919,-0.6861573548844163,-0.20961571939982782,0.021013732628091513,0.15999564723894785,nm,0.0
3.979743480682373,39.881408900847795,5.828372304163764,-2.8310435567866232,0.04154838303089122,-0.22031871208063952,-0.2709511942591431,-0.23838232029986667,-0.04859445352764728,0.17200983410731943,nm,0.0
