timestamp,roll,pitch,yaw,acc_x,acc_y,acc_z,gyro_x,gyro_y,gyro_z,markers,motor_input
25.01821732521057,-3.054794166523936,21.693885405174726,134.61843947150655,0.133062567873459,-0.5419266444302724,-0.4688728721646307,-0.2695768946490539,-0.22382173084654108,-0.0859868974170393,nm,0.0
25.020415544509888,-3.4868410525966236,23.234195148646677,134.51382101037836,0.4566990524867557,-0.7977660228508358,-0.43635749729989176,-0.15858335919788294,-0.26191257772143267,-0.02746189016109473,nm,0.0
25.035320281982422,-5.165846271853238,25.48151758007006,134.8295705657504,0.646548495727853,-1.9052296610288595,0.358887507327108,-0.0016110635905418754,-0.2682674667166655,0.111976492733447,nm,0.0
25.052672863006592,-7.297253484579692,26.220139169284565,135.14937277967906,0.8282890979403664,-2.3222305628415905,0.45512399702922507,0.17201007917210115,-0.3641916688338111,0.22990234712450372,nm,0.0
25.055202960968018,-10.132803846464906,26.96359914749005,135.60478452530685,0.64760239276798,-2.5462753745616085,0.5449360009087517,0.26194838180368785,-0.45022438312725843,0.3207802297944449,nm,0.0
25.076225757598877,-16.49548750249607,28.648076195930177,136.3246030305051,0.14548351648054858,-2.80732089496013,0.251592833690349,0.31628406847267065,-0.4837110799218786,0.33039920531939787,nm,0.0
25.094237565994263,-20.255358572440294,28.946449968175607,136.03134204480898,0.2599042429585695,-2.4397039097884403,-0.5942287203589016,0.4395561243565104,-0.48637489487254226,0.2720502071956324,nm,0.0
25.09798526763916,-23.542894850230216,28.678106186084232,135.20009336140407,0.2322190015934743,-2.0090158890783076,-1.1500769465238752,0.4544891630975519,-0.35118603559621153,0.11712393478372952,nm,0.0
25.120893001556396,-27.792554032009797,25.771295117420024,132.67499808496785,-0.22299525138752296,-0.9945604298304931,-1.5496651949850608,0.4937952016518214,0.02577177788803658,-0.10949650558240662,nm,0.0
25.14897131919861,-26.456417375426852,19.83373790182566,130.4119148146632,-0.07017281711063662,-0.17137265165655716,-0.7462456857522548,0.10302292763763411,0.4385406337846937,-0.13115457508251951,nm,0.0
25.151166200637817,-24.05331175770575,18.609682059397894,130.58715357582622,-0.03944387776738876,-0.19559661131226908,-0.3649178792983478,-0.10289040585617461,0.5184119154860355,-0.08032010707789777,nm,0.0
25.1683669090271,-21.020874253653027,17.977753371171893,131.06549795142672,0.155405883630104,-0.15477403880002075,-0.2587118053610248,-0.27509536007268864,0.5330730651000503,-0.041191821469260696,nm,0.0
25.17305564880371,-17.388973073099837,17.719830386934696,131.69098101774688,0.0016435356885256911,-0.14589095976311886,0.08626857570808538,-0.41259279820578204,0.5679758830155159,-0.03834389128320406,nm,0.0
25.178682804107666,-13.778099166825127,17.62479215724136,132.302901355672,0.010772012970448594,0.23739917768071728,0.2966810044233387,-0.44095849991189123,0.5388023806511395,-0.04899203405784225,nm,0.0
25.193514823913574,-10.06213966580014,17.633116291792692,132.75302315900598,0.11926577227818921,0.7307395980320405,0.30980585827062496,-0.47499985291742997,0.5352026199957631,-0.0964898084700852,nm,0.0
25.218265056610107,-2.5041174051165123,17.486200883868804,133.14020059354482,0.029869387989607917,1.6013698157403187,0.824129161403766,-0.4416483240625352,0.5310317596981401,-0.15745052851337277,nm,0.0
25.234973669052124,5.046510955555885,16.386046900749562,134.0966559410299,0.35406885272868804,2.147346412971433,1.2162850688941822,-0.14753241727559674,0.3083416150427492,-0.02416270481313049,nm,0.0
25.24553918838501,5.724498459459298,15.857319734618551,134.50600381431886,0.3926309158614356,2.100261430109918,1.1384250989133484,-0.011450651029837127,0.17876218936726973,0.03629639288168403,nm,0.0
25.27494716644287,5.5255592247701415,15.400578901883184,134.8827756719084,0.21386913553077502,1.8877301126634458,1.1676740654530011,0.09578003963338555,0.048593800989833714,0.07829834638831147,nm,0.0
25.27742099761963,2.742879470545605,14.78652127935111,135.2756924194485,-0.1567826299629661,1.499892934319304,0.9058700694497304,0.2634167126902588,-0.17468071583780465,0.10267927956579104,nm,0.0
25.279367685317993,0.8180031655086404,14.661306135831357,135.39295052637465,-0.3791366156052784,1.25032881662922,0.7797713761575233,0.28684959405230603,-0.23181799155620703,0.08790654772477366,nm,0.0
25.331666707992554,-3.1353608996765816,14.56421583348243,135.3142410901472,-0.4848485776292413,0.871036552188298,0.23978079315824702,0.2660692885731444,-0.2365800571323001,0.0403663868793187,nm,0.0
25.334353923797607,-5.938563569009784,14.918431282125345,134.93996735374168,-0.3890291756768838,0.5226546915914109,-0.06263207260321906,0.13759993642995338,-0.19454456506484982,-0.0003614844549666265,nm,0.0
25.336374044418335,-6.7172108561444475,15.331960259999477,134.72055817194808,-0.33836035849507184,0.3862843086825504,-0.13669478634917648,0.05156270299235911,-0.15240769092396936,-0.021426256850174605,nm,0.0
25.351924419403076,-7.2447692877395,16.799588016842968,134.33125475493344,-0.21025956229600684,0.24450705716482493,-0.2652993997565012,-0.10276734359648525,-0.12194480479270645,-0.052899308202788646,nm,0.0
25.366487503051758,-7.104486489575577,17.800828000420026,134.19824976720437,-0.16434231247455994,0.15365404053423354,-0.29643712036794656,-0.1578795270593198,-0.10834260615098465,-0.05949911236201957,nm,0.0
25.37007427215576,-6.887367031221773,18.846551202690474,134.04996514385746,-0.09247301098488983,0.05395401748858877,-0.33505435423912644,-0.17462798484762415,-0.10374339596435714,-0.04915881251331771,nm,0.0
25.397247552871704,-6.604590780308584,20.9206445573903,134.22077315353707,0.1219636378908102,-0.39540134583177705,-0.2352927417052551,-0.15200714249800637,-0.11852295515853792,0.0099782164865896,nm,0.0
25.402313470840454,-6.861733225057036,21.776928750278213,134.53901627649267,0.22498672033363915,-0.7810678523799731,-0.0009219597061941189,-0.08434300395816267,-0.14204475901682825,0.06056299085744799,nm,0.0
25.43366503715515,-9.387247979033095,23.068408468111965,135.33507384535014,0.8578466601388677,-1.5230411040311185,0.025548230725520312,0.11435734238921787,-0.26343218882808306,0.18822034370708146,nm,0.0
25.436875581741333,-13.68466016815731,23.7575820462626,136.30489642277797,0.7080954362068791,-2.195811929749821,0.14528101766311807,0.3100060419594676,-0.3577209014360049,0.28459431173358246,nm,0.0
25.464274644851685,-19.517609495400308,24.004415705575067,136.69624991696324,0.36176110013448676,-2.380791180848656,-0.22366009482253232,0.394029055476507,-0.36191546712498857,0.23053443373128316,nm,0.0
25.489423274993896,-25.474012414461892,22.852964319645643,135.5255646206705,0.15110574033275476,-1.66526706526364,-1.1299750614665474,0.4782913074358235,-0.22404629521651073,0.04417635766023759,nm,0.0
25.49271321296692,-27.54495466707855,21.63478717703872,134.404288658034,-0.14411563426419147,-1.2964781825064629,-1.2958011562894387,0.44773337414798786,-0.0852676246157365,-0.07834874025244452,nm,0.0
25.514055728912354,-29.340969552541612,18.31785886640804,132.1499264207031,-0.34251123527765875,-0.3694193309325717,-1.2653330682176178,0.30885437660785614,0.19429518237710766,-0.17907534817968712,nm,0.0
25.51911163330078,-28.826227210963225,16.785264167455242,131.47132038315888,-0.3223091022972209,-0.09005488009261704,-1.0351957184010376,0.16777675430540764,0.2915375135573743,-0.15394699768980874,nm,0.0
25.521214246749878,-27.46211098930998,15.685627221643985,131.25797041275564,-0.2163997939800557,0.04588906115905313,-0.7826672623204644,-0.003194092011126064,0.35610825835644144,-0.093774021633122,nm,0.0
25.544414281845093,-22.665190419274804,14.877526363318058,132.17503129584418,0.03551260362635449,0.1113978738315177,-0.4533710427349864,-0.31472230287608544,0.42947941754740376,0.026834778828281117,nm,0.0
25.548386573791504,-19.34230456277122,14.98086801067662,132.8647827942078,-0.22360603671507961,-0.03797044211331828,0.016295253532121995,-0.44418047490276347,0.47468266410417526,0.02708349703278066,nm,0.0
25.564117431640625,-16.295510073690885,15.244551322306192,133.47630333378314,-0.022637767740856737,0.314203760450469,0.11058007815700444,-0.43627279676288916,0.4079443348712198,0.015972047926580135,nm,0.0
25.569096565246582,-12.994438328644216,15.593783296343767,133.96836917953118,0.1058310640813169,0.6927849961989363,0.18349643589472572,-0.48605120802061086,0.42629160464757265,-0.04081498419648667,nm,0.0
25.60258650779724,-6.05865559684616,16.282634467145506,134.49478242385916,-0.057742738071291204,1.3892191761737598,0.8512023630334219,-0.4794379640459022,0.41418360185257364,-0.11478832996114863,nm,0.0
25.604921102523804,-2.8897195273633636,16.52877156860817,134.69487107428847,0.029520603451169646,1.7364625615290836,0.8816342154318566,-0.4579284115130138,0.4118301393344859,-0.11657899266096898,nm,0.0
25.60728120803833,0.07815749365594346,16.624625876052498,135.02778172263817,-0.07300855894535065,1.9074415597482175,1.1811793035401668,-0.41125787090298976,0.40252175533576046,-0.09755548788183381,nm,0.0
25.627583980560303,2.1990140052906924,16.501262743233877,135.43137919613648,0.04022342435060654,2.0650287041970348,1.0424342899649481,-0.26778754888503004,0.3161116084968205,-0.04765947368941299,nm,0.0
25.630439281463623,3.586016122618905,16.17788566011255,135.81146426430016,0.022565758740480845,2.0674526357085625,0.991466779103081,-0.14151918404195357,0.24446657704745411,-0.009650796261010276,nm,0.0
25.635000944137573,4.114846223816257,15.75296320165368,136.11531536758943,-0.07162304075114709,1.9065567612683538,0.9730676289790574,-0.010451504984883276,0.14370226913974898,0.02405794054676106,nm,0.0
25.662654876708984,3.699113114084721,15.294451490845997,136.36772758135513,-0.12245800851096507,1.6948770528916286,0.8022397552327896,0.1249676822056457,0.022755059582024,0.050928478608378465,nm,0.0
25.665455102920532,1.1990982711263931,14.53571280738742,136.61339734699865,-0.4113279421817365,1.1636369005904632,0.6941097781592119,0.25787653278511685,-0.1382472238159949,0.06233271390475439,nm,0.0
25.68263602256775,-2.081710185031533,14.139333904534926,136.56437496907705,-0.4739296759973562,0.6978559323495691,0.21278548842479014,0.24874831995363866,-0.17370563401715242,0.05403596939690503,nm,0.0
25.690528392791748,-3.449114985816203,14.099848550258201,136.59970840401925,-0.4732062533253495,0.5356165798882644,0.07983826783059245,0.2020400376742608,-0.16398022545580268,0.04822963616634977,nm,0.0
25.709877967834473,-5.080104874184762,14.446289976255954,136.73390718052238,-0.3196695338187383,0.24982524908724874,-0.20869781294707204,0.05728442254900447,-0.09904633173526713,0.019969103490994584,nm,0.0
25.726754188537598,-5.3006595254427165,14.736877242314442,136.76606570178518,-0.2947188797361934,0.1515469945356831,-0.2094907640309677,-0.00514398688728765,-0.058903415535406595,0.002266479583791296,nm,0.0
25.75236678123474,-5.133493941769209,15.62064003800826,136.88071144140622,-0.10272122983263322,-0.06841377769086454,-0.2424516091733939,-0.08512003420476445,-0.03658679174129642,-0.015659038032906223,nm,0.0
25.754633903503418,-4.972758121268665,16.09167364502841,136.96380530403286,0.0197952929073959,-0.24145324383688274,-0.223780091476665,-0.0834070297513698,-0.03513702456009906,-0.011190258909693463,nm,0.0
25.75791645050049,-4.954752500853754,16.53458822875016,137.0537698003228,0.1698647306138563,-0.477037829864677,-0.1708038091159856,-0.05936066243914687,-0.0499098462963423,0.0013940908911899306,nm,0.0
25.783956289291382,-6.2998676461274625,17.32251975937913,137.17492446323737,0.6513338726157055,-1.0252780667366794,-0.08974466094800573,0.09016479640355207,-0.16848053871014051,0.05841102222115386,nm,0.0
25.81933355331421,-11.408315654338217,18.302894661552312,137.49732194625489,0.6919664834284137,-2.0088257357142054,0.1768071804697729,0.28967687959441346,-0.3397772433659284,0.14309021037001105,nm,0.0
25.821420669555664,-13.936661176897008,18.614401766660766,137.62433918159076,0.5699118984185768,-2.199644311431455,0.05429200441408461,0.31634219376226314,-0.3565494279717767,0.15708557591980876,nm,0.0
25.82475447654724,-16.654115693944966,18.840981289171744,137.69154713031733,0.2986908542007129,-2.2795305889276993,-0.07506975467239321,0.3542799320082645,-0.36689426764685057,0.16152394647430662,nm,0.0
25.867478370666504,-22.169905554206185,18.810917652848275,137.11992256465447,0.09559991050756203,-1.8219833592250583,-1.0135972993958053,0.3886279959441767,-0.3008635789289345,0.05831462837706248,nm,0.0
25.869834423065186,-24.27418993301221,18.223870263131563,136.25848277821947,-0.13192767728266072,-1.4436191104536054,-1.2496004979615734,0.3749710209195656,-0.17456292345712576,-0.051893131380685374,nm,0.0
25.872125148773193,-26.329554322565276,15.669664255689236,133.58256385855728,-0.4250617478871951,-0.5804982280956624,-1.2605074273120254,0.299679678186502,0.133777229598469,-0.2524277847508053,nm,0.0
25.889904022216797,-26.109325083347183,14.061344367737036,132.16967824106953,-0.41867278612066305,-0.1693797337993545,-1.0281455405178168,0.2114254492652304,0.26405521707812607,-0.2843274944171802,nm,0.0
25.897331714630127,-24.91172525420671,12.68584025274094,131.06222129707433,-0.41395576501329473,0.06299412484401971,-0.6213241354177371,0.05573470672103709,0.3710260047544254,-0.2648734586762714,nm,0.0
25.901734828948975,-22.89049981583081,11.816880330692726,130.35609556921617,-0.38890809857663994,0.1479153222689052,-0.20157735990560685,-0.12077452687784992,0.4270712277803949,-0.19811892292718555,nm,0.0
25.922693014144897,-16.94123081551838,11.733981850222046,130.3791768241126,-0.37091807738912724,0.17335796177061233,0.3424188798956531,-0.4446320226356777,0.4834183732011536,-0.045116530830117914,nm,0.0
25.927189111709595,-13.841819933735454,12.23551292908643,130.76600813757247,-0.19063148538502087,0.4556918242600128,0.42719331355505136,-0.4654269612653866,0.41018133385851563,0.0006664864747696255,nm,0.0
25.977742433547974,-3.9098167352528397,14.027220702142966,131.63776115105202,-0.04441709789609378,1.3778058024114346,0.8767510274507012,-0.4752552514941683,0.3933726145100832,-0.11090867590036853,nm,0.0
25.979808807373047,-1.1201261290789204,14.466725359899305,131.53758647712232,0.079406624818017,1.6975384667789988,0.928153464340731,-0.4204361971253764,0.35900384476405783,-0.14707245935583843,nm,0.0
25.982688426971436,1.2587759906430096,14.802850935321517,131.4133196891241,0.08048161577057902,1.862494055282541,1.1528432756773164,-0.3511853151092432,0.3126133158942942,-0.1522462733534413,nm,0.0
26.005876541137695,3.497084233627641,15.122688526739609,131.2791812385309,0.2976771010917776,1.8557517424686647,0.8362217811424358,-0.10573808017396251,0.10556123408291085,-0.048379600086404205,nm,0.0
