timestamp,roll,pitch,yaw,acc_x,acc_y,acc_z,gyro_x,gyro_y,gyro_z,markers,motor_input
17.51686406135559,-27.80673994545662,16.87051469213487,-103.76700654366,0.9038910246345001,0.2403356974705267,-1.4790350677821942,-0.3420849710236741,1.0890243614255963,-0.43554139000471226,nm,0.0
17.5242919921875,-30.059178211841143,15.675080248158183,-105.87248982357427,1.0076343375340806,0.25593775544841735,-0.9117076484322831,-0.1345324844745969,0.4760011433309979,-0.29578199043438885,nm,0.0
17.550957918167114,-29.17001140898858,20.52526849330214,-104.96927735279047,0.30873196934417707,1.3733303429090498,-1.3798233430388425,0.5511581937416038,-0.4796471819405882,0.16165850285167746,nm,0.0
17.55310845375061,-25.03356263081121,23.98626729782049,-102.35785492777015,0.7177687684180644,1.4517867476656545,-0.9681546673073218,0.47851805176087203,-0.912780179100764,0.20586338108847616,nm,0.0
17.573662757873535,-13.031783504059735,26.433489485474148,-99.14189978114408,0.6554767614454805,1.3681760795237363,-0.012336712111077126,-0.14695217584826148,-1.1464254439812946,-0.4192403654100049,nm,0.0
17.591872930526733,-7.073244922932863,25.3678390761902,-100.85454197271048,0.40141842216403,0.7006041671595045,0.7868329991971105,-0.4091054845381937,-1.0232890153852643,-0.8703353953197251,nm,0.0
17.59835124015808,-2.045503006044765,24.221665919553814,-104.53236686815976,-0.7154844057324408,0.8224265148021752,0.5819417015792385,-0.4372523217677678,-0.8436789261659123,-1.165427606690001,nm,0.0
17.6004855632782,3.487581940102522,23.695406910478944,-108.55646785330529,-1.3721998064181378,0.902896697241149,0.9356009960250193,-0.4014560210655849,-0.9420940119657992,-1.2632943241594738,nm,0.0
17.615952253341675,8.989920453693305,23.65139902371583,-111.36981150540431,-2.013657729299113,1.202519623899749,1.0484783086134424,-0.3642210599284255,-0.9459903138219043,-1.014495802436386,nm,0.0
17.632983922958374,18.58710565840983,23.20014720827449,-109.88960555917247,-2.2345130657766714,1.3870752517561127,0.26025908936743597,-0.3918913542382604,-0.7627469064420228,0.02635597343016382,nm,0.0
17.63508701324463,21.73030854439928,22.13835903967725,-105.99210770099523,-1.883813006464493,0.7969146918523038,0.03954735584854138,-0.39043009733802403,-0.4881260166054503,0.5264800127602453,nm,0.0
17.66584300994873,22.76434737406996,19.347065985664557,-96.76018438592868,-0.8295987621480527,-1.0716978321703188,0.25761541359838036,-0.26323316820150927,0.10727080302130264,0.9153320329524695,nm,0.0
17.668039321899414,19.78076741993261,18.549200195677805,-93.40949362152405,-0.3251293750732739,-1.930927604954739,0.8338669059349288,-0.11820078958927087,0.5735720996150149,0.8542896352200297,nm,0.0
17.675842761993408,14.164976251172282,18.492480249736502,-91.80553360413025,0.3595379121298728,-2.5622437335489754,1.4242766690811048,0.027306461244074903,1.0617820035769048,0.6685761717984458,nm,0.0
17.697094440460205,-2.5888336145110946,19.367901691729934,-94.75890401458469,1.5855522314376056,-2.323687433188714,0.816822068556365,0.1662992803263372,1.6464192711402157,0.07963513758094463,nm,0.0
17.715246438980103,-18.45402008922416,17.85182498579572,-102.40282294695177,1.462562584142859,-0.8617161945177368,-0.7355482979025351,0.023766107445727113,1.4154962389498476,-0.24262894172330565,nm,0.0
17.7209792137146,-23.486060337443003,16.980757889610473,-104.88042905754172,1.2443291138119914,-0.28541435272938787,-0.868595651648382,0.043614730544291935,0.9719156602971218,-0.19631676485099034,nm,0.0
17.747963190078735,-27.965940527434363,19.345664181319773,-106.00506821191782,0.8455660991642936,0.7946538949075705,-1.2149243991680556,0.43858239285118095,0.15188802818841138,0.09315983048307745,nm,0.0
17.754015922546387,-27.31064600663712,22.24963420957298,-105.24371536132837,0.7808313432555194,1.3431709300055994,-1.35696852221901,0.5132627171617361,-0.27842585025749356,0.10368069011087079,nm,0.0
17.77006459236145,-21.449525658460843,26.302781189238964,-104.24236072846963,0.5607448326176072,1.3762336385657439,-0.8966998197092478,0.10705064655926984,-0.692572865651535,-0.2821404571297812,nm,0.0
17.790287017822266,-16.941604816096167,26.371155742001168,-105.41611330801192,0.37319761503499443,0.9655754404184688,-0.5763620490261767,-0.20732775880466645,-0.7883051841976271,-0.6400912541297297,nm,0.0
17.792969703674316,-11.965824674720894,25.61322122137266,-107.89085567873455,0.2102902742110008,0.3400261818491794,0.11576773878628692,-0.4154227306463076,-0.8165851272871762,-0.9374426540687677,nm,0.0
17.815961837768555,-1.538635588174182,24.193640806928563,-111.62854630590411,-1.279351812620523,0.8441648196104709,0.4447802638113739,-0.48000214072403274,-0.9267754471179446,-0.9718048443413198,nm,0.0
17.826114416122437,10.256560189470257,23.32107066304432,-111.29657161176235,-1.8460727503953338,1.6649678649885207,0.52888665379421,-0.48305547906997137,-0.9279802064960205,-0.3434029177983206,nm,0.0
17.84431481361389,15.426062577047752,22.589608032403444,-109.28346015818866,-1.7642225634017337,1.6663907819157238,0.4052674452497649,-0.4781792792904375,-0.8438295812458618,-0.011126998153516011,nm,0.0
17.85043954849243,19.216380343730044,21.714570053598084,-106.44218192679702,-1.5852104517707546,1.282575957111559,0.3441280360791318,-0.39209055548137967,-0.6164606084705208,0.2717857456056723,nm,0.0
17.879552841186523,21.168556554347695,20.33745717711203,-100.4290925596638,-1.0795605746466759,-0.3070592083337835,0.08958539758264744,-0.13120782373506729,-0.007300441512074464,0.5641646063178329,nm,0.0
17.88183903694153,19.08698806412386,19.908949034941177,-97.98347552388105,-0.6286551792313896,-1.365150066372474,0.3710850887657484,-0.031575553937670454,0.39746250142497364,0.6225486485001562,nm,0.0
17.8991801738739,14.558214973895458,19.67077961672717,-96.12275895919984,-0.16958235236875566,-2.203906489491037,0.8709490844360485,0.04739921869360302,0.8497044274845684,0.6697064344412447,nm,0.0
17.902358293533325,7.856533296219016,19.603681132929342,-94.95647849628845,0.6895059765271431,-2.6889272971844576,1.3789154649236166,0.09777747060420292,1.2558682086698307,0.6757128308130287,nm,0.0
17.904711484909058,-0.3617954964387964,19.6787699363197,-94.65001772279597,1.3599829092581437,-2.47483280051133,0.9266602701721867,0.13301018690331592,1.539245294266075,0.6073796802240565,nm,0.0
17.912870407104492,-8.575319657047023,19.82896742100704,-95.30117003863586,2.067416357034995,-1.9992670627904416,0.6904130486184432,0.15174707514185945,1.5350314080901684,0.42023069711106004,nm,0.0
17.937329292297363,-22.070805137089696,19.342283128908758,-98.57729176106275,1.5095329511923206,-0.17213479481582014,-1.2290174205864572,0.050840585804224986,1.107322464440851,0.03412853234261203,nm,0.0
17.946354150772095,-25.65905429130671,19.019080073807217,-100.14488395319106,1.3076313656324476,0.11829947740727334,-1.2621157958707674,0.03312982864333708,0.6753718310181718,-0.07969165312456833,nm,0.0
17.963043689727783,-27.377045367884854,19.611224071828335,-101.34739129643016,1.0738219696146853,0.4158745336196879,-1.1296225280700476,0.16352721074859947,0.2922216463573753,-0.12869628051785276,nm,0.0
17.97964882850647,-25.64281141728394,23.00968970218306,-101.87223594548385,0.47689473868513116,1.2302087486407882,-0.9838264986181858,0.27586111271847286,-0.4026661970575058,-0.11272968584465022,nm,0.0
17.98330283164978,-22.269552690876655,24.511161267821905,-101.3549984133556,0.3359761186371161,1.421679098221268,-0.8258851826688864,0.15654745496748626,-0.6702253119888748,-0.17209758389534574,nm,0.0
17.989748001098633,-17.698899758393082,25.429556122848158,-101.11927760982803,0.18320032161320426,1.4598871835300231,-0.5524594517240161,0.0053283331726891175,-0.8534060165803301,-0.34369136313925813,nm,0.0
18.007140159606934,-6.883169668802776,25.05001292260693,-102.99120812701854,-0.3256368767315905,0.9640919859352355,0.3284726785794401,-0.3225344689234169,-0.9193435115843519,-0.7346371755267753,nm,0.0
18.022372722625732,-1.3213138350432818,24.40921986790533,-104.75593939097139,-1.0087154556732194,0.9426411306990478,0.29147742791957804,-0.3794883359455824,-0.9534595854271325,-0.8264757150239173,nm,0.0
18.02636742591858,4.765831209562165,23.89249617484558,-106.13778273677846,-1.3300515433861504,0.8572959477183163,0.7981871796644733,-0.4077077531798032,-1.0460857963377561,-0.7836778763363091,nm,0.0
18.055994510650635,14.828016525194055,22.36782913288566,-105.48937809819061,-1.9424381725678206,0.6661668209435456,0.15568171365675168,-0.4077187634091083,-0.7666145339604411,-0.1566370884866679,nm,0.0
18.069041967391968,19.3302746654429,20.175449632891475,-99.48797903683972,-1.3248163594464888,-0.6239627456713971,0.34848259895813855,-0.2904218249366951,-0.1796752872462333,0.5986818768727855,nm,0.0
18.086556673049927,14.262264852559694,18.832131742062334,-92.78272805575865,0.1136336734061468,-2.0421794069965635,1.7668410794206932,-0.0005155570976593851,0.7472096020120433,0.8565588287732658,nm,0.0
18.09714674949646,7.6357435306585915,19.766125527741323,-91.27778408084312,0.9904430464392403,-1.880282219488881,1.5155841690787653,0.22048686481255347,1.2408768501312106,0.7309984716902619,nm,0.0
18.11604380607605,-8.718608123545287,22.023995033361366,-94.83160418525162,2.120883749184255,-1.363675510608371,0.5703200282719982,0.25961997921854185,1.5314873567421916,0.04141940705614998,nm,0.0
18.152426719665527,-22.864388574405954,20.650832660604316,-101.91921925982058,1.0605609283972641,-0.12270154660128099,-1.2090137050736396,-0.04118263849823703,1.1438242776127467,-0.21332366593078989,nm,0.0
18.1544771194458,-26.37253418545705,19.91968733340806,-103.69731099793049,0.9593115638323689,0.02845831134651604,-1.0496238074018636,-0.010344659101500835,0.6710314467874321,-0.11430478624519216,nm,0.0
18.157025814056396,-27.99415509242847,20.677026708093678,-103.99281348603937,0.41109450978552553,0.8220039291024194,-1.4422411785835267,0.206414577460151,0.2554215223207496,0.05172909814138408,nm,0.0
18.17532205581665,-27.32567826895916,22.575558582241772,-102.90016386216432,0.40896282079720014,1.4787544898706566,-1.3304348731296625,0.327210476977896,-0.2136211688598288,0.16723141323410648,nm,0.0
18.24610161781311,-20.542894214451827,26.15093376066123,-99.55424272288674,0.36600282573999904,2.1684040307275256,-0.7789186028075933,0.143836314268565,-0.7972129366072759,-0.061724354739641225,nm,0.0
18.249351024627686,-15.160686343496762,26.48460160392149,-99.38350517950627,0.4223293096656375,1.9000909057819568,-0.3406814059318214,-0.10612934579900268,-0.9677829149967664,-0.44876830108540844,nm,0.0
18.252353191375732,-4.3332061261904595,24.966553482317792,-103.95034938398675,-0.7762211628145111,0.714129873929113,0.08254356521629934,-0.3856192509831666,-0.8845752271599404,-1.04383996673321,nm,0.0
18.25583529472351,13.89058409441727,22.724239956737968,-107.97572604345473,-2.2385334446612806,0.4323272902318461,-0.03960646485323604,-0.5231752542226986,-0.9390787429528316,-0.36634658532367015,nm,0.0
18.258036375045776,18.78978903323552,21.137668716845873,-105.4145881643736,-1.9228560966288606,0.19864272604249397,-0.18249278923838194,-0.5754305803282245,-0.7818972313189999,0.13548628463723486,nm,0.0
18.260190963745117,21.760119494516903,18.96079551289463,-101.53468104663737,-1.5163746363305275,-0.31492574010471897,0.2284062925977979,-0.5634018078645968,-0.44420984226007226,0.561856877277436,nm,0.0
18.26567006111145,22.015286851456914,16.814289894010326,-97.35534190846943,-1.0279390062333584,-1.0061329360785551,1.0105699081333803,-0.4411902750858626,0.01927941219344509,0.8103557150933637,nm,0.0
18.29354977607727,12.764165197956402,16.465782306897996,-91.82973929996726,0.7130190944682473,-1.8979008987252097,2.033277700194142,0.18893395209668729,1.2014726496170816,0.7355621802042416,nm,0.0
18.295734405517578,4.118271386892368,18.25973230359274,-92.2991250316288,1.4424534784769525,-1.8128840933078116,1.3871564053870913,0.40677068263932187,1.6340180282956023,0.41505685732455333,nm,0.0
18.301408290863037,-5.326409211241868,19.774729464857987,-95.24094593690354,2.1925678961715698,-1.8703631329556787,1.1754055637078398,0.407434232782854,1.7598754725154924,0.02239265219804805,nm,0.0
18.324798822402954,-22.851717283190673,18.79290455290968,-103.29679076714211,1.2686714445183849,-0.5458463790312617,-1.2768468351709343,0.04820612875129553,1.5069267689343668,-0.22802705885265442,nm,0.0
18.34157705307007,-27.771886043667617,17.389625250561124,-105.18779491590784,1.0258758295607975,-0.2643579183053573,-1.3157562832487646,-0.055617664287112914,0.9731400336070939,-0.07376858072039649,nm,0.0
18.345773935317993,-30.430367269022216,17.38033819656505,-105.23842997523835,0.7499004633069526,0.14317299834161354,-1.4244493812213581,0.1176783644637242,0.4868091726553255,0.14808074971583057,nm,0.0
18.34841752052307,-30.966905076616175,19.284037353268825,-103.96919840430225,0.4766655831370019,1.0647324279379047,-1.6639183264875619,0.380910654897974,-0.001685305703151838,0.28689150719991285,nm,0.0
18.382017135620117,-20.81741126619431,25.029255580273034,-98.41156254897817,0.5643205927392457,1.9404288045691402,-0.5411585921579284,0.04159600307380911,-0.9058040034500262,-0.19283965394152378,nm,0.0
18.386477947235107,-15.25233916058664,24.879450576827576,-99.30321419606341,0.5451072825752203,1.4383218474322828,-0.09094563126353121,-0.19829170702747234,-0.997863479588066,-0.6534632936416747,nm,0.0
18.411954402923584,-4.596816123006354,23.377591395025785,-105.40522824047717,-1.0792593091394012,0.4011676147555046,0.05156682509066954,-0.3774736128786333,-0.9155572770396755,-1.1167710775352653,nm,0.0
18.43522810935974,7.781785845860469,22.64414972492953,-108.82421937146492,-2.0975636858541606,0.49253334506842195,0.3531472785316999,-0.4535748454456112,-1.0613152117635927,-0.6517915022204498,nm,0.0
18.437387704849243,13.64931109672903,21.61250742814404,-107.50191884880185,-2.2156808095979508,0.6889237503044402,0.023493122457716547,-0.5460778431436962,-0.9709314247687746,-0.1878928930632702,nm,0.0
18.455244064331055,21.58676043796948,17.96566912667732,-100.69056412484896,-1.427920480596064,0.2826209350218554,-0.03956578389171931,-0.5154854720529218,-0.45729881846825593,0.5581052922495016,nm,0.0
18.47977876663208,22.45579148552615,16.235389539273122,-97.04759386162266,-1.0100243967114684,-0.22411354232359162,0.17594691068320814,-0.37706846316336984,-0.1144166081324459,0.6674819393161481,nm,0.0
18.505908966064453,10.48185334625603,15.80520518082625,-92.99817136599687,0.570079237205596,-1.380238496901122,1.1253427713407629,0.15819801383727783,1.2249864112784927,0.3142974823379398,nm,0.0
