timestamp,roll,pitch,yaw,acc_x,acc_y,acc_z,gyro_x,gyro_y,gyro_z,markers,motor_input
2.5193145275115967,32.59391153330322,3.6344094465190584,-3.2926665484388233,0.3777129248643654,-0.7096895222358539,1.374848569201522,-0.014217562172862774,-0.00838032624846409,-0.12971624836069987,nm,0.0
2.5215842723846436,32.815298195481304,3.5007606860701777,-3.6619917417229724,0.2312918824015165,-0.41735545613453157,1.0186607382206267,0.04884508866630034,-0.036660030320314486,-0.07477526249183136,nm,0.0
2.5374648571014404,33.51085318888302,3.31409854057901,-3.74150670877552,0.100631086766054,-0.1592389451110463,0.7443926497554282,0.14267427666734817,-0.05345009739111076,-0.025482589147723663,nm,0.0
2.542553663253784,34.63855379093827,3.2062499236968405,-3.695424296323682,-0.002703145493644253,0.06136442521048783,0.5561257916373847,0.22996712158487712,-0.04315778170754631,-0.005632608714541731,nm,0.0
2.548125743865967,35.97024587674811,3.246621890346719,-3.739398578979213,-0.052013629690440495,0.20547229546965445,0.2912764595373432,0.27260905870624774,-0.015907507043223114,-0.029933520294443513,nm,0.0
2.566934823989868,38.8825577572639,3.8643682628902245,-4.559044504861356,0.01255953574068333,0.2905842419527726,-0.15659433993343555,0.3021332259208057,0.05228855155920637,-0.1338423563576779,nm,0.0
2.5749850273132324,40.280765339872204,4.362904584030841,-5.1956562033412945,0.00038128921926923925,0.32943678038112756,-0.3860446470763434,0.2927988522610776,0.0697405254502245,-0.159307826091729,nm,0.0
2.609281063079834,42.823287713490075,5.093941378301029,-6.179760829594654,-0.16594272727622522,0.3798225165934597,-0.7128335425233814,0.25105381927479065,0.02709187751413833,-0.11074820273538621,nm,0.0
2.611903429031372,43.90854403583927,5.219788578597152,-6.261817974969301,-0.3132612187033166,0.48215213901581433,-0.8328259544976306,0.2237011522254247,-0.003747370786771818,-0.04809190016209794,nm,0.0
2.628162145614624,45.56421578729094,5.259406124239493,-5.680078502289803,-0.5513481805009227,0.7455958828139133,-0.9982781338115084,0.14945399868088477,-0.015215884563044695,0.05059833550788312,nm,0.0
2.6303067207336426,46.04949993778216,5.410832806549561,-5.236191871010139,-0.5895573072762317,0.8494170065528032,-1.064254141573503,0.10507342997309281,0.01620486577813516,0.06755535554999566,nm,0.0
2.660390853881836,46.13754634100492,6.205104945958608,-4.515627986628726,-0.4755135925094562,0.8742026574088292,-1.1647243852763358,-0.009192336124036457,0.08931318639658992,0.053190839476273157,nm,0.0
2.662743330001831,45.70482928437822,6.672022528891104,-4.259461558470111,-0.3564676012599623,0.7562106961638927,-1.1424341078037956,-0.07303667834252071,0.09508974952279604,0.048586628353774024,nm,0.0
2.6677846908569336,44.94521349078635,6.979656630514201,-3.9919127611339724,-0.23434101995440665,0.5779274657778717,-1.083972320067608,-0.14060201947036935,0.06745851087485077,0.05926235667708235,nm,0.0
2.6911258697509766,42.572788018786724,6.677927606524132,-3.110842856842539,0.005884591668356573,0.0476940020838628,-0.680605393454537,-0.2600469485788336,-0.0530392676617097,0.12340296086932456,nm,0.0
2.697437047958374,41.02495626913235,6.079372729135777,-2.4464272119829715,0.093526018474507,-0.3053627284932868,-0.27478756525445996,-0.3075706798393182,-0.11028164471501362,0.15556752243658387,nm,0.0
2.719774007797241,37.3421065584654,4.588566844232841,-1.14725772961797,0.23047564445734073,-0.9751848654977548,0.9154285895714473,-0.38505226058092484,-0.14181411685932382,0.14152386859429095,nm,0.0
2.726552963256836,35.245558017870415,4.085227341696498,-0.8942283482503914,0.28186798191858836,-1.082770862265891,1.3636176394906436,-0.4139312871718267,-0.09953677706821956,0.0842283382705915,nm,0.0
2.751481533050537,31.691062355416936,3.711983863033962,-1.7498052826192634,0.4817695564156169,-1.021477640262036,1.600053402356113,-0.3012267937466401,-0.02399236225652919,-0.11040608849441637,nm,0.0
2.769148826599121,30.431516316057476,3.375935669867739,-3.7728057401874127,0.5033501972519374,-0.7496832192588986,1.385029494448793,-0.06826618696302236,-0.04671755055038491,-0.19990917128711108,nm,0.0
2.771315813064575,30.447973958876393,2.9718968201118474,-4.673593596599589,0.331996506283363,-0.5341979301298825,1.1477670816178391,0.003533737252968217,-0.0887365502554435,-0.17578452748010726,nm,0.0
2.799440860748291,31.475702761827982,1.9818320259545457,-5.651901901287352,-0.08355324189357777,-0.11963171714351177,0.6485089586424424,0.13682260315109507,-0.11317827019802099,-0.0733397371521919,nm,0.0
2.8015713691711426,32.3694250633575,1.7082889964622856,-5.849041080960658,-0.2123603948846754,0.059623596266268473,0.43771558646857234,0.17883344800668471,-0.0800933734503216,-0.04499252458897974,nm,0.0
2.8195862770080566,33.33580998537409,1.6457636880194275,-6.056816253586995,-0.18735555228394737,0.19580410977403412,0.164542319145512,0.19746626221590063,-0.04000197235836415,-0.051411961037843824,nm,0.0
2.8238275051116943,34.31339692991197,1.8075188206123556,-6.366878054692873,-0.072755589275091,0.26351850833156054,-0.00937556366035531,0.20435917316620633,0.003700584845138393,-0.07362103618963065,nm,0.0
2.878204822540283,36.93247996495491,2.494717855289746,-7.7187406214638115,0.024599958048055048,0.3733353526132487,-0.5913831671639568,0.17757846112368814,-0.00801215722317699,-0.1083546295151387,nm,0.0
2.880702495574951,37.70965092232434,2.4322127231238526,-8.015355137140132,-0.11474514251786826,0.4645524764621916,-0.7789303144704988,0.15837139590864657,-0.040501677824953876,-0.07731585587362602,nm,0.0
2.883563280105591,38.41709750893235,2.2257734251725974,-8.052778498344178,-0.2835325155622204,0.5700926810035132,-0.8856633852103963,0.14052824769900993,-0.06733870812511589,-0.036601886491377626,nm,0.0
2.886315107345581,39.39263716536264,1.7746926918216273,-7.58944033311823,-0.5059772455980784,0.7325981515789592,-1.0387915661382492,0.08306404742281318,-0.05499972605960316,0.03095527619368528,nm,0.0
2.9020190238952637,39.6458316165974,1.7314255986892317,-7.2461749013428625,-0.5244559040683257,0.7563404847392281,-1.0493717790149033,0.0554645022277383,-0.021469875307615443,0.04456175792937478,nm,0.0
2.91076922416687,39.701969053147444,1.8283258253834156,-6.937018732052843,-0.46028530226253517,0.7399757341278347,-1.0672462217258287,0.0,0.0,0.0,nm,0.0
2.9337973594665527,39.135991786761835,2.1638869742401696,-6.395862423087548,-0.21913453701800273,0.5686766083479357,-1.0217165156187513,-0.07140179926680874,0.03395088706789427,0.047370206760428094,nm,0.0
2.943188428878784,38.48795235591102,2.1633224535742537,-6.070116573501016,-0.11144477444804121,0.36884640930301227,-0.9007581281823956,-0.12259391886660076,0.007529749873409498,0.05887244123477942,nm,0.0
2.9454867839813232,37.645741568821535,1.9402354913621016,-5.668510841246181,-0.014296655097889048,0.08518590993522841,-0.66833455824435,-0.16582919192582424,-0.03376462003868362,0.07532628050900232,nm,0.0
2.9539599418640137,36.65626369618137,1.5327846151274975,-5.180185241635951,-0.03389514656138134,-0.3060105240505949,-0.22899542935220238,-0.19836250730808166,-0.06920646562182152,0.09282116759345245,nm,0.0
2.979543685913086,35.536363004522585,1.0517784202888925,-4.643516275783072,-0.0549169377533238,-0.7673395020013292,0.4022004098167584,-0.22497638039311418,-0.08362817839205772,0.10173942861862599,nm,0.0
2.996549129486084,32.85595055624073,0.4404739457454793,-3.8682076313362614,0.015465394314036795,-1.3994109872577978,1.6701196330191759,-0.2810420377435205,-0.027874858538117973,0.061546405125665775,nm,0.0
2.998774766921997,31.300366341093273,0.5095097253705612,-3.8837785556044997,0.1562852092627215,-1.3791499091110173,1.7941656536659811,-0.3030271020607085,0.02761444092680397,0.012435014833133005,nm,0.0
3.002197265625,29.976957671811512,0.8079085449716028,-4.161687554790376,0.315757571782049,-1.2426024180752084,1.787279432877133,-0.25338470975651073,0.07065353015779764,-0.03892510356015148,nm,0.0
3.035667657852173,28.9791876951932,1.9641474029522872,-5.743964021486442,0.3987859265655624,-0.409739113705618,1.1437393255698325,0.05298885976568969,0.049896783312761435,-0.09705960393948986,nm,0.0
3.037801504135132,29.57749494471871,2.1018393634156936,-6.219357859739017,0.27310624860366417,-0.13870392800350462,0.7526593516288489,0.12818040153016147,0.00674929507637279,-0.0933621343664813,nm,0.0
3.0557868480682373,30.70675396908016,2.1450246607774015,-6.592054951898301,0.119156822562942,0.0822216163036609,0.4607125897897668,0.23170840970707593,-0.024674034240828143,-0.08300302693759128,nm,0.0
3.0644752979278564,32.22562681110311,2.2187387865111434,-6.857723194621765,-0.03769613381535803,0.2252645043517569,0.3142084874794558,0.3097374306223677,-0.028641560467126178,-0.07537318922800272,nm,0.0
3.082789659500122,35.54756533297211,2.741365946187237,-7.437714597455143,-0.15730621333890188,0.32202892560448954,-0.13403146693859397,0.35082048800087506,0.016878209159978168,-0.08733983396264422,nm,0.0
3.097912311553955,38.72498681922247,3.771559674701913,-8.000033572732601,-0.10861600159327744,0.3188691243465646,-0.5639070743323725,0.3273731674917641,0.05819513075265127,-0.08235900011224691,nm,0.0
3.1148486137390137,40.17604749615442,4.230352835180973,-8.173521965881983,-0.1037183283860696,0.3286114486793713,-0.6912694142363763,0.30566637871383545,0.04388550810278644,-0.06671866269018557,nm,0.0
3.1170856952667236,41.41755681194682,4.541795221725818,-8.218690095326327,-0.1548560963834349,0.3943627637756384,-0.8446843940518111,0.2599535025697015,0.020342649810937082,-0.03990224503466882,nm,0.0
3.1257505416870117,42.42050732932933,4.7023468019734125,-8.126242841916328,-0.262065101569502,0.5050012586033034,-0.9594082711883788,0.2084267071707894,-0.0024669769396770433,-0.009611641547639212,nm,0.0
3.153538942337036,43.50211377003798,4.865983659634169,-7.599310786666048,-0.4543926125389287,0.7518054859018701,-1.0931206861890588,0.0816119097303946,0.0034914323853404206,0.033826967523719415,nm,0.0
3.1579298973083496,43.56121465503566,5.08609505320611,-7.2435590671836545,-0.487152889214826,0.857135634737683,-1.1323914070136465,0.02307599932997369,0.036701457633218575,0.044404617072313274,nm,0.0
3.1852123737335205,42.73944152613718,5.8200268557393295,-6.693720047373887,-0.3617789391381316,0.9041599123026884,-1.1776901770659196,-0.09691882012935803,0.08508342149613665,0.03833901514340768,nm,0.0
3.1957874298095703,40.83375034872346,6.250386412092004,-6.179847670259005,-0.13216884176520854,0.5753034320173745,-0.9995205638235766,-0.20383854236549379,0.04102935858408908,0.06120794854009455,nm,0.0
3.2134482860565186,39.5317574325322,6.098376080522244,-5.727975848611104,-0.05547011091997156,0.294095142166075,-0.7913242953398867,-0.25539238670807024,-0.009627180246384934,0.09609640632479038,nm,0.0
3.21581768989563,38.030998570246076,5.690132508795418,-5.112916998380628,0.04212985945315142,-0.0720433262709146,-0.4532381959289967,-0.29960712654079336,-0.059554262234897556,0.1382035870243543,nm,0.0
3.2180724143981934,36.408422510791056,5.1316275504900695,-4.346930978087185,0.10073053148625306,-0.5588020359643268,0.16144838104521947,-0.3257046254161564,-0.09137388214450244,0.17266920798869387,nm,0.0
3.244098663330078,32.92786797583059,4.204274316289937,-2.8753030031947606,0.1539543557154722,-1.2808420995081737,1.5626583418033293,-0.3533530474487923,-0.06250478346248269,0.1485798630757858,nm,0.0
3.2536518573760986,31.00448731428025,4.132040222536658,-2.5425191850635422,0.2518078887617415,-1.2887546757051649,1.7730286937301976,-0.37810634951492417,-0.003697742880350801,0.08398370827003071,nm,0.0
3.2712504863739014,27.92287817458492,4.62927930280738,-3.2325391729412414,0.5178865224729534,-0.9698456996048533,1.7314428033516513,-0.25719431099298057,0.0653792219126427,-0.07702043928019432,nm,0.0
3.2792210578918457,26.9399007987859,4.864035847236359,-3.907638400291059,0.5208288663337326,-0.7688870173934155,1.5633178853362941,-0.18686576548665268,0.05086134448614861,-0.12914241103408633,nm,0.0
3.285247325897217,26.59803766591898,4.926366788528467,-4.634556420178175,0.41347577554960846,-0.5406322660605576,1.1879368915031394,-0.061196097794273034,0.009115136052710537,-0.14992719141246302,nm,0.0
3.299316883087158,27.06821635741574,4.856350226734373,-5.200810786490443,0.26754911769406775,-0.33957500748846586,0.9992615920975759,0.09810946940517674,-0.030404539083882087,-0.13167238046984803,nm,0.0
3.3039565086364746,28.17267887840765,4.7493368206381374,-5.5163355796654,0.08889780406641053,-0.1109482908894092,0.6852236475631294,0.22325836480698225,-0.05020570410964158,-0.08635675175120712,nm,0.0
3.313422918319702,29.70662135076609,4.629651518312996,-5.577601624739532,-0.028689418171167574,0.05795730880731866,0.521275632091517,0.30826607784192334,-0.06141759416889922,-0.04793828212061132,nm,0.0
3.3458449840545654,33.405060251656245,4.580800212938747,-5.646492446073,-0.07461841795479222,0.23490478453243918,0.011597151282034443,0.39383013195905237,-0.040370823560635545,-0.05843990703957862,nm,0.0
3.347961902618408,35.311194409200034,4.7349024122965,-5.876124079866073,-0.026043454274683287,0.25149251560951713,-0.21989448906390976,0.38748744799950524,-0.014286700150439653,-0.09979826896603196,nm,0.0
3.3514492511749268,37.04758938112915,4.999342530418452,-6.273761511709855,-0.012866348154927664,0.2677585773873456,-0.4806939592828978,0.35588658777935706,0.00953792054776533,-0.13713454113471774,nm,0.0
3.365870475769043,38.5943155244296,5.309820074025995,-6.752452874740265,-0.06339669630328769,0.3036154148258441,-0.7145072011491448,0.3191981490496317,0.020545345355484433,-0.15125686813067665,nm,0.0
3.3885204792022705,41.06597831572998,5.671065725682775,-7.435989997600229,-0.3656562808191542,0.4658611023492188,-1.0116991522164298,0.22967536748625117,-0.01207971077030077,-0.10152711594517932,nm,0.0
3.4058916568756104,42.32046292856442,5.614360465796826,-7.214559113998624,-0.5307303034542055,0.7328019866483172,-1.1747029972971452,0.0965573756080023,-0.027845042384825217,0.015891827141688672,nm,0.0
3.4228909015655518,42.380960089127846,5.614357887716725,-6.246605939460636,-0.38702747503756263,0.9513789319085827,-1.2358153699571637,-0.01589646276910832,0.0027417694647614353,0.073176884442172,nm,0.0
3.4309380054473877,42.01622658444178,5.673843898626721,-5.847487617886667,-0.25814493123217336,0.9657304207210949,-1.2386740623788075,-0.06533970691229711,0.013802570854683395,0.059315634503558146,nm,0.0
3.45648455619812,40.59859545917633,5.52758540374551,-5.607763211369039,-0.10679699959079732,0.5845324853272206,-1.0322037250397489,-0.15791483111132348,-0.020476909250495497,0.003925010331258224,nm,0.0
3.4765233993530273,39.62411611924748,5.14301937885139,-5.593070348856143,-0.11842304290237424,0.18020562439184182,-0.7574784591216522,-0.19505811274545334,-0.06391814170564027,-0.002453616093382535,nm,0.0
3.478712558746338,37.32102211596089,3.8890600915928553,-5.01562562897878,-0.13887842600617803,-0.7780612091664603,0.15969528466998362,-0.24540497796147023,-0.11771229034481955,0.07935264155769818,nm,0.0
3.4949376583099365,35.9161053994225,3.310696251145905,-4.331855107235035,-0.0382224607538832,-1.219190301069223,0.9330827307719706,-0.28300638659843586,-0.0993406325996963,0.13762339673363666,nm,0.0
3.4977352619171143,34.049350408283765,2.9978652806898616,-3.527546831988359,0.15802418286765788,-1.4108931158555738,1.4528765286343497,-0.370284798744429,-0.043876652800762195,0.17076737078584245,nm,0.0
3.5050108432769775,31.96314471292761,2.9606537938835125,-2.828291416497316,0.4292333865998587,-1.4445225055561344,1.6470124233387877,-0.41050708954659954,0.008428018589217719,0.15110975454364184,nm,0.0
