timestamp,roll,pitch,yaw,acc_x,acc_y,acc_z,gyro_x,gyro_y,gyro_z,markers,motor_input
1.5077919960021973,32.50472615895249,-0.3649101137137886,-7.18838811237062,0.015336761169625296,-0.47874721553387867,0.9200485654156352,0.3669134864788433,-0.03515053753546214,-0.08935877632061494,nm,0.0
1.5099596977233887,34.47074965409721,-0.35031334700948846,-7.393492288508397,0.022273758315384924,-0.453356845424415,0.6511988150675655,0.397494257878062,-0.05448538418078283,-0.04913961350631097,nm,0.0
1.5262048244476318,36.41941012569154,-0.3515189787999859,-7.373309646598736,-0.020708909672033173,-0.38388324860108924,0.36248307779228567,0.39361280719354497,-0.05743702866795097,-0.0043042653097009565,nm,0.0
1.5286986827850342,38.2136958793926,-0.3462017557465617,-7.236439819026269,-0.06031823894432822,-0.22114913726758265,0.05229314564817525,0.3632413524402952,-0.051321238364354115,0.018674293666909404,nm,0.0
1.6424164772033691,42.21126460362193,0.09039499362965875,-7.444259563826134,-0.12215050343025358,0.22926778119747812,-0.5573273881338103,0.22874105007095985,0.01862693447188099,-0.060327177069912814,nm,0.0
1.6465420722961426,44.32095771233524,1.2417026055729723,-8.558592999987297,-0.3547460095708941,0.6646909583588693,-0.9064679747384287,0.12447280673034043,0.05745316988109734,-0.076975171989137,nm,0.0
1.6497790813446045,43.95089426996363,3.338347376691427,-5.568211833008471,-0.20687457171971482,0.41566708983035383,-0.8680585253408447,-0.10993770889908312,0.06023532914315609,0.07396515934151882,nm,0.0
1.6672675609588623,43.04327897095936,3.515766969168562,-5.319758288989469,-0.11919709168160986,0.19123204823829326,-0.7218931138305114,-0.17103472679337114,0.047144684061187485,0.04876622701029268,nm,0.0
1.670018196105957,41.813425822933816,3.5504252454566907,-5.179841932377898,0.006899896868003698,-0.10405456154109634,-0.46236971439115004,-0.23795636290036715,0.023729869666394614,0.0314498507766626,nm,0.0
1.678452491760254,40.32002550333773,3.4244066391451007,-5.094722974276106,0.11419877624246134,-0.3813670136027823,-0.13067463056397732,-0.2933645647143918,-0.004369505135457928,0.023648328339034463,nm,0.0
1.7128064632415771,36.837130325270664,2.737536204393538,-5.138795486610327,0.20991931876743897,-0.8369256496144688,0.8886939683835857,-0.36055794356542253,-0.05352162051893202,-0.006591477089625221,nm,0.0
1.714893102645874,35.08161869000751,2.344201037863521,-5.33752963948464,0.19433703311036848,-0.876211537278888,1.3029835211358094,-0.35061629207171396,-0.05339467865727701,-0.03512769276221684,nm,0.0
1.7349677085876465,32.58925097884728,1.8609602636820914,-6.217362169922711,0.18269722564669827,-0.6932188251198871,1.5805205855693205,-0.19686929542164705,-0.021181797194910815,-0.106571318053462,nm,0.0
1.7517452239990234,32.374713569378315,1.8540215932184005,-6.768802413769971,0.16941674538077348,-0.6191415921349636,1.4812654786607893,-0.03661589406273867,-0.004214285869218635,-0.1196079798873987,nm,0.0
1.7538738250732422,33.0295851445214,2.023983251188857,-7.220617948867732,0.12213535120252322,-0.651035208894164,1.496669399190787,0.14037845017616635,0.010211571512591153,-0.1055898033231538,nm,0.0
1.7564630508422852,34.364854530385976,2.332692128242476,-7.486834586118958,0.09075836688577149,-0.5700435863614903,1.2275730248406336,0.27900522495581537,0.019730456589448893,-0.07434068302447207,nm,0.0
1.7794392108917236,38.218813589471345,3.0728090294870345,-7.4911982229360055,0.07301617547862058,-0.4079670455470689,0.6789968808042518,0.42645711026188365,0.014455543025051271,-0.01771775611652725,nm,0.0
1.7852771282196045,40.2881085438152,3.538146879726995,-7.340130629006201,0.10152251182403942,-0.29338620687941647,0.49895468189517267,0.4282556080437986,0.03280891057273707,-0.005269731023537737,nm,0.0
1.8062546253204346,43.876318492274,4.720629265506644,-7.336902979256038,0.16817719390537067,0.08973320281237604,-0.24879504879952744,0.37064885035897366,0.06913147091799732,-0.058571055822463323,nm,0.0
1.8117027282714844,45.562533561942544,5.253574987867444,-7.67183851670146,0.17812779747504676,0.21802185227945955,-0.4575874320986656,0.3531482681195929,0.05671595908386997,-0.10870912853752157,nm,0.0
1.836211919784546,48.4904497421208,6.001255305090256,-8.588740039558362,-0.10092705466168189,0.38853739770808615,-0.8632458471191055,0.2975831950657816,0.015585955150072304,-0.1413766956571059,nm,0.0
1.8404321670532227,49.77378384661881,6.201781816035171,-8.905361346121293,-0.34035955262640744,0.4738019120078689,-0.957141513370025,0.26414874548011164,-0.003458319174201003,-0.11313434115960982,nm,0.0
1.849804162979126,50.78384839004068,6.342504995080414,-8.938510096373065,-0.5698071539609848,0.572052024923777,-1.0750745859504005,0.2084654097936984,-0.007379652146543312,-0.05694921081138981,nm,0.0
1.875312089920044,51.724867142526875,6.655769011266169,-8.104872102878456,-0.7102994923011414,0.6895671815077378,-1.1567892496313978,0.05851255444854654,0.02429333007996991,0.08314246621605233,nm,0.0
1.8803331851959229,51.50548532533394,6.876109553640644,-7.341645871073435,-0.559540705114182,0.6644682106750807,-1.1726087613529392,-0.03184309535174512,0.04577410702020591,0.14029543530331745,nm,0.0
1.9134902954101562,48.47662777857483,7.221834065412809,-4.662595089881198,0.1101022777012829,0.3621423022100878,-0.9683366032117444,-0.25604868393679375,0.00781569761085813,0.17803724647323735,nm,0.0
1.928035020828247,47.05685787041373,6.9347609022795,-4.001870706936053,0.27547141203894204,0.054969668839283725,-0.6620798272731968,-0.28003629342722514,-0.04061996598007464,0.13981372790507712,nm,0.0
1.940412998199463,44.12155058485559,6.03350112371165,-3.3163932802514005,0.2691407102799277,-0.6793477791713157,0.30488402601106684,-0.2951479060219659,-0.08638744812659156,0.05191519891083678,nm,0.0
1.9448285102844238,42.57399454506366,5.47123445883252,-3.3884882557085008,0.22745544656506345,-1.1522541254102794,1.0576180208725179,-0.308380329791354,-0.09987544511584841,-0.008307786092508816,nm,0.0
1.9819285869598389,40.95319634587899,5.000156357390277,-3.6009946195009572,0.15814195324421154,-1.215168403753863,1.3707986162373933,-0.32227452033380716,-0.08037747714830941,-0.04157943167400773,nm,0.0
1.9844944477081299,38.28500086463242,4.6078248848676395,-4.19488757290601,0.12735099634426628,-1.0832780707367848,1.6893472152064528,-0.2321836079700719,-0.01140805591792066,-0.05171363476950976,nm,0.0
1.986572027206421,37.574568556774445,4.655349617771158,-4.337316482724148,0.26543955147980963,-0.8993020973034912,1.5430037770491267,-0.13467941351644466,0.013640498622502453,-0.028508220186333488,nm,0.0
2.0021142959594727,37.4731889626937,4.783117785926644,-4.246587352146066,0.3943578089793933,-0.5898773725793122,1.2340076053657738,0.0,0.0,0.0,nm,0.0
2.048543930053711,40.06233944700823,4.3363053107424685,-3.6653253201512515,0.30662668513842284,0.15476001024442487,0.44562564400763693,0.2541159206197042,-0.08118805591982131,-0.010881444349797485,nm,0.0
2.0521657466888428,45.25893556628702,3.852685070454544,-4.685132660982219,-0.2148091890377288,0.455580371264848,-0.30893070995374083,0.3790544531693708,-0.03562594341599862,-0.16663177050960665,nm,0.0
2.068319797515869,47.20360459316104,4.041923359407842,-5.289481208992497,-0.3646873907282368,0.5217319014584328,-0.5821156252380625,0.3965118028690153,-0.00043238728960103457,-0.17319339558420543,nm,0.0
2.122436761856079,49.14970470672867,4.330268336537779,-5.78456495252518,-0.4829526152694877,0.5854747830047866,-0.7830615233165377,0.39853609126411677,0.01587902413458516,-0.15068070374874637,nm,0.0
2.1292293071746826,55.00940102474036,5.001518760876616,-4.279249782443784,-0.360156187607343,0.9031928345948232,-1.34034214204516,0.024798206107333475,-0.0036194564023874156,0.06712262634295156,nm,0.0
2.1441562175750732,54.71571552081262,4.917601053089761,-3.9795625843341735,-0.24087351484136646,0.7084677475811935,-1.3246797075378898,-0.053491115311545004,-0.015440174859451813,0.04035469520623684,nm,0.0
2.1889967918395996,46.485025054101094,2.049550827634583,-2.143822153626673,-0.1343650015724709,-1.4642086198476771,0.8308155054232188,-0.5431506807489666,-0.10914405092102482,0.13907814964337123,nm,0.0
2.1934914588928223,43.098359269003524,1.8552453420425725,-1.3813440159064296,0.011949895870255023,-1.6353770398855234,1.5859090393362216,-0.6718035402106434,-0.02301202709269025,0.16412647289037538,nm,0.0
2.20764422416687,39.3430813549065,2.1442610760656895,-0.9221173551573753,0.23462411953050524,-1.389812644420238,1.8454312560507367,-0.7433367166829576,0.06789086514976302,0.1251149918615667,nm,0.0
2.213064670562744,35.873780849586765,2.7329317141345935,-1.0075076994239252,0.5343653192394582,-1.0221157199259923,1.8232600129823107,-0.6851316975232584,0.12413606541364382,0.03312084883209457,nm,0.0
2.2250301837921143,33.141309239766606,3.4741584620347297,-1.5185712131771762,0.7714773623278034,-0.7768720333265287,1.8024937454732743,-0.5362149500359209,0.15430687942624577,-0.049519256427140494,nm,0.0
2.2443079948425293,30.72313633558643,4.569437794119784,-2.788491336445076,0.7269290095860502,-0.2809069646402833,1.413286587574257,-0.12262909086943716,0.07738833094326177,-0.09462039810938672,nm,0.0
2.2563178539276123,30.88305417589259,4.621685523263074,-3.020827797882161,0.5419625475015712,-0.10301585745347842,1.1709823487551205,0.03859734462376769,0.0013384213035280614,-0.059804784509474095,nm,0.0
2.259657859802246,31.85925435476796,4.474740676650283,-3.0155790249340546,0.28065797669060305,0.02547915310828446,0.9063439674152173,0.19925488215770687,-0.047094654279663827,-0.009439201562780199,nm,0.0
2.2677066326141357,33.543574907264336,4.265051065681962,-2.8322443700849935,0.05840921675298484,0.09266106069797664,0.720856642964941,0.33999795608691946,-0.0662933259930087,0.014835518109153298,nm,0.0
2.2964425086975098,37.91306757886805,4.189596994346008,-2.850533112419593,-0.11632345815284041,0.059754763484449885,0.19526181834435702,0.4661593479582433,-0.0158442037404777,-0.06363669666842865,nm,0.0
2.298748016357422,40.07618420194377,4.515161862537029,-3.2524432630171014,-0.08588702812314791,0.03409971648786147,-0.027855817361775666,0.44100750098209357,0.03629505436138734,-0.12507756838181913,nm,0.0
2.3075673580169678,41.91323752070671,5.0226295603274975,-3.876614991835389,-0.033766464713598475,-0.0058679791610324415,-0.3788115560309009,0.37827555004354624,0.0731128072419732,-0.1675357459549251,nm,0.0
2.3452796936035156,44.72604712921891,5.9810547817368445,-5.033204135081101,-0.06856796203567471,0.09313229205555525,-0.7299264147211301,0.2552715586474233,0.0581288204869893,-0.13789051622819581,nm,0.0
2.3480637073516846,46.16089524721884,6.122255108901208,-5.29732773444099,-0.3400571165423149,0.47393749802652674,-0.9685711706539872,0.12252254123361346,-0.023153229761549276,-0.02445287557262795,nm,0.0
2.366793155670166,46.46024934939252,6.021624883616538,-5.009985522895738,-0.5060692664944567,0.6919308636495266,-1.0026914845211756,0.06332908625945304,-0.030073392888820525,0.027314480201726127,nm,0.0
2.37178897857666,46.51543998828318,6.011518820027058,-4.63105825951304,-0.6320979305972999,0.8916387549654606,-1.0570206211126756,0.01657161551337627,-0.007556356395763194,0.05451019299480828,nm,0.0
2.3740901947021484,46.39729183046944,6.185779498693566,-4.299150628213178,-0.6596311415798647,1.013068057127024,-1.0581651574276985,-0.01496271172542892,0.03202023167311876,0.05656792159928567,nm,0.0
2.408155679702759,44.93162601071349,7.296221048751411,-3.59671113947673,-0.29028214726233065,0.8623030606072063,-1.1206686531057946,-0.12212610458738539,0.063310597364566,0.04615541850807332,nm,0.0
2.426236391067505,44.07550944126447,7.283865716645048,-3.2941052339501806,-0.14059595880203077,0.6003871300997606,-1.0404991648044346,-0.16429481419441874,0.0027864956977626675,0.07001228947429193,nm,0.0
2.428225517272949,43.100756390752416,6.887308243341581,-2.8121712566700565,-0.054118305730902594,0.2638746874669568,-0.8204809487731013,-0.19193948516541087,-0.07410019450918015,0.10839117322755537,nm,0.0
2.431781768798828,42.004461853548854,6.140655411352805,-2.1690153800568623,-0.0024674777271556907,-0.13490582036996304,-0.4739757082261893,-0.21847481292060478,-0.14517922069837866,0.1416950999128632,nm,0.0
2.453535556793213,39.491348815022604,4.3506920831637705,-0.7824157080987939,0.10178631230740033,-1.054268861184829,0.7550089398772093,-0.25948708676734483,-0.1728810160815207,0.14369162191045917,nm,0.0
2.460728645324707,37.87864896370728,3.773702125682295,-0.35565652892649935,0.1914064508129626,-1.2928589795000762,1.3113741803680725,-0.31666291630944327,-0.11823498609107416,0.09697218631692225,nm,0.0
2.4688382148742676,36.050034794369296,3.5343598737272908,-0.39680502874956247,0.31516023465951964,-1.3009199076325606,1.5051084349682236,-0.3591156810739073,-0.051591941896591706,0.016071532963054327,nm,0.0
2.494783401489258,33.26965614137415,3.5817923798490416,-1.738939378974754,0.5258632330172622,-1.1170138212743517,1.5954626747819418,-0.22444442632938053,0.011824291613522693,-0.14980728312707975,nm,0.0
