timestamp,roll,pitch,yaw,acc_x,acc_y,acc_z,gyro_x,gyro_y,gyro_z,markers,motor_input
6.000988000000007,-26.51856853278683,-42.24162457946044,-38.07327898438102,0.8127338582951554,0.26589786361987783,-1.2555297950417537,0.1780719117237502,0.16484410980775643,0.03862894996129056,nm,0.0
6.010480000000001,-25.490745161254466,-40.42362729500909,-37.9764546295699,0.33158131738343166,0.672000509452917,-0.9505738720756589,0.34171565286570377,0.1788525168624332,0.1600031949737534,nm,0.0
6.022452999999999,-23.585815866014816,-38.02204437584453,-37.71016993956169,-0.20291422494172376,1.0391139986707059,-0.4525311938841117,0.5245192745892093,0.18540573314810888,0.29870500363490904,nm,0.0
6.029687999999993,-20.803921957186585,-35.29320818756378,-37.16143567078449,-0.6708367198522719,1.3423691257794617,0.3503847790081025,0.6836780538552116,0.14874750223522631,0.445884768929853,nm,0.0
6.039197999999999,-17.13836807380949,-32.54721530333835,-36.4000027784979,-1.0029581568899288,1.2987909258870374,1.201140530118072,0.8144190849944484,0.06178854445367726,0.5645137462058974,nm,0.0
6.077310999999995,-2.083153589394426,-28.039608051411808,-34.711088848674024,-0.26429470472431726,-1.2861671855262709,2.349684156338723,0.39882049138530423,-0.32685765423701957,0.27409254756968354,nm,0.0
6.0868289999999945,-0.5424851520465297,-29.615426367028416,-34.73769265143795,-0.15219825431933925,-1.2300495643028524,2.3234857232303803,0.04220628374065652,-0.4274641886591631,0.1424270154014465,nm,0.0
6.105883000000006,-1.8031139524617514,-35.11639966262929,-34.88752775223026,-0.42290258319547225,-0.8708105696671665,0.8896507296795865,-0.46752991423883933,-0.39639849679905753,-0.12818576120065045,nm,0.0
6.115388999999993,-3.236936025517668,-38.26049170509191,-35.04143516058869,-0.7140056821933758,0.06622862822733204,0.6408706611127725,-0.55013347639528,-0.3981597415164145,-0.20176904336534818,nm,0.0
6.124911999999995,-5.600045312246805,-41.27022967442126,-35.32922829377274,-0.6485054090897975,0.13314608605242392,-0.3028522188478377,-0.6456780289098809,-0.29699566536808225,-0.35895905285496066,nm,0.0
6.134269000000003,-8.092929066359988,-43.74731400222566,-35.64664244133961,-0.5520310672127383,0.19045208382387616,-1.0496064602502417,-0.5892239568493849,-0.2041467367335671,-0.39881424754439354,nm,0.0
6.146236000000002,-10.624913899793453,-45.700914212393954,-35.856898738414245,-0.2808800827637557,0.4126860083290148,-1.296196179768082,-0.5230573009844323,-0.12073684719279239,-0.3962255375089643,nm,0.0
6.153287000000006,-13.658441410197758,-47.07621607207248,-35.912458257673705,0.1547762703268917,-0.1790302276229342,-1.5882266117177586,-0.5035488627203647,0.00896353883107239,-0.4476679047045141,nm,0.0
6.1721840000000014,-18.74707399336407,-47.798368468746375,-35.56970290339048,0.9832442488372081,-0.29673687153588785,-1.4286447000665772,-0.2791100653998371,0.16053552420940947,-0.30943471182104554,nm,0.0
6.200706999999994,-25.42797703770334,-47.66278658729409,-35.017393478635746,1.2888838236951723,-0.3221855801934534,-1.4460300086715185,-0.1874601588550048,0.14081647633454236,-0.24448417636757558,nm,0.0
6.2102119999999985,-26.986675738223724,-47.428409396315864,-35.184416599533,1.0891125916459476,-0.375056668966766,-1.6505605144383328,-0.14972746488283445,0.14713382072383133,-0.25837063010040856,nm,0.0
6.219825999999998,-27.891415120170585,-46.98531969236177,-35.42212458520193,0.8133801954392051,0.005398161833570976,-1.6129377376360017,-0.05363870097876919,0.13122489079615623,-0.1750626034085697,nm,0.0
6.231701000000001,-28.196550792064148,-46.08337503005349,-35.68840573902474,0.5359179540290037,0.6181813184120507,-1.3321232539188281,0.06633921306528838,0.15907748298032764,-0.09217584110554189,nm,0.0
6.238737999999998,-27.93422420051359,-44.42833885594368,-35.98952998653435,0.164796919681266,0.7654270038361123,-1.0687185063932545,0.21963316684172962,0.2346247258786576,-0.017609823547539705,nm,0.0
6.248256999999995,-26.739895289439744,-41.982089811428175,-36.146118637746234,-0.1455503911574221,1.3344541536056787,-0.37047965327415666,0.42519649462805603,0.28067218966874197,0.13743079340262138,nm,0.0
6.257948999999996,-24.92781841579173,-38.97965830471309,-35.99984641098637,-0.4716769172961017,1.4689402213115552,0.43839175202255776,0.5734087482720126,0.3104160631330276,0.26938036183817327,nm,0.0
6.267454000000001,-22.189001133849892,-35.80974065827306,-35.470343173970164,-0.6970201916780803,1.205433373828158,1.1749054372617829,0.7213109032368636,0.2472943894737248,0.4428346122077403,nm,0.0
6.276966999999999,-18.045842278528557,-33.05772373740676,-34.57261692275999,-0.8566282721143244,1.137769444962655,2.075748335720847,0.8742945568549626,0.044609568483665055,0.6515316355838682,nm,0.0
6.286477000000005,-13.207259084169412,-31.21973889880614,-33.56281385411481,-0.6608394935744981,0.8920203170616011,3.0852630537219348,0.8842973996775694,-0.16895928061607776,0.7191082698425334,nm,0.0
6.298456000000002,-8.910955857008481,-30.39828004266873,-32.82759165055078,-0.5382920433418268,-0.6415209892308698,2.713157589872058,0.7075996477440536,-0.2811457103059127,0.5884455693459774,nm,0.0
6.305508000000003,-4.458521646579671,-30.880756903102025,-32.291952784140705,-0.21703413258252285,-1.3591988770806382,2.5155848379450148,0.5944949196795392,-0.508449228723569,0.5614655888741663,nm,0.0
6.315073999999996,-1.2133253261283157,-32.81238824611917,-31.928579423384623,-0.3788969760832688,-0.8115735062405943,2.9173992575797283,0.262477482198752,-0.6351833990979024,0.4151820256036235,nm,0.0
6.324592999999993,-0.580799362051735,-35.382717326600485,-32.016747111523365,-0.464346342530293,-1.4976596456820699,1.1163027743521903,-0.18304812424494826,-0.5063569508227511,0.053146744491069806,nm,0.0
6.336579,-0.08067744128775461,-38.30667677384302,-32.53953414129665,-0.7437938696037711,-1.1158650345389394,0.5347656154204267,-0.24446832332031757,-0.5520349670559145,-0.044494374039339965,nm,0.0
6.352985000000004,-2.025930765566447,-43.95703669749324,-34.33273136306561,-0.8350180983118193,-0.42015852759555655,-0.6787516905240029,-0.5135745143234679,-0.2978361500026665,-0.4384299764746938,nm,0.0
6.3625219999999985,-4.036863969454234,-45.84869708789978,-34.98065402221271,-0.6147190451571926,-0.12220943576853067,-1.2531825867956445,-0.4509300953527549,-0.1634401458589849,-0.4122707954221065,nm,0.0
6.371955999999997,-6.721316815857042,-47.23228639187239,-35.17323537733812,-0.3006700832880843,0.3198224880032607,-1.2159355527139677,-0.46322345370913864,-0.0281624196825725,-0.42646952408397343,nm,0.0
6.409994999999995,-20.24283481013415,-47.07296958335017,-34.79251166240885,1.3242600795284427,-0.4445062851788527,-1.4644721352367216,-0.29059914920026586,0.2971434255525458,-0.4893352894435453,nm,0.0
6.419447000000005,-22.678312870183017,-46.68399864157697,-35.43824696337179,1.3804875610312368,-0.6103454634364799,-1.4415354761750117,-0.23170478260644323,0.2426226022639821,-0.48060182807312735,nm,0.0
6.4289540000000045,-24.20787520699233,-46.23425503938242,-36.423099561869385,1.3416841034912264,-0.12477757796254633,-1.2928910180384952,-0.12220005202593605,0.18409283596113654,-0.4143582264699088,nm,0.0
6.438466000000005,-25.476922393953423,-45.679186024907,-37.47048563771567,1.136411455409513,-0.054933809915749095,-1.3457008254105558,-0.07892385619366414,0.18256007844918515,-0.38736307881846643,nm,0.0
6.447971999999993,-26.238785649699363,-44.83816024786837,-38.19732800142049,0.8029464433434784,0.18832876578933921,-1.1909271255207805,0.01376549733401929,0.1865074940693604,-0.24880195789939655,nm,0.0
6.459948999999995,-26.23596434823646,-43.35415780339021,-38.43675983774663,0.5297490077088214,0.7837927381089411,-0.7710639794457351,0.1799086128775359,0.2204617257200019,-0.042526556342621494,nm,0.0
6.467179000000002,-25.521289748883742,-41.02803459979302,-38.23995800626103,0.14623764898468322,1.0197018688475894,-0.3796390900259906,0.3677325211875,0.28691722476875764,0.14027789569903168,nm,0.0
6.486197000000004,-20.506262972804798,-35.26041188991741,-36.57957713511821,-0.6154261472173201,1.3137218296652957,1.1583267193117388,0.754292228497068,0.1370032227146147,0.5873733050531655,nm,0.0
6.495694999999998,-15.879949667225107,-32.968192740832144,-35.47318569708098,-0.8810942628483195,1.2267754500090386,2.203878359650122,0.887949838091026,-0.0939697197601414,0.743295139088822,nm,0.0
6.505229999999997,-10.51177566129298,-31.48184481287856,-34.633129782742614,-0.7708719192200647,0.9076566385572337,3.199703531111305,0.9138978475986882,-0.29293703096673884,0.742424100388875,nm,0.0
6.526762000000005,-1.4879524088639824,-31.068622971624205,-34.35795386571765,-0.4254219966116248,-1.3716493156261926,2.2298364245224587,0.583007734140292,-0.4978828861156733,0.446191236623903,nm,0.0
6.543358999999995,2.644024596798182,-35.01156367825684,-34.82662447390336,-0.4765526535723009,-1.5625267706662045,1.0713174591142018,-0.14159578609719609,-0.47154148140861313,0.03507805594008114,nm,0.0
6.552880000000002,2.8902784058754394,-37.732523150255446,-35.068718857408484,-0.7666815328977599,-1.0361215462681097,0.6462858869079464,-0.2792869578796869,-0.4835598822777825,-0.01966705937924229,nm,0.0
6.564871999999994,2.047244582054755,-40.67070700563186,-35.22546583931641,-1.0361934351349105,-0.10022671287366833,0.44075444793598656,-0.44557367523185787,-0.41998403658314376,-0.13798316797780938,nm,0.0
6.571769000000003,-0.3359773632417707,-43.21102862486551,-35.33922711158556,-0.7723322983812709,-0.2228848209848359,-0.669471254191873,-0.5839131134072155,-0.22433262893270303,-0.3409416520438343,nm,0.0
6.581356999999997,-2.901628378972061,-45.14256628090449,-35.382052815792086,-0.50702602743962,0.07573983241479178,-1.3495702653526422,-0.5251037208420921,-0.1162526102805777,-0.36515514349922135,nm,0.0
6.590787000000006,-5.747311315670808,-46.70181252437963,-35.47359863378228,-0.1172785935775238,0.24945552035440874,-1.546812075945851,-0.5052952165394439,-0.0385808292702794,-0.4256312036931318,nm,0.0
6.600302999999997,-9.03982655195792,-47.82313448791282,-35.69928293814607,0.365879159389252,-0.2386979430454584,-1.7382597217848148,-0.4964646481364643,0.06401428481174895,-0.5267484101315306,nm,0.0
6.609791999999999,-11.945250884856536,-48.3218648418985,-36.04436669674888,0.7606271107545108,-0.6409642386129454,-1.7922753786557215,-0.376039632442442,0.13328393726626261,-0.49876912529279144,nm,0.0
6.657230999999996,-23.827447245482848,-47.21676594733377,-38.017423517389346,0.9429443082488619,-0.0020718954912349956,-1.5438481345835866,-0.1199683042352697,0.284424466781548,-0.3699771155422446,nm,0.0
6.666743999999994,-25.413488460212356,-45.9296714315422,-38.21296982082723,0.6470607096703698,0.42490578105445975,-1.3614523263847031,-0.017389161326386297,0.325125706148605,-0.2647471867658323,nm,0.0
6.676243999999997,-26.227791814488704,-43.950186596256756,-38.221020823455184,0.38786112356221686,0.874375079287989,-1.0148448737243527,0.1498874572764673,0.3704077453308024,-0.11171524531928806,nm,0.0
6.6857339999999965,-26.066678202403725,-41.154014402733836,-38.06807389885287,0.09484971778309031,1.1734394606759015,-0.48870957108832686,0.36013062379515687,0.413070660985009,0.057314139001796924,nm,0.0
6.695424000000003,-24.64737830246789,-37.7439807472048,-37.65239867680584,-0.24266751502779965,1.336954843055151,0.2157994884761376,0.5884200736339471,0.39143855355960006,0.2681838889568715,nm,0.0
6.707412000000005,-21.798581789377614,-34.27820748500219,-36.87131062619367,-0.5672709680415536,1.3883388015536655,1.075452179086493,0.7841495161139327,0.2594403360609412,0.4953138715773373,nm,0.0
6.723968999999997,-11.85972247203777,-29.834439825454766,-34.6488639157877,-0.5363873575969812,0.9203374869392669,3.098157729462288,0.9781662211608101,-0.30268279701149187,0.8015922854453218,nm,0.0
6.7525619999999975,1.1864521449078245,-32.27986331985301,-32.84468708510762,-0.2520994045356766,-0.9115351331909213,3.097592555719658,0.2447794931381848,-0.7049538652946221,0.45647320266648495,nm,0.0
6.771636000000001,2.0183422648499043,-38.15830627073416,-33.1200959097315,-0.7395441047163925,-1.147914080709407,0.2643528676131292,-0.272598446781864,-0.5823229771483668,-0.01776837557283508,nm,0.0
6.783620999999997,1.9971356819967003,-41.31466666552912,-33.93158444118973,-1.2166035508768,0.22741287294613063,0.4128309641101723,-0.35140945756459036,-0.5393094342319963,-0.16496276868502985,nm,0.0
6.790514000000002,-0.008644919875842025,-43.88373205928694,-35.02008349121548,-0.7961257340308328,-0.36241607150059274,-0.9900622667896728,-0.53517849807469,-0.27087360698108737,-0.4889335813628393,nm,0.0
6.800090999999995,-2.047394150189683,-45.81578687613599,-35.84331580591858,-0.4451515891254247,-0.187349582983904,-1.617556256402254,-0.4609238192886531,-0.1615274371351158,-0.4513275961534606,nm,0.0
6.809529999999995,-4.676764493428978,-47.34978246825253,-36.17296962276303,-0.10757453177682956,0.42275243048005184,-1.3580766387919903,-0.4746549902853055,-0.049694528255654236,-0.4464580458153789,nm,0.0
6.830994000000004,-12.34214456236527,-48.172459554763364,-35.70241721168501,0.9999992123147539,-0.8136031634690785,-1.939296579107682,-0.38768348045767526,0.2698317137730593,-0.4550285122303235,nm,0.0
6.837980999999999,-15.16017818295807,-47.73414648328959,-35.38029989003062,1.2489460868780815,-0.03903258737073044,-1.5587104779258145,-0.259294942026527,0.2776443114776207,-0.3509315652981457,nm,0.0
6.847479000000007,-18.18674482519789,-47.27347351143348,-35.467851819176566,1.448576917874315,-0.5954184027152741,-1.7399438826782112,-0.28340068951466363,0.2992431896743252,-0.4603582417425647,nm,0.0
6.885475,-20.45391900994809,-42.746971313311846,-38.1926029409875,0.2346657575342119,0.7818596700159894,-0.5910710609982612,0.2836602285812123,0.21572859046330178,0.004788346315184763,nm,0.0
6.895160000000004,-19.212233064330846,-40.119308548005165,-37.98773467587017,-0.24815986585014624,1.341827798078444,0.191644291671985,0.4677715549097501,0.2858333888455662,0.20918190934057512,nm,0.0
6.907122999999999,-17.5917965404956,-36.79342615254576,-37.17923302969796,-0.7562046084830263,1.2465075751200354,0.7710778383258547,0.6045730000251986,0.3591975315231532,0.3666917957292567,nm,0.0
6.914170999999996,-15.056352911165163,-33.51345753685625,-35.83763066446341,-0.9767038890942522,1.1681109640429828,1.4041904290648461,0.7221611475260876,0.26699172782606256,0.5631000456269052,nm,0.0
6.945233000000002,-5.612265245442235,-28.65805929215384,-32.969616393212206,-0.1680275401027327,-0.895455505372551,2.2227249257699455,0.48769690270302735,-0.14479909064826368,0.3350867818137278,nm,0.0
6.952325999999999,-2.901350567994051,-29.15442767566519,-33.12276828959687,0.13213700494794062,-0.9907483196846688,2.274108169343305,0.34402824362806383,-0.3566265347547248,0.2311005609653834,nm,0.0
6.961856999999995,-1.6567776367629643,-31.08852564304319,-33.61750153964496,0.031252600227493696,-0.8484500241546535,2.298665685583311,-0.03305157219003082,-0.456192529841275,0.025408620922973486,nm,0.0
6.971378000000001,-1.752485978022337,-33.61281043149304,-34.3907320632372,-0.18057486876816511,-1.1630820569570397,0.8464262652941444,-0.29637375268870436,-0.424185459754106,-0.16531905108162048,nm,0.0
6.980880999999997,-1.4354212015505534,-36.53829485595152,-35.27302038614637,-0.49646339668979167,-0.3844906286523964,0.6136281466418614,-0.2923821681100587,-0.5247384021362319,-0.14006073330502866,nm,0.0
6.990403000000001,-1.729006634930255,-39.62562335694035,-36.17523457994468,-0.647790025141893,0.16108314206040616,0.06644626136555443,-0.39927398141892784,-0.48906460772094357,-0.21633930985910452,nm,0.0
6.999726999999993,-2.857112348269063,-42.43068687335221,-36.9205438179215,-0.5009692129587481,-0.2535493938155505,-1.0381585883902231,-0.4725309580634037,-0.3638806560704803,-0.296420186021011,nm,0.0
