timestamp,roll,pitch,yaw,acc_x,acc_y,acc_z,gyro_x,gyro_y,gyro_z,markers,motor_input
6.505229999999997,-10.51177566129298,-31.48184481287856,-34.633129782742614,-0.7708719192200647,0.9076566385572337,3.199703531111305,0.9138978475986882,-0.29293703096673884,0.742424100388875,nm,0.0
6.526762000000005,-1.4879524088639824,-31.068622971624205,-34.35795386571765,-0.4254219966116248,-1.3716493156261926,2.2298364245224587,0.583007734140292,-0.4978828861156733,0.446191236623903,nm,0.0
6.543358999999995,2.644024596798182,-35.01156367825684,-34.82662447390336,-0.4765526535723009,-1.5625267706662045,1.0713174591142018,-0.14159578609719609,-0.47154148140861313,0.03507805594008114,nm,0.0
6.552880000000002,2.8902784058754394,-37.732523150255446,-35.068718857408484,-0.7666815328977599,-1.0361215462681097,0.6462858869079464,-0.2792869578796869,-0.4835598822777825,-0.01966705937924229,nm,0.0
6.564871999999994,2.047244582054755,-40.67070700563186,-35.22546583931641,-1.0361934351349105,-0.10022671287366833,0.44075444793598656,-0.44557367523185787,-0.41998403658314376,-0.13798316797780938,nm,0.0
6.571769000000003,-0.3359773632417707,-43.21102862486551,-35.33922711158556,-0.7723322983812709,-0.2228848209848359,-0.669471254191873,-0.5839131134072155,-0.22433262893270303,-0.3409416520438343,nm,0.0
6.581356999999997,-2.901628378972061,-45.14256628090449,-35.382052815792086,-0.50702602743962,0.07573983241479178,-1.3495702653526422,-0.5251037208420921,-0.1162526102805777,-0.36515514349922135,nm,0.0
6.590787000000006,-5.747311315670808,-46.70181252437963,-35.47359863378228,-0.1172785935775238,0.24945552035440874,-1.546812075945851,-0.5052952165394439,-0.0385808292702794,-0.4256312036931318,nm,0.0
6.600302999999997,-9.03982655195792,-47.82313448791282,-35.69928293814607,0.365879159389252,-0.2386979430454584,-1.7382597217848148,-0.4964646481364643,0.06401428481174895,-0.5267484101315306,nm,0.0
6.609791999999999,-11.945250884856536,-48.3218648418985,-36.04436669674888,0.7606271107545108,-0.6409642386129454,-1.7922753786557215,-0.376039632442442,0.13328393726626261,-0.49876912529279144,nm,0.0
6.657230999999996,-23.827447245482848,-47.21676594733377,-38.017423517389346,0.9429443082488619,-0.0020718954912349956,-1.5438481345835866,-0.1199683042352697,0.284424466781548,-0.3699771155422446,nm,0.0
6.666743999999994,-25.413488460212356,-45.9296714315422,-38.21296982082723,0.6470607096703698,0.42490578105445975,-1.3614523263847031,-0.017389161326386297,0.325125706148605,-0.2647471867658323,nm,0.0
6.676243999999997,-26.227791814488704,-43.950186596256756,-38.221020823455184,0.38786112356221686,0.874375079287989,-1.0148448737243527,0.1498874572764673,0.3704077453308024,-0.11171524531928806,nm,0.0
6.6857339999999965,-26.066678202403725,-41.154014402733836,-38.06807389885287,0.09484971778309031,1.1734394606759015,-0.48870957108832686,0.36013062379515687,0.413070660985009,0.057314139001796924,nm,0.0
6.695424000000003,-24.64737830246789,-37.7439807472048,-37.65239867680584,-0.24266751502779965,1.336954843055151,0.2157994884761376,0.5884200736339471,0.39143855355960006,0.2681838889568715,nm,0.0
6.707412000000005,-21.798581789377614,-34.27820748500219,-36.87131062619367,-0.5672709680415536,1.3883388015536655,1.075452179086493,0.7841495161139327,0.2594403360609412,0.4953138715773373,nm,0.0
6.723968999999997,-11.85972247203777,-29.834439825454766,-34.6488639157877,-0.5363873575969812,0.9203374869392669,3.098157729462288,0.9781662211608101,-0.30268279701149187,0.8015922854453218,nm,0.0
6.7525619999999975,1.1864521449078245,-32.27986331985301,-32.84468708510762,-0.2520994045356766,-0.9115351331909213,3.097592555719658,0.2447794931381848,-0.7049538652946221,0.45647320266648495,nm,0.0
6.771636000000001,2.0183422648499043,-38.15830627073416,-33.1200959097315,-0.7395441047163925,-1.147914080709407,0.2643528676131292,-0.272598446781864,-0.5823229771483668,-0.01776837557283508,nm,0.0
6.783620999999997,1.9971356819967003,-41.31466666552912,-33.93158444118973,-1.2166035508768,0.22741287294613063,0.4128309641101723,-0.35140945756459036,-0.5393094342319963,-0.16496276868502985,nm,0.0
6.790514000000002,-0.008644919875842025,-43.88373205928694,-35.02008349121548,-0.7961257340308328,-0.36241607150059274,-0.9900622667896728,-0.53517849807469,-0.27087360698108737,-0.4889335813628393,nm,0.0
6.800090999999995,-2.047394150189683,-45.81578687613599,-35.84331580591858,-0.4451515891254247,-0.187349582983904,-1.617556256402254,-0.4609238192886531,-0.1615274371351158,-0.4513275961534606,nm,0.0
6.809529999999995,-4.676764493428978,-47.34978246825253,-36.17296962276303,-0.10757453177682956,0.42275243048005184,-1.3580766387919903,-0.4746549902853055,-0.049694528255654236,-0.4464580458153789,nm,0.0
6.830994000000004,-12.34214456236527,-48.172459554763364,-35.70241721168501,0.9999992123147539,-0.8136031634690785,-1.939296579107682,-0.38768348045767526,0.2698317137730593,-0.4550285122303235,nm,0.0
6.837980999999999,-15.16017818295807,-47.73414648328959,-35.38029989003062,1.2489460868780815,-0.03903258737073044,-1.5587104779258145,-0.259294942026527,0.2776443114776207,-0.3509315652981457,nm,0.0
6.847479000000007,-18.18674482519789,-47.27347351143348,-35.467851819176566,1.448576917874315,-0.5954184027152741,-1.7399438826782112,-0.28340068951466363,0.2992431896743252,-0.4603582417425647,nm,0.0
6.885475,-20.45391900994809,-42.746971313311846,-38.1926029409875,0.2346657575342119,0.7818596700159894,-0.5910710609982612,0.2836602285812123,0.21572859046330178,0.004788346315184763,nm,0.0
6.895160000000004,-19.212233064330846,-40.119308548005165,-37.98773467587017,-0.24815986585014624,1.341827798078444,0.191644291671985,0.4677715549097501,0.2858333888455662,0.20918190934057512,nm,0.0
6.907122999999999,-17.5917965404956,-36.79342615254576,-37.17923302969796,-0.7562046084830263,1.2465075751200354,0.7710778383258547,0.6045730000251986,0.3591975315231532,0.3666917957292567,nm,0.0
6.914170999999996,-15.056352911165163,-33.51345753685625,-35.83763066446341,-0.9767038890942522,1.1681109640429828,1.4041904290648461,0.7221611475260876,0.26699172782606256,0.5631000456269052,nm,0.0
6.945233000000002,-5.612265245442235,-28.65805929215384,-32.969616393212206,-0.1680275401027327,-0.895455505372551,2.2227249257699455,0.48769690270302735,-0.14479909064826368,0.3350867818137278,nm,0.0
6.952325999999999,-2.901350567994051,-29.15442767566519,-33.12276828959687,0.13213700494794062,-0.9907483196846688,2.274108169343305,0.34402824362806383,-0.3566265347547248,0.2311005609653834,nm,0.0
6.961856999999995,-1.6567776367629643,-31.08852564304319,-33.61750153964496,0.031252600227493696,-0.8484500241546535,2.298665685583311,-0.03305157219003082,-0.456192529841275,0.025408620922973486,nm,0.0
6.971378000000001,-1.752485978022337,-33.61281043149304,-34.3907320632372,-0.18057486876816511,-1.1630820569570397,0.8464262652941444,-0.29637375268870436,-0.424185459754106,-0.16531905108162048,nm,0.0
6.980880999999997,-1.4354212015505534,-36.53829485595152,-35.27302038614637,-0.49646339668979167,-0.3844906286523964,0.6136281466418614,-0.2923821681100587,-0.5247384021362319,-0.14006073330502866,nm,0.0
6.990403000000001,-1.729006634930255,-39.62562335694035,-36.17523457994468,-0.647790025141893,0.16108314206040616,0.06644626136555443,-0.39927398141892784,-0.48906460772094357,-0.21633930985910452,nm,0.0
6.999726999999993,-2.857112348269063,-42.43068687335221,-36.9205438179215,-0.5009692129587481,-0.2535493938155505,-1.0381585883902231,-0.4725309580634037,-0.3638806560704803,-0.296420186021011,nm,0.0
7.011700000000005,-3.8430763612140844,-44.727659439876604,-37.244729477102254,-0.2900020112520385,0.01094152110553981,-1.399717048191259,-0.39284443423479104,-0.2947546048441404,-0.1994770291999492,nm,0.0
7.018750999999995,-5.42650629886352,-46.49424969822526,-37.18229882640382,0.07566507805340239,-0.033912182157047,-1.6557471043760077,-0.3922569366606018,-0.16153722684965618,-0.2120915682436509,nm,0.0
7.0282629999999955,-7.5496205466183826,-47.63531625723439,-36.89855843372102,0.5249960414622891,-0.62513589468573,-1.840888342804104,-0.37076451350350653,-0.02177937936051321,-0.2519970064906611,nm,0.0
7.037769999999995,-9.288178249749881,-48.12510831424411,-36.59516620357619,0.8463328633142488,-0.7046032021481263,-1.848837457052268,-0.2479625616424069,0.047347897045349266,-0.19470277224418495,nm,0.0
7.047246000000001,-10.77641802310134,-48.30399937607593,-36.524685672039446,1.0109157702418619,-0.4912744754881319,-1.6650224133033857,-0.18326435339628175,0.07584954072258465,-0.20507707214797555,nm,0.0
7.0852589999999935,-15.17915323425033,-44.782030487530776,-44.91564810510017,0.045460690400973156,0.5863310347302193,-1.2551823521011858,0.184269310183264,0.3375539864197444,-0.1421284496418348,nm,0.0
7.094748999999993,-15.443491426854864,-41.79267584547,-46.04720956953838,-0.24108564222907666,1.201234339651413,-0.6531365575985304,0.40075005343372694,0.4288926533138038,0.04704798629828844,nm,0.0
7.104437000000004,-15.03256695877472,-37.74643812042599,-46.72392763403148,-0.548758654041182,1.716264782518083,0.19980620480203026,0.6320611104970134,0.4916593044200053,0.224584613388622,nm,0.0
7.113949000000005,-13.638280454979634,-33.41328757435428,-47.089266048690384,-0.7931086025189469,1.8199246659143888,1.2659889323783695,0.7896630801229245,0.40308875779914044,0.39852439475619916,nm,0.0
7.123467000000005,-11.01182028683016,-29.700770209733665,-47.496090769723,-0.6427449076854334,1.4832271324799156,2.2539132162668163,0.8480855125826932,0.14933078077220976,0.518430467238429,nm,0.0
7.135384000000002,-7.609833847210385,-27.38194217457954,-46.58872140701868,-0.1830128443580309,0.42079013772280016,2.8510495236248827,0.743634208851627,-0.13532049675547828,0.5071775522944004,nm,0.0
7.142493000000002,-4.265803156859914,-26.287842848016318,-48.401608230183,0.4370137807209619,-1.0413278730529463,2.8467949943033557,0.5555323223337689,-0.31674736513955454,0.37212702730930275,nm,0.0
7.152090999999999,-1.6920691415368112,-26.824461530866284,-50.66682302842588,0.4671371998130733,-2.1295544360035144,2.4430712140207866,0.2041682443725251,-0.43849741103811407,0.2652635437569263,nm,0.0
7.171092999999999,-1.130630596241765,-33.16782680643981,-55.17169288561851,-0.360864030066643,-0.9840880667858523,1.1401029736796817,-0.6774521235791388,-0.3179426388428885,-0.04818912177816482,nm,0.0
7.180604000000002,-1.2610123972795484,-37.00773265172356,-58.024576852066154,-0.8153268729589479,-0.4659971463580371,-0.13816162802485019,-0.6675768511425126,-0.40518554210504115,-0.12488178990295534,nm,0.0
7.190036000000006,-0.6140885924985923,-40.85771491733039,-61.42760466336646,-0.5973391749116297,1.1137650821439218,-0.09544448908491436,-0.6300469339733289,-0.47712652401969924,-0.18555407939948687,nm,0.0
7.201911999999993,-1.3273461047113109,-44.12350992464462,-65.20299524894031,-0.7782113159174183,0.3095105084483166,-1.7165343296098032,-0.642265584420191,-0.20150944156914982,-0.4861247841552502,nm,0.0
7.2089579999999955,-1.778315721693536,-46.46415157717393,-66.86710797118079,-0.6047269062211513,0.024807330031306276,-2.2568712664854074,-0.46206573432016995,-0.14401828483852094,-0.39590206582489385,nm,0.0
7.218504999999993,-2.8549190843510006,-47.75629541095858,-67.55956274197376,-0.07793597927093317,0.4262235133300291,-1.793657174930207,-0.30359755246325365,0.023616909426131146,-0.2948055964745876,nm,0.0
7.227985000000004,-5.951393434552102,-47.79303854314865,-67.19821443431636,0.04894445594386827,-0.59611135251238,-2.0276186883828613,-0.17556725398853174,0.3706648337893586,-0.3845403824241429,nm,0.0
7.237464000000003,-9.233664114781616,-46.72109932668001,-65.98703740048533,0.18646524297608078,-1.29495266408301,-2.1070084575036674,0.011111962672598877,0.48362131760803945,-0.23756312471379967,nm,0.0
7.256442000000007,-14.473006415377354,-42.86636750637073,-66.34556960092216,0.853473143106957,-0.8788238918306944,-1.3296176038102812,0.225891350912558,0.5182778267901601,-0.2052356866609471,nm,0.0
7.265972000000005,-16.045937690077817,-40.48794464336787,-67.45954256458717,0.6930129904297538,-0.8336299988171066,-1.3202762766522667,0.3404771084430854,0.38950439632319145,-0.19482086488041306,nm,0.0
7.285353000000001,-15.769204331163893,-35.67867965958508,-68.88451069649024,0.5413115857658042,0.4722240664954462,-0.29254085435579646,0.46244815254830574,0.1132205786134366,-0.1271866686730289,nm,0.0
7.306572000000003,-12.173242663373859,-30.1235002488694,-69.56662060786978,0.08685840131332638,1.966718904646991,1.9479123086153827,0.6686673336207027,-0.1582768519513082,0.2228846704162142,nm,0.0
7.313668000000007,-9.886382780661474,-27.33801067325822,-68.9735404268964,-0.4321221979362395,1.594035322867412,2.4838884166369866,0.6547069938278609,-0.18912468461600238,0.33935799039697184,nm,0.0
7.323177999999999,-6.896799596589233,-25.510688137833956,-67.841421459736,-0.3670131852834697,0.9650597201869167,2.722058289399427,0.528899311240216,-0.3752145597247274,0.49270880320101007,nm,0.0
7.332704000000007,-4.214197326999175,-24.9650332155469,-66.64555580953109,0.05962993117342894,-0.05369205342781985,3.222994836396308,0.2806213531850184,-0.4174851025152334,0.4675113373900855,nm,0.0
7.342207000000002,-2.626198515294551,-25.367483446370645,-65.77964074879249,-0.37772902049354806,-1.833397732440179,2.0491997725539384,0.03460333245346536,-0.3077158298905572,0.30740106970552533,nm,0.0
7.3613129999999956,-0.8975591872231217,-30.92286664741352,-65.04693783191664,-0.24899515931126256,-1.1414346092629093,1.6559320828674782,-0.6344985584978984,-0.32491421209930904,0.02586432874508277,nm,0.0
7.399195000000006,-2.093663458030819,-45.023878798428086,-75.53984462988952,-0.7621576886972625,0.4846920028059266,-1.687939588512775,-0.5983365717194584,-0.023387463709408692,-0.42404665721589413,nm,0.0
7.418149999999997,-6.3748902816561035,-47.97738456255741,-75.21658974822948,0.02070723754033322,0.13298774205264452,-1.7383790715242056,-0.2950241192356318,0.3233259137938587,-0.2788748331180423,nm,0.0
7.427717000000001,-10.317979651565414,-47.74940717267753,-73.7330807920618,-0.00757638965656883,-0.9704911917454179,-2.03003062656971,-0.10794577723624559,0.5130393392100101,-0.2856298183600857,nm,0.0
7.437220999999994,-13.519378430623226,-46.81410681738716,-72.11087514704774,0.43749753426517884,-1.128203389039122,-1.8388311439518281,0.04115233611557762,0.4612568298422092,-0.14291805028998036,nm,0.0
7.446648999999994,-16.286488979250375,-45.80308916924611,-72.18173729879082,0.83698886594558,-1.109815553057297,-1.5461673244018408,0.06925940305606701,0.41652944478676973,-0.18136489224136082,nm,0.0
7.456340999999995,-18.606850808765575,-44.87278925238415,-73.13661111745685,0.5648312560831756,-1.5705832285889114,-1.7264926273355408,0.07327688917628769,0.35791887060344446,-0.30310545614460066,nm,0.0
7.465860000000006,-19.490697452079683,-44.006736235709624,-73.90319737546312,0.7573871726350397,-1.103322514484315,-1.5082631661168242,0.11969763775264476,0.16201185307968854,-0.2734308716645481,nm,0.0
7.475384000000005,-19.719312528426844,-43.152080926561474,-75.20854965993114,0.7841806513686707,-0.5442070596219593,-1.3657211271813179,0.1451971995940174,0.06941421198256616,-0.28898285645071126,nm,0.0
7.487329000000003,-19.762268810718798,-42.079448419878524,-76.44134076281794,0.5362072692483516,-0.060078638850904476,-1.2517187694699083,0.19561114770003105,0.05077976882776602,-0.248798918722515,nm,0.0
7.494372999999996,-19.310404189219454,-40.290170319985165,-77.055979329095,0.43758839592347903,0.6510594256601112,-0.846857869669464,0.35323527031345564,0.00781606118880187,-0.05982976626670132,nm,0.0
