timestamp,roll,pitch,yaw,acc_x,acc_y,acc_z,gyro_x,gyro_y,gyro_z,markers,motor_input
18.507632,15.981603559372028,-41.78374724673269,171.50766729745837,-0.017246954303826344,0.6661095152804397,-0.9282458261191008,-0.28916789623805417,0.5467363465844222,0.13865607623499102,nm,0.0
18.51725300000001,17.62681745502491,-43.2995172484271,170.94508733662553,0.15518855858067815,0.5576170445399492,-1.3404696435245862,-0.20220108860325559,0.34817452622584294,0.10857865281198478,nm,0.0
18.53618399999999,18.337493451541196,-43.50878364220941,170.749992447352,-0.7710865864960434,0.6806533044443873,-1.1636361057664986,-0.029856115144998616,-0.06250814190321924,0.027340919743882298,nm,0.0
18.555198999999988,15.975053005630471,-40.53516370720625,171.77235997077923,-2.071897243026349,0.7075140036931231,-0.1844669886983356,0.16816838750852947,-0.36257158119031135,-0.09031987691931705,nm,0.0
18.57421500000001,12.159536724227973,-37.846237727567875,171.79919671751847,-2.5446058905617863,0.4702715352477136,0.20447931668601838,0.26989140880572904,-0.2517240158096744,-0.3072447675281497,nm,0.0
18.583733999999993,10.678674941284562,-37.095463572913175,171.01905638531917,-2.0715724182334925,0.506704543049425,0.07092873595327377,0.20274910318545836,-0.17188229326147672,-0.33828209608492016,nm,0.0
18.602934000000005,6.485691143015127,-36.54016228722702,169.4471472726011,0.4239246012091977,-0.25396704872340187,0.41352951333967286,0.4363272217857882,-0.0871636022169963,-0.4869305131959812,nm,0.0
18.612441999999987,3.2777138890970687,-36.31910979265104,169.11503210876103,1.2316440742358692,-0.10845120413506339,-0.1940772159386017,0.49349804697532473,-0.12681466020950027,-0.44862863996271946,nm,0.0
18.62194199999999,0.9312254932698444,-35.56347538095183,169.42543719724605,2.8391696437278666,-1.3038703191586816,0.8346935861791924,0.33972493593074615,-0.2065446168231312,-0.2140785396371937,nm,0.0
18.63128599999999,-2.013216043719946,-34.226653679593404,170.14814761172684,3.2470550518975587,-1.4148068691502258,0.7819564430015501,0.42282622491016714,-0.3361024793882007,-0.19276268085151582,nm,0.0
18.64080100000001,-3.672599554383054,-32.425068102581484,171.2162473440335,2.9035250086252415,-1.091861252374169,0.37845893762276944,0.20988998144777068,-0.38790636462531763,0.031174229494546048,nm,0.0
18.650419,-3.068855204285593,-30.435746142940292,172.38103601526694,2.54042118651249,-1.4953560344663064,0.8360829461448627,-0.16495235018262439,-0.36670335283937855,0.29577114686515993,nm,0.0
18.659932999999995,-1.7968507437545338,-28.853316453702462,173.16329839320267,1.5679129312368176,-0.9009773978763596,0.8631865936923635,-0.2657980870566639,-0.273795962753092,0.2817029719130774,nm,0.0
18.669455999999997,0.528664881793482,-28.282720992355024,173.41650709819268,0.3086945651126463,-0.19574906727865587,0.8083059914764111,-0.4261199826499326,-0.05316893400287887,0.2719985471172965,nm,0.0
18.678968999999995,3.8954951613336566,-28.840493899368578,173.17558602538836,-0.5168199013656939,0.02265139708852925,1.403142504975646,-0.5819607223442144,0.19228266535544497,0.2722287405497644,nm,0.0
18.68846400000001,7.132872527752618,-30.229791404936325,172.62303778053573,-1.2268524100373737,0.5584013168301737,0.9320133173394786,-0.5325088373693575,0.3577515359458983,0.20676418892366039,nm,0.0
18.698038999999994,10.440140478633149,-32.6512792432409,172.04654108697292,-1.0490557520761181,0.6181491489380108,0.6183552174889716,-0.5028870595105697,0.5675845364827524,0.22773040571427894,nm,0.0
18.707542999999987,13.195786318070528,-36.09957900645217,171.5357722601276,-0.2866939004844373,0.7787852500302505,0.37535955792944004,-0.36015488200934503,0.7599200042394597,0.20718671552698456,nm,0.0
18.71705800000001,15.23737730371665,-39.74779012524332,171.25264518351617,0.3627894102916129,0.8515941473184945,-0.1648643846846142,-0.21784190136284096,0.781926022057529,0.19278752191381926,nm,0.0
18.745513999999986,16.79545438738987,-44.96007596785293,171.63540200408207,0.4238707962329846,0.4915645526094346,-1.77333726422206,0.008664976146775416,0.13791760335578546,0.015079051230588975,nm,0.0
18.75493499999999,16.440918635437143,-44.13403265668459,171.7502155742192,-0.39796149089364785,0.47901149180535385,-1.0858363244409965,0.01753354670984018,-0.15979144680786297,-0.02812768068628725,nm,0.0
18.764442000000003,15.537485494628966,-42.23627573355463,171.97481444688393,-1.4074171193224263,0.5694179986806172,-0.44073207983782964,0.06828537635510268,-0.38360573582897683,-0.08039974516860299,nm,0.0
18.773953000000006,14.263345492441884,-40.2720226989642,172.23221159511522,-2.5647619911754944,0.5481519412315781,0.40366249739032684,0.1276293547686196,-0.4045804211095762,-0.11843938883409905,nm,0.0
18.783455000000004,12.548340785201592,-38.87119713630673,172.49928828231054,-3.571504979819002,0.6085874477067983,0.8921829182833402,0.21698935413342996,-0.3016496352467984,-0.16702031430567946,nm,0.0
18.793138,10.689970379212372,-38.39266454074195,172.66153361814347,-3.2451044128457434,0.2710849983505266,0.9608867434173916,0.26798774346953375,-0.12084849936689245,-0.20135204782844784,nm,0.0
18.802468000000005,9.046048165932055,-38.75689523627702,172.3252126148914,-2.8276453791389775,0.4255493834857674,-0.04310581503970314,0.2570662598126009,0.05061154563884286,-0.27378014667394107,nm,0.0
18.81216599999999,8.563706644281513,-39.52620137219482,171.79600906351854,-1.4372632446637683,0.17280239057398214,-0.0630873562553353,0.08802232962640212,0.15427680643924854,-0.16790626008936752,nm,0.0
18.82168200000001,7.420848233805587,-40.55960357772724,171.37163344277843,0.09801175706061527,-0.41628474591821274,0.3707306451499025,0.19638575106349115,0.19127428785343115,-0.2328538456684438,nm,0.0
18.831092000000012,4.7779659114677075,-41.31515142199075,171.13322111538122,0.14926673108500405,0.12341710349095959,-1.1208079101355017,0.41135213008559945,0.10118059113661383,-0.39465674226729697,nm,0.0
18.840518000000003,3.216399105529072,-41.516054703067354,171.27518552228855,1.349186561539946,-0.4392473802921331,-0.6953672127257787,0.231278862512309,0.01646661859101893,-0.17834522842952139,nm,0.0
18.859531000000004,-0.7715739256076735,-39.87607576056392,171.95798192588887,2.3539274541921453,-0.7895479944421282,-0.41355886798212654,0.31386203195063345,-0.26321236842308204,-0.23290548039720282,nm,0.0
18.878555000000006,-1.5918669594561068,-35.78049258744733,173.008014394456,3.0074526014760115,-1.3097381984343033,0.750157063739476,-0.08598084078851947,-0.43330861056569414,0.1263600468838822,nm,0.0
18.88825,-0.7959248745658335,-33.774034237256956,173.48276913678995,2.238320665100404,-0.7507455649451518,0.5945967695656057,-0.18381488900074436,-0.3709983556893666,0.1855686102037126,nm,0.0
18.897701000000012,1.1792418225143289,-32.33207997603965,173.84713165810237,1.470896224393495,-0.45776450460693163,0.7947716931538157,-0.36819742693021895,-0.23796443047275648,0.28774208805044454,nm,0.0
18.907218999999998,3.6587090739373376,-31.717398412353255,173.97333542932247,0.49230661406037424,-0.09815562324653226,0.8088433357705543,-0.4387662284902109,-0.06552491936293772,0.2871223513691168,nm,0.0
18.916788999999994,6.227051185267898,-32.32195747680853,173.80261979504215,-0.5501232016847553,0.4007982451929616,0.5829757305146948,-0.42809759383829893,0.17876502611160197,0.23675513253466646,nm,0.0
18.926288999999997,9.195599714942109,-34.09172430926671,173.44754629983493,-0.881767298618858,0.4684519139646856,0.9302197232141474,-0.46269690199016267,0.4190886499292404,0.25254473097127916,nm,0.0
18.9358,11.605174160798315,-36.755416732732115,172.963242127715,-0.6510371214324464,0.5229215739208326,0.6223432957932784,-0.3353752130178394,0.5876604061057202,0.18088942653180132,nm,0.0
18.964172999999988,16.665881775715132,-46.24510879329978,170.9307204867071,0.9073140168364463,0.4525194425677638,-1.3692349485682163,-0.11323174790626003,0.5573331609901887,0.041975432725929226,nm,0.0
18.983272999999997,17.871355119690495,-47.76675037845928,169.3648786006991,0.3244180240456233,0.44976789041963994,-1.7746524950091063,-0.08364694425327035,0.04327596012993367,-0.06046789947828635,nm,0.0
18.992685999999992,17.4983151381213,-46.41794493283697,169.0023021889169,-0.38794333436082223,0.5325525865415435,-1.0533330204048488,-0.009008346096117332,-0.26336970249307795,-0.1283373661704949,nm,0.0
19.00220200000001,16.130527753608938,-44.140135648192306,169.13795294175836,-1.4255460095079375,0.6848781941983287,-0.45431459333685487,0.09468975715545722,-0.47278083988190345,-0.16877498085556994,nm,0.0
19.02122,11.464581973653592,-40.02685415087455,170.27624066120666,-3.468519986941016,0.6211206696488062,1.0246377453890003,0.336637786048012,-0.414816015079176,-0.23186940013681456,nm,0.0
19.030905999999987,8.675640138771394,-39.185408216716965,170.73845542964395,-3.200708289890066,0.1366014877377314,1.213517484065399,0.3893372117040773,-0.22495220595656376,-0.26460106692228524,nm,0.0
19.040231000000006,6.12728276174737,-39.342724224667684,170.5010832287231,-2.8911722143305645,0.4357198461401709,0.15763713025791676,0.38810278586409,-0.02089217060109458,-0.37115031981241214,nm,0.0
19.049923000000007,5.096355465669604,-40.03876864956082,170.0598332618925,-1.593641105609147,0.26088657551718797,0.1522951611394809,0.17350462444136183,0.12312554061864754,-0.22057880769820684,nm,0.0
19.059433000000013,3.621119994148318,-40.99796138235275,169.9966211835089,0.18938382930564787,-0.7215653906897429,0.7563740240482985,0.24805113992245403,0.16296768743007392,-0.20462104844328438,nm,0.0
19.078280000000007,-1.6775792942711873,-41.688557157561554,171.59154765889772,1.4420694223110389,-0.7407555993964878,-0.5578175838679834,0.30455714060143296,-0.03558237685839533,-0.04770097647589445,nm,0.0
19.097300999999987,-5.248994510876148,-38.948195427614664,174.41717630475932,2.346082442889692,-0.9550122620199489,-0.4569078158663048,0.2227621120572556,-0.36680776073570176,0.049694623121221984,nm,0.0
19.106819,-4.856903257520935,-36.494230811540895,175.59272198749142,2.6599557477819573,-1.2683956966626484,0.17286379986624287,-0.11116371406329835,-0.47152593557119216,0.2840204787744591,nm,0.0
19.11644899999999,-3.329675467221975,-33.92907245421791,176.36717367429878,2.517128227826632,-1.195455113752095,0.796971286577846,-0.29215596342659206,-0.48243635255180306,0.33144094116143397,nm,0.0
19.125959999999992,-1.1877150679332051,-31.9411757156167,176.70510516578344,1.5827898014513577,-0.3721142145302352,0.7127878739161211,-0.39057526594380165,-0.36330910959098217,0.30028801966125407,nm,0.0
19.144982999999996,5.167328451182235,-30.560249512468296,176.48788146262882,-0.12080674492133325,0.24306731274121376,0.9237478622761109,-0.5429789801334309,-0.007994470518601821,0.26423710325095096,nm,0.0
19.154545000000013,8.287404655149954,-31.305768813468426,176.1225366729365,-0.8483978877819449,0.5501713175908325,0.4535974117052212,-0.5332526027824475,0.19493427673047203,0.24578433121697774,nm,0.0
19.164060000000006,11.275698391007209,-33.364148713657386,175.7284401838323,-0.6037542472690692,0.6923942931744644,0.9669481179189423,-0.4834631304565853,0.4581637432243915,0.23881403973779858,nm,0.0
19.220945,18.49916264867271,-44.92287242553748,172.71265196555265,-0.21379405083410521,0.6569502954866868,-1.242749486412467,-0.04683215322156872,-0.06933904801031057,-0.14737822204058867,nm,0.0
19.230455000000006,17.763747063280704,-43.42551844817973,171.99118995738368,-0.9893120716978191,0.7120846748932796,-0.9345454318543205,0.055955699747058156,-0.3002450673466106,-0.24864984286158756,nm,0.0
19.239958,16.401924064983035,-41.55411566716502,171.56449619756893,-1.5804197895120373,0.6478647279576475,-0.1581458471128079,0.13692753061340324,-0.38842704599966127,-0.27138893608594883,nm,0.0
19.249662999999998,14.094797309526877,-39.74435054143322,171.54561814878303,-2.0772905852806933,0.46577555171408913,0.5326189621636845,0.28536037714707646,-0.39842038667891344,-0.3065215092007579,nm,0.0
19.25916000000001,10.87337182774992,-38.33431206130592,171.78511214011223,-2.4970903165274754,0.3298067765587563,0.4649878614093119,0.4470886186700199,-0.3401259759200591,-0.35992881143428657,nm,0.0
19.268493000000007,7.680302331154329,-37.568297159761194,172.01796310922654,-2.3757829524944674,0.3024764226713864,0.3668099293331938,0.4701937125246833,-0.21075936059873188,-0.34780961975031993,nm,0.0
19.315987000000007,-6.725213928764303,-36.11408936625852,174.79880775697103,1.752255312651958,-1.415662363959752,-0.1959717144558852,0.3269217921734031,-0.18959399848414363,-0.1183727445147515,nm,0.0
19.325504999999993,-8.256303454689398,-34.943155682996114,175.5891453113042,1.9936880318734813,-1.288405365325926,-0.08638803298046636,0.22291260846917504,-0.24174383923193746,-0.018882643716670512,nm,0.0
19.33500699999999,-8.153111947904945,-33.33014483640455,176.58401839399468,2.2433370067154623,-1.395689616998618,0.22546796923176693,-0.04545217434352959,-0.30839783765395495,0.21160979068906494,nm,0.0
19.354219999999998,-4.248926609521084,-29.856729002559817,178.78354523420145,2.1512126621013823,-0.8171176712249697,0.8776519949405943,-0.43603445727018914,-0.2943244150017233,0.4640394908725525,nm,0.0
19.36372800000001,-0.8150206816259348,-28.877679076007528,179.56815636040687,1.6534015047953599,-0.39258571625788224,0.9794480687122962,-0.6098253359101677,-0.17552022046092988,0.493201845048587,nm,0.0
19.382745999999997,7.3260836896390025,-29.26634657634508,179.38594644948873,0.29145597578453997,0.26122598891213245,0.4163387829757401,-0.7367998595316991,0.1461480570317869,0.3193183254489376,nm,0.0
19.392257999999998,10.989984674930634,-30.740837917761443,178.444794671279,-0.08439676083756849,0.7000387268408141,0.9736800772030291,-0.6384195961192486,0.3179394966618061,0.17576527179618145,nm,0.0
19.41130899999999,16.322398931948985,-34.77818550185174,176.3566691330329,-0.4611910320270394,1.091441001373522,0.11173773122125548,-0.40242467182584857,0.4794469789137531,0.07807304880436328,nm,0.0
19.42085499999999,17.869426609585872,-37.37647217143141,175.53774044765592,-0.05351480848004697,1.05814353261065,-0.2673204586677818,-0.22227061766665848,0.5470780600789208,0.01588991251468371,nm,0.0
19.430189000000013,18.33595776817703,-39.7741053916113,174.97948329770784,-0.00766831553669876,1.0853560064885635,-0.8121796778917104,-0.04243960145441751,0.49497025687987667,-0.055761427603639786,nm,0.0
19.439685999999995,18.24604519419022,-41.30886285471058,174.75949751244696,0.1948737579842912,0.746806112737544,-1.2487155404596153,0.031762364808645784,0.3153840487336696,-0.05773956900078817,nm,0.0
19.44920400000001,17.567388296841724,-41.98768153354555,174.49819400873685,0.017540252266022814,0.5802167092589847,-1.31899523926203,0.10458924809437235,0.1364638415574453,-0.144426722515293,nm,0.0
19.477728000000013,13.97489640641173,-39.09177169860981,173.03055377510472,-1.7899909289586984,0.3479541185812853,-0.13565173044333523,0.19791954399108716,-0.3392239118617156,-0.302936706273344,nm,0.0
19.487246999999996,11.910294706256714,-37.65925275130879,172.6908408949123,-2.5034349656522252,0.27747712276355857,0.2587249736793435,0.2779251367141308,-0.31332604618153076,-0.32647502283306384,nm,0.0
