timestamp,roll,pitch,yaw,acc_x,acc_y,acc_z,gyro_x,gyro_y,gyro_z,markers,motor_input
9.006784999999994,-8.96357961059175,-30.429104130398738,-175.99019013627205,0.08513364831713001,-0.00037637572963315286,-0.0033360670370704572,0.04694430629640352,0.0767300905198784,-0.034776418822270436,nm,0.0
9.016293000000005,-9.4137164917697,-30.651446748308317,-175.94753072868735,0.07335631736120218,0.00040084576116483314,-0.009836989337093274,0.06906559880999497,0.07812858402907481,-0.03645627925663069,nm,0.0
9.025802999999996,-9.948592500371216,-30.843734096873504,-175.86754945683856,0.069165880714623,-0.052749026379940285,-0.013372475978213939,0.09316766123710724,0.07235268672307335,-0.03782833952174772,nm,0.0
9.035325,-10.522908164017574,-30.96779885640127,-175.75945044920047,0.06563829845755222,-0.09781296558975663,-0.05712399866116587,0.1120757979537784,0.0612678817561024,-0.036382624193738666,nm,0.0
9.044837999999999,-11.091043970277688,-31.044234668937346,-175.63345906352401,0.07830226744497479,-0.14759865713425827,-0.0752669331480523,0.12348349016654867,0.05207893441921997,-0.032221938793565524,nm,0.0
9.054333999999997,-11.58933634302944,-31.031306712374693,-175.52035258695304,0.11383275217062822,-0.21108401061374388,-0.05127684211532992,0.12624995016469745,0.04197029138863454,-0.027501933951171825,nm,0.0
9.063837000000007,-12.204278681867134,-30.97050766598996,-175.39541629139933,0.08952218166250969,-0.17676324739777285,-0.09129493563137843,0.1411676317515267,0.030165224151346537,-0.036981656290238335,nm,0.0
9.101836000000006,-13.377425516164424,-30.379763636495756,-174.89550042923094,0.029392935124209735,-0.14563452665213794,-0.05027507370462591,0.0,0.0,0.0,nm,0.0
9.111400000000003,-13.284078023102007,-30.087698878062334,-174.84786956147784,0.05368290601434474,-0.17799653537106466,0.013173570156136792,0.0,0.0,0.0,nm,0.0
9.120902000000001,-13.250735026368403,-29.801302119409836,-174.7860041459232,-0.002873372306817461,-0.11264873168279861,-0.022870120481169525,0.016985975378560614,-0.04417162692403018,0.017164715660660166,nm,0.0
9.130377999999993,-13.086318792721045,-29.478798653639156,-174.76565329352147,0.015926413104401897,-0.13599018229770554,0.006109621488875463,-0.0005305587702085926,-0.047316804475169005,0.02175183604030484,nm,0.0
9.139932000000002,-12.953229165468882,-29.186508190702867,-174.79669896044896,-0.0025687774147706744,-0.12299011160187534,-0.024548593262470556,0.0,0.0,0.0,nm,0.0
9.158936999999995,-12.665185028825453,-28.871988507231478,-175.07999853541824,-0.08373322564859584,-0.09920420536081799,-0.056638469176793174,0.0,0.0,0.0,nm,0.0
9.168458000000001,-12.45273362939639,-28.890087959263795,-175.38845499994144,-0.18720683151673906,-0.08433471432365174,-0.06473954949399681,-0.02541505051690337,-0.03141485245856484,-0.04000714490016738,nm,0.0
9.177969000000004,-12.22157351525956,-29.094729232906836,-175.79617774705036,-0.3370107641387427,-0.0731990498047737,-0.06420858789172793,-0.03463483253467131,-0.027054163571697407,-0.05796456097309185,nm,0.0
9.187489,-11.946452814898299,-29.45575062859315,-176.30105044590212,-0.4640699092399799,-0.09628067854401569,-0.029473358422085295,-0.0402204166900972,-0.018137994637999467,-0.07287030321279299,nm,0.0
9.206434999999999,-11.58858858660942,-29.468585130783953,-177.36353550385815,-0.7253020447088525,-0.05372161171681243,-0.10587555455843194,-0.042353035400093775,0.022428697484998778,-0.08794477585077858,nm,0.0
9.215924000000001,-11.337509659414755,-29.61183568750825,-177.92131008848116,-0.7621048652524017,-0.04125696627476021,-0.17150557080617362,-0.052098532147768925,0.039049399736335595,-0.0858778784520336,nm,0.0
9.235023999999996,-10.649126746842107,-30.051302175463476,-179.1153071342984,-0.7632997675080018,0.018891716263873554,-0.3215843192665092,-0.07395526497858716,0.058363828946915906,-0.083422913055174,nm,0.0
9.244534000000002,-10.274583201764036,-30.25609825848413,-179.75359838223395,-0.7987070596020968,0.07025209665970035,-0.3746513270791514,-0.07217659753201426,0.05273044962914907,-0.08923316983052078,nm,0.0
9.263565,-9.713987007887276,-30.59735391561974,179.074852311095,-0.8061030035785464,0.13930211547256244,-0.37898548321397796,-0.045045368958122965,0.04860328392120817,-0.08586875298954165,nm,0.0
9.292096999999998,-9.990050494674533,-31.533104092298164,178.26387121360543,0.01478840468353568,-0.005485102241660001,0.02436098053785652,0.016406956892306007,0.014926772362822223,-0.05119907774967506,nm,0.0
9.311035000000004,-10.384888450811975,-30.638668994372335,177.84774250270146,1.0189714998916195,-0.18872261443541527,0.3460277115127833,0.01982383515171832,-0.11282652937874121,-0.06501946899285138,nm,0.0
9.320548000000002,-10.523143355984676,-29.703585161249745,177.47948678042496,1.5097300883461617,-0.32499956265650115,0.7322502229125901,0.009977211078034471,-0.17537449299393182,-0.08677554802480833,nm,0.0
9.330050999999997,-10.50274125259398,-28.44283717567228,176.9418765047095,1.7895701878530486,-0.35424265434798347,0.9609340917799455,-0.02205395039768606,-0.23923643102451547,-0.10493041449839445,nm,0.0
9.339567000000002,-10.32885856042759,-27.077535271444244,176.2900499464108,2.006534041261049,-0.4280584326137853,1.3487065869357773,-0.052984528724725755,-0.25828655417371293,-0.11375840088110152,nm,0.0
9.349076999999994,-10.047266956282483,-25.938184002976254,175.6278920268358,1.9283781500026116,-0.23475006983817498,1.6989084766757334,-0.07238804228238932,-0.211152449427711,-0.10707342588404446,nm,0.0
9.358579000000006,-9.245646346309499,-25.180125379605144,175.07465897267423,1.700944835131732,-0.16686014350423944,1.8039586612720235,-0.16256922743094218,-0.126659362454488,-0.041431695578688206,nm,0.0
9.368098000000003,-8.247800142835954,-25.17395724475637,174.68419278515947,1.2673823663478276,0.08529972266217177,1.1849890420836187,-0.1861580178379085,0.02780562168227799,0.006701331924801855,nm,0.0
9.377611000000002,-7.313164294410517,-26.33172002431633,174.46584534188574,0.6859744093900698,0.3372500113705535,0.5827305464147412,-0.15188359542682403,0.25960484433894543,0.03743459817961693,nm,0.0
9.396634000000006,-6.26109655987075,-30.667764821039327,174.03311108390517,0.17409502570854443,0.432724677348302,0.5234222244470601,-0.013227782796489191,0.48392162201254935,-0.021603725465468005,nm,0.0
9.406148000000002,-6.263457016861939,-33.57130535425647,173.6447448633649,0.11208034484568734,0.5084068522197649,0.03161584397102907,0.056904879164371445,0.5909362232770542,-0.07743456641434952,nm,0.0
9.415664000000007,-6.403023012497263,-37.01758014982865,173.12633494953647,0.34035859801890384,0.35743714325227016,-0.08874201462448089,0.09644650468876313,0.6958620215374803,-0.11889032306334194,nm,0.0
9.436942000000002,-8.00172227254544,-42.7515364293257,171.69327525408886,0.5701945530155271,0.09656664902469561,-1.0292385190817803,0.2253562794387912,0.4893417856815625,-0.29452520886847605,nm,0.0
9.444086999999996,-9.524413658649623,-44.698266191195856,171.0525945607938,0.3322727910224072,-0.04849309564130584,-1.258150903927221,0.2718103632998958,0.36559620231872986,-0.33656402106173405,nm,0.0
9.453524999999999,-11.761176776573532,-45.96530176172238,170.64358215230203,0.07927823434168943,-0.3629560614571127,-1.0985632322234982,0.34720158513899885,0.21369120858747542,-0.3975018694553337,nm,0.0
9.463053000000002,-14.84308110040137,-46.326712766341934,170.4112620442538,-0.6792045671221628,0.02898712458417847,-1.26595608571927,0.430190219448381,0.01433976377390443,-0.4881039354814043,nm,0.0
9.472516999999996,-17.63143474158762,-45.94335366600694,170.405731328828,-1.071848712959272,-0.3162558252474254,-0.9716129869078316,0.3656766354294928,-0.12681967915814144,-0.3998521016079239,nm,0.0
9.491564999999994,-23.715090486496756,-44.123205142273136,170.52999626645777,-2.1558502541151525,-0.19751299135346606,-0.7279526973819791,0.4048254919361339,-0.2617944850167701,-0.429136531091389,nm,0.0
9.500893000000005,-26.04336937811252,-43.05679691109969,170.41061647063523,-2.4130437521207293,-0.2307857629771253,-0.8389149420271277,0.295703197226884,-0.2533154598728215,-0.3404359119577923,nm,0.0
9.531865999999994,-27.827972177540378,-41.048821607425594,170.12070718632182,-1.62419024721675,-0.3036416716621699,-0.8509578135094782,-0.04260898586925057,-0.1253516572236513,0.04932591120843332,nm,0.0
9.538938000000002,-27.613021840407008,-40.23452805984936,170.85324122567602,-1.0365494784273779,-0.2041015786381952,-0.8835108004854054,-0.0612719766683322,-0.1422780699650612,0.17965278663639722,nm,0.0
9.548607000000004,-26.64396711593851,-39.15715492997736,171.96139073605124,-0.2629379431989791,-0.4528666943198224,-0.6485325431989535,-0.1824670249519926,-0.17786035883364754,0.3505050403050364,nm,0.0
9.558136000000005,-24.795271758503837,-37.626019138958945,172.98753731813602,0.6260802896469551,-0.7364463907095569,-0.25758418757245705,-0.3310190463617426,-0.2527826225288005,0.43960213540459875,nm,0.0
9.567645999999996,-22.069551935184045,-35.781115886357185,173.67748384663383,1.3556147370149558,-0.5532761396897974,-0.01177100883710902,-0.4813869387606471,-0.3028833017241677,0.4679743280540015,nm,0.0
9.596356,-8.888113053194683,-30.35334376378029,172.89628789048558,2.550622835892023,0.27021248617570504,2.1785256410342457,-0.8485886020717587,-0.23957882775401873,0.3350642551454347,nm,0.0
9.605867000000003,-4.209821580335473,-28.8821040469177,171.92584175664098,1.894686515164343,0.7009467343526561,2.2660631968714355,-0.85187877128302,-0.17133024741925812,0.2683825520348731,nm,0.0
9.624916999999996,1.0481853212023522,-27.741087658787446,170.23202417420447,0.010049379902012979,1.4917069360637991,1.2512556768462093,-0.3312351311134409,0.026631609516581226,0.01959991329354979,nm,0.0
9.634429999999995,1.5999874500657443,-28.678660671262673,169.73195320226483,-0.4270821096660903,1.338220192468844,1.0205763151519192,-0.06912503998570342,0.21464904223893758,-0.04937585611564042,nm,0.0
9.643938000000006,0.8904438521481709,-30.78360525879073,169.37689651963635,-0.4474143200314618,1.0300401152615237,0.921722642910462,0.1919759451060517,0.40507444012706406,-0.1426111635313006,nm,0.0
9.653436,-0.7348218571838221,-33.60479134290954,169.00636572206008,-0.1456889919651309,0.5838697896688432,0.5864422034769425,0.37095340080139444,0.5163025526537308,-0.24796908495618383,nm,0.0
9.662974000000006,-2.8501812162903244,-36.6661134632752,168.37585596186537,0.2529988630918049,0.08334295261399118,0.021993347445445614,0.4548294798731002,0.546377567312369,-0.3696135762452389,nm,0.0
9.672470000000004,-5.163643043524021,-39.65912150881256,167.27459998133295,0.4252389356741285,-0.17758097121340996,-0.7083514765073312,0.47803022234563236,0.5224225185920368,-0.505518820302674,nm,0.0
9.681832999999997,-7.374387095504459,-42.3382246451619,165.69246381889778,0.36180404952105977,-0.39755557412320663,-1.1201417836392782,0.4466189596055984,0.4570968839681924,-0.6052588288075342,nm,0.0
9.691354000000004,-9.695396159721525,-44.4227537703263,163.82558547371485,0.05211326418133956,-0.2855575511005822,-1.5058160022177467,0.4329168611871369,0.3276220109579782,-0.6904564605974643,nm,0.0
9.700889000000004,-12.045104272155422,-45.766617611994356,162.09726490718504,-0.2970443215322368,-0.3719253171554727,-1.3458511835082463,0.3945283115756688,0.17369259579288046,-0.6762641492902413,nm,0.0
9.722274999999996,-18.71409409445954,-45.90128962229345,160.31398358707875,-1.3409783106082955,-0.14585742732981155,-0.9820584172726555,0.4699647037076132,-0.2229541004042212,-0.6469988752536785,nm,0.0
9.729146,-22.78137240094329,-44.97204268607072,160.4840504241011,-1.7181432550126954,-0.21688014813635786,-0.6826030946823325,0.47598945832271194,-0.3534947031995118,-0.5417127717302515,nm,0.0
9.738650000000007,-26.93575716673602,-43.62673189931227,161.08597737234243,-2.070464329749321,-0.24163733400084275,-0.5669819596556187,0.47392953755998163,-0.43696840446008345,-0.455447525439146,nm,0.0
9.748158000000004,-30.842125494711677,-42.111551486499316,161.75191719220126,-2.249971497573339,-0.11123633315488671,-0.8188153250932345,0.44734827311838976,-0.45712870970839076,-0.3932663306943333,nm,0.0
9.757681000000005,-33.93728998631137,-40.844339338065964,162.41274110237384,-2.0634038518768056,0.07510510205005409,-0.9175302438142511,0.36447285827848047,-0.37141161531976247,-0.27217090395782995,nm,0.0
9.769630000000006,-35.83774582920033,-39.737078547583934,163.15593040670163,-1.6549241989068402,-0.38253186968298736,-0.8568014185191334,0.21229494504541974,-0.2849698139202277,-0.09100036195934658,nm,0.0
9.795794,-35.678664385890286,-34.89015508105666,166.6191141889299,0.671148290066896,-1.260547854080735,-0.4589659677129823,-0.3526446471878623,-0.34553464276102575,0.45725872667171125,nm,0.0
9.834018,-12.003065522215808,-24.970076998384318,171.19738306259836,2.8957258747195853,-0.5748937882607803,2.798256137448222,-1.4515002959789287,-0.11164026486680298,0.7947940741683776,nm,0.0
9.845974999999996,-4.291816137194436,-24.049010101582663,170.8439152765225,1.7536047536791408,0.8194720785669369,2.599194698582763,-1.4219175078712072,0.050461994986926384,0.568863170196622,nm,0.0
9.852970999999997,2.866458413984859,-23.930502093974162,169.80740325112507,0.2284763530882506,1.4601654178008228,2.532370539350076,-1.3007290739087898,0.20939326525651358,0.37309977463244237,nm,0.0
9.865089999999995,7.730553786005914,-24.244019456655572,168.58581983672852,-0.7986738444536525,2.0862289812507986,1.8857773533784359,-0.8677328316598918,0.24069763719241466,0.14986346820165186,nm,0.0
9.872186,10.46867950290732,-25.79316903733449,167.6481916080282,-1.4729911021270732,2.375550570629706,0.724372561322667,-0.42860979018165546,0.41806765739271284,0.04077093869199717,nm,0.0
9.881714000000002,11.633544638508814,-29.15666304944581,167.12578106526047,-0.9179803385204451,1.9487917354570317,1.0702858532726265,-0.06139179643167823,0.7146866672255348,-1.696620057043063e-05,nm,0.0
9.893680000000003,10.804775563448048,-33.322531731854134,167.02829735557845,0.0002461935739613642,1.5402353538434799,0.6734029102068608,0.318331759497557,0.793704578738986,-0.10788583337980154,nm,0.0
9.910084999999995,5.5818291828842455,-40.66435071226608,167.05067099414836,1.5544189882591033,-0.09133439618674878,-0.7986384825337339,0.6141409970185792,0.5539318492312333,-0.4187515099351752,nm,0.0
9.919583000000003,2.106985254757901,-43.14167333192099,166.16877010094237,1.3404994334788836,-0.36646856883834805,-1.6461783103784413,0.6134721840525745,0.37571556092766323,-0.6407333667057152,nm,0.0
9.931636999999995,-1.0679226578661487,-44.700138075166784,164.61230849064103,0.8655684286484313,-0.5838060178294023,-1.6046109959552903,0.517546244757016,0.19988326791533162,-0.7513570878714552,nm,0.0
9.957635999999994,-11.90054876461442,-44.23097643859071,161.5097194243276,-1.6001652542977645,-0.2275746399755316,-0.4406347912424013,0.4975856197479766,-0.29859879065468814,-0.5968251151823093,nm,0.0
9.967149000000006,-16.579661590937235,-43.32745983972114,162.3365176664736,-2.2711038012199243,-0.16689526694327447,-0.2344117607683197,0.5854955843860841,-0.36808766873968585,-0.47941618381317774,nm,0.0
9.979028999999997,-21.272543917343306,-42.42460398620712,163.6521041364628,-2.6758285955745023,0.12100375266821851,-0.586658231964638,0.604491069421661,-0.36060999119806586,-0.3720473098598278,nm,0.0
9.985935999999995,-24.644104780023298,-41.89504753878463,165.00080116812924,-2.568342246868286,0.13497254091475622,-0.6869137291131914,0.4521505827866469,-0.22384461357643354,-0.17861012773320772,nm,0.0
9.995439000000005,-26.51835135011494,-41.629532885781934,166.24269846560352,-2.0812062505724933,-0.2983568899558476,-0.6887207309049949,0.2568845770152758,-0.10770254448227333,0.003514811606093144,nm,0.0
