timestamp,roll,pitch,yaw,acc_x,acc_y,acc_z,gyro_x,gyro_y,gyro_z,markers,motor_input
31.518374999999992,-0.6104582220775783,-17.277644290898348,148.12119328835823,0.019903547115756624,-0.013391477990431683,0.07707692642156777,-0.052774340816085195,0.05754965171823163,-0.03679201415101906,nm,0.0
31.52788000000001,-0.30198989299184265,-17.310050886301813,148.0851364260152,0.03457758356322467,0.016372556823435094,0.06640346696208511,-0.05073125725755212,0.05702130510949105,-0.029816529539820953,nm,0.0
31.537385999999998,-0.11977439117380424,-17.358992634393317,148.1931947038988,0.05708168987284944,0.04646470583918369,0.0768412422954237,-0.03406251182961272,0.052701971387280104,-0.009987750825156487,nm,0.0
31.556416000000013,-0.022503527160257848,-17.46649426524695,148.74553848636893,0.08284462082102055,0.022589753897797705,0.08519153294336682,0.0,0.0,0.0,nm,0.0
31.565928000000014,-0.1377470508624491,-17.412623160580623,149.14360446110962,0.09900723959343707,-0.016049027069107942,0.07173791210449042,0.0,0.0,0.0,nm,0.0
31.575434,-0.25467885930118783,-17.35006264215646,149.48752829429378,0.08795263293902933,-0.052260865255070836,0.05474452306444394,0.0,0.0,0.0,nm,0.0
31.58493999999999,-0.32493998766796783,-17.291499172560655,149.71038492866813,0.08617083630085552,-0.050958170393528776,0.06849105693990061,0.0,0.0,0.0,nm,0.0
31.594460999999995,-0.3477689823244109,-17.264577902613194,149.8083217841211,0.055072662705884456,-0.03244399005076299,0.04002821567297727,0.0,0.0,0.0,nm,0.0
31.60396,-0.31744605890964933,-17.30750881822811,149.81566834486264,0.010570560684970134,-0.006414692963353686,0.03967318570416768,0.0,0.0,0.0,nm,0.0
31.613483000000002,-0.2488577120780694,-17.431373416673548,149.807335552117,-0.019992309385753623,0.011231518538582565,0.09080937532678744,0.0,0.0,0.0,nm,0.0
31.62293299999999,-0.1470812873885885,-17.577230769284704,149.92865812493653,-0.052112829274203167,0.029945912656651415,0.09967542242240272,0.0,0.0,0.0,nm,0.0
31.632417000000004,-0.03146717914180435,-17.78468574582104,150.23166733077335,-0.015384687977331201,0.008674938798532886,0.21259433532551683,0.0007804394040664844,0.06093509758169372,0.030365728299940407,nm,0.0
31.651522999999997,0.09295647567650756,-18.456246464971457,151.11966153825963,0.014141796653911649,-0.007706104311304168,0.04825488767242223,0.023657448278363934,0.08200546256512752,0.06880599375634493,nm,0.0
31.661023,0.2849339864089965,-18.78545848439567,151.6085990346835,0.02248320217519085,-0.06199409057449023,-0.01652405199112028,0.012661500570832318,0.09539326693241784,0.06985152374621291,nm,0.0
31.67054200000001,0.47312877307514367,-19.070642448238647,152.01173654306743,0.09854647010740658,-0.05208753974076051,-0.006327105733672056,0.007155604060445346,0.10228995093403359,0.051091040314291555,nm,0.0
31.68005099999999,0.7389324792007201,-19.322940242621957,152.2999022274112,0.14293730114859496,-0.07399249388633586,0.020061858380642967,-0.008374209756968743,0.11393949372452052,0.031141499638246164,nm,0.0
31.68956700000001,1.0029804287659576,-19.530945861369496,152.55073905455689,0.17157884999472456,-0.05234837935155261,0.07227238305774722,-0.015811364883275468,0.10907441112597432,0.012384013826038757,nm,0.0
31.699081000000007,1.1755082339878753,-19.64174955570226,152.85231631212704,0.170796633330698,-0.01039463600646177,0.048028533641868786,-0.018252371199478052,0.08436700822209561,0.004781487002347098,nm,0.0
31.727599999999995,1.4111617399829153,-19.672534847077724,154.354086476111,0.0514415659245562,-0.026003312862662158,-0.0713554220378652,-0.002067756413022583,0.02673419241101474,0.051467912348544434,nm,0.0
31.737109000000004,1.4906669713959693,-19.570740997819417,155.0015025755626,0.04036407109941457,-0.07388550132125765,-0.08314534632873767,-0.006533428609747477,0.011511778349864638,0.06670848591641694,nm,0.0
31.746567999999996,1.5064955589847746,-19.500048856212608,155.6816499456707,0.0208939181521101,-0.0920426702620754,-0.12808533499220479,-0.010879658215817673,0.0021001078633563416,0.06694736370232987,nm,0.0
31.756078000000002,1.5990733280791898,-19.40193845998134,156.326764571474,-0.0014577807599680803,-0.10022902029794528,-0.10958466910809077,-0.026375469987567995,0.0027928455915559023,0.05817407589444618,nm,0.0
31.775150999999994,2.235729549810812,-19.146438891199807,157.16295763315776,-0.05191064176035232,-0.0451027541463168,-0.0873777528908929,-0.05832003209608369,0.006723161164213595,0.02575062451828359,nm,0.0
31.784669000000008,2.604556650051851,-19.104388784033247,157.41550240337804,-0.06098639741712846,-0.010798180714214066,-0.07120587545599463,-0.0678601613212645,0.018037111899703882,0.01933196115665734,nm,0.0
31.803684000000004,3.1968274464462403,-19.118606818521684,157.9222821217909,-0.005081705194802083,0.028981276296002785,-0.04500891199267288,-0.05540832656972036,0.029791522477677072,0.03639084300180528,nm,0.0
31.81320500000001,3.3939036619678045,-19.078889864024983,158.36722956916722,0.028929055347925836,0.016360633838547023,-0.048510044344488606,-0.044517242030845186,0.026670539042035507,0.05531756174046341,nm,0.0
31.822700999999995,3.5119239513161533,-18.96347804436909,158.87246257608928,0.06974249826302195,-0.02868997477815742,-0.053871938286178735,-0.03028726629655502,0.018063393802136382,0.06815790305299237,nm,0.0
31.83221800000001,3.5863428616862127,-18.77698548303065,159.34837158038695,0.10967398098333506,-0.04133656552056535,-0.03984742751959323,-0.020332262526598862,0.007834389707660172,0.07084567443851301,nm,0.0
31.851238999999993,3.6898825391262986,-18.30595558467688,160.13536695638604,0.07397563526357753,-0.07140456203408348,-0.02819024860286917,0.0,0.0,0.0,nm,0.0
31.870249,3.8027119097242417,-18.046378132060443,160.4838669050514,-0.051857579944870565,-0.03832661420559217,0.015489983072897505,0.0,0.0,0.0,nm,0.0
31.879775999999993,3.8436318925229043,-18.127106609952907,160.58338547852654,-0.11402142111892606,0.003034117953130478,0.010956482031199102,0.0,0.0,0.0,nm,0.0
31.889283000000006,3.8978253104530984,-18.335680002410356,160.71566818594184,-0.11643026431385319,0.04073755827717422,0.04087979225620973,0.0,0.0,0.0,nm,0.0
31.898806000000008,3.927407017346645,-18.636642712784617,160.91799734643047,-0.09158652858888863,0.031682464380749335,0.032683391378769716,0.004547592521485927,0.051133134012012665,0.03905456222522253,nm,0.0
31.908303999999987,3.9043162014361212,-18.937772998996664,161.21217656323688,-0.017526204409429934,0.008954857957367893,0.05057030831112089,0.015164926801431168,0.06607700506664994,0.05412410542748242,nm,0.0
31.927268999999995,3.670496108914367,-19.424522699316984,161.72763156792428,0.11146830816487752,-0.025686456124386543,0.1343489583005798,0.03885258996715332,0.05162945681029008,0.051105632138232944,nm,0.0
31.936768,3.438278803335815,-19.60556487633479,161.90408301458723,0.10622236112918763,-0.021913421724291875,0.1765307252567616,0.04900933361998785,0.03402112152145234,0.02805981540395543,nm,0.0
31.965291000000008,2.5386974765615085,-20.063684210139137,161.55049782390003,-0.10228190443058542,0.04721605404455779,0.3391217215954626,0.05397451632142388,0.030646181762432476,-0.06617680252180667,nm,0.0
31.98429999999999,2.32916893824661,-20.46145571654017,160.72395529151984,-0.11557397483057509,0.052672968423504385,0.3507216892871963,0.019014883100582143,0.0488237155784747,-0.07169746576011157,nm,0.0
32.003321,2.369085266058162,-20.578234014655656,160.10088940178338,-0.1395086848228,0.10237834254814536,0.4667121103849381,0.0,0.0,0.0,nm,0.0
32.02233799999999,2.3909817188328963,-20.023060810316682,160.0347602612931,-0.3948967022650805,0.1679223433705723,0.7422443320919263,-0.027383752100633936,-0.048940119561139,-0.003759468320328251,nm,0.0
32.03185500000001,2.4742896877149363,-19.658757769342316,159.99926407903308,-0.5886113216467784,0.24152103845707257,0.8569578122694671,-0.04309417548647081,-0.04972181773270152,-0.004365709233452348,nm,0.0
32.05087599999999,3.137657703290921,-19.185968408888026,159.54154924873927,-0.8987467388378134,0.36948328026201677,0.9568276418401512,-0.08799608917804265,0.011139009879538765,-0.037721590769022685,nm,0.0
32.06039100000001,3.6398804974085874,-19.334967854342434,159.07006947767485,-0.9329978560040927,0.4587390520012825,0.9773234229548369,-0.08155975104025164,0.07490270108926332,-0.06439702267873647,nm,0.0
32.06990099999999,4.250751167255433,-19.847623587277514,158.56844063695183,-0.8542132691976014,0.5044097418673454,0.8175899888071755,-0.07372963910263142,0.15074336717538553,-0.08020540148235554,nm,0.0
32.079407,4.945908679336248,-20.779848713462147,158.04894286637813,-0.5832377726067459,0.44672747741331303,0.8625366632807244,-0.055848531892271625,0.23507289261431677,-0.08868536083760818,nm,0.0
32.10793699999999,6.800638105728043,-25.18060031701644,156.38001411737216,0.34936342173297097,0.1659722370756526,0.5393906514147975,0.025469847376105855,0.3529750522597759,-0.11683898678175325,nm,0.0
32.117447999999996,7.253250104443096,-26.885607165934356,155.8665181256247,0.5824441316329724,0.07194640018939545,0.22548867920044374,0.0592842400457524,0.3589088066577828,-0.14206385357129983,nm,0.0
32.136481,8.031869435653503,-30.394906469557146,154.89013843937516,0.8014304644667302,-0.09942952660059089,-0.40427129578420046,0.08338216155268655,0.35883613008046406,-0.1695898428183247,nm,0.0
32.145816999999994,8.323461164442795,-32.22658463606131,154.4438207132435,0.8900721709900715,-0.18246566318964802,-0.7279301818383538,0.1067194582734456,0.36708585068084054,-0.18017888504269916,nm,0.0
32.16481300000001,8.459936759905666,-36.08516189285149,153.92964511126593,1.076329699812114,-0.4131582883714046,-1.3217774674611256,0.1699344462230048,0.3593739489916126,-0.18663976661939094,nm,0.0
32.17433600000001,8.209470004253994,-37.904453072259166,153.96233082711183,1.1521732234043263,-0.47122816009086,-1.5793451532471197,0.1906437862424442,0.32473503680174937,-0.17582337859050065,nm,0.0
32.183921999999995,7.867220563991978,-39.54316065903755,154.2474730240861,1.177617042699594,-0.5319800689448239,-1.7521954299524813,0.18623971056147234,0.2868904745645237,-0.13928317170674584,nm,0.0
32.193444,7.45052127385501,-40.88283629739109,154.8406218338345,1.0705381986994154,-0.5289798958049491,-1.8399224666063856,0.16790767157340847,0.22978116820753758,-0.09301003952416456,nm,0.0
32.212469999999996,6.589350151210184,-42.09687891971058,156.934432740783,0.5832726526756,-0.4257648918893924,-1.8404370515906234,0.0793049943344059,0.053387620362347614,-0.00022303029379990602,nm,0.0
32.221970999999996,6.219041450949509,-41.99704118597061,158.13769734932913,0.3441311890458487,-0.35711528863044223,-1.598973235109669,0.0,0.0,0.0,nm,0.0
32.24091100000001,5.667127707697214,-40.476850225304254,160.32497061046774,-0.045269750140725803,-0.20271287602255422,-0.8907757876050933,-0.03821464174842437,-0.18628643809038908,0.001569610565877104,nm,0.0
32.250607,5.504888758421578,-38.96582111126197,161.26749163301352,-0.2904827400907414,-0.07646379336910472,-0.5160207596066858,-0.07842129057546184,-0.2811263121511529,-0.002654391061322768,nm,0.0
32.260132999999996,5.517089787113164,-36.95067155305632,162.1883104654664,-0.5977228633103796,0.0870663920740269,-0.03976982885897964,-0.1304567002500605,-0.37018730048352216,0.019995243733777354,nm,0.0
32.26963699999999,5.782143505141433,-34.513060470913004,163.12867728810602,-0.9853143670160617,0.24696584237245023,0.5371649683318013,-0.18865894424541527,-0.4411390091704792,0.06448597672955873,nm,0.0
32.27911499999999,6.217288336085335,-31.783551398848775,164.18872683224427,-1.5935134499114352,0.4697095550323139,1.2210485031177678,-0.22576203664282535,-0.49238611917807124,0.10650661667372971,nm,0.0
32.298158,6.885658270460989,-27.36906475613052,166.47963527667295,-2.527878648795386,0.5462564322403993,1.7325865696888065,-0.1305211360129812,-0.3235909619963373,0.12559754420215327,nm,0.0
32.31716700000001,7.3770389460111625,-26.25395395755226,167.8944323683429,-1.4105519887540063,0.2780059523797984,1.4729230671764244,-0.07342354119938407,-0.024739933369196214,0.05983640416040905,nm,0.0
32.326674,8.050624288323492,-26.398761991491305,168.16114135729234,-0.30372000265096044,-0.08679597673824163,1.6116441470773293,-0.11855307860331413,0.06560225345215728,0.051969033105094625,nm,0.0
32.33618799999999,8.426604854540976,-26.93648970097217,168.2368937720024,0.3326641841025674,-0.044361467930432885,1.3752276354530435,-0.050363161739668205,0.13146632144530743,-0.006842489551455362,nm,0.0
32.35520600000001,10.064552662846483,-28.32055438782754,168.22015078340442,1.4621498912426023,-0.2548373258249459,0.6142478811631098,-0.15080069000600513,0.1921462718106283,0.029320398958628265,nm,0.0
32.364721,10.778906330980313,-29.305813919307766,168.08589197392783,1.6171465486546295,-0.15439050703505997,-0.054039146096079724,-0.08938170846696585,0.23080614525144894,-0.02620798956548112,nm,0.0
32.37405899999999,11.484314078730174,-30.56904607207684,167.81868077580424,1.673895678419367,-0.06760796547700974,-0.24825478290698683,-0.07435329655131374,0.28493945366106915,-0.049577773476271146,nm,0.0
32.38357400000001,12.036763852878499,-31.902701449534288,167.55865538214886,1.6765957980663486,-0.05082043102358711,-0.3585896699645048,-0.0430856275181731,0.2931594108054077,-0.06744700551605383,nm,0.0
32.39307600000001,12.102092843988332,-33.345003998205925,167.40244518519302,1.4640776321424402,0.03863680222715811,-0.8749347569548647,0.044155492473379326,0.29671156195221204,-0.09927032476147779,nm,0.0
32.412093999999996,10.980480287690131,-37.03865473967236,167.96435667152784,1.142020994104282,0.033227424212282586,-1.2746536894254206,0.20311640154776892,0.36065759748613024,-0.07816441616909635,nm,0.0
32.42170300000001,9.582351779200605,-38.839779728136875,168.96093149319034,0.9002485913266901,0.025649150482224593,-1.575172859236111,0.28034517484650806,0.3225709546120234,-0.058305349230016235,nm,0.0
32.43121500000001,7.834428481930516,-40.416159355315095,170.41643281211887,0.7324146041909578,-0.07464800635286138,-1.7497080380904984,0.3135297728922595,0.2759280835143177,-0.028737093536184657,nm,0.0
32.440721999999994,5.792181675684743,-41.640200693357414,172.10437682977448,0.4783528974834719,-0.14941994251431687,-1.8942606386549758,0.334082409291338,0.20918983973771324,-0.03548906310852612,nm,0.0
32.46922599999999,0.9271281413298632,-41.19675144033801,176.13006430211112,0.16039107384739035,-0.18876186220728716,-1.5799600235625004,0.14972320927005323,-0.17907234886402879,-0.09751447264348365,nm,0.0
32.478757,0.6216988207132741,-39.418007079006124,176.62038954517956,-0.08074929461257449,-0.10565097592888835,-1.105593839036517,0.01884997789411836,-0.34616734304602986,-0.08362676107027603,nm,0.0
32.49787699999999,1.9331231099565997,-33.10310026368398,176.8459505382048,-0.8658245462134934,0.04771058686770435,0.5653470634799604,-0.18055868624091254,-0.688654446441333,-0.03739848217177176,nm,0.0
