timestamp,roll,pitch,yaw,acc_x,acc_y,acc_z,gyro_x,gyro_y,gyro_z,markers,motor_input
35.512652,-11.41434269460646,-20.798951193268902,-172.97806476250688,3.2244784451813544,-0.7021104124694207,1.3989803860876278,0.08159671900508435,-0.25382761118752356,0.09399282028856058,nm,0.0
35.52214900000001,-11.163304159766584,-19.885209471398422,-172.74301148890564,2.5552828372723138,-0.48257861714340655,0.9914417755199003,-0.032404368232776384,-0.17593837128844977,0.06433621467321105,nm,0.0
35.53167099999999,-10.457231652713231,-19.76116269386892,-172.81384287910421,1.5464517209989534,-0.40888433563228943,0.6421002171095905,-0.13723534145323682,-0.02992020353692669,0.03340917432039142,nm,0.0
35.541196000000014,-9.818298079156781,-20.64442414584673,-173.1147352272908,0.21119845019994354,-0.0846165758597707,0.055454331638830276,-0.14922335267591613,0.1722734792492593,-0.016436207205122035,nm,0.0
35.550691,-8.887122577876168,-22.311082500933793,-173.48237333363463,-0.5804508024218786,0.048065440812228175,0.03473768942200199,-0.21967399782569802,0.3226446392683785,-0.005691604410867212,nm,0.0
35.560204,-7.875001042802555,-24.529452927715354,-173.7633690884642,-0.6372136501845505,-0.09539510590722707,0.17450330526912342,-0.24260456700194186,0.4322170992294588,0.02401565687172345,nm,0.0
35.579046000000005,-6.863542168807775,-29.2091616125296,-173.96444068691483,-0.4147524767352396,0.4901225147112965,-0.6455464145428519,-0.16984746424929298,0.4368033073989157,0.05332766624079314,nm,0.0
35.58855399999999,-6.116940189028271,-30.676973221065666,-174.06567189102185,-0.06518205787367368,0.29998900018578484,-0.8266059332971691,-0.16803460708282741,0.29015279634907926,0.05450918466817007,nm,0.0
35.598060000000004,-5.916061576446046,-31.305078543299594,-174.4414945954176,-0.5084429742371983,0.5330847452944322,-1.177257728742036,-0.055387695244156064,0.13307474589173726,-0.05432596012715692,nm,0.0
35.626599,-5.657065190993098,-28.946076871778562,-176.2289125964729,-4.248044122292374,0.39463488806451796,-0.3855632069417075,0.050256773193875046,-0.22130739465032948,-0.11375218999624301,nm,0.0
35.645613999999995,-7.727690556230136,-29.394727205240482,-175.53965093991312,-3.870507267147612,-0.051166428691168886,-0.2220663799489447,0.20581742675357456,0.16084375948086407,-0.020994500864657355,nm,0.0
35.655124,-8.63334242110864,-30.450968446027915,-175.24984680818375,-2.7568945056678538,0.28755630794821596,-0.8285473435288718,0.13163321172427958,0.2351274609873737,-0.03186602266110746,nm,0.0
35.66465400000001,-8.543239212888533,-31.531933715370126,-175.19465808455882,-0.9329430682211214,-0.14188776427381336,-0.5625027282252876,-0.041502946312111426,0.22609327049084757,0.02103949652250242,nm,0.0
35.683684,-11.08446519652779,-32.71579539230691,-175.1283005500728,0.995004221540651,0.22367794475489275,-0.998269739879217,0.26626087230331763,0.0683762936130343,-0.16613555360660365,nm,0.0
35.74089900000001,-12.322566457328628,-20.243266751346354,-170.32610525203407,2.550984108110384,-0.6435567870316619,1.8028409739875995,-0.30977342431086147,-0.45393097923826087,0.2954865393419055,nm,0.0
35.750406,-9.476474090217492,-19.168426332277974,-170.02875338004753,1.4176783549651932,-0.4070052462982234,1.3283079204536934,-0.5009752882404636,-0.29260083442063556,0.25106091027534666,nm,0.0
35.759918,-6.337731962247748,-19.29388632886455,-170.2474973909448,0.117419635752333,-0.03246975641711594,0.45641235541582564,-0.5981167442769213,-0.06610946862270804,0.16198563834588545,nm,0.0
35.769428000000005,-2.9972999427969818,-20.834120260544033,-170.84308438848865,-0.6367449388786179,-0.07375396465042582,0.5181964273439679,-0.6797009990328959,0.21153935879037755,0.10857001922918148,nm,0.0
35.788455,1.603228344548942,-26.59323067339677,-172.48937144411335,-0.7055437713865047,0.8569118637282324,-0.14763277402704816,-0.47145359223260136,0.597159533064641,0.010052288592060999,nm,0.0
35.79796300000001,3.5365481090167914,-30.07894649172388,-173.11693918910703,0.2695599091471563,0.8234950191087378,-0.10087678354505672,-0.43516745879676905,0.6600458861055456,0.05654947230914753,nm,0.0
35.807299,4.291708579718033,-32.9930887390856,-173.61261998402188,0.8401262421377106,1.0485538953478906,-0.8997673145461783,-0.2051384392152151,0.575041276909779,-0.021449083554832934,nm,0.0
35.83585099999999,3.642679548010115,-34.00298566376463,-175.25979115975883,-0.4641775076853169,0.6817703763313981,-0.9954295657278804,0.14287346119162372,-0.20693936582321118,-0.2292905231674716,nm,0.0
35.845372999999995,2.524248784568349,-31.84204666148523,-176.0018825174782,-1.937340990975722,0.5060405744010626,-0.6503576091518516,0.2113897154163922,-0.4062559047199393,-0.2714810782628958,nm,0.0
35.85487499999999,1.1305738110966248,-29.635840693749152,-176.66780214528868,-3.791956920793595,0.2573404444483685,0.18921661318365587,0.2589071156044953,-0.414409454531949,-0.2772257714523548,nm,0.0
35.864417,-0.8315313293187422,-28.187977752231717,-177.05605961123018,-5.004224283737393,0.0419381097042814,0.802564253036578,0.350855196026778,-0.2592777448269625,-0.26880737920022557,nm,0.0
35.873920999999996,-3.251327356612165,-27.890933923350488,-177.28261193081457,-4.421926745796994,-0.2554599172798404,0.4304434632727269,0.42192502289662165,-0.02668432441467473,-0.27385649445244864,nm,0.0
35.89294899999999,-6.039340539195458,-30.06999862114215,-178.51935689679638,-1.885186419974287,0.10727163295236712,-0.31410660941028606,0.08317433550334223,0.2690384942431423,-0.19324534150341224,nm,0.0
35.91190900000001,-10.457218641197409,-31.557783953249505,-178.17596683784035,-0.3086782753166937,0.39242399622305574,-1.2732336590285962,0.5529639510069634,0.11284706270638367,-0.24138410059950563,nm,0.0
35.921414999999996,-12.356978541175506,-31.221187171281535,-176.81624647223012,0.7217955679271271,-0.10527766777105137,-0.8196557460852861,0.3200380286522012,-0.0410393780261901,0.07542131208042414,nm,0.0
35.940448,-15.9891426616803,-28.009055591887126,-173.4043573796728,1.960720123340357,-0.6545788061831945,-0.12278532299389029,0.4052292420853211,-0.3432732060540797,0.12092909348894497,nm,0.0
35.94995700000001,-16.157122018961047,-25.595943138788304,-172.0446308560967,2.793320317841917,-0.9852242960726296,0.7305055471141964,0.08290791418350515,-0.46391898060447523,0.2584885764373172,nm,0.0
35.95964799999999,-14.694599180969185,-23.344157958207006,-171.0948372430573,3.3156160108241264,-1.3136452660654474,1.4147248360286642,-0.20602046737420415,-0.4736979336225947,0.31236496910419853,nm,0.0
35.96916300000001,-12.611046639414779,-21.592360133177202,-170.61978905943562,3.1320980566613676,-0.7310741254082174,1.6911824417997345,-0.3336271270259586,-0.3963276979304504,0.254849202434515,nm,0.0
35.978666000000004,-9.375509750593324,-20.321623600884152,-170.58181328270996,2.773514481811236,-0.3763879321980772,1.751180847433386,-0.5642938948513756,-0.33874357303584157,0.2388316370897507,nm,0.0
35.98817600000001,-5.769590622064487,-19.912357829665517,-170.94244860411885,1.8758969976226532,-0.049966843109632855,1.3504769521825108,-0.6651211483578385,-0.1788525048840178,0.17488417434378742,nm,0.0
35.99768599999999,-2.365617022919522,-20.65119596469773,-171.5793956771407,0.6700084110152744,0.1842849473437856,0.7885177413798319,-0.6635749629806563,0.059719678673760046,0.10693541206378579,nm,0.0
36.007204,0.3686662956034379,-22.289942053247497,-172.3049004595857,-0.3699127916960766,0.4168855105231862,0.5666860601967012,-0.5597612146558116,0.26395407300452234,0.05303590346360955,nm,0.0
36.01670200000001,2.2685816582872853,-24.50471197188397,-172.84448485301388,-0.9107216479589256,0.7630642246954634,0.2903619364294916,-0.4129461166674078,0.4050283213581883,0.04087247040768821,nm,0.0
36.026216000000005,3.5159137867191905,-27.328921478313482,-172.98639121015745,-0.7276988732831814,0.8224868446502456,0.08621844244875948,-0.3022652781864102,0.5437828275801899,0.07873867101853266,nm,0.0
36.045109999999994,2.8763828753892393,-32.77327800743151,-172.2899262262734,-0.16782621455106894,0.9004316233572108,-1.0662904141853236,0.056957576352473206,0.5000500322772239,0.009990743948695913,nm,0.0
36.05470600000001,1.8593994189257532,-34.200770593970674,-172.02637104740558,-0.03134022743552378,0.6495638050635889,-1.5782255891690034,0.11949690800961794,0.31664022120711954,-0.06036840196181965,nm,0.0
36.06419600000001,0.6497042143211051,-34.75225007712073,-172.3352669668147,-0.47411212980089257,0.48381636360654495,-1.5004711892508966,0.17323124960728484,0.1470438565201143,-0.19943879083524543,nm,0.0
36.07361900000001,-0.5094629715392615,-34.25576990776163,-173.20543796897886,-1.43738069931184,0.31152926016798677,-1.170895265133147,0.19299524250663244,-0.06382361482622097,-0.306033371589706,nm,0.0
36.083166000000006,-1.6225154919951879,-32.9225244248397,-174.33744443027643,-2.4922295368536695,0.08603853052609996,-0.8284835611443592,0.2046045028452252,-0.23424449895350946,-0.35025312433744277,nm,0.0
36.092669,-3.0281031807965304,-31.588903773820338,-175.3280356218742,-3.745257735204517,0.01272591936370049,-0.6540212665839431,0.25252046721100607,-0.23323670759612755,-0.34878556612790074,nm,0.0
36.102175999999986,-4.743380217998386,-31.120936150831415,-175.87017467308792,-3.8030494606548437,-0.2117293868716258,0.08904679982193142,0.2913234901884321,-0.059413543117859936,-0.28728064231934874,nm,0.0
36.12115499999999,-7.977427912394134,-31.050735370559508,-176.12667187673597,-2.43762693730872,0.21127761116782975,-0.9027192555487644,0.2175499181569089,0.017650598232471178,-0.14222789777443692,nm,0.0
36.17838599999999,-12.96413633744213,-25.129661154155706,-172.2565473726535,2.7605922014427224,-0.6587758481213014,1.0064340072094102,-0.020007705352476774,-0.409925815992018,0.17316611808241322,nm,0.0
36.18789799999999,-11.41676694084144,-22.97183257767278,-171.4553352910104,3.233046165883022,-0.8892671086941522,2.029851055227277,-0.22752668481077745,-0.45650848804137073,0.2868903942591344,nm,0.0
36.19741300000001,-9.430702819304708,-21.156003811587865,-170.63270157394956,3.1491316255551807,-0.48207309808939725,2.2017672988437287,-0.3164174003242564,-0.40547510770338535,0.3136671607924407,nm,0.0
36.20690300000001,-6.814453942570575,-20.077096631406267,-169.94076225747577,2.501022736122655,-0.08674822845037701,1.7448487281628362,-0.45608088300659355,-0.28487601144835506,0.32191361896738513,nm,0.0
36.216429000000005,-3.8269450828423492,-19.685388492403764,-169.68632609085648,1.716781084551428,0.03202799056407746,1.278585932132922,-0.5492541184634715,-0.16617977517240437,0.2526669134655992,nm,0.0
36.22594799999999,-1.0929893274285247,-20.079898772757122,-170.03828903904062,0.7138919246990288,0.08302387121818826,0.6030503854647297,-0.5301950544408366,-0.002552886993342767,0.11355366686011432,nm,0.0
36.23544000000001,0.9343666995680157,-21.4989100764346,-170.90202925600235,-0.33927369155802767,0.3305539158965299,0.29075628312070595,-0.4308651845032929,0.22761229379180073,-0.031178382674577825,nm,0.0
36.24496099999999,2.480767556869694,-23.658213643830894,-171.92234961348868,-0.9358778462568346,0.5974797879144793,0.43113096113756755,-0.35682181931693957,0.3950677375567905,-0.08769826061317874,nm,0.0
36.25447399999999,3.61195169664666,-26.181088826880444,-172.73204790936433,-0.8549255639647255,0.6224244944450208,0.09794685269556945,-0.2806136576010524,0.4834771847320205,-0.06883480587500357,nm,0.0
36.273348999999996,3.4362674928407446,-31.440032442441304,-173.29539774348424,-0.04286873587739913,0.7562996036568091,-0.9739744575936509,0.0064324242859721366,0.519120283100766,-0.06921276826517453,nm,0.0
36.29244600000001,1.7891231896880666,-33.77944263446063,-173.47035452377722,0.08703929019121946,0.395257462115731,-1.5856768118293099,0.13383617546268764,0.14999171605842937,-0.14258867827167354,nm,0.0
36.30197100000001,0.9705812944665546,-33.11952038925246,-174.02288865583094,-0.7572356027550011,0.2310780655055412,-1.5241601367206474,0.14106471816076963,-0.1057441689005341,-0.20172048451842126,nm,0.0
36.31137699999999,0.46057733341241824,-31.506883138235345,-174.8861207583172,-1.7202358263258146,-0.004627699631290125,-1.0707596231066974,0.1080793729832327,-0.3021675552901286,-0.22829364435840838,nm,0.0
36.320921999999996,-0.15359422487773036,-29.534704599557454,-175.8189349632091,-3.097784552212086,-0.03168536101991183,-0.6209331776297616,0.12883609437683047,-0.37392671879201356,-0.2502510912042145,nm,0.0
36.33044100000001,-0.7850445993822717,-27.811973295411995,-176.44292060961308,-4.086048758442813,-0.12452257745767248,-0.24553948501549905,0.12541229435856602,-0.3254288843834028,-0.1867713865253122,nm,0.0
36.339935,-1.5969829211673263,-26.983242091466217,-176.6448114106943,-3.8744263461017705,-0.30106323115167943,0.18548882278231163,0.14566098969646551,-0.14557272724394546,-0.11639067471901295,nm,0.0
36.349447999999995,-2.526664727745802,-26.743463742502716,-176.63984060302369,-2.983231746323845,-0.0978404648625411,-0.4550276120112529,0.16025312293855964,-0.026757025051707857,-0.08414490867318962,nm,0.0
36.35895199999999,-2.732874149234963,-26.620648467321157,-176.5345886805058,-1.6709485793974166,0.004105034300372114,-0.8640282882171809,0.0,0.0,0.0,nm,0.0
36.387617000000006,-4.027758779333795,-26.064682639978255,-175.59900325273352,1.8126523056982178,-0.20239923025992196,0.1524643073667897,0.05025148754526478,-0.13149593523192754,0.05117847657389608,nm,0.0
36.397110999999995,-4.250376875360021,-24.83864153809214,-175.13965023096992,2.9654496490809232,-0.5546537155189163,1.0519463447870896,0.051471673641406354,-0.2300906624547111,0.07185333805259894,nm,0.0
36.40662900000001,-4.863117597521839,-23.551088992811497,-174.5600708700924,3.168118329769115,-0.2577583998539405,1.6337669884286143,0.12609785579739646,-0.23540519645839747,0.0647413616905387,nm,0.0
36.41614999999999,-4.574500544038004,-21.975816938873173,-173.75636290545475,3.5138727291618217,-0.30470768731253856,2.3334597645255433,-0.029575312960107313,-0.3080361724498967,0.1819965724012685,nm,0.0
36.42566199999999,-3.665763382035482,-20.2787388232703,-172.8713009961454,3.3673572808726697,-0.3958696704333343,2.5180333267637893,-0.13787706256572194,-0.34628960380176416,0.241107807593865,nm,0.0
36.43515400000001,-2.67733921435275,-18.989229764607582,-172.17893845875747,2.384492911328317,-0.005862582507476964,1.7733800779333402,-0.16024789933092598,-0.26946430099264257,0.2030903688992104,nm,0.0
36.463705000000004,1.6176304940995567,-20.991397321251668,-172.58842345874936,-0.5893243526551624,0.09983688130672631,0.5155016697702719,-0.2976779488508595,0.32571342060054775,-0.022001156393426317,nm,0.0
36.473209,2.4325067147218435,-23.532677638423205,-173.21968380270783,-0.8720431433138867,0.23097007533598685,0.5671873129619484,-0.2220164692977638,0.49678319411909894,-0.06690790639032101,nm,0.0
