timestamp,roll,pitch,yaw,acc_x,acc_y,acc_z,gyro_x,gyro_y,gyro_z,markers,motor_input
35.04664500000001,-5.075899613087496,-22.652170935007245,-177.77885069002272,-0.09808666441016009,0.5012819498246757,-0.5111613643848302,-0.1728965120930351,0.4217726360666265,-0.04410077103594617,nm,0.0
35.056152,-4.290446124781099,-24.71893123690167,-178.01780457060946,0.2995034926109103,0.3947644952865054,-0.4801195391715968,-0.1669944977651986,0.42006733750401204,0.014393668749664452,nm,0.0
35.08468400000001,-4.951360910982684,-27.4691974467226,-177.8803503121205,0.303012058551381,0.30710632524518067,-0.47939593795290125,0.049083077009641964,0.011506624699304338,-0.02643375681433972,nm,0.0
35.094201999999996,-5.406758934989317,-26.48595773948417,-178.187634428841,-0.26666061382498185,0.23734189228946145,-0.18335470879471738,0.08021209340417462,-0.18210420071170622,-0.10339300235783054,nm,0.0
35.103701,-5.827703609057514,-24.872921079862053,-178.85300010033765,-1.1928035121074239,0.23206391745145724,0.28081741478241706,0.07671762002026139,-0.30893620322884735,-0.17035463489640265,nm,0.0
35.113213,-6.113447278231088,-22.80090192076646,-179.78082300383585,-2.564218161735757,0.2655630684200811,0.6312722992944864,0.04996506340271733,-0.402124507958626,-0.20969023156581282,nm,0.0
35.122544000000005,-6.352230073406881,-20.921623211087063,179.33983577562017,-3.861117528061222,0.24010150617370987,0.673585736538889,0.035847401695159306,-0.36422328579434937,-0.19486124906859134,nm,0.0
35.132047,-6.9410320070739635,-20.293997364866744,178.76891359881182,-4.396949423092647,0.32847899438893946,0.7298560905289875,0.1013638383162715,-0.11511537115502811,-0.15679079467983303,nm,0.0
35.151065999999986,-8.135479271639399,-21.66903747145911,178.12555479622287,-2.7118630559664547,0.18067752135269505,0.057338761637526665,0.10818175143279701,0.19953783563208602,-0.11341559987261704,nm,0.0
35.16058100000001,-8.071116825366264,-22.667087601542008,177.64653278014694,-1.8794622232592557,0.184262468965426,-0.029735035180525088,-0.011157632270493665,0.21271975764598544,-0.09151569083625742,nm,0.0
35.170274000000006,-8.048847021523871,-23.715403088587436,177.3164186202199,-1.2174127249401605,-0.1000297147363609,0.1692588322820431,-0.0014114188681959735,0.22249561243599245,-0.06468713514733392,nm,0.0
35.179608,-8.658665465429566,-24.642535427046795,177.283310307569,-1.0007888025730014,0.21361409799411327,-0.4304709435363395,0.1135363702862889,0.19283241065558068,-0.05676783991564611,nm,0.0
35.18928700000001,-9.112296794920255,-25.16214649676347,177.62290858728542,-0.5327233471000563,0.02658617753935218,-0.40242870223373206,0.08041072052301544,0.11290497997926682,0.029764661185327963,nm,0.0
35.198791,-9.730466238894953,-25.20716225342305,178.25338468047957,-0.06723903946113545,-0.2040733380600318,-0.44447137933947956,0.10566223851555866,0.017556151820489377,0.07369779670569408,nm,0.0
35.21764400000001,-11.671270087002807,-24.6617965523913,179.98465906443016,1.096974142695197,-0.2638750155730327,-0.354543095123481,0.15931945543305,-0.05889524049019928,0.10627720790484571,nm,0.0
35.227160999999995,-12.283356812635505,-24.06779536739092,-179.1233340277621,2.0368271997802188,-0.5726030220401989,0.051866819922272954,0.10558628529097526,-0.10571995772613015,0.12853312228252992,nm,0.0
35.236661999999995,-12.880897809169479,-23.285242953335192,-178.29953925701804,3.1151010943176245,-0.7666672681477328,0.768966977892359,0.10599144007844291,-0.14189151234213906,0.11741999511301238,nm,0.0
35.24634599999999,-13.120712126747053,-22.41180825814327,-177.41953712803786,3.896619425249136,-0.7530205634049744,1.316040906931298,0.04349194009908935,-0.16092140267468721,0.1580224179351118,nm,0.0
35.25585799999999,-12.6309082754162,-21.39154748595787,-176.40276037633794,4.255669450448875,-0.9337698083656646,1.6658469948503425,-0.08738643657042966,-0.1968566622504936,0.2404145775159295,nm,0.0
35.29391100000001,-7.358784192139477,-19.645837478549062,-174.1715832756338,0.06327102095322994,-0.06986536515669317,-0.21371831973247019,-0.33031434070057136,0.1641627077522672,0.105401370327408,nm,0.0
35.30342200000001,-5.995665975908389,-21.38836088310553,-174.5634872939186,-0.45025415661942697,-0.13194943158135508,0.122448280628499,-0.2970385210306603,0.3335487431063649,0.016163548530081503,nm,0.0
35.31294199999999,-5.293193701662,-23.41775210555561,-175.20170542999855,-0.7229894043933456,0.31689937945866276,-0.46462627469277357,-0.17412119820755043,0.4046008211040022,-0.07507705743207915,nm,0.0
35.32226499999999,-4.416869408823198,-25.753845409542844,-175.79307241342275,-0.4021436523725897,0.46057833845441987,-0.7613044446705959,-0.20413621845249783,0.4652806500776449,-0.04615978860496684,nm,0.0
35.33194800000001,-3.495953745474387,-28.07613855794492,-176.2146369120747,0.17256435532979,0.38121908573205543,-0.5269593180780103,-0.20480561560784427,0.46388748076492503,-0.001570636114805799,nm,0.0
35.34128999999999,-3.0207113652711217,-29.481037617577293,-176.50921975877898,0.2774485501117045,0.571014097836913,-0.9981016570014428,-0.10945447474689149,0.286929539199333,-0.013721806118962182,nm,0.0
35.388859999999994,-2.3653324728379377,-24.365146649147793,-177.55574338405953,-4.482446776387474,0.10201212302134684,0.6358011088650586,0.016967849857868134,-0.26504888288258677,-0.015623441977630876,nm,0.0
35.398368000000005,-2.845181018147045,-24.357233528534532,-177.37942809442643,-4.666581657751625,0.19734586938030224,0.40847481814486053,0.07939090734241475,0.013865498300634592,-0.005615734340187559,nm,0.0
35.417373999999995,-3.048163790376462,-26.770574938691837,-177.7019115931753,-2.2248255365793423,0.3731908824602738,-0.4370130838583008,-0.0446917724012801,0.281067594247487,-0.07120488425092941,nm,0.0
35.427054,-2.29510281163661,-28.074037186893072,-178.34294608618225,-0.7865363709989459,-0.0031235108956494174,-0.13549130730241407,-0.15081860536442113,0.26790455456624407,-0.05976044221973944,nm,0.0
35.445891999999986,-2.8838362607779606,-29.655027449375964,-179.21263542342874,0.05869852055118573,0.37898713357346986,-0.8735775020189527,0.06999308963643938,0.10356264931914587,-0.09565216533336077,nm,0.0
35.45559700000001,-3.493991404616833,-29.357404964739708,-178.90034215592576,0.7699879862750989,0.04915852478102603,-0.4763879762063192,0.09946668644667826,-0.045997417729556504,0.001848292269015531,nm,0.0
35.464909000000006,-4.91449855885215,-28.55754993763166,-178.07018092742626,1.166768486281366,0.01930590860727747,-0.37024725172724177,0.24516848347673356,-0.1416923793870773,0.02812636342848834,nm,0.0
35.484115,-8.583769642775641,-25.67123322128673,-175.60714362814042,2.3409953154627967,-0.4529366299092824,0.7074595963333107,0.3600231243115299,-0.2947958438406717,0.08107299224575075,nm,0.0
35.493629999999996,-10.33151791548781,-23.842280653058197,-174.47646744442824,2.8533901636131533,-0.3937356711006612,0.9662279912086464,0.3401788406182165,-0.3256899582456043,0.07987524779225459,nm,0.0
35.512652,-11.41434269460646,-20.798951193268902,-172.97806476250688,3.2244784451813544,-0.7021104124694207,1.3989803860876278,0.08159671900508435,-0.25382761118752356,0.09399282028856058,nm,0.0
35.52214900000001,-11.163304159766584,-19.885209471398422,-172.74301148890564,2.5552828372723138,-0.48257861714340655,0.9914417755199003,-0.032404368232776384,-0.17593837128844977,0.06433621467321105,nm,0.0
35.53167099999999,-10.457231652713231,-19.76116269386892,-172.81384287910421,1.5464517209989534,-0.40888433563228943,0.6421002171095905,-0.13723534145323682,-0.02992020353692669,0.03340917432039142,nm,0.0
35.541196000000014,-9.818298079156781,-20.64442414584673,-173.1147352272908,0.21119845019994354,-0.0846165758597707,0.055454331638830276,-0.14922335267591613,0.1722734792492593,-0.016436207205122035,nm,0.0
35.550691,-8.887122577876168,-22.311082500933793,-173.48237333363463,-0.5804508024218786,0.048065440812228175,0.03473768942200199,-0.21967399782569802,0.3226446392683785,-0.005691604410867212,nm,0.0
35.560204,-7.875001042802555,-24.529452927715354,-173.7633690884642,-0.6372136501845505,-0.09539510590722707,0.17450330526912342,-0.24260456700194186,0.4322170992294588,0.02401565687172345,nm,0.0
35.579046000000005,-6.863542168807775,-29.2091616125296,-173.96444068691483,-0.4147524767352396,0.4901225147112965,-0.6455464145428519,-0.16984746424929298,0.4368033073989157,0.05332766624079314,nm,0.0
35.58855399999999,-6.116940189028271,-30.676973221065666,-174.06567189102185,-0.06518205787367368,0.29998900018578484,-0.8266059332971691,-0.16803460708282741,0.29015279634907926,0.05450918466817007,nm,0.0
35.598060000000004,-5.916061576446046,-31.305078543299594,-174.4414945954176,-0.5084429742371983,0.5330847452944322,-1.177257728742036,-0.055387695244156064,0.13307474589173726,-0.05432596012715692,nm,0.0
35.626599,-5.657065190993098,-28.946076871778562,-176.2289125964729,-4.248044122292374,0.39463488806451796,-0.3855632069417075,0.050256773193875046,-0.22130739465032948,-0.11375218999624301,nm,0.0
35.645613999999995,-7.727690556230136,-29.394727205240482,-175.53965093991312,-3.870507267147612,-0.051166428691168886,-0.2220663799489447,0.20581742675357456,0.16084375948086407,-0.020994500864657355,nm,0.0
35.655124,-8.63334242110864,-30.450968446027915,-175.24984680818375,-2.7568945056678538,0.28755630794821596,-0.8285473435288718,0.13163321172427958,0.2351274609873737,-0.03186602266110746,nm,0.0
35.66465400000001,-8.543239212888533,-31.531933715370126,-175.19465808455882,-0.9329430682211214,-0.14188776427381336,-0.5625027282252876,-0.041502946312111426,0.22609327049084757,0.02103949652250242,nm,0.0
35.683684,-11.08446519652779,-32.71579539230691,-175.1283005500728,0.995004221540651,0.22367794475489275,-0.998269739879217,0.26626087230331763,0.0683762936130343,-0.16613555360660365,nm,0.0
35.74089900000001,-12.322566457328628,-20.243266751346354,-170.32610525203407,2.550984108110384,-0.6435567870316619,1.8028409739875995,-0.30977342431086147,-0.45393097923826087,0.2954865393419055,nm,0.0
35.750406,-9.476474090217492,-19.168426332277974,-170.02875338004753,1.4176783549651932,-0.4070052462982234,1.3283079204536934,-0.5009752882404636,-0.29260083442063556,0.25106091027534666,nm,0.0
35.759918,-6.337731962247748,-19.29388632886455,-170.2474973909448,0.117419635752333,-0.03246975641711594,0.45641235541582564,-0.5981167442769213,-0.06610946862270804,0.16198563834588545,nm,0.0
35.769428000000005,-2.9972999427969818,-20.834120260544033,-170.84308438848865,-0.6367449388786179,-0.07375396465042582,0.5181964273439679,-0.6797009990328959,0.21153935879037755,0.10857001922918148,nm,0.0
35.788455,1.603228344548942,-26.59323067339677,-172.48937144411335,-0.7055437713865047,0.8569118637282324,-0.14763277402704816,-0.47145359223260136,0.597159533064641,0.010052288592060999,nm,0.0
35.79796300000001,3.5365481090167914,-30.07894649172388,-173.11693918910703,0.2695599091471563,0.8234950191087378,-0.10087678354505672,-0.43516745879676905,0.6600458861055456,0.05654947230914753,nm,0.0
35.807299,4.291708579718033,-32.9930887390856,-173.61261998402188,0.8401262421377106,1.0485538953478906,-0.8997673145461783,-0.2051384392152151,0.575041276909779,-0.021449083554832934,nm,0.0
35.83585099999999,3.642679548010115,-34.00298566376463,-175.25979115975883,-0.4641775076853169,0.6817703763313981,-0.9954295657278804,0.14287346119162372,-0.20693936582321118,-0.2292905231674716,nm,0.0
35.845372999999995,2.524248784568349,-31.84204666148523,-176.0018825174782,-1.937340990975722,0.5060405744010626,-0.6503576091518516,0.2113897154163922,-0.4062559047199393,-0.2714810782628958,nm,0.0
35.85487499999999,1.1305738110966248,-29.635840693749152,-176.66780214528868,-3.791956920793595,0.2573404444483685,0.18921661318365587,0.2589071156044953,-0.414409454531949,-0.2772257714523548,nm,0.0
35.864417,-0.8315313293187422,-28.187977752231717,-177.05605961123018,-5.004224283737393,0.0419381097042814,0.802564253036578,0.350855196026778,-0.2592777448269625,-0.26880737920022557,nm,0.0
35.873920999999996,-3.251327356612165,-27.890933923350488,-177.28261193081457,-4.421926745796994,-0.2554599172798404,0.4304434632727269,0.42192502289662165,-0.02668432441467473,-0.27385649445244864,nm,0.0
35.89294899999999,-6.039340539195458,-30.06999862114215,-178.51935689679638,-1.885186419974287,0.10727163295236712,-0.31410660941028606,0.08317433550334223,0.2690384942431423,-0.19324534150341224,nm,0.0
35.91190900000001,-10.457218641197409,-31.557783953249505,-178.17596683784035,-0.3086782753166937,0.39242399622305574,-1.2732336590285962,0.5529639510069634,0.11284706270638367,-0.24138410059950563,nm,0.0
35.921414999999996,-12.356978541175506,-31.221187171281535,-176.81624647223012,0.7217955679271271,-0.10527766777105137,-0.8196557460852861,0.3200380286522012,-0.0410393780261901,0.07542131208042414,nm,0.0
35.940448,-15.9891426616803,-28.009055591887126,-173.4043573796728,1.960720123340357,-0.6545788061831945,-0.12278532299389029,0.4052292420853211,-0.3432732060540797,0.12092909348894497,nm,0.0
35.94995700000001,-16.157122018961047,-25.595943138788304,-172.0446308560967,2.793320317841917,-0.9852242960726296,0.7305055471141964,0.08290791418350515,-0.46391898060447523,0.2584885764373172,nm,0.0
35.95964799999999,-14.694599180969185,-23.344157958207006,-171.0948372430573,3.3156160108241264,-1.3136452660654474,1.4147248360286642,-0.20602046737420415,-0.4736979336225947,0.31236496910419853,nm,0.0
35.96916300000001,-12.611046639414779,-21.592360133177202,-170.61978905943562,3.1320980566613676,-0.7310741254082174,1.6911824417997345,-0.3336271270259586,-0.3963276979304504,0.254849202434515,nm,0.0
35.978666000000004,-9.375509750593324,-20.321623600884152,-170.58181328270996,2.773514481811236,-0.3763879321980772,1.751180847433386,-0.5642938948513756,-0.33874357303584157,0.2388316370897507,nm,0.0
35.98817600000001,-5.769590622064487,-19.912357829665517,-170.94244860411885,1.8758969976226532,-0.049966843109632855,1.3504769521825108,-0.6651211483578385,-0.1788525048840178,0.17488417434378742,nm,0.0
35.99768599999999,-2.365617022919522,-20.65119596469773,-171.5793956771407,0.6700084110152744,0.1842849473437856,0.7885177413798319,-0.6635749629806563,0.059719678673760046,0.10693541206378579,nm,0.0
