timestamp,roll,pitch,yaw,acc_x,acc_y,acc_z,gyro_x,gyro_y,gyro_z,markers,motor_input
46.002645,-46.772860671050424,-15.542380802121706,119.1352544659374,-1.2430793733142211,-0.1883779031505525,-1.6876505433031528,0.5470800771479372,-0.06083481244781037,-0.26483770292577385,nm,0.0
46.01198299999999,-46.263485727692085,-16.963097196944755,118.2286139990303,-0.9582493637104633,-0.39278729749202357,-1.3414356780811516,0.2106286146448623,0.23200048775579366,-0.1462455032167935,nm,0.0
46.040685999999994,-34.28530520341993,-17.33849847740847,115.38354831344354,0.045192479449134716,-0.4745912786257644,-0.5815703594175811,-0.44895318303668275,0.962643079169356,0.18326211380309768,nm,0.0
46.05018100000001,-26.70388368026054,-17.34380081682734,114.51488724876984,0.14515828185036792,-0.14425388155334723,-0.21020282791173708,-0.6011673934952765,1.3247970621899716,0.28156961154437177,nm,0.0
46.05969300000001,-17.24201950180685,-17.212905180730022,113.43904431920937,0.3638648657669069,0.026239465585975622,0.7605692085422211,-0.7500055888408093,1.653233580999598,0.3485449009613518,nm,0.0
46.078720000000004,5.478288827739834,-16.822641615555735,112.05070017243143,1.9043411363403677,0.4933871566633194,2.6772288881295445,-0.8884652575092059,2.0872489755460903,0.5941184444870615,nm,0.0
46.08841899999999,16.634016404201102,-16.575145521206586,112.32287311946334,2.866855567077688,0.7733426713462463,1.9449239158111664,-0.847855377224853,1.974110168180217,0.690333097963425,nm,0.0
46.097736999999995,26.654491167972974,-16.607177898078497,113.32994403128085,3.3339520633957376,0.8252077735462702,0.8289916256222877,-0.7360841835444765,1.7864195853502496,0.7666982270917251,nm,0.0
46.116758000000004,41.36691134080509,-18.142805716270406,116.25742224687987,3.552874399177036,0.7038110280828849,-0.018794695905922795,-0.3308310777392966,1.139286613838242,0.6638272023730896,nm,0.0
46.12624199999999,44.33073227898636,-18.788882762524068,117.95699335034091,2.9603133708742124,0.8370439809047616,-0.9281503346686014,-0.1416071246706228,0.5710417274641862,0.5191836920269944,nm,0.0
46.13575,45.020340289742364,-18.882557694811904,119.79693389621337,2.213130397816281,0.6731974758567357,-1.2916897217567904,-0.047424633130895455,0.1344357889058663,0.4039058951782925,nm,0.0
46.145253,43.68943367932104,-18.499860630519784,121.40033626981975,1.9336616141017373,0.6415854926480539,-0.6846761070644856,0.061787006458947684,-0.2453314226504617,0.2265871752087514,nm,0.0
46.15476100000001,40.23857196271998,-17.677824037972755,122.66091785202252,1.2848288446433465,0.7283914953596645,-0.357294026941747,0.20858112606453835,-0.6329849688598962,0.028912147509229623,nm,0.0
46.193026,11.569232614981576,-12.514629376664686,125.81182636012228,-1.360454190620008,-0.0806095252306957,1.4339393031334828,0.827043673205727,-1.517180783026824,-0.309775022358332,nm,0.0
46.205094,2.332638117068184,-11.420002077042474,126.15479219570888,-2.384024437922732,-0.707698500541007,2.0600829160677065,0.8910753980805894,-1.5799121219143617,-0.3189888929045669,nm,0.0
46.212039000000004,-7.640361058976712,-10.30416868898427,126.13236448727638,-3.1722113842475914,-0.7645091814333573,1.2088948631551975,0.9826451539401054,-1.7024784075724635,-0.38289923017352373,nm,0.0
46.230886999999996,-26.01983295706664,-9.629906779028234,124.34449067273785,-3.4970969253756516,-0.7716307129121385,-0.5926176026680173,1.0117859150885893,-1.390099071903826,-0.5309377919428989,nm,0.0
46.249911999999995,-38.66472644154101,-12.382335529122457,120.94605810367837,-2.151569324386627,-0.28626449133979853,-1.7626794103988166,0.8513176073743896,-0.6934960123814283,-0.5530982149182985,nm,0.0
46.27835999999999,-42.13738358859981,-17.416319488365406,117.01368026177916,-0.8470170491927483,-0.34585192766613027,-1.5410388785054607,0.10972100764160783,0.2829243824579856,-0.20219163912512428,nm,0.0
46.28777400000001,-39.0688899604852,-17.73060929006953,115.49672346995442,-0.4782844177390867,-0.5411413526281383,-1.3237955468365559,-0.19386489927696043,0.5628648656867258,-0.11276054397972815,nm,0.0
46.29727600000001,-34.20333520431548,-17.828587138814516,114.06479615102349,-0.23939131891172613,-0.5647972080642965,-0.8493387930756306,-0.3618653676642367,0.8603844423677128,0.015353416779608694,nm,0.0
46.30697599999999,-27.461034610703756,-18.00579637108251,112.6768657230214,0.1322579693907135,-0.30389330275074816,-0.4778513093905278,-0.4675692800738068,1.203355493309976,0.14074753185359642,nm,0.0
46.316475,-18.32758208324555,-18.130180364413334,111.21508280696492,0.2293553449964778,-0.08590419729028453,0.27420958246908167,-0.6172173551644959,1.6323635864071788,0.2762043298892559,nm,0.0
46.325992000000014,-7.323140809806375,-17.874268154214846,109.75040183501389,0.6706328009027708,-0.2054377932314588,2.0272340005259144,-0.7719876252577051,1.9559153268058183,0.38736307901573547,nm,0.0
46.335509,4.329636855162936,-17.364259871008038,108.61834921803933,1.7988794210300685,0.1290778168583272,2.566941059552306,-0.8186200110795903,2.077800946013489,0.4767722643648902,nm,0.0
46.36402899999999,35.38961916579873,-16.839266294602467,109.36333385867555,3.3337218878549635,0.5774284624080434,0.10988104185428574,-0.5239163840633279,1.6495655747454774,0.704622980282635,nm,0.0
46.392537000000004,46.889449136608064,-19.037758066074556,113.79826346402002,2.27399343263146,0.45700762456019434,-1.4796400817836715,0.03341178273228911,0.21310848587127623,0.40606659570956827,nm,0.0
46.402038000000005,45.67013380731908,-19.074921891588378,115.7128645060987,1.9974813546554282,0.2645000414085567,-1.048881336283419,0.10329866135197875,-0.19550950757196248,0.29453140092133007,nm,0.0
46.41156000000001,42.28419609622171,-18.559905719087475,117.45501224562204,1.4220908614680148,0.26555113520778617,-0.5617542203213284,0.19525584237595184,-0.608938186761686,0.1211296179266321,nm,0.0
46.421234999999996,36.990483901972084,-17.359433576763717,119.07437179096974,0.6801472910100383,0.30066854150030514,0.015532012472170873,0.26696038670096783,-0.9905559204167308,-0.011442267135968114,nm,0.0
46.43075400000001,29.861322522196804,-15.500009497336494,120.55253393049377,0.05225642663567636,0.18461560827488713,0.9958154745930147,0.3602709515906623,-1.3613405349885281,-0.11625333887731627,nm,0.0
46.44031000000001,20.779065934642677,-13.44145570493455,121.61616734570205,-0.7891595524949302,0.0809794269540097,1.378533933089683,0.5604365904678359,-1.7086056565859247,-0.24900113033925778,nm,0.0
46.449810000000014,10.850515148543524,-11.628360490490625,122.25046264183888,-1.6146217110323555,0.06595698778314836,1.7616317686737883,0.7240429313455573,-1.826447112761488,-0.3104177412617122,nm,0.0
46.46882500000001,-10.13317543933928,-8.452746089385538,122.3635631559741,-3.8989454430556703,-0.6391562395681637,1.4282555225149125,0.890762880757731,-1.9621791496465586,-0.38809681202312774,nm,0.0
46.47815800000001,-20.8607888235374,-7.491806033526364,121.45431316419833,-4.073371619371754,-0.7013239189152376,0.07226012364252542,0.9691237634884353,-1.8953401863539434,-0.4789903806079368,nm,0.0
46.51627300000001,-46.844113919177836,-13.58898776729256,115.91017873708094,-1.4008701748925727,-0.10479371975355202,-2.1424054922460245,0.7478898810405454,-0.4182997483993692,-0.325936963599414,nm,0.0
46.52578600000001,-48.061757573655676,-15.67584815129015,115.34109446972202,-1.1332648726726464,-0.3350283888783509,-1.951180696538219,0.487145586630881,-0.02287386946508241,-0.16856667473822845,nm,0.0
46.535123999999996,-46.99361587726917,-17.03080740715272,114.52325445372455,-0.9037221494262752,-0.5588322039101462,-1.7120510822318302,0.16812389982486062,0.30941688880493345,-0.09664346522172804,nm,0.0
46.54464100000001,-44.00045440344043,-17.765480640439943,113.39028897421657,-0.361604457156535,-0.6164233740677411,-1.5400153629213615,-0.08883690543109132,0.5913216448544752,-0.04122414270214466,nm,0.0
46.554066000000006,-38.92079140075441,-18.339190551949756,112.21812359473672,-0.19296704167058545,-0.5777195442061689,-1.0864179837303138,-0.25958340378319045,0.9451031697804916,0.08604493541277251,nm,0.0
46.56375800000001,-31.73004653679834,-18.916560679291486,110.99194914523228,0.27924811923183795,-0.056823062451271514,-0.827369959542348,-0.38526365831273807,1.3205201197913812,0.2186913649671192,nm,0.0
46.592276999999996,3.1206705199148113,-17.870940160786823,107.82025375504219,1.8087534276714958,-0.09856978042005324,2.7815770644728803,-0.8763324177245513,2.1838959923796066,0.6316231960177802,nm,0.0
46.63032999999999,43.93863011348889,-17.01748131615843,111.7806473483697,3.555588132045781,0.6726258216982617,-0.1059533274626972,-0.4389305552855761,1.3469480487471068,0.7174616762778715,nm,0.0
46.65883099999999,49.03197434896004,-17.557721599450126,116.53182352057847,1.8125962479511077,0.6858788365202863,-1.121466002514625,0.04791949575419053,-0.13551180854141695,0.2556213341507738,nm,0.0
46.668338000000006,46.061279240868025,-17.280254053289287,117.6512790402576,1.3444430747668588,0.6082939156993942,-0.7084250363905862,0.2086248956502227,-0.5199274695775247,0.03660974147879967,nm,0.0
46.678032,41.14685983753612,-16.54017718430817,118.67794930161872,0.8651927436624369,0.49091031150328557,0.050757107830502225,0.314230894578992,-0.8890032138486686,-0.0899194385311779,nm,0.0
46.68754000000001,34.18035604943392,-15.154477841564399,119.82914712329277,0.3608987420711876,0.252079993955425,0.9114511307236393,0.41554606686428286,-1.2949871912772144,-0.15934551847778533,nm,0.0
46.697046,25.34107918846261,-13.561934347646307,120.80550522249247,-0.3693081510592988,-0.044488005198541375,1.1513970003666567,0.5937951817974269,-1.6292361341592532,-0.25153625753156,nm,0.0
46.716093,6.202050307350729,-11.24473672345878,121.93775053735403,-2.145648467625267,-0.5993533715770918,2.1856363073951495,0.8052092139516941,-1.6990276601136234,-0.30060799426841683,nm,0.0
46.72561200000001,-3.9973444783646226,-9.909399012617632,122.06713279750986,-3.0890241729956314,-0.6304407013785097,1.4766598984073311,0.844305499032049,-1.8315832455214727,-0.3519598318990556,nm,0.0
46.73493500000001,-13.822999300831714,-8.668395571770514,121.58474364535209,-3.557667951720646,-0.7987056576257993,0.49924881950158223,0.8205748359574415,-1.76837921791012,-0.41488234657014256,nm,0.0
46.744552999999996,-22.870736695426526,-8.372520530533851,120.40313403790735,-3.555329993810996,-0.7331397062451769,-0.5571598670698882,0.8797561654897517,-1.5545908231278072,-0.5035254672732119,nm,0.0
46.763468999999986,-36.21003072471161,-10.9137847819758,116.77446312824014,-2.255531905762606,-0.3471951443270497,-1.679949734250875,0.8092724577117847,-0.7987583390189917,-0.5703391436109017,nm,0.0
46.772985000000006,-39.76102721203763,-13.148823184576434,115.22643127173488,-1.8293801945167025,-0.36307532305647533,-1.9315736726431765,0.7157058959690497,-0.41896647213262805,-0.45294515707372673,nm,0.0
46.78257500000001,-41.576999129332705,-15.42018687319242,114.13692385562703,-1.1668220197185342,-0.2966193401278879,-1.9018483136243156,0.5692782923285133,-0.12079616611147691,-0.3021599218515781,nm,0.0
46.79199700000001,-41.110587443466095,-17.024415098101844,113.20855924287295,-1.0141200546421547,-0.4894836140841845,-1.5119605760512818,0.26730594996410534,0.2203674434171695,-0.15406058359427452,nm,0.0
46.801354,-38.76319682291309,-17.74445948400406,112.22489039113057,-0.6950708068657965,-0.7171225291372614,-1.3227471279325378,-0.030864674997182387,0.47866680532786116,-0.05117443396130346,nm,0.0
46.81084100000001,-34.90265151057061,-18.11517638451916,111.44697218140607,-0.3208368531644262,-0.6524605314042162,-0.9479011127626186,-0.1950573632147309,0.7196915094727576,0.08683344912969738,nm,0.0
46.830059000000006,-21.036575744288058,-18.7494934103135,110.26164753220714,0.21692790020056948,0.342382781511822,-0.1901384564798062,-0.4904232124489001,1.4785790901405522,0.4038253903651394,nm,0.0
46.858576,9.636626808621449,-18.27046972040163,109.0513338915356,2.026990928574616,0.5887913345161864,1.370601700182326,-0.5903735736010157,1.796656861958388,0.5977215999379405,nm,0.0
46.868269,19.03493463898956,-18.2272746870941,109.63338461610448,2.7316411314586273,0.26153596477052243,1.468816881543334,-0.5941396683053332,1.6950010564846292,0.6995991311552409,nm,0.0
46.87742800000001,26.45251631058563,-18.09696058871662,110.82281307778518,2.925620129929896,0.16669547846472016,0.2704174782014009,-0.5079247797549935,1.3267718677720832,0.693679069727701,nm,0.0
46.887113,31.81280882349788,-18.345762541786733,112.13408151791671,2.8376075479466243,0.25175400445369217,-0.4738620156207494,-0.32368530179021987,0.9784246817887636,0.5901915427868586,nm,0.0
46.896615999999995,34.97315947078384,-18.757396850529826,113.4505503662905,2.7008535255656616,0.5125492434060626,-0.29952050034577726,-0.15400666458623166,0.5964635558475712,0.45676271063881274,nm,0.0
46.906148,35.34584136254262,-18.777328575474108,115.05341731049836,2.187039164423874,0.8316504763211464,-0.41931061293764765,-0.023337660200526782,0.07752683569274485,0.33678337726660534,nm,0.0
46.915659000000005,33.539706935984924,-18.513321492324533,116.80876557033864,1.688429121778554,0.9204496335957244,-0.2810285634133866,0.10435182537251785,-0.31971768447781873,0.22780668599786127,nm,0.0
46.92534699999999,30.28504403505934,-18.46151715314785,118.26173715605081,1.0707405121789455,0.8375956596061992,0.19570001554751765,0.2788702033362387,-0.5410712484034961,0.07658765928811515,nm,0.0
46.934856999999994,25.581231977696994,-18.515439411316056,119.38109954865868,0.5144195102274269,0.6436064935606317,0.6843746937469816,0.4429863207815801,-0.7653560516364407,-0.08164024255151578,nm,0.0
46.953866000000005,13.412929535831712,-17.926719332731235,120.89092942541234,-0.304931031516445,-0.11711320725352332,0.6245038710454852,0.5508280395373815,-1.0636797921964598,-0.2786974485726051,nm,0.0
46.98240100000001,-3.615894399890205,-17.302125069424473,120.95073683532276,-1.138883807287499,-0.5467193408347235,-0.23816187385619605,0.4712063578553446,-0.868712421175477,-0.3438100867113279,nm,0.0
46.991727,-7.808218821262456,-16.90500806073817,120.84664301918454,-1.1370234854148917,-0.4447955876979165,-0.6617677679599475,0.35074124060899275,-0.7169602435743698,-0.26896998879286405,nm,0.0
