timestamp,roll,pitch,yaw,acc_x,acc_y,acc_z,gyro_x,gyro_y,gyro_z,markers,motor_input
17.509210999999993,4.212616625696673,-18.97979122321601,136.29171891430462,0.4428272173857777,-0.15885399902473077,0.5813569343177685,-0.001572562213806549,0.08348789749094777,0.044435602748930506,nm,0.0
17.518733999999995,4.520786369578994,-19.336283915703078,136.86933285494408,0.22303210709846613,0.0015549952034637526,0.46082111356249533,0.008337173342572776,0.10560508323095158,0.054222820355291274,nm,0.0
17.528244,4.727644515925009,-19.878723409750755,137.47618308281616,0.041371184108726616,0.17371320563322873,0.37907472595818953,0.046605942361763596,0.12003760742276066,0.057115948731954164,nm,0.0
17.537747999999993,4.882152831981163,-20.646940466272476,138.1498120255972,-0.11109260487989252,0.326794713074622,0.2540789235964135,0.08287321412368343,0.14749241382507813,0.06590371534278673,nm,0.0
17.556767000000008,5.224292812369187,-22.85177624715128,139.73520796353336,-0.2617204111746844,0.4204712963181619,0.13234207260768427,0.1327885192293664,0.21481576880244363,0.08046121261962147,nm,0.0
17.56629799999999,5.3972172240905945,-24.121693418913022,140.52468719557237,-0.274664456277321,0.39645383993037214,-0.01306971400044191,0.13850545414683516,0.22998875407764402,0.07588351287792681,nm,0.0
17.575801000000013,5.577185050236062,-25.416488379969607,141.28452175281137,-0.3178440108147255,0.38925065391208424,-0.16624498952748493,0.1375963578819389,0.23641664229784645,0.061586106052915264,nm,0.0
17.585319999999996,5.757382733857115,-26.581342425840695,141.442751749222,-0.4024791479406697,0.44272684878169943,-0.28902660936372637,0.12068948490604207,0.2164217201941767,0.04496883281517162,nm,0.0
17.59482,5.971054164256134,-27.455987963729452,141.54957793335296,-0.5384280732313677,0.5383460842879847,-0.35921517297657657,0.0795094002174785,0.17478017497572926,0.03838725879725033,nm,0.0
17.604311999999993,6.188920449206296,-27.99965100852484,141.6448846548967,-0.7234719283189878,0.6503676119640992,-0.3433555897084289,0.037591779554578056,0.1232986747674829,0.03698040726706199,nm,0.0
17.613839000000013,6.334622809543047,-28.2787609680244,141.74802634066543,-0.8936422710177667,0.7619117236226446,-0.23189653458853265,0.014627457135877545,0.07380667937829113,0.03202643598399737,nm,0.0
17.63284300000001,6.305431696472334,-28.324935698458876,143.6223871808223,-1.2095880150116298,0.8617325452697693,-0.06636145036105541,0.0,0.0,0.0,nm,0.0
17.66119900000001,6.325260937924686,-28.868065712923674,146.03089039475793,-1.0724182336635437,0.6087060264533313,-0.2944865060674801,0.025971832133793348,0.09275214660644626,-0.02043947779398477,nm,0.0
17.670918,6.627033942733268,-29.4346061618546,146.701889312868,-0.7720178520174565,0.40953990511139904,-0.3147812754517267,0.01684158468770884,0.13780246238212085,-0.013424508009296595,nm,0.0
17.68041199999999,7.09418198287281,-30.134864513235886,147.30982295390714,-0.1847565300899652,0.07351701951990228,-0.23894210705691163,0.005768367682651559,0.1758332237816216,0.0029334056802559185,nm,0.0
17.69941800000001,8.268019117417483,-31.667984638611852,148.66500894788632,1.3675419812266245,-0.6808208185899505,0.109463079530868,-0.014954284523625253,0.18953329145662323,0.02480719704051108,nm,0.0
17.718274000000008,9.086914682028892,-32.29706611533312,150.01677790994793,3.125400364505028,-1.336698587838789,0.8555487955006883,-0.032550963842374166,0.07209026364895546,-0.03502291658579282,nm,0.0
17.727948999999995,9.173131388986937,-32.31868018597412,150.37367544954557,3.506901888118948,-1.4217785175078121,1.2738446710003253,-0.013050408936110237,0.02473351591864513,-0.09831379439264107,nm,0.0
17.737470000000002,8.824201695172889,-32.159188990040626,150.58851128962965,3.212870401135574,-1.2194512014678671,1.3159025780686997,0.033664190634946495,-0.042831863484085686,-0.16720683659646013,nm,0.0
17.756486999999993,6.902796335176473,-32.31951838160767,151.35965572613645,0.9872177331368127,-0.4303622167323918,0.25459368730484755,0.1960583730842961,-0.023519492148726572,-0.18890801180202138,nm,0.0
17.765987999999993,5.500692135337165,-33.25443545234382,152.23764728998427,0.2123375553660041,-0.15211980197379543,0.17673246751950603,0.2936656332789215,0.0695704035886198,-0.14926495324041103,nm,0.0
17.775497,4.132052939951355,-34.85275208714229,153.35988461368703,-0.40753207886406745,0.04792816562377783,-0.27272250508975565,0.34453797990875445,0.19707343427618632,-0.08029614508621669,nm,0.0
17.785016000000013,3.062670567492961,-37.172700066976546,154.6714070200564,-0.518691060294785,-0.04109927203590573,-0.5327281240390936,0.35429398519763255,0.3579761872922928,-0.013601114076621634,nm,0.0
17.80394799999999,2.0013491486350716,-42.53346406700712,157.02847891043825,-0.37510529686986155,-0.13055113387089023,-1.3834686033892747,0.2422369821863371,0.47353165761099975,0.0038217668638456893,nm,0.0
17.813468,2.227098318659115,-44.58621829895885,157.83637767743315,-0.34851538809942684,-0.09583509171476523,-1.8011508638848153,0.12075920281900515,0.4070651154858705,-0.006466392621328508,nm,0.0
17.822978000000006,2.8115694606645167,-46.019141944866014,158.3834397961502,-0.5690271229736664,0.09967986019940707,-1.9163528993562275,0.024346248947807445,0.31095522933184844,-0.016496761783022052,nm,0.0
17.832416999999992,3.448544322952286,-46.51001458156649,158.95048092555157,-0.8708701117073532,0.3416092937105174,-1.5014179179546419,-0.05125880413805116,0.13688915013379216,-1.7899975634202983e-05,nm,0.0
17.851420999999988,3.9180154180175166,-44.09787565882061,159.53586350877387,-1.9628254876499422,1.0005758010740549,-0.6540770037205959,-0.13666943049229077,-0.2887954265524552,0.1378587126049616,nm,0.0
17.86092500000001,4.260074602921619,-42.14361327075622,160.66139621041867,-2.6428888354166484,1.0993895509723899,0.08340380646623188,-0.184606453891505,-0.3374475091339541,0.2721207501997575,nm,0.0
17.87043299999999,4.539860812082659,-40.341970912251625,162.02276037235782,-2.8825784010944737,1.0527593876963341,0.683666684298431,-0.1600757594949368,-0.3149576683197221,0.30913883117135466,nm,0.0
17.879944999999992,4.621455311420291,-39.14530295473905,164.21295394344273,-2.56883859189345,0.977099522697852,0.5683708891108755,-0.08497773481996553,-0.21313677782644416,0.2573797023086649,nm,0.0
17.89916199999999,5.277053333286974,-37.98426991739544,166.3100927321571,-0.7705913728224028,0.35490133162530396,-0.3871057657924187,-0.09926603124605975,-0.06110223855856201,0.02857231986368997,nm,0.0
17.908657000000005,5.855013342536961,-38.10312478051309,166.07729959983345,0.40273207433061325,0.04427359615903651,0.26492688925050306,-0.08890224077478455,0.05728800283325601,-0.11660433311124849,nm,0.0
17.918159000000003,6.093887345501373,-38.250494232793564,165.4498547614519,1.494843501993076,-0.15792969948687188,0.009832970540477595,-0.035109265373122915,0.05064705195779785,-0.2395853398347237,nm,0.0
17.927493,5.983501732272601,-38.24743798740333,164.9390383408753,2.6718846289199103,-0.5779245455775438,0.5381386092947609,0.011103460244640222,0.008109965756517498,-0.2606736267026414,nm,0.0
17.937009999999987,4.86482395631189,-38.01919529211209,164.9196342847223,3.599314248522331,-0.7390795997640527,0.45565202284981593,0.15341227538427057,-0.07586465086229292,-0.28345177595155996,nm,0.0
17.956027000000006,2.233909626192599,-36.56322570685702,167.13105488181625,3.6935726718923005,-1.4626228907383072,0.8461181729562571,0.1565095757637561,-0.2330127113813187,-0.003868381072753014,nm,0.0
17.96552600000001,0.5403866549134576,-35.147519486647134,168.88218900232877,2.7240629277894897,-1.0900843813813286,0.20179429615294106,0.20621372103068036,-0.3201459431661512,0.01636251886168343,nm,0.0
17.98468299999999,-0.21658229563629008,-33.88392180379099,170.85644486577664,0.34363746999107025,-0.7668442439237713,0.17146135015967542,-0.011068362784035819,-0.03557220831196515,0.08008787521684782,nm,0.0
17.99425500000001,0.2744649397465032,-34.4659872172744,170.48572460251432,-0.6916365247312759,-0.21200183817503043,0.035337068052162635,-0.06738670799225592,0.14106197761630318,-0.01943545998048678,nm,0.0
18.003769000000005,1.7678852526001785,-35.92960434541172,169.40590348625793,-0.9780358963710862,-0.030671531230614994,0.004231176923728526,-0.19541882105551217,0.34410627314068387,-0.044263389480859755,nm,0.0
18.013281000000006,3.7432700757053827,-38.280783741353936,167.81826774999828,-0.8741816965178802,0.14518360070394223,-0.1299301990603876,-0.22220286379669243,0.5367034144411253,-0.07956727775260937,nm,0.0
18.070335999999998,11.370525268098849,-43.43640612804271,167.91222539286727,-0.9605420498391051,0.6923362744806649,-0.25827533713420575,-0.07452195047556408,-0.27564548986186044,0.2580039207210188,nm,0.0
18.079657999999995,10.74914766674203,-41.3647959962752,169.0777127784532,-2.111722904219389,1.1010553409472785,0.18306577930933216,5.294813770899796e-05,-0.41265963904477293,0.14833140283412063,nm,0.0
18.089184999999986,10.300840580002411,-39.430989064573765,169.89699251490677,-3.225067379328629,1.1609414701305456,0.9028657621697228,-0.010744292846327412,-0.38110872759168896,0.10451517458855242,nm,0.0
18.098870000000005,9.495499464434822,-38.30985883769219,170.13508266410153,-3.438242983522846,1.1011987079023868,1.3771934930297638,0.07751694285851643,-0.23071215502097117,-0.05489378991640197,nm,0.0
18.117718999999994,7.148171091787062,-38.26143582588429,168.6596863505974,-1.9445275479511515,0.8289797070773413,0.1410250581800477,0.1754537842360089,0.022535680564140865,-0.3496761397794479,nm,0.0
18.136903999999987,3.8574241919787724,-39.323662613236685,166.583206269483,0.30960128131143616,-0.24531165974691663,0.2867802512024772,0.3748406919746457,0.05149053198014548,-0.47984620116427246,nm,0.0
18.146433000000002,0.41834073862632126,-39.57009904854463,166.30879734718724,0.6533692578065935,-0.08567598990106237,-0.4736196021705139,0.5234707437629186,-0.06341639785918482,-0.4922341424835281,nm,0.0
18.174723,-9.053663777898697,-37.064823171713385,169.76321147899463,2.113906860434,-1.4538691237965677,-0.01473271921810555,0.44004242071342425,-0.34995653235330754,-0.0833234951137895,nm,0.0
18.18422799999999,-10.08353576721851,-35.163315910554985,171.24078976776406,2.356295039724254,-1.7419992784931175,0.04527409653594683,0.09663125950341032,-0.38975625600116354,0.17563667609691486,nm,0.0
18.19374099999999,-9.249334021132492,-33.32883769956052,172.36343904971517,2.5421969990584343,-1.781647525131532,0.18595110545567814,-0.19432182432395056,-0.33074916778394364,0.31978837333155,nm,0.0
18.20324500000001,-6.998133380240597,-32.02373962658285,172.96831520120804,2.1417887341609685,-1.022169769789187,0.30665084374197743,-0.4153945139225432,-0.19772408231342223,0.3649462323045223,nm,0.0
18.212940000000003,-2.971846868598093,-31.240710583372632,173.00231107768835,1.632674194319713,-0.5449745184624691,0.5350456692841591,-0.7066204528481931,-0.0589341018253106,0.42931196455564313,nm,0.0
18.23195100000001,7.181007798270225,-32.13460190944524,171.6195592307811,0.02516495701714238,0.4712666868620214,1.0045262393673573,-0.8580785036640958,0.31760645169991963,0.3692497282027897,nm,0.0
18.241471999999987,11.586314170108047,-33.78352309150113,170.69310017196676,-0.5267863830549214,1.0936793926820672,0.7598108795308431,-0.6880538815182516,0.4517416831626089,0.2921733036823696,nm,0.0
18.251008000000013,15.294660777273078,-36.07376548022699,170.06578356175137,-0.6424059406702363,1.296277978865813,0.1142172913694182,-0.5315166061555328,0.5652943743453424,0.2971365682766608,nm,0.0
18.26989599999999,19.21036249253271,-41.94930030341546,170.0932407288193,0.30225658491471274,1.0933245033577068,-0.8109568094134866,-0.07067095781535009,0.6223574807454757,0.18668255300391579,nm,0.0
18.279487999999986,19.040291647368644,-44.06930305049548,170.78340747627476,0.46402358579719827,0.7901915547513373,-1.555424456409246,0.0862669771785617,0.42554427570982967,0.11333344385151684,nm,0.0
18.289008999999993,18.134353728024095,-45.002320869237764,171.5306898524531,0.4812693984469362,0.471817159105384,-1.5566593349626257,0.14763993181952567,0.17577319005102288,0.02102880624202314,nm,0.0
18.298489999999987,16.71004539255924,-44.543162024960665,171.98598170367595,-0.14024984847491717,0.38013210999908714,-1.2841237268461616,0.17846990066501262,-0.10888238420811816,-0.1109981587859812,nm,0.0
18.307961000000006,15.248155634339085,-42.8264899158359,172.11055346850978,-0.9631236449555319,0.34828262137013094,-0.497329027032016,0.15360213576609782,-0.35845063589726817,-0.1786663685025746,nm,0.0
18.326940000000008,11.618444213288004,-38.38923743096484,171.9218058644731,-3.5313157546835776,0.5411677558926918,0.710831547802752,0.23762290215400417,-0.44820870726396145,-0.27598266058431303,nm,0.0
18.33663899999999,9.703422738910422,-37.312503109591155,171.937326763781,-3.6909962826134777,0.32826654098981056,1.403689249234953,0.2619380129301926,-0.24406764458262573,-0.23373660278923142,nm,0.0
18.345968,7.601378231650171,-37.24826320629127,171.95099476017793,-3.219622175861104,0.3257701466048973,0.6035371648893696,0.3224902585288729,-0.04756107473292842,-0.2534450158678514,nm,0.0
18.37466900000001,4.021715126318974,-39.30934092125253,172.01616973138408,-0.008858021396974862,-0.23127659263166453,-0.37344368191541366,0.28092909256979576,0.14425059865385714,-0.20960937719553066,nm,0.0
18.384017,2.496518749657233,-39.711857935957475,171.9852503031093,0.6114667116374819,-0.17545089516098566,-0.9355402484109807,0.2378873422172102,0.05956787879525196,-0.20056354404940926,nm,0.0
18.403031,0.3773268058887244,-38.52838714327935,171.45195086568827,2.308492629303501,-0.8530078232139752,-0.25598987844155136,0.1717378232996602,-0.18631493477582303,-0.24194813304186655,nm,0.0
18.422217999999987,-0.6500180029749151,-35.66168489995941,171.0542817715922,2.894855920246147,-1.097920543562494,0.8998083175006468,-0.03741571355173908,-0.3171306231049648,-0.02529115099970325,nm,0.0
18.431738999999993,-0.4441765104446984,-33.79098203120587,171.3659013038917,2.254451585259371,-0.8025354998457772,0.5586872073472291,-0.09684247325883372,-0.35221866452805484,0.08542325756695925,nm,0.0
18.45070100000001,2.062333077983604,-31.071849281586438,172.83481645580548,0.9743799936343045,-0.371900890618253,0.839189506393886,-0.3004934172116282,-0.16749203584979086,0.32411820349401776,nm,0.0
18.460215000000005,3.91631749386754,-30.974747544226034,173.47734767783788,0.028117590989966013,-0.004701110298505704,0.6118433191596476,-0.32525366973739,0.030838104478150438,0.3183799028384368,nm,0.0
18.46977799999999,6.11204292753502,-31.99315913710877,173.76156039712419,-0.5905750134976545,0.2672366347014405,0.49545736554087283,-0.3573643435766152,0.2563178869891606,0.2847321818309545,nm,0.0
18.479284000000007,8.715350262012421,-33.90257479373393,173.64497637645553,-0.8047704762692406,0.40364918609294265,0.29750449262714235,-0.40062355084403656,0.43973099735488075,0.2582931102744189,nm,0.0
18.48880299999999,11.403049836479992,-36.490504599913315,173.13720925206866,-0.31380325536025516,0.40430926161605835,0.27315546176301875,-0.38529641714593077,0.5768685495092487,0.20672120721918624,nm,0.0
18.498323,13.659683735753594,-39.33336073342312,172.31746285157755,-0.18369172317276267,0.7351962986311625,-0.44601054924861794,-0.28984051835648666,0.6211970993441802,0.11189543534757555,nm,0.0
