timestamp,roll,pitch,yaw,acc_x,acc_y,acc_z,gyro_x,gyro_y,gyro_z,markers,motor_input
9.500893000000005,-26.04336937811252,-43.05679691109969,170.41061647063523,-2.4130437521207293,-0.2307857629771253,-0.8389149420271277,0.295703197226884,-0.2533154598728215,-0.3404359119577923,nm,0.0
9.531865999999994,-27.827972177540378,-41.048821607425594,170.12070718632182,-1.62419024721675,-0.3036416716621699,-0.8509578135094782,-0.04260898586925057,-0.1253516572236513,0.04932591120843332,nm,0.0
9.538938000000002,-27.613021840407008,-40.23452805984936,170.85324122567602,-1.0365494784273779,-0.2041015786381952,-0.8835108004854054,-0.0612719766683322,-0.1422780699650612,0.17965278663639722,nm,0.0
9.548607000000004,-26.64396711593851,-39.15715492997736,171.96139073605124,-0.2629379431989791,-0.4528666943198224,-0.6485325431989535,-0.1824670249519926,-0.17786035883364754,0.3505050403050364,nm,0.0
9.558136000000005,-24.795271758503837,-37.626019138958945,172.98753731813602,0.6260802896469551,-0.7364463907095569,-0.25758418757245705,-0.3310190463617426,-0.2527826225288005,0.43960213540459875,nm,0.0
9.567645999999996,-22.069551935184045,-35.781115886357185,173.67748384663383,1.3556147370149558,-0.5532761396897974,-0.01177100883710902,-0.4813869387606471,-0.3028833017241677,0.4679743280540015,nm,0.0
9.596356,-8.888113053194683,-30.35334376378029,172.89628789048558,2.550622835892023,0.27021248617570504,2.1785256410342457,-0.8485886020717587,-0.23957882775401873,0.3350642551454347,nm,0.0
9.605867000000003,-4.209821580335473,-28.8821040469177,171.92584175664098,1.894686515164343,0.7009467343526561,2.2660631968714355,-0.85187877128302,-0.17133024741925812,0.2683825520348731,nm,0.0
9.624916999999996,1.0481853212023522,-27.741087658787446,170.23202417420447,0.010049379902012979,1.4917069360637991,1.2512556768462093,-0.3312351311134409,0.026631609516581226,0.01959991329354979,nm,0.0
9.634429999999995,1.5999874500657443,-28.678660671262673,169.73195320226483,-0.4270821096660903,1.338220192468844,1.0205763151519192,-0.06912503998570342,0.21464904223893758,-0.04937585611564042,nm,0.0
9.643938000000006,0.8904438521481709,-30.78360525879073,169.37689651963635,-0.4474143200314618,1.0300401152615237,0.921722642910462,0.1919759451060517,0.40507444012706406,-0.1426111635313006,nm,0.0
9.653436,-0.7348218571838221,-33.60479134290954,169.00636572206008,-0.1456889919651309,0.5838697896688432,0.5864422034769425,0.37095340080139444,0.5163025526537308,-0.24796908495618383,nm,0.0
9.662974000000006,-2.8501812162903244,-36.6661134632752,168.37585596186537,0.2529988630918049,0.08334295261399118,0.021993347445445614,0.4548294798731002,0.546377567312369,-0.3696135762452389,nm,0.0
9.672470000000004,-5.163643043524021,-39.65912150881256,167.27459998133295,0.4252389356741285,-0.17758097121340996,-0.7083514765073312,0.47803022234563236,0.5224225185920368,-0.505518820302674,nm,0.0
9.681832999999997,-7.374387095504459,-42.3382246451619,165.69246381889778,0.36180404952105977,-0.39755557412320663,-1.1201417836392782,0.4466189596055984,0.4570968839681924,-0.6052588288075342,nm,0.0
9.691354000000004,-9.695396159721525,-44.4227537703263,163.82558547371485,0.05211326418133956,-0.2855575511005822,-1.5058160022177467,0.4329168611871369,0.3276220109579782,-0.6904564605974643,nm,0.0
9.700889000000004,-12.045104272155422,-45.766617611994356,162.09726490718504,-0.2970443215322368,-0.3719253171554727,-1.3458511835082463,0.3945283115756688,0.17369259579288046,-0.6762641492902413,nm,0.0
9.722274999999996,-18.71409409445954,-45.90128962229345,160.31398358707875,-1.3409783106082955,-0.14585742732981155,-0.9820584172726555,0.4699647037076132,-0.2229541004042212,-0.6469988752536785,nm,0.0
9.729146,-22.78137240094329,-44.97204268607072,160.4840504241011,-1.7181432550126954,-0.21688014813635786,-0.6826030946823325,0.47598945832271194,-0.3534947031995118,-0.5417127717302515,nm,0.0
9.738650000000007,-26.93575716673602,-43.62673189931227,161.08597737234243,-2.070464329749321,-0.24163733400084275,-0.5669819596556187,0.47392953755998163,-0.43696840446008345,-0.455447525439146,nm,0.0
9.748158000000004,-30.842125494711677,-42.111551486499316,161.75191719220126,-2.249971497573339,-0.11123633315488671,-0.8188153250932345,0.44734827311838976,-0.45712870970839076,-0.3932663306943333,nm,0.0
9.757681000000005,-33.93728998631137,-40.844339338065964,162.41274110237384,-2.0634038518768056,0.07510510205005409,-0.9175302438142511,0.36447285827848047,-0.37141161531976247,-0.27217090395782995,nm,0.0
9.769630000000006,-35.83774582920033,-39.737078547583934,163.15593040670163,-1.6549241989068402,-0.38253186968298736,-0.8568014185191334,0.21229494504541974,-0.2849698139202277,-0.09100036195934658,nm,0.0
9.795794,-35.678664385890286,-34.89015508105666,166.6191141889299,0.671148290066896,-1.260547854080735,-0.4589659677129823,-0.3526446471878623,-0.34553464276102575,0.45725872667171125,nm,0.0
9.834018,-12.003065522215808,-24.970076998384318,171.19738306259836,2.8957258747195853,-0.5748937882607803,2.798256137448222,-1.4515002959789287,-0.11164026486680298,0.7947940741683776,nm,0.0
9.845974999999996,-4.291816137194436,-24.049010101582663,170.8439152765225,1.7536047536791408,0.8194720785669369,2.599194698582763,-1.4219175078712072,0.050461994986926384,0.568863170196622,nm,0.0
9.852970999999997,2.866458413984859,-23.930502093974162,169.80740325112507,0.2284763530882506,1.4601654178008228,2.532370539350076,-1.3007290739087898,0.20939326525651358,0.37309977463244237,nm,0.0
9.865089999999995,7.730553786005914,-24.244019456655572,168.58581983672852,-0.7986738444536525,2.0862289812507986,1.8857773533784359,-0.8677328316598918,0.24069763719241466,0.14986346820165186,nm,0.0
9.872186,10.46867950290732,-25.79316903733449,167.6481916080282,-1.4729911021270732,2.375550570629706,0.724372561322667,-0.42860979018165546,0.41806765739271284,0.04077093869199717,nm,0.0
9.881714000000002,11.633544638508814,-29.15666304944581,167.12578106526047,-0.9179803385204451,1.9487917354570317,1.0702858532726265,-0.06139179643167823,0.7146866672255348,-1.696620057043063e-05,nm,0.0
9.893680000000003,10.804775563448048,-33.322531731854134,167.02829735557845,0.0002461935739613642,1.5402353538434799,0.6734029102068608,0.318331759497557,0.793704578738986,-0.10788583337980154,nm,0.0
9.910084999999995,5.5818291828842455,-40.66435071226608,167.05067099414836,1.5544189882591033,-0.09133439618674878,-0.7986384825337339,0.6141409970185792,0.5539318492312333,-0.4187515099351752,nm,0.0
9.919583000000003,2.106985254757901,-43.14167333192099,166.16877010094237,1.3404994334788836,-0.36646856883834805,-1.6461783103784413,0.6134721840525745,0.37571556092766323,-0.6407333667057152,nm,0.0
9.931636999999995,-1.0679226578661487,-44.700138075166784,164.61230849064103,0.8655684286484313,-0.5838060178294023,-1.6046109959552903,0.517546244757016,0.19988326791533162,-0.7513570878714552,nm,0.0
9.957635999999994,-11.90054876461442,-44.23097643859071,161.5097194243276,-1.6001652542977645,-0.2275746399755316,-0.4406347912424013,0.4975856197479766,-0.29859879065468814,-0.5968251151823093,nm,0.0
9.967149000000006,-16.579661590937235,-43.32745983972114,162.3365176664736,-2.2711038012199243,-0.16689526694327447,-0.2344117607683197,0.5854955843860841,-0.36808766873968585,-0.47941618381317774,nm,0.0
9.979028999999997,-21.272543917343306,-42.42460398620712,163.6521041364628,-2.6758285955745023,0.12100375266821851,-0.586658231964638,0.604491069421661,-0.36060999119806586,-0.3720473098598278,nm,0.0
9.985935999999995,-24.644104780023298,-41.89504753878463,165.00080116812924,-2.568342246868286,0.13497254091475622,-0.6869137291131914,0.4521505827866469,-0.22384461357643354,-0.17861012773320772,nm,0.0
9.995439000000005,-26.51835135011494,-41.629532885781934,166.24269846560352,-2.0812062505724933,-0.2983568899558476,-0.6887207309049949,0.2568845770152758,-0.10770254448227333,0.003514811606093144,nm,0.0
10.004952000000003,-28.004899440458622,-41.39598691064403,167.6205078194773,-1.5258742607797877,-0.3481373420329544,-1.0044101668430276,0.2053279637238055,-0.08273712912361865,0.08363253807380024,nm,0.0
10.023940999999994,-29.206404808973474,-40.22131396878362,171.4398229224543,-0.1250650144640997,-0.5178487795310214,-1.1908596359395007,-0.018948908149590986,-0.15409997326353692,0.4029625362814419,nm,0.0
10.052499999999995,-23.517586073354906,-33.566014474863046,176.09259779041608,1.6657622634463052,-0.5554603489480231,-0.4826592833182101,-0.5290893937457198,-0.4816212147567393,0.5809628128804306,nm,0.0
10.064646999999994,-19.8938180670938,-30.624135689297756,176.62332021882236,1.9150499057641819,-0.7454224984639851,0.3746001878815209,-0.6560342899309783,-0.5356854053878529,0.494548722886794,nm,0.0
10.071702000000002,-16.48455223243963,-27.53973005862778,176.42789215365374,1.6327386218177566,-0.17356051580037735,0.8686065640021536,-0.6384852472642162,-0.5671785460219291,0.2945335259747114,nm,0.0
10.081204,-13.29527150558279,-24.660157073601486,175.82853155820382,1.1535378340047373,0.12289094461243304,1.3822337049168099,-0.616895142511646,-0.5234492141168452,0.16186391247911142,nm,0.0
10.090728999999996,-10.905741748494442,-22.22298070419876,175.1465555285064,0.6144204554322807,0.36554680235655157,1.7980981877092594,-0.48184983887116084,-0.4389423010608703,0.053914463121457284,nm,0.0
10.102846999999997,-9.673635273942645,-20.27598740010071,174.6682125048413,0.034054593478123826,0.6931060004893881,1.50207462975552,-0.26944149461723704,-0.3549468388282874,-0.006772238239688352,nm,0.0
10.109962999999993,-9.359057975327554,-18.834812464045246,174.60124375150195,-0.18441798192647083,0.6783900243200987,1.1230898821035298,-0.0918698088627067,-0.2688174294192495,0.006990064089690712,nm,0.0
10.119467,-9.838619861055166,-17.99470767835759,174.95058305765934,-0.2146946706424615,0.4920432919362836,0.741120310642229,0.06959288272218846,-0.1628824455843059,0.03890367684884186,nm,0.0
10.128985,-10.867441249557569,-17.701312897348217,175.5180191104118,-0.09614464402715665,0.21831185971369618,0.49664986426519514,0.1846607090279105,-0.06191326403210896,0.04993186420821676,nm,0.0
10.138508000000002,-12.175723804626397,-17.813362534410185,176.00103413940025,0.054975471526140046,-0.03914418629276367,0.33637344897773985,0.24456917965323466,0.016850104925112717,0.0165566914875922,nm,0.0
10.148050999999995,-13.469335556514757,-18.257086661885335,176.13286044544228,0.1828158209833756,-0.11242804851622269,-0.008309727675563396,0.24598714048981823,0.08469575200670511,-0.05372669699248464,nm,0.0
10.157552999999993,-14.374474839629881,-19.07604722965386,175.81572967165806,0.22412134665723496,-0.19335469258350252,-0.13003453511518376,0.177112749704297,0.16453382415525689,-0.12113313345245144,nm,0.0
10.176559999999995,-14.842478437240523,-21.21165113493328,174.19403016052746,0.21624428481225783,0.005358742610141306,-0.3352492719402789,0.013259785313035774,0.22818548100044284,-0.1790387440036453,nm,0.0
10.195590999999993,-13.947581368669116,-22.452254890120308,172.43866186691335,0.19978250903551573,0.21259324968768956,-0.24867087893898013,-0.08345830995578202,0.10823374259770015,-0.038616029994759035,nm,0.0
10.205136999999993,-13.423015547842997,-22.434353116299814,172.21160310285617,0.2254256158994435,0.09265828409551881,-0.05543784980903698,-0.10157620548832585,0.023048633085362098,0.07126390808078988,nm,0.0
10.214617000000004,-13.294844855070632,-22.031737501682148,172.4106836873545,0.21087103849485447,0.15906295463430042,-0.028793919777843666,-0.03955665811774746,-0.06330943706794119,0.12408382806308473,nm,0.0
10.224165999999997,-13.352809134379886,-21.38439582143913,172.84878099009075,0.12806877647562864,0.21925591209347053,-0.06006482684667697,-0.011378954895072733,-0.11665933768763519,0.14783512003699512,nm,0.0
10.233648000000002,-13.455411942903064,-20.62103352771192,173.1743643231818,0.09100504790367124,0.03915107404364132,0.12831216548081292,-0.0051654860930747575,-0.14082158343603798,0.12542160837816213,nm,0.0
10.243184,-13.851473210375445,-19.860411211767175,173.01040330282896,-0.0676866904537143,0.1095192235110283,0.05542143900871883,0.049770808016279124,-0.1471319028102411,0.039659999977512184,nm,0.0
10.262174000000002,-14.770919295704179,-18.713749950708248,171.3983096497434,-0.25723325850530965,0.023076656314460115,0.15001793103504085,0.0691735374727345,-0.09718521158874517,-0.0803309789196679,nm,0.0
10.281212999999994,-15.929921564005909,-18.084774041073626,169.34257492755358,-0.367796376461649,0.08755742032501493,0.05687657043673688,0.08816886916515003,-0.06108543661261312,-0.05415016847626829,nm,0.0
10.290696999999994,-16.45560584751839,-17.856834110846467,168.5134921288201,-0.3284727396286913,-0.01625113567075462,0.12578356057659631,0.085076342568402,-0.051155269159591024,0.005388958791332731,nm,0.0
10.300219999999996,-16.95992133755781,-17.705652400364833,167.8742696435745,-0.28941161679731625,0.006101001651912082,0.03185989260083411,0.0837937451012526,-0.03643371976962285,0.059796426522794384,nm,0.0
10.319124000000002,-17.25803021573118,-17.71748088037779,166.59795276808845,-0.10062240774548356,-0.13945220872632766,0.02861099437560767,0.030043999600478932,0.0091414244013042,0.09097721140406725,nm,0.0
10.328632999999996,-17.168029288757356,-17.85123465152835,165.61214636385606,-0.0343917221707535,-0.09553770901209867,-0.029726330965658458,0.010534569846761689,0.0387975515688329,0.05564280204461676,nm,0.0
10.338149000000001,-16.904013263320273,-18.040815116577974,164.32567600780925,0.018065512460940476,-0.10630656359628106,0.031763544947141835,-0.01816000178228821,0.06792618734683178,0.01387241692729123,nm,0.0
10.347620000000006,-16.6655619348162,-18.272260931801984,162.89232056007435,0.010280338664844626,-0.018381633058654756,0.046134542681364236,-0.02721577137631108,0.07528609343445183,-0.025597488378449974,nm,0.0
10.366822999999997,-16.358847113088757,-18.65358731976958,160.17592444900046,-0.024467653364913012,0.10296831634862744,0.09080359821482191,-0.03309444974700331,0.04977107455121149,-0.018926940008204746,nm,0.0
10.395407000000006,-16.708403727239133,-18.67312041463583,157.50127095924685,-0.0732263048078023,0.10966124178223699,0.06026907870644584,0.015330418737372448,-0.023488910080919172,0.06351168700485928,nm,0.0
10.404867999999993,-16.979761599325414,-18.654980743219745,156.78119327515188,-0.0727012156667671,0.09663725214775187,0.01261372267609069,0.023776221136383044,-0.025575531802421447,0.05876746185067018,nm,0.0
10.414378,-17.194977439374945,-18.679188742313574,155.954846600574,-0.06928195653186882,0.0795042951175055,-0.010015236041758037,0.0,0.0,0.0,nm,0.0
10.442961999999994,-17.615265749371858,-19.369421260748325,152.9442456550354,-0.055473469187204916,0.20653238449017342,-0.029162876080360636,0.00360969895671556,0.049926610918311375,-0.011264531262487986,nm,0.0
10.452466000000001,-17.791975049519714,-19.71812021355865,152.07463783032983,-0.03935868635745882,0.2719446168074951,-0.025626809289212914,0.0020282580860080555,0.05138659897411637,0.012488075067720804,nm,0.0
10.471438000000006,-18.368377888722424,-20.20937714892814,151.08606686176634,0.01873148447732065,0.31229388374580785,0.019343792637267432,0.006404572609629446,0.022613041592948642,0.09158866806735566,nm,0.0
10.492890000000003,-18.7108018135683,-20.113789417994635,150.3821629854407,0.06787650256364589,0.20808249576007512,0.1318298015354693,0.03333820530403079,-0.02175512709420209,0.10501028694498557,nm,0.0
