timestamp,roll,pitch,yaw,acc_x,acc_y,acc_z,gyro_x,gyro_y,gyro_z,markers,motor_input
4.003970999999993,-11.542754530798648,-32.50082433491267,-30.97352852742996,-1.1411454264167968,1.0606026618479416,1.8029304962029449,0.3897231441622588,0.5589484323065218,0.1253911630856414,nm,0.0
4.023144000000002,-11.351094008033002,-26.449986085699607,-29.96635010851107,-0.35594617707387954,0.5166063441603376,2.493953312595698,0.2602764226002853,0.44564551730609653,0.09350479592970258,nm,0.0
4.032498000000004,-11.671322546129213,-24.807877126145506,-29.62444716989833,0.2294263004772612,0.17219851526498112,2.5593226434812357,0.11297874971877313,0.2998862269284492,0.04122888191226804,nm,0.0
4.042005000000003,-12.250554807817936,-24.344225992741197,-29.48744741515121,0.6665305516180143,-0.23623897599554164,2.121314944892688,-0.04621938317617186,0.1185998359623595,-0.02025231147937697,nm,0.0
4.051523000000003,-12.720740598785737,-25.232758891617532,-29.629010102745898,0.8769672630763311,-0.34869517553304896,1.5479843242299185,-0.16247671027851104,-0.1267782319124356,-0.06708307980837565,nm,0.0
4.070555999999996,-12.987227629325886,-29.745601920751202,-30.769042496284904,0.3289471298999326,0.0052467925776302025,0.6905565212879621,-0.27488881401275966,-0.45856229246091895,-0.13763476584679665,nm,0.0
4.080059000000006,-13.040753778855478,-32.83977045440484,-31.428973950588446,-0.049651530462684106,0.03993826154188449,0.21230164699180623,-0.3288566956768154,-0.5398811164682187,-0.13603901559421827,nm,0.0
4.089585,-12.824108444682688,-35.71114817091413,-31.986778206845027,-0.3973750528119797,0.21127149782353183,-0.2777609033747351,-0.27287273952875624,-0.5220217184954611,-0.08531321757703396,nm,0.0
4.108412000000001,-12.638023894270846,-39.72405142357078,-32.43372828053611,-0.4931220849739728,0.10661176958487736,-1.2321744520433544,-0.1960617365347562,-0.305116125997275,-0.019886419049568893,nm,0.0
4.1464500000000015,-13.762074720271025,-41.10511132818806,-32.10826871568781,0.8123843677710074,-0.8312577885352656,-1.2950609326536364,-0.04497939317239557,-0.00046590080006965115,-0.03240871329658405,nm,0.0
4.155963,-14.125082909425576,-41.07206357827703,-32.18044977459311,0.825972646449519,-0.8283640923535992,-1.1338256284171198,-0.04443775674717245,0.020914500630572576,-0.05944661419850911,nm,0.0
4.1654900000000055,-14.444345611057905,-40.810583085397234,-32.269871523342935,0.6706847086206627,-0.6493099739969209,-1.1309474758951699,-0.014556744548333394,0.05622118645108345,-0.05698834565209,nm,0.0
4.174999999999997,-14.879758592372088,-40.36609378243945,-32.28575359852943,0.41796065209652,-0.2639650057883035,-1.0432975398955429,-0.010116219564454403,0.09679721166172746,-0.05706575568096871,nm,0.0
4.194013999999996,-16.07991480392352,-38.23148297612701,-32.15786238021137,-0.16478379169851015,0.23235748236965625,-0.8919782014379686,0.07899377673352469,0.2583011042075289,-0.042565327380112705,nm,0.0
4.203716,-16.187208910265223,-36.23297884999125,-32.038948258717504,-0.43075729072164626,0.8528175730927249,-0.4338522983500625,0.19655521222236977,0.33425088692855526,0.013476659768794702,nm,0.0
4.213226000000006,-16.087805514813187,-33.750630533439725,-31.889872441392566,-0.6047323361698508,1.0801323415096808,0.14401875079394294,0.27552012769548945,0.3991537718654753,0.043656453723285985,nm,0.0
4.222707,-15.351810746096149,-30.920531068317576,-31.710840266340828,-0.6456839650696939,1.1559503599139096,0.8962104917195834,0.40322426641729725,0.4019973394651116,0.11662980530837568,nm,0.0
4.241742000000002,-11.988566144991175,-25.836769050355095,-31.344850702385568,-0.34562898540768516,0.4129252875581457,1.9975725614761162,0.5200299122545318,0.18935758267852887,0.20974813788812063,nm,0.0
4.251244,-9.263381846232283,-24.660262317042434,-31.108769133745923,0.18834270978830644,0.1375004215122301,2.483531199271709,0.543815301861023,-0.06866275179706145,0.2800432934649753,nm,0.0
4.260750999999999,-7.153186461535465,-24.504945377661276,-30.97993116660734,0.42425032238656507,-0.18324937509878847,2.658853074035737,0.3451383450409146,-0.18571216645139993,0.20114759089918657,nm,0.0
4.2702680000000015,-6.109129784990891,-25.5180136965769,-30.91228607028275,0.5246066190038816,-1.1886909120639029,1.6385799406770756,0.058201763444904075,-0.28560009551539534,0.10142430197502068,nm,0.0
4.279787999999996,-5.199613852282737,-27.67433954126893,-30.837452947814224,0.2469684135823768,-0.6037863937344424,1.8294650414456015,-0.081631640155638,-0.46836728707908404,0.09610372293539814,nm,0.0
4.289292000000003,-5.194903050333197,-30.534474557784762,-31.00549609825327,-0.17929395289930955,-0.612890058187601,1.000661402641398,-0.29346959121678523,-0.5059553736129988,-0.03324239598905572,nm,0.0
4.298804000000004,-5.348972317502143,-33.76067586982909,-31.40210112438853,-0.5065793206238902,-0.38854384337919823,0.46041447005264147,-0.357050710415297,-0.5532382821402575,-0.09543574731561819,nm,0.0
4.317639999999997,-6.539623879780834,-39.464023766524384,-32.72090381381304,-0.6785135809392046,-0.019441379834273197,-0.8396782543317477,-0.4013975745058573,-0.3810111293028117,-0.2558540309410041,nm,0.0
4.327163999999996,-7.570040193648927,-41.6781217981062,-33.353203647636846,-0.48693428795601007,-0.08925631501162579,-1.2478699958058928,-0.3740600706552948,-0.3002914791072869,-0.25906096862402395,nm,0.0
4.348607999999999,-10.43362070000452,-44.43252378997507,-33.88837982854334,0.27379455968224886,-0.2467454783926583,-1.3673964362407827,-0.31725396823152785,-0.05698606958091536,-0.25687753513130535,nm,0.0
4.355812999999998,-12.394020435421687,-45.0274345238178,-33.890598928341674,0.6382969630629356,-0.5035347739616253,-1.5243851808139275,-0.29983226136473257,0.04285094660903375,-0.2738125621358373,nm,0.0
4.365215000000006,-14.279564695915857,-45.49749116487756,-33.82677614323312,0.9293954798022008,-0.8064324575030346,-1.6486084260726066,-0.27531529737906535,0.05625236284908093,-0.2521800781342215,nm,0.0
4.374744000000007,-15.660331373734447,-45.85819778935065,-33.847741515327336,1.0445710067032339,-0.507076795863401,-1.585381192873189,-0.20309379384195125,0.03402556555434208,-0.19851058866461213,nm,0.0
4.384248999999997,-16.852190269859253,-46.01811775283554,-34.12687150992181,0.9616444449746923,-0.44744467154146594,-1.75935146223188,-0.15818432019864134,0.052783706012489176,-0.223694791904125,nm,0.0
4.393758000000005,-17.53157377517301,-45.947255792091816,-34.593863140558135,0.7489985788601985,-0.3741381677957924,-1.9100991193957457,-0.07289439037521231,0.05169613974995662,-0.18753844060951363,nm,0.0
4.403293000000005,-17.489190779602925,-45.44111316399656,-35.120677324936736,0.4597684279928171,0.16763592727266258,-1.7148157295414286,0.05984087091436265,0.06641858046421907,-0.09564913991009522,nm,0.0
4.422196999999997,-16.3042873344472,-42.0197864255107,-35.911191442663785,-0.28495803359707184,0.8505769418912423,-1.0487056065526306,0.3452229219870061,0.26862049820731626,0.05501859176867719,nm,0.0
4.4319090000000045,-15.027570786391324,-38.98976738491875,-35.878130163514854,-0.6028599700306894,1.271905399873901,-0.17581370936377755,0.5107334253460798,0.3638279598041838,0.17547958931920923,nm,0.0
4.441485,-13.448558842609525,-35.24511802973478,-35.55035747720015,-0.8437312633687504,1.3181227064690204,0.7536687302790731,0.640372431259823,0.447705815694253,0.2585563010128114,nm,0.0
4.451004999999995,-11.422183498325367,-31.32813260575789,-34.953543121339806,-0.9415167737238369,1.1291814232460313,1.65008717736668,0.7281287469621923,0.43059726247863067,0.34347122679785025,nm,0.0
4.460507000000007,-8.949531915577378,-28.010593425664613,-34.204087518520396,-0.7888268426151293,0.537016679401439,2.487552225461828,0.7301612180006714,0.2885312561882315,0.39552581181116186,nm,0.0
4.470015000000004,-5.922814378523533,-25.728967254898006,-33.46133620601698,-0.2002543203716629,0.21825868992093203,3.142921920694973,0.702886281896375,0.06421133668412994,0.4221335157784649,nm,0.0
4.4890649999999965,-2.247552608410169,-24.915463039390644,-32.483371881080494,0.5059217947772094,-1.304439430002508,2.326048498043017,0.18757203983950874,-0.23082587196270776,0.2179189141275358,nm,0.0
4.527142999999995,-3.5376823575222947,-35.15251334597041,-33.83549307649639,-0.8529848149833518,0.2920239163536445,0.49716925946798146,-0.442333165469047,-0.4673800373084093,-0.28005886215784426,nm,0.0
4.536609999999996,-4.948303692596308,-37.604868999689586,-34.9727484651662,-0.7757836405823536,-0.004382739875928231,-0.474747242391018,-0.46601002896609106,-0.290805641481263,-0.39442402240162766,nm,0.0
4.5649509999999935,-11.129014106429088,-41.55189744445427,-35.483357738226914,0.23448978480009988,-0.2037706094614298,-1.039987367780436,-0.42179639152399906,0.10898061345914396,-0.27065286531024324,nm,0.0
4.583978000000002,-15.867687407233639,-41.15958986658376,-33.99450903635179,1.0232367873444719,-0.43299688466814157,-1.2473861287298433,-0.22130770894211702,0.21051583427008913,-0.1178182176335156,nm,0.0
4.5934819999999945,-17.698838400505505,-40.98335898479726,-33.62565002663053,1.1945376248768387,-0.5306486301380046,-1.3589371716594372,-0.21243916424074585,0.16954388568690118,-0.16368234988483238,nm,0.0
4.602994999999993,-18.890283134847664,-40.928862755790284,-33.81968497427073,1.1943483468274567,-0.6757087907787975,-1.4805541615209563,-0.14639815392349165,0.09560755394626483,-0.19167973219731155,nm,0.0
4.622009000000006,-18.96189767479639,-40.69879748867216,-35.41843631603614,0.7149717135682995,-0.06259793322064564,-1.3825839888148546,0.03716837766691117,-0.0018873560733194854,-0.1558095053041039,nm,0.0
4.631546,-18.404814675954906,-40.13702719654398,-36.19339180048215,0.3195122452047627,0.2036311693325134,-1.196623882455369,0.13163424865000456,0.028112635089233066,-0.07943285061807735,nm,0.0
4.650745000000001,-16.344339914236443,-36.52647226431902,-36.476140313717934,-0.4621107987956992,1.0698279818809189,-0.11734667073982256,0.4076212411832558,0.24826349365842318,0.15652249959131007,nm,0.0
4.660240000000002,-14.908200932683599,-33.501890662166325,-35.981259628949935,-0.7830024821936403,1.275938546311873,0.6493152273776751,0.5456464938081952,0.3354765368411916,0.2662579458635579,nm,0.0
4.679258000000004,-10.257854060600575,-27.61392915397372,-34.74310539986247,-0.9142080834040343,0.7411587529833294,2.137310362090085,0.6784389397434751,0.15695309013499817,0.3682651361527355,nm,0.0
4.688766000000001,-6.837575514309128,-25.923740969947854,-34.52469420081644,-0.33038494703559523,0.4752411829246063,2.9576526916131294,0.694501438736752,-0.08331336298954972,0.35190192834603634,nm,0.0
4.7077699999999965,-2.2725728661660543,-25.70321973540316,-35.35657977448428,0.39600270262317444,-1.504108985216197,2.1549893684292014,0.23326905147469218,-0.3127762856511848,0.06766969367560798,nm,0.0
4.717320999999998,-1.1117171224023719,-27.826005385630246,-35.81211081559069,0.2245804071977389,-0.814683449400534,2.5806020173979,-0.0791170926478345,-0.48060660321110593,0.012331147702060341,nm,0.0
4.726832999999999,-1.7099412470685589,-30.701519565772454,-36.38486736336289,-0.18282268690354514,-1.13927990939702,0.9445087008251473,-0.4244589659792726,-0.4178460064718346,-0.17388775820947638,nm,0.0
4.745858999999996,-2.528493171649912,-37.5401743699347,-37.8397057949755,-0.9614847224919797,0.557509293244255,0.3906257448654486,-0.5010845574342168,-0.5018496591780945,-0.2304864796750512,nm,0.0
4.767267000000004,-5.6089506587809845,-42.63629746278557,-39.42552429453323,-0.7901331944633617,0.3595353974245112,-1.3172533984910137,-0.44043510108954637,-0.2234940125781819,-0.32143354951844416,nm,0.0
4.774190000000004,-7.381754506530224,-44.15668976339773,-39.794774289763055,-0.40633603935333534,0.5368563823179388,-1.2914245070337875,-0.39537740559413453,-0.08390330632716916,-0.3158206755770656,nm,0.0
4.793186000000006,-12.557033127554138,-44.90637701489116,-39.64935963900483,0.614407278140669,-0.7224182880021133,-1.4996362731586306,-0.2805607894200703,0.2137756573651278,-0.31205393737801385,nm,0.0
4.802633,-14.605919802979237,-44.69135292085359,-39.25701775400178,1.096746678827236,-0.4514924024469296,-1.147225925107533,-0.20090155618877503,0.2048483861836369,-0.20729833532431122,nm,0.0
4.831175999999999,-19.891450988281782,-44.86736665927193,-38.73294247435449,1.2916096875618037,-0.3932996943880523,-1.4398505964388453,-0.15107025517867437,0.051727708093222406,-0.14804951422123713,nm,0.0
4.850296999999998,-20.942687475632045,-45.16530172294399,-39.10938663024745,0.7079255924730683,-0.01623416096383645,-1.696827660825699,-0.03077230611042435,0.0009327070477998013,-0.06848568434400253,nm,0.0
4.859802000000002,-20.418084370400905,-44.58591425981667,-39.27202360477486,0.40369958719658494,0.6105044824591085,-1.4767335121872578,0.1267715597002359,0.029980900043076485,0.0457085336477898,nm,0.0
4.878715999999997,-17.890808725211926,-40.80709224904431,-39.05591273985922,-0.2531321845950976,1.244107287592301,-0.5119512900050234,0.476170081538553,0.20286918471683904,0.26288953570188883,nm,0.0
4.888411000000005,-15.813408584143522,-37.674956972060194,-38.546751800165836,-0.5020414536932174,1.4268709091934664,0.34605597196892113,0.6409401339028612,0.2732685993954044,0.36789513028361714,nm,0.0
4.898000999999994,-13.240822844692143,-34.1873955230987,-37.78107410748962,-0.7042356593044836,1.2887569564340708,1.1470691122947407,0.7569402444750042,0.27738399719388956,0.45754303140050717,nm,0.0
4.9075109999999995,-10.095588074657785,-31.06195661388307,-36.823688375313516,-0.8292586666209121,0.8753358589003032,1.9220662607826267,0.7993203012030726,0.1621739187198353,0.5322068233210887,nm,0.0
4.917019999999994,-6.204923424232261,-28.881498661378917,-35.795300123007785,-0.5516023563791664,0.4838199905652194,2.59679059525786,0.8012085743499643,-0.0621127835727946,0.5950372515041402,nm,0.0
4.948026999999996,1.7350802247637056,-29.031274997838512,-34.43709203223505,-0.10172216201509882,-0.9703921723390112,2.4853646651820966,0.14465308746708844,-0.46638541299763836,0.23808315929387797,nm,0.0
4.955098000000007,1.9307282105574715,-31.518298517784633,-34.70210032852322,-0.35308264518409643,-1.0189977806225208,1.7669050345391981,-0.2545514785035602,-0.44343911265023145,-0.03448063438315499,nm,0.0
4.974123000000006,1.2581329111098654,-37.66149795389721,-36.50712381655143,-0.9940990860004763,0.048801073016493786,0.8527043997936816,-0.409826521873616,-0.5087446291879307,-0.24227554090243839,nm,0.0
4.992988999999994,-2.43815693106873,-42.8707128798554,-38.68593281635858,-0.7741347715785449,-0.1422694193094017,-1.001212289797368,-0.5260987372836797,-0.18780810139002463,-0.4615146710126806,nm,0.0
