timestamp,roll,pitch,yaw,acc_x,acc_y,acc_z,gyro_x,gyro_y,gyro_z,markers,motor_input
26.506040000000013,-3.560380390356169,-33.63681364927545,141.48639073834542,-0.07152228274287087,-0.24303269835228547,-0.6528199190615723,0.3092895632701258,-0.04082321529019277,-0.15341397037606988,nm,0.0
26.515378,-5.35077081173291,-34.32584869883482,141.481593198803,0.05520472108253996,-0.2617093484975743,-0.9309590139385484,0.3202881986336012,-0.06309708327716343,-0.20084904976392493,nm,0.0
26.524907000000013,-6.73283550101435,-34.95634619768611,141.34846889718014,0.2562884016652111,-0.9712006276888268,-0.7399833409886928,0.2587080874346408,-0.029279359767640643,-0.18315029551832931,nm,0.0
26.534402999999998,-8.265804775980188,-35.486628532321696,141.04166979172655,0.5599775521091701,-1.5071824236319906,-0.6972772306402528,0.2642390916849069,-0.060435860241496164,-0.23730977024509983,nm,0.0
26.543907999999988,-9.751581372862407,-35.75184795536743,140.63055490451472,0.9711232710386304,-1.7613034151386022,-0.7888167628077402,0.2236329730686334,-0.09767674672838608,-0.25413654674443753,nm,0.0
26.553356000000008,-10.528630281987502,-35.55508403320442,140.26408942114688,1.3763802202957025,-2.3240979790781418,-0.656571605370706,0.0751489450340645,-0.0970495550513498,-0.16251313502647702,nm,0.0
26.562864999999988,-10.759103156917138,-34.896198070618155,140.04087021823355,1.5768924837221037,-2.534581125313632,-0.6287484249686023,-0.052776107195722094,-0.11162130747088951,-0.06979888650445068,nm,0.0
26.572377999999986,-10.58535031863464,-33.81660614155637,140.00901519477574,1.4516564775335123,-2.2094016437848945,-0.592467558498194,-0.15811721999232245,-0.13335518313668743,0.014605771196095105,nm,0.0
26.581884000000002,-9.966656660665496,-32.35565018028656,140.13249408748973,1.1143460847245479,-1.7001489859205572,-0.25645459135742504,-0.26471749295929947,-0.1438022405082241,0.09341081277597642,nm,0.0
26.59164100000001,-8.912115787431297,-30.950110069708177,140.40924559043168,0.6004409962441675,-0.8430523395076029,-0.238750437227981,-0.31569364881085743,-0.08758611752300019,0.16691396054129257,nm,0.0
26.60118399999999,-7.342437896110878,-30.245114536105653,140.87460361536762,-0.014732682878595426,-0.0423847840774938,0.026268798396040557,-0.2965813694052648,0.07647028869225213,0.2534695545301982,nm,0.0
26.620172999999994,-2.896802769891741,-30.394079770251622,143.32135197573083,-0.6030303539431924,0.7321627944550521,0.3344474115967755,-0.31238782984022223,0.3087177076667755,0.3644806232964624,nm,0.0
26.629684999999995,-0.5014419143649389,-30.862843380209394,145.02145113624354,-0.3890530732646038,0.6037164122742495,0.49483229903983555,-0.28266455648238253,0.3290420898840803,0.352035975535019,nm,0.0
26.658399000000003,5.635498608320388,-30.962384529900593,148.0235845958891,-0.15398627558054506,0.945529319712263,0.6091862388966338,-0.3333096763882082,0.10306104895983963,0.2618081815908428,nm,0.0
26.667902999999995,6.569510277098019,-30.121850332871887,148.2178620703458,-0.5166902690622384,1.4567967156831503,0.34574503704158743,-0.22717582990737517,-0.043891547430076526,0.13177688164968612,nm,0.0
26.67741799999999,7.124836818229244,-29.252607719177472,148.40261865030092,-0.9444521683036451,1.6643586751632462,0.7137693592229604,-0.17523297868378346,-0.08344833335206318,0.08967703542095012,nm,0.0
26.686919999999986,6.9339378563817755,-28.53493037011261,148.67810936987948,-1.3940458393680695,1.7328339946827895,0.8805277766549566,-0.04806360942323407,-0.12615588735794725,0.03422239778632446,nm,0.0
26.696444000000014,5.906774941742745,-28.376199152200467,149.04247206865523,-1.6377784124470935,1.7244096345807103,0.7197698682251743,0.1367849608244446,-0.1067867728938145,-0.027361223789757878,nm,0.0
26.705938000000003,4.581174678601115,-28.848719756429414,149.42516276421,-1.6393724857534007,1.5301668016374945,0.4306368542328423,0.2471432596175062,-0.023915900917440572,-0.05250301647806913,nm,0.0
26.724961000000008,1.5890501913853794,-31.023540986352785,150.36083747150755,-0.969951882026948,0.49589793079689837,-0.12340453175148741,0.38648088227288335,0.0962699454943871,-0.07357181718454067,nm,0.0
26.753321,-4.773100779715769,-35.999465023662964,151.32466194103216,0.8013886205753316,-0.7864765519469283,-1.3407084483670115,0.44699970866813526,0.11938398601563056,-0.21316859637097196,nm,0.0
26.762835999999993,-6.812299793715681,-37.22841987515009,151.23634548035093,1.2886987161516013,-1.1356763649123904,-1.6697092888500307,0.40528206739485845,0.07245522548951716,-0.2601082852422354,nm,0.0
26.772158999999988,-8.657873098985887,-37.791049474518516,150.97508735225549,1.6214592564770838,-1.6567401574946832,-1.5331486434060793,0.31103218856234893,-0.028899187994730888,-0.27583328803252877,nm,0.0
26.781667999999996,-10.585952480824377,-37.308198576149806,150.61692151994188,1.6816932764874635,-1.7922796514176047,-1.3466013863406985,0.22029480514950125,-0.21966447666755792,-0.30523713585937123,nm,0.0
26.791177000000005,-12.295971054445609,-35.67256743531915,150.32384494481116,1.3845494445395292,-1.624674919894984,-1.1201656217960423,0.07864572542940446,-0.40659686045479665,-0.2604363729280936,nm,0.0
26.810397999999992,-14.00463796930551,-29.829902502016637,150.12797878846618,0.44121313279481056,-1.255396455134564,-0.13909608891437938,-0.23643466940950827,-0.5856788144290133,-0.06416870735904855,nm,0.0
26.819897999999995,-13.857383761690874,-26.79132963141793,151.76156607338513,0.04163586832182919,-0.9087548197008275,0.3760530349598893,-0.31069787995515946,-0.50955926520546,0.0187397503934371,nm,0.0
26.829401999999988,-12.790567921722158,-24.205230268572134,153.52459806067506,-0.3666454600927931,-0.6806634824788754,1.0342792708876012,-0.4036266727066756,-0.36367054115479314,0.07620951123817671,nm,0.0
26.838910999999996,-10.919768873743577,-21.9520157313282,155.1119571055287,-0.6898136457811482,-0.337019995488278,1.5301021415735134,-0.5026102972481817,-0.25176290984213856,0.06828227077634966,nm,0.0
26.848488000000003,-8.31622481586645,-20.189498840211133,157.226224962316,-1.0870349814012905,0.15929043414886704,1.5800150571692806,-0.5860932413643912,-0.12643269770168505,0.05090848730150036,nm,0.0
26.858120000000014,-5.134177754641943,-19.223565468961002,155.39762540088407,-1.405290490456314,0.6414273160379191,1.8011513256087857,-0.627950688892552,0.0838596226372651,0.06358989491558652,nm,0.0
26.86762300000001,-1.816134257536294,-19.034085304423407,153.87930831482606,-1.499274492078243,0.8957918237671996,2.175607852835723,-0.5829547146909875,0.2535089663202859,0.1071330589371694,nm,0.0
26.886637000000007,3.3818830027367173,-20.02984140316198,153.57804575069025,-0.7758515691134883,1.0128981502158334,1.6173382963291931,-0.3208219155755133,0.3390386956538112,0.14124148841984113,nm,0.0
26.896164,5.509936380506163,-21.40364400377312,153.66617773431045,-0.3925351674225696,0.8936516976433295,1.5392646978597087,-0.23719309299241106,0.4371430031791272,0.16515304576740003,nm,0.0
26.905665999999997,7.080624081488679,-23.06028083670403,153.8553235381927,0.023826523564077537,0.7021062579159364,1.422470013679974,-0.11711603074132486,0.43981808058003563,0.15359313193739468,nm,0.0
26.924682999999987,8.405373055190068,-26.706046032111704,154.5229153393871,0.5265549098637535,0.5158710201116338,0.2409792591219946,0.0776361423853095,0.4049078902372059,0.1197997493304118,nm,0.0
26.934200000000004,8.506974806089847,-28.965514440376364,154.9779703786943,0.7591051057007582,0.29775494196659047,-0.07059848513914337,0.1733759251273678,0.4304465915015755,0.0979628486262039,nm,0.0
26.943551000000014,7.9298234280746485,-31.314998573821875,155.5694186830999,0.905871712479492,0.25827837743774973,-0.5894553692278958,0.2840756538576225,0.3991225432327769,0.05818506326165771,nm,0.0
26.953075000000013,6.903447840867971,-33.50551531319234,156.39178860932736,1.1121792353831381,0.02103008449739678,-0.9957736500297943,0.3334110020211927,0.3436552113925038,0.05277861579043217,nm,0.0
26.962559999999996,5.217350030587499,-35.474598615042744,157.37756202023198,1.2699972103398132,-0.26205478097628243,-1.328884651278793,0.40706795972283105,0.2670525832360206,0.005017421602168405,nm,0.0
26.972061999999994,2.803843772891105,-37.06325671310709,158.36765091531308,1.2475355882953392,-0.40334552945071955,-1.639436977216003,0.4771911686744542,0.16162477948364803,-0.08822222214520826,nm,0.0
26.981650000000002,-0.00787787708713623,-38.00777415373641,159.16598125737934,1.1742178054715227,-0.607167443438885,-1.7770865450045736,0.48128829127279066,0.028377305831925194,-0.1831463190329845,nm,0.0
26.991086999999993,-3.0660997575171227,-38.284808083863375,159.53827559259318,1.0168313558315738,-0.7918575128776112,-1.74118967215382,0.4672407854672401,-0.10404818304168562,-0.30311920800496805,nm,0.0
27.010186000000004,-8.960694416927325,-37.169818642350144,158.69030223954655,0.08744877401928161,-0.1668543698686531,-1.7710366073616315,0.32498984430791356,-0.28986887344396023,-0.450538699654607,nm,0.0
27.019441,-10.374102102911477,-35.80304358492641,157.63200481836142,-0.22469034881014072,-0.45038480681184073,-1.2766283689297213,0.10791229984336943,-0.32468272922022745,-0.37859597197985984,nm,0.0
27.02895000000001,-11.340653242177144,-34.110836111064,156.23100009118724,-0.6075521117651049,-0.08288960790775289,-1.0690118455651192,0.012096555410409597,-0.3598726511890998,-0.3898190930742108,nm,0.0
27.04808,-10.286826197797515,-30.001882935468526,152.89622759257267,-1.0108452733705469,-0.08752977596312901,0.3836869144831108,-0.34720165222874483,-0.3027299961497042,-0.2428587816089567,nm,0.0
27.057654000000014,-9.149094353491975,-27.69343215864086,151.13024910741626,-1.3718651595110776,0.4325752537860772,0.6886040503713402,-0.39332682392138957,-0.30036085023925174,-0.24320628373468947,nm,0.0
27.067361000000005,-7.676936302168158,-25.60734614071576,149.642128426342,-1.7603292350582644,0.8078783269821225,1.1148097309577578,-0.435456789689574,-0.21875339714738337,-0.1658300317625423,nm,0.0
27.07686000000001,-6.368454652851862,-24.074326807326717,148.71182276284867,-1.9681979088070398,0.9733531777924109,1.6382273458326118,-0.36136116776518956,-0.12759171018529442,-0.0767918540323982,nm,0.0
27.08636100000001,-5.363273148198818,-23.148513398208863,148.4865299002185,-1.76905589352363,1.0200395429375448,1.5108410834155224,-0.2539366606582738,-0.047970956773655316,0.03456418856006253,nm,0.0
27.095868999999993,-4.521349568289518,-22.961500540456502,148.89047457780913,-1.3290520556274372,0.4801605299210358,1.644177419335541,-0.15211074763610224,0.06278211152505504,0.1457484360382239,nm,0.0
27.105400000000003,-3.8162771857350135,-23.346793872770093,149.55287196691802,-0.7542879268637883,0.2970412188673053,1.173791701500612,-0.07241723359006368,0.1468633018995481,0.18689606085598523,nm,0.0
27.133938,0.974840663548871,-27.173142609446028,151.76352804614035,0.5647815790819674,-0.07524504700280649,-0.22113939982207914,-0.13774345972554902,0.4795553242606809,0.3158684105579306,nm,0.0
27.143257000000006,3.4600637548512663,-29.263897397994576,152.73450171898523,1.1549707044151871,-0.29230386419465904,-0.5307407699440835,-0.19598329885288854,0.5883809234817831,0.4023835813222765,nm,0.0
27.181298999999996,9.962152017858594,-34.96923065033676,156.6481714669528,2.3071114026668944,-0.5335794118256506,-1.8584120564902722,-0.06722133088718397,0.11336287675434102,0.19434474511894673,nm,0.0
27.190811999999994,9.645883699642685,-34.043935932867896,156.9682495625628,1.9939262125321373,-0.38468517912170186,-1.5180748430104771,-0.029160876302767123,-0.17744275383466154,0.0261449629578667,nm,0.0
27.200326999999987,8.390541767109005,-31.96770349171351,157.01802360158604,1.275726146274685,-0.02684224313396765,-0.9702195652992042,0.027632920335726563,-0.4515967526823791,-0.12916610004319318,nm,0.0
27.210015,6.7539448549229615,-29.18729473380144,156.9022459406085,0.5236050275112692,0.22566832058539596,-0.3859374957414498,0.03819924036239387,-0.6092114982147289,-0.19224858187362556,nm,0.0
27.219522000000012,5.04877050712737,-26.36375965155543,156.60594764303357,-0.23085663714183668,0.41158374968921085,0.28116109500506387,0.051291144063658985,-0.6250921665436854,-0.22090346897766935,nm,0.0
27.238549000000006,1.9465335433272493,-20.98686799936494,155.25433849189255,-1.362504947864512,0.5198323714783765,1.4786918619756655,0.020894289620328927,-0.5906214445354625,-0.2788034189551028,nm,0.0
27.248062000000004,0.22461066979748687,-18.780111889647834,153.93900363321853,-1.6911335820234574,0.485264547170733,1.4078251107030155,0.10166016753990997,-0.5244069674660956,-0.3831670626317889,nm,0.0
27.257565999999997,-1.4399971005117194,-17.66155162527404,152.16347537264582,-1.6739226019045819,0.5963253511962401,1.3732179103363527,0.17967245869561496,-0.32921214623853606,-0.4620788668605673,nm,0.0
27.267077,-2.343737253605023,-17.34135069599755,150.18253133929673,-1.6183288731958416,0.32505101687477267,1.9598528486986555,0.11972916152161756,-0.12545901816253713,-0.44153762780768363,nm,0.0
27.286091999999996,-3.714760653706496,-18.137102786987803,147.18970165944404,-1.2413815872506453,0.30581889619896496,1.3686682650363073,0.1704657745427908,0.06813142220095897,-0.20304022253208315,nm,0.0
27.295598000000012,-3.571517580499661,-19.245977241235604,146.9232257890464,-1.0088281800831609,0.057784135418453314,1.5382317530841119,0.09897792876039424,0.21486824261260298,0.0314187933487533,nm,0.0
27.305115,-2.9901956172163917,-20.447224638673042,147.40049808653833,-0.5877019513165538,-0.19682396256965945,1.3941121078461556,0.039484435065045335,0.2754425808937954,0.21253168999743463,nm,0.0
27.314617,-2.057826632583585,-21.877926147349555,148.3272075056946,-0.09603223899764646,-0.25477009824155944,0.9236536985781938,0.005709880689611625,0.3492976341808165,0.3183555455342677,nm,0.0
27.324135000000012,-0.6010121900325103,-23.827060403371423,149.2751059956121,0.4050266391297199,-0.4591904128780993,0.6656279341492791,-0.02731050043243454,0.4872584925727337,0.35668430677312785,nm,0.0
27.333643999999993,1.0328512213747694,-26.22225277074439,149.96885732643764,0.7982325742034823,-0.448889612479793,0.22070468172033758,-0.013966848772048138,0.577754938323927,0.29056710908017364,nm,0.0
27.352486,4.923163743877061,-31.452078849733102,149.98330495710312,1.444722943044938,-0.7355379009086331,-0.6788260989843103,-0.03420815403390395,0.6469988999684271,0.09854417457883305,nm,0.0
27.36198999999999,5.92605115046446,-34.024693494833606,149.72149947938595,1.5214767199652075,-0.3680001568651894,-1.4857747545511308,0.1079647502520714,0.5448971743013554,-0.06668791533609544,nm,0.0
27.371579999999994,6.326063839078351,-36.183380370139034,149.7853283967043,1.5072599159953883,-0.26876431096965603,-1.964777365914971,0.15645685384263702,0.42150499810320335,-0.09409992933984353,nm,0.0
27.39061000000001,3.5658008954339495,-38.32914292416257,152.00462846179943,0.973278965295823,-0.22593285297205598,-2.3598632205251637,0.35496328374380676,-0.03159354190593294,-0.14699160633315211,nm,0.0
27.400123000000008,1.026894607197702,-38.02795901878496,154.04160145795518,0.6082966309019411,-0.3229163497551428,-2.24340475394287,0.3284640415277673,-0.21827173502512143,-0.09625081887227471,nm,0.0
27.409637000000004,-1.6848056077131763,-36.777654682986444,156.06213654883163,0.24995551945365757,-0.483005317761444,-1.7731142487218816,0.28652669973527384,-0.39251670131522975,-0.11485964896086534,nm,0.0
27.41914399999999,-4.356869982520175,-34.579996724165646,157.5673708055057,-0.3818716957630543,0.14942476165226676,-1.8016680887746386,0.22895595718122705,-0.5595913454834102,-0.2095258570775861,nm,0.0
27.428568000000013,-5.440636884960151,-31.733573052965923,158.3351022610272,-0.752592737461502,0.28013310046713086,-1.2982189219921032,-0.0426353499868734,-0.5828905474463179,-0.16926977216613198,nm,0.0
27.438264000000004,-5.262405608956349,-28.711405855246934,158.31639831011523,-1.069652822582363,-0.0058800948939910945,-0.14984826951436542,-0.24971737590175577,-0.5392205759856641,-0.18803886342919832,nm,0.0
27.447775000000007,-4.903858303160499,-25.686690969160058,156.69535967182222,-1.726519152931908,0.6339763945580665,0.39496041603626536,-0.2927639774129291,-0.5211542579261353,-0.29234389042513154,nm,0.0
27.46678399999999,-3.792177133647792,-20.691040033415515,154.09524319818783,-2.3830763044610523,0.8011953815204997,1.5282925787525954,-0.2319647869570357,-0.34698693499308575,-0.23782176261967652,nm,0.0
27.485826000000003,-4.173635231200372,-18.724181704606476,153.93110228280452,-1.599935463142613,0.21963172859217722,1.8153281943255672,-0.024790044763804767,-0.12327142257511532,0.05386647659662974,nm,0.0
27.495317999999997,-4.051839266485104,-18.48301375124185,154.8573312709747,-0.911599823065776,-0.041372650704618555,1.6164942857044695,-0.04324885710600934,-0.01955115573442366,0.19139824533441285,nm,0.0
