timestamp,roll,pitch,yaw,acc_x,acc_y,acc_z,gyro_x,gyro_y,gyro_z,markers,motor_input
23.500977000000006,7.1944548565550095,-27.54303713027287,-169.55524495792156,0.06854690961718586,0.007629028928861718,-0.07987225855760988,0.0,0.0,0.0,nm,0.0
23.510481999999996,7.012479877198784,-27.429195877310438,-169.42850358729333,0.0436226104470777,0.027164279800265985,-0.09482150493048482,0.0,0.0,0.0,nm,0.0
23.52001100000001,6.814469414469865,-27.30877845435718,-169.31334088210974,0.031780142392250126,0.027200768284342838,-0.0634972857785294,0.0,0.0,0.0,nm,0.0
23.529515000000004,6.559856319796285,-27.16378409356588,-169.19551265456246,0.041424002531273416,0.007905413492042315,-0.021639570949902685,0.0,0.0,0.0,nm,0.0
23.539019999999994,6.228452649953529,-26.965608997413053,-169.04510867945996,0.06984136844452357,-0.0516215905685349,-0.022063546735561244,0.06655566672494223,-0.0023743171223486017,0.01002090698662918,nm,0.0
23.548529000000002,5.771762651401962,-26.75055202501618,-168.9141980361627,0.12171375972544336,-0.1668830464673633,0.05842857253160999,0.11252211357475499,0.007868192360416767,-0.008808836614555119,nm,0.0
23.55797899999999,4.729094010747516,-26.56797697319024,-168.68106899824036,0.20810873585439657,-0.35234394221102705,0.1899988091477997,0.17976928333445685,0.009805689705757403,-0.049368456639114794,nm,0.0
23.56745699999999,3.1991584946166087,-26.299621564512947,-168.57862348881633,0.2895966667811976,-0.5846875288151121,0.24919694165911813,0.2692658014517032,0.010981418802636912,-0.11799757410841367,nm,0.0
23.576977,1.1869192236396817,-26.04286262210767,-168.68964136072626,0.32004346843395926,-0.8078389706862059,0.23487636001845602,0.3545633276380677,0.03068419696508174,-0.20173886098576754,nm,0.0
23.596008000000012,-3.3622461632661325,-25.763220078688565,-169.5628122148785,0.19556213530312055,-1.1146774195751095,0.06229929062613571,0.3937858749120584,0.06426448885311711,-0.3036075465837938,nm,0.0
23.605509000000012,-5.251428800139147,-25.692900147335333,-170.1875591180068,0.08412894810912991,-1.1659591270096523,-0.10903382230810241,0.3286233991013887,0.0567218187619226,-0.28992272568232363,nm,0.0
23.615008999999986,-6.541529740715434,-25.641066374020856,-170.72988240103012,-0.059067898792009764,-1.1314984545580191,-0.28787149533836826,0.22218682921908597,0.039395250649795405,-0.2380693726190025,nm,0.0
23.62435099999999,-7.058056840413247,-25.555732018784582,-171.31296395604406,-0.16112588494557667,-1.004635432682261,-0.4435185157353974,0.08582000004023488,0.008670859512963553,-0.16173295526383474,nm,0.0
23.634055999999987,-6.74664877883648,-25.46956468344141,-171.8366125020274,-0.12937551394631883,-0.8387156496016018,-0.4103032025366871,-0.06204878536252302,-0.014262829715973683,-0.0783602658638628,nm,0.0
23.64354800000001,-5.736594791551011,-25.467814707636066,-172.31318721083107,-0.10663643576050807,-0.5280811943276564,-0.3701836108355193,-0.18970608973091532,-0.014473973476700826,-0.009013199042845503,nm,0.0
23.653068999999988,-3.927976233755597,-25.505569148482653,-172.63217708625083,-0.13348406850634767,-0.1572358968462647,-0.3803424371662616,-0.3340327273182844,-0.024746501264286572,0.06477793475210258,nm,0.0
23.672154000000006,2.360922676828597,-25.50702733711002,-172.94836968011083,0.11775205414768601,0.49422150091789485,-0.17075976145983998,-0.6516290465609753,-0.07133242864539419,0.23755641941316707,nm,0.0
23.691101000000003,11.10962223855317,-25.52588260335335,-173.0104123066187,0.24609575150083687,1.380956442729101,0.2019228069711668,-0.8061595899601343,-0.09201633996637969,0.3789071132461996,nm,0.0
23.700601000000006,15.880706902720545,-25.291315506580805,-172.61277645074097,0.20075939454464797,1.7928256938757792,0.2888818583460638,-0.860667741076935,-0.1458931004087795,0.48506978094967823,nm,0.0
23.710116,20.461661536680566,-24.94262964917404,-171.76736471723365,0.08503166968231492,2.1310966675112994,0.4537404782410758,-0.8240905259599098,-0.17419792262827818,0.5533623804162557,nm,0.0
23.719457000000006,24.40555808088475,-24.66694043794945,-170.519311021343,-0.33076187219978587,2.220285493263072,-0.019066980184811236,-0.7108514387976573,-0.15798493909955957,0.5753052084530896,nm,0.0
23.729086999999993,27.778955982359435,-24.574194512028594,-168.9406477546967,-0.38841469164316017,2.326107638664185,0.3213475473297903,-0.6122302290271121,-0.12173785060056833,0.5911349420692382,nm,0.0
23.748002000000014,30.609496521854417,-24.665110919391978,-165.3511398221604,-0.6681015477979042,1.9286817055105074,-0.2755705353935906,-0.1739214445795044,-0.016699513947137333,0.4295465912072422,nm,0.0
23.767200000000003,29.170770885214303,-24.544826911336663,-162.39162504752244,-0.364575273314565,1.286961527383201,0.09158464032310196,0.24030462706968242,0.04211405237943667,0.14490091773276367,nm,0.0
23.776702999999998,26.67883206960234,-23.990601419950078,-161.36151616387497,-0.245075130404551,0.887989271555611,0.3142135282409441,0.4549521607376592,0.04075761670559287,-0.00508995119150006,nm,0.0
23.786221000000012,23.165037812785304,-23.197544625526838,-160.64328199548416,-0.04519003605100466,0.45008612885713584,0.5511907616438642,0.6494816290112329,0.06499650664536553,-0.1437266564531646,nm,0.0
23.795727999999997,18.44953226282674,-22.458478296882728,-160.21594994284976,0.11146819417565405,-0.05521212005502743,0.68067092791327,0.8577455144767839,0.15806895916259606,-0.2860963940475721,nm,0.0
23.80524600000001,12.7671281695521,-21.822075557873127,-159.89745235280867,-0.006797619475118532,-0.457804144436929,0.4236489826503788,1.0224749474098898,0.24653067672886816,-0.3695640738188025,nm,0.0
23.833762000000007,-7.277458401699471,-19.777043454496468,-159.26835908900674,0.44896682476300964,-2.271758966689334,0.7788598212925716,1.345277026117647,0.37671823963685885,-0.5133088195272385,nm,0.0
23.843268999999992,-14.232601434836047,-19.284554986278973,-159.6739349691005,0.6482307196073215,-2.9463667842136405,0.8205609853000326,1.253212099899295,0.37752379398233676,-0.5463395644333852,nm,0.0
23.852600999999993,-20.960965646045207,-19.161373703541184,-160.6415200679303,0.5391668881766077,-3.3086264839190913,0.2907495432894426,1.1950863426454452,0.41858772791667137,-0.6353438361609189,nm,0.0
23.86211399999999,-27.12217270434835,-19.66824357861385,-162.06773817289167,0.10743064011293783,-2.7388272413343855,-0.6825171265323572,1.060905206168283,0.4784023517437131,-0.6922878764373275,nm,0.0
23.871449000000013,-31.49362633902908,-20.84780394898636,-163.636798784388,-0.10869752230915439,-2.324663291225621,-1.1048801635181358,0.7065866348882215,0.47828075368294587,-0.6129745128801033,nm,0.0
23.880954000000003,-33.98299252623527,-22.297454994173364,-165.24370926081076,-0.16472393249159337,-1.945477407469604,-1.3383947643934964,0.3608015905299094,0.4147258337671337,-0.500201120037046,nm,0.0
23.890535,-34.74882320607173,-23.61496844786466,-166.77911040609018,-0.25973318719905647,-1.2532505553357174,-1.473273457588428,0.0657790326823385,0.3011088688765631,-0.36219370954927277,nm,0.0
23.900065000000012,-33.46759935415963,-24.503295065486167,-168.1115638411776,-0.1471300686637709,-0.8973981792147636,-1.240347449156275,-0.27459117876739647,0.13388901690441402,-0.1573373051205048,nm,0.0
23.909569000000005,-30.306211790286344,-24.810882771994002,-169.23625617739833,0.023917314007893434,-0.6243705830022881,-0.9596313637805279,-0.5835133068981015,-0.0412131931071071,0.04319902199029383,nm,0.0
23.91924499999999,-25.539994809264883,-24.689801726463134,-170.12654805282054,0.011422621777683693,-0.20116489962157563,-0.7638523804638837,-0.8559338210928987,-0.16754975007844117,0.2246777640316908,nm,0.0
23.928764,-19.12672564835783,-24.426358220391627,-170.74718698360778,0.02969195533381635,0.09901643526324279,-0.44560482185256906,-1.1510757527186413,-0.23449338175854642,0.4115302058477752,nm,0.0
23.938270999999986,-11.137129346511253,-24.20959507510684,-171.1557938589046,0.2571502956455545,0.1275846592050574,0.4904504584782521,-1.4415739727823176,-0.2608387615472625,0.5774420922124597,nm,0.0
23.947780999999992,-2.6050598916201144,-24.008057969724202,-171.49013113432207,0.1721498486674859,0.754669991850928,1.2226966381550397,-1.5447505977321498,-0.26441063765226835,0.629665005367648,nm,0.0
23.95729800000001,6.210720176940882,-23.749550580090855,-171.64736885976217,-0.21485942602899016,1.6979065610123676,1.0117902177467455,-1.5989726851307737,-0.2779832768677425,0.680138185643842,nm,0.0
23.995265999999987,36.84830333804599,-24.652096292634116,-167.7354604133502,-0.33456828137879446,2.96359554050539,-0.1944932597326347,-1.0874064025336792,-0.05264834940178516,0.7928240918996262,nm,0.0
24.004775999999993,40.294501415507234,-25.59607842552708,-166.00969167294278,-0.3246134273286059,2.838052145264506,-0.6562853837935663,-0.6631617392255164,0.045143287967542196,0.6309617213653111,nm,0.0
24.01425499999999,41.485928556168204,-26.305509279076652,-164.18400730733214,-0.3690879956106564,2.5163430870445316,-1.071131470245065,-0.25574192264761636,0.08447337011558459,0.462476037745228,nm,0.0
24.023752,40.99908326792291,-26.52869020590122,-162.33424757960933,-0.1852194297493755,2.224353042490868,-0.6958198741143193,0.05873179352701441,0.07001264308332286,0.319618140402422,nm,0.0
24.03326899999999,38.60350764667334,-26.137979831077928,-160.65373685926335,-0.1393799214863127,1.7195844251831314,-0.3332213654005445,0.4204365261474828,0.06448633564293396,0.11642226832102784,nm,0.0
24.04296099999999,34.68316758832424,-25.17469245942635,-159.28934845476232,-0.17960596727553813,1.1558958739027778,-0.0008492317230381075,0.7187439488674617,0.06393097424008311,-0.0738002210600293,nm,0.0
24.052513000000005,29.646083700966628,-23.801443045971997,-158.30842442326178,-0.031068799311494623,0.5141070339440673,0.6597001091834099,0.9430621462673681,0.07929264255780637,-0.2284457269534366,nm,0.0
24.062022000000013,23.120735606426315,-22.233998975756286,-157.767812057073,0.00839166306458082,-0.29077308853134065,0.8364487376751205,1.220578523482535,0.16364529367316968,-0.4088167251739456,nm,0.0
24.071534000000014,15.574362631984823,-20.83116092919459,-157.62938230487495,-0.20050346615002013,-0.8792582272080742,0.6225565066526068,1.3950543795082277,0.2797835962398197,-0.5320210862080287,nm,0.0
24.09053800000001,-1.0314995614905786,-19.072163885269,-158.074226515505,0.38836022643538015,-2.646997560971283,1.7306666693903114,1.6030926574343505,0.5101065189155135,-0.6660107925339865,nm,0.0
24.10005799999999,-10.591217716405646,-18.67235889216161,-158.7290011388391,0.29261382201868563,-3.0633756859119052,0.9660390129295704,1.7027405746590487,0.6015833996557177,-0.7504497552507934,nm,0.0
24.109373000000005,-19.37790671462129,-18.84675890524547,-159.745499784322,0.5664223041150788,-3.659763891407938,0.6019070341361513,1.5353023674632496,0.6329395480872141,-0.7675916702848364,nm,0.0
24.11890199999999,-27.637500500651,-19.67537652630975,-161.23021555638965,0.5272172407648924,-3.578516339086727,-0.4777142329171953,1.4071383835611833,0.6878493154511378,-0.8391635948571817,nm,0.0
24.128411,-34.838782246972784,-21.19995978066082,-163.05053340274296,0.18758281975901636,-2.5583707109838776,-1.4602757323863218,1.1844528412745723,0.7151011300561678,-0.8627189989922792,nm,0.0
24.137740000000008,-39.63086767317516,-23.227098087107404,-164.90906898087877,0.20732930902338859,-2.0334808365987023,-1.8130724134725469,0.7346316849211822,0.6457303991192583,-0.7287363518622003,nm,0.0
24.14741699999999,-42.1451760054305,-25.285920218715543,-166.7565611072003,0.23173999316213556,-1.674200133558308,-1.9777263801762064,0.3376477613411797,0.5227709532551424,-0.5700887716983781,nm,0.0
24.195073000000008,-20.665724521179122,-23.971793511909205,-174.34600434890748,-0.36591897277503743,0.06750452336555679,-0.1405575980139788,-1.5210117331580109,-0.4479731600454113,0.5812253062006134,nm,0.0
24.21407400000001,-0.31396480344705296,-22.37943192137862,-174.0063608953839,-0.43678445228851837,1.1704745053315821,1.8420629172358185,-1.9009845057936043,-0.29028711052973916,0.8706538771869361,nm,0.0
24.223589000000004,10.809563058421464,-22.16131237653416,-173.21421599725903,-0.3293785314974026,2.03766079712488,2.158052746146957,-2.0535235145429187,-0.2631914650413332,0.9982186769156053,nm,0.0
24.23310699999999,21.701588059303294,-22.36417774563692,-172.10351909704562,0.0029052837906400034,2.9255812515016544,1.884499037179714,-2.0177791272418664,-0.21006593406322419,1.042300684994483,nm,0.0
24.242354000000006,31.326851826805317,-23.132905926557093,-170.9169436568392,-0.11258389878578116,3.250714092851563,0.5091620539111859,-1.7918263571085487,-0.1047410251196324,0.9754349900012758,nm,0.0
24.251867000000004,39.67531163354771,-24.20726789631131,-169.72740662657102,0.18181322310789294,3.3315755319739297,-0.10123735119240528,-1.5568753303402232,-0.04176591421094318,0.9012959866018503,nm,0.0
24.261570000000006,45.66391998309654,-25.154988849025685,-168.51600284087732,0.3841287605101085,3.490282439762711,-0.4913543809221088,-1.1174191677068193,-0.017007688403713875,0.7351082340375183,nm,0.0
24.280542999999994,49.02760412583579,-25.48670244898326,-165.4875403013324,-0.12095969944612021,2.437028341224386,-1.1367309835913106,-0.08020212318219022,-0.04488713575454112,0.36434307495850204,nm,0.0
24.290052000000003,46.79369268349082,-24.739943992401344,-163.58536586720342,-0.23796902959961924,1.8135130671142439,-0.531433565760158,0.41862670053845624,-0.034910887799873884,0.18278306634959038,nm,0.0
24.299768999999998,42.05641016245214,-23.580850709908958,-161.84386404222772,-0.475957253759882,0.7549267997092803,-0.3341584378922183,0.8836678727091546,0.03754645490223984,-0.04776812045409071,nm,0.0
24.30926199999999,35.6128238246089,-22.192779281342958,-160.49647183108652,-0.5758882848782995,0.16811016060957817,0.6206519510328227,1.2029676939943281,0.12379917493389875,-0.23991521619549766,nm,0.0
24.318776000000014,27.27262916855982,-20.621359744488355,-159.6142924167002,-0.3405592302224546,-0.4049861592980186,1.9764515159288119,1.556999294104338,0.23947775820170478,-0.4400904228627311,nm,0.0
24.328329999999994,17.09601338195299,-19.238777877072724,-159.38346171623468,-0.3816627833206532,-1.316056159416155,1.7550223443386936,1.8795160784428009,0.41837767799404585,-0.6540938408255662,nm,0.0
24.33784,6.668186847813211,-18.611040232159123,-159.81553641394504,0.07936555592228511,-2.330955836893198,2.291626706631951,1.8837400171362149,0.5786692857675502,-0.767355796722982,nm,0.0
24.347340000000003,-4.463880782279419,-18.641736015192855,-160.86831637656,0.6045596705264279,-3.6063809620660265,2.1609350213397165,1.976529215009168,0.7254450600853728,-0.9238336129453676,nm,0.0
24.356668000000013,-15.873791685036963,-19.37071914677291,-162.52053604108337,0.49525428507398417,-3.85010571023776,0.9245144925158792,1.9955710618108402,0.8268167305017013,-1.0731489851620892,nm,0.0
24.37544700000001,-35.1731848017072,-23.0757606504613,-166.30702380969305,0.5751977126379167,-3.3679181852499798,-1.2197912848233645,1.5340236947491934,0.877833184020188,-1.051523715772601,nm,0.0
24.385012999999987,-42.81168396607303,-25.676555805006284,-167.78405847432288,0.3232862689614535,-2.0043065645682208,-1.912067457017625,1.2351530917743934,0.8300513152697611,-0.9199344806562424,nm,0.0
24.394689999999997,-47.47772368614314,-27.888169426508803,-168.9612259406885,0.3673881706893805,-1.6908704432207589,-2.1537793103168177,0.7225849482429537,0.6123813200456347,-0.6489013332772445,nm,0.0
24.404196000000013,-49.986863845812195,-29.24194287622405,-170.17067805705136,0.33769877527455533,-1.2840829641698837,-2.342245164230331,0.38032102742884233,0.3571171870028413,-0.4741443093076736,nm,0.0
24.423235000000005,-48.3150258009932,-29.209508517139085,-173.08512740489843,-0.09839693336088222,-0.16617994616237777,-1.9066044869095358,-0.37218681634492196,-0.12637951437813502,-0.08607031594277298,nm,0.0
24.43271999999999,-43.789162385955166,-28.407698455588804,-174.60760824715214,-0.46667902209421125,0.09930474277726663,-1.4454111026723204,-0.7767694892817807,-0.23322281599672276,0.13913184012328172,nm,0.0
24.442161,-36.96796252544359,-27.584199190626286,-175.91773048263983,-1.0667084730523702,0.6133045954378119,-1.0240356330700608,-1.193255730169601,-0.251777512131829,0.38488133628164406,nm,0.0
24.45184599999999,-27.329238246389757,-26.728837217897738,-176.8869881381463,-1.1466473038075446,0.1726079901937098,0.1268134169358697,-1.708923373066375,-0.26593717418800394,0.6910689214784427,nm,0.0
24.470864000000006,-4.843853811007176,-25.54728054443158,-177.0944032398706,-0.5221105714735796,1.2050671372214092,2.057845724889494,-2.023451933700093,-0.1492822012027555,1.0271384561780417,nm,0.0
24.489884999999987,17.82983469348416,-26.495509041540416,-174.24163350183915,0.5723282529934486,2.8436322365012168,1.714702570790097,-2.0197194346855674,-0.031163836423784553,1.3301894276554498,nm,0.0
