timestamp,roll,pitch,yaw,acc_x,acc_y,acc_z,gyro_x,gyro_y,gyro_z,markers,motor_input
18.003769000000005,1.7678852526001785,-35.92960434541172,169.40590348625793,-0.9780358963710862,-0.030671531230614994,0.004231176923728526,-0.19541882105551217,0.34410627314068387,-0.044263389480859755,nm,0.0
18.013281000000006,3.7432700757053827,-38.280783741353936,167.81826774999828,-0.8741816965178802,0.14518360070394223,-0.1299301990603876,-0.22220286379669243,0.5367034144411253,-0.07956727775260937,nm,0.0
18.070335999999998,11.370525268098849,-43.43640612804271,167.91222539286727,-0.9605420498391051,0.6923362744806649,-0.25827533713420575,-0.07452195047556408,-0.27564548986186044,0.2580039207210188,nm,0.0
18.079657999999995,10.74914766674203,-41.3647959962752,169.0777127784532,-2.111722904219389,1.1010553409472785,0.18306577930933216,5.294813770899796e-05,-0.41265963904477293,0.14833140283412063,nm,0.0
18.089184999999986,10.300840580002411,-39.430989064573765,169.89699251490677,-3.225067379328629,1.1609414701305456,0.9028657621697228,-0.010744292846327412,-0.38110872759168896,0.10451517458855242,nm,0.0
18.098870000000005,9.495499464434822,-38.30985883769219,170.13508266410153,-3.438242983522846,1.1011987079023868,1.3771934930297638,0.07751694285851643,-0.23071215502097117,-0.05489378991640197,nm,0.0
18.117718999999994,7.148171091787062,-38.26143582588429,168.6596863505974,-1.9445275479511515,0.8289797070773413,0.1410250581800477,0.1754537842360089,0.022535680564140865,-0.3496761397794479,nm,0.0
18.136903999999987,3.8574241919787724,-39.323662613236685,166.583206269483,0.30960128131143616,-0.24531165974691663,0.2867802512024772,0.3748406919746457,0.05149053198014548,-0.47984620116427246,nm,0.0
18.146433000000002,0.41834073862632126,-39.57009904854463,166.30879734718724,0.6533692578065935,-0.08567598990106237,-0.4736196021705139,0.5234707437629186,-0.06341639785918482,-0.4922341424835281,nm,0.0
18.174723,-9.053663777898697,-37.064823171713385,169.76321147899463,2.113906860434,-1.4538691237965677,-0.01473271921810555,0.44004242071342425,-0.34995653235330754,-0.0833234951137895,nm,0.0
18.18422799999999,-10.08353576721851,-35.163315910554985,171.24078976776406,2.356295039724254,-1.7419992784931175,0.04527409653594683,0.09663125950341032,-0.38975625600116354,0.17563667609691486,nm,0.0
18.19374099999999,-9.249334021132492,-33.32883769956052,172.36343904971517,2.5421969990584343,-1.781647525131532,0.18595110545567814,-0.19432182432395056,-0.33074916778394364,0.31978837333155,nm,0.0
18.20324500000001,-6.998133380240597,-32.02373962658285,172.96831520120804,2.1417887341609685,-1.022169769789187,0.30665084374197743,-0.4153945139225432,-0.19772408231342223,0.3649462323045223,nm,0.0
18.212940000000003,-2.971846868598093,-31.240710583372632,173.00231107768835,1.632674194319713,-0.5449745184624691,0.5350456692841591,-0.7066204528481931,-0.0589341018253106,0.42931196455564313,nm,0.0
18.23195100000001,7.181007798270225,-32.13460190944524,171.6195592307811,0.02516495701714238,0.4712666868620214,1.0045262393673573,-0.8580785036640958,0.31760645169991963,0.3692497282027897,nm,0.0
18.241471999999987,11.586314170108047,-33.78352309150113,170.69310017196676,-0.5267863830549214,1.0936793926820672,0.7598108795308431,-0.6880538815182516,0.4517416831626089,0.2921733036823696,nm,0.0
18.251008000000013,15.294660777273078,-36.07376548022699,170.06578356175137,-0.6424059406702363,1.296277978865813,0.1142172913694182,-0.5315166061555328,0.5652943743453424,0.2971365682766608,nm,0.0
18.26989599999999,19.21036249253271,-41.94930030341546,170.0932407288193,0.30225658491471274,1.0933245033577068,-0.8109568094134866,-0.07067095781535009,0.6223574807454757,0.18668255300391579,nm,0.0
18.279487999999986,19.040291647368644,-44.06930305049548,170.78340747627476,0.46402358579719827,0.7901915547513373,-1.555424456409246,0.0862669771785617,0.42554427570982967,0.11333344385151684,nm,0.0
18.289008999999993,18.134353728024095,-45.002320869237764,171.5306898524531,0.4812693984469362,0.471817159105384,-1.5566593349626257,0.14763993181952567,0.17577319005102288,0.02102880624202314,nm,0.0
18.298489999999987,16.71004539255924,-44.543162024960665,171.98598170367595,-0.14024984847491717,0.38013210999908714,-1.2841237268461616,0.17846990066501262,-0.10888238420811816,-0.1109981587859812,nm,0.0
18.307961000000006,15.248155634339085,-42.8264899158359,172.11055346850978,-0.9631236449555319,0.34828262137013094,-0.497329027032016,0.15360213576609782,-0.35845063589726817,-0.1786663685025746,nm,0.0
18.326940000000008,11.618444213288004,-38.38923743096484,171.9218058644731,-3.5313157546835776,0.5411677558926918,0.710831547802752,0.23762290215400417,-0.44820870726396145,-0.27598266058431303,nm,0.0
18.33663899999999,9.703422738910422,-37.312503109591155,171.937326763781,-3.6909962826134777,0.32826654098981056,1.403689249234953,0.2619380129301926,-0.24406764458262573,-0.23373660278923142,nm,0.0
18.345968,7.601378231650171,-37.24826320629127,171.95099476017793,-3.219622175861104,0.3257701466048973,0.6035371648893696,0.3224902585288729,-0.04756107473292842,-0.2534450158678514,nm,0.0
18.37466900000001,4.021715126318974,-39.30934092125253,172.01616973138408,-0.008858021396974862,-0.23127659263166453,-0.37344368191541366,0.28092909256979576,0.14425059865385714,-0.20960937719553066,nm,0.0
18.384017,2.496518749657233,-39.711857935957475,171.9852503031093,0.6114667116374819,-0.17545089516098566,-0.9355402484109807,0.2378873422172102,0.05956787879525196,-0.20056354404940926,nm,0.0
18.403031,0.3773268058887244,-38.52838714327935,171.45195086568827,2.308492629303501,-0.8530078232139752,-0.25598987844155136,0.1717378232996602,-0.18631493477582303,-0.24194813304186655,nm,0.0
18.422217999999987,-0.6500180029749151,-35.66168489995941,171.0542817715922,2.894855920246147,-1.097920543562494,0.8998083175006468,-0.03741571355173908,-0.3171306231049648,-0.02529115099970325,nm,0.0
18.431738999999993,-0.4441765104446984,-33.79098203120587,171.3659013038917,2.254451585259371,-0.8025354998457772,0.5586872073472291,-0.09684247325883372,-0.35221866452805484,0.08542325756695925,nm,0.0
18.45070100000001,2.062333077983604,-31.071849281586438,172.83481645580548,0.9743799936343045,-0.371900890618253,0.839189506393886,-0.3004934172116282,-0.16749203584979086,0.32411820349401776,nm,0.0
18.460215000000005,3.91631749386754,-30.974747544226034,173.47734767783788,0.028117590989966013,-0.004701110298505704,0.6118433191596476,-0.32525366973739,0.030838104478150438,0.3183799028384368,nm,0.0
18.46977799999999,6.11204292753502,-31.99315913710877,173.76156039712419,-0.5905750134976545,0.2672366347014405,0.49545736554087283,-0.3573643435766152,0.2563178869891606,0.2847321818309545,nm,0.0
18.479284000000007,8.715350262012421,-33.90257479373393,173.64497637645553,-0.8047704762692406,0.40364918609294265,0.29750449262714235,-0.40062355084403656,0.43973099735488075,0.2582931102744189,nm,0.0
18.48880299999999,11.403049836479992,-36.490504599913315,173.13720925206866,-0.31380325536025516,0.40430926161605835,0.27315546176301875,-0.38529641714593077,0.5768685495092487,0.20672120721918624,nm,0.0
18.498323,13.659683735753594,-39.33336073342312,172.31746285157755,-0.18369172317276267,0.7351962986311625,-0.44601054924861794,-0.28984051835648666,0.6211970993441802,0.11189543534757555,nm,0.0
18.507632,15.981603559372028,-41.78374724673269,171.50766729745837,-0.017246954303826344,0.6661095152804397,-0.9282458261191008,-0.28916789623805417,0.5467363465844222,0.13865607623499102,nm,0.0
18.51725300000001,17.62681745502491,-43.2995172484271,170.94508733662553,0.15518855858067815,0.5576170445399492,-1.3404696435245862,-0.20220108860325559,0.34817452622584294,0.10857865281198478,nm,0.0
18.53618399999999,18.337493451541196,-43.50878364220941,170.749992447352,-0.7710865864960434,0.6806533044443873,-1.1636361057664986,-0.029856115144998616,-0.06250814190321924,0.027340919743882298,nm,0.0
18.555198999999988,15.975053005630471,-40.53516370720625,171.77235997077923,-2.071897243026349,0.7075140036931231,-0.1844669886983356,0.16816838750852947,-0.36257158119031135,-0.09031987691931705,nm,0.0
18.57421500000001,12.159536724227973,-37.846237727567875,171.79919671751847,-2.5446058905617863,0.4702715352477136,0.20447931668601838,0.26989140880572904,-0.2517240158096744,-0.3072447675281497,nm,0.0
18.583733999999993,10.678674941284562,-37.095463572913175,171.01905638531917,-2.0715724182334925,0.506704543049425,0.07092873595327377,0.20274910318545836,-0.17188229326147672,-0.33828209608492016,nm,0.0
18.602934000000005,6.485691143015127,-36.54016228722702,169.4471472726011,0.4239246012091977,-0.25396704872340187,0.41352951333967286,0.4363272217857882,-0.0871636022169963,-0.4869305131959812,nm,0.0
18.612441999999987,3.2777138890970687,-36.31910979265104,169.11503210876103,1.2316440742358692,-0.10845120413506339,-0.1940772159386017,0.49349804697532473,-0.12681466020950027,-0.44862863996271946,nm,0.0
18.62194199999999,0.9312254932698444,-35.56347538095183,169.42543719724605,2.8391696437278666,-1.3038703191586816,0.8346935861791924,0.33972493593074615,-0.2065446168231312,-0.2140785396371937,nm,0.0
18.63128599999999,-2.013216043719946,-34.226653679593404,170.14814761172684,3.2470550518975587,-1.4148068691502258,0.7819564430015501,0.42282622491016714,-0.3361024793882007,-0.19276268085151582,nm,0.0
18.64080100000001,-3.672599554383054,-32.425068102581484,171.2162473440335,2.9035250086252415,-1.091861252374169,0.37845893762276944,0.20988998144777068,-0.38790636462531763,0.031174229494546048,nm,0.0
18.650419,-3.068855204285593,-30.435746142940292,172.38103601526694,2.54042118651249,-1.4953560344663064,0.8360829461448627,-0.16495235018262439,-0.36670335283937855,0.29577114686515993,nm,0.0
18.659932999999995,-1.7968507437545338,-28.853316453702462,173.16329839320267,1.5679129312368176,-0.9009773978763596,0.8631865936923635,-0.2657980870566639,-0.273795962753092,0.2817029719130774,nm,0.0
18.669455999999997,0.528664881793482,-28.282720992355024,173.41650709819268,0.3086945651126463,-0.19574906727865587,0.8083059914764111,-0.4261199826499326,-0.05316893400287887,0.2719985471172965,nm,0.0
18.678968999999995,3.8954951613336566,-28.840493899368578,173.17558602538836,-0.5168199013656939,0.02265139708852925,1.403142504975646,-0.5819607223442144,0.19228266535544497,0.2722287405497644,nm,0.0
18.68846400000001,7.132872527752618,-30.229791404936325,172.62303778053573,-1.2268524100373737,0.5584013168301737,0.9320133173394786,-0.5325088373693575,0.3577515359458983,0.20676418892366039,nm,0.0
18.698038999999994,10.440140478633149,-32.6512792432409,172.04654108697292,-1.0490557520761181,0.6181491489380108,0.6183552174889716,-0.5028870595105697,0.5675845364827524,0.22773040571427894,nm,0.0
18.707542999999987,13.195786318070528,-36.09957900645217,171.5357722601276,-0.2866939004844373,0.7787852500302505,0.37535955792944004,-0.36015488200934503,0.7599200042394597,0.20718671552698456,nm,0.0
18.71705800000001,15.23737730371665,-39.74779012524332,171.25264518351617,0.3627894102916129,0.8515941473184945,-0.1648643846846142,-0.21784190136284096,0.781926022057529,0.19278752191381926,nm,0.0
18.745513999999986,16.79545438738987,-44.96007596785293,171.63540200408207,0.4238707962329846,0.4915645526094346,-1.77333726422206,0.008664976146775416,0.13791760335578546,0.015079051230588975,nm,0.0
18.75493499999999,16.440918635437143,-44.13403265668459,171.7502155742192,-0.39796149089364785,0.47901149180535385,-1.0858363244409965,0.01753354670984018,-0.15979144680786297,-0.02812768068628725,nm,0.0
18.764442000000003,15.537485494628966,-42.23627573355463,171.97481444688393,-1.4074171193224263,0.5694179986806172,-0.44073207983782964,0.06828537635510268,-0.38360573582897683,-0.08039974516860299,nm,0.0
18.773953000000006,14.263345492441884,-40.2720226989642,172.23221159511522,-2.5647619911754944,0.5481519412315781,0.40366249739032684,0.1276293547686196,-0.4045804211095762,-0.11843938883409905,nm,0.0
18.783455000000004,12.548340785201592,-38.87119713630673,172.49928828231054,-3.571504979819002,0.6085874477067983,0.8921829182833402,0.21698935413342996,-0.3016496352467984,-0.16702031430567946,nm,0.0
18.793138,10.689970379212372,-38.39266454074195,172.66153361814347,-3.2451044128457434,0.2710849983505266,0.9608867434173916,0.26798774346953375,-0.12084849936689245,-0.20135204782844784,nm,0.0
18.802468000000005,9.046048165932055,-38.75689523627702,172.3252126148914,-2.8276453791389775,0.4255493834857674,-0.04310581503970314,0.2570662598126009,0.05061154563884286,-0.27378014667394107,nm,0.0
18.81216599999999,8.563706644281513,-39.52620137219482,171.79600906351854,-1.4372632446637683,0.17280239057398214,-0.0630873562553353,0.08802232962640212,0.15427680643924854,-0.16790626008936752,nm,0.0
18.82168200000001,7.420848233805587,-40.55960357772724,171.37163344277843,0.09801175706061527,-0.41628474591821274,0.3707306451499025,0.19638575106349115,0.19127428785343115,-0.2328538456684438,nm,0.0
18.831092000000012,4.7779659114677075,-41.31515142199075,171.13322111538122,0.14926673108500405,0.12341710349095959,-1.1208079101355017,0.41135213008559945,0.10118059113661383,-0.39465674226729697,nm,0.0
18.840518000000003,3.216399105529072,-41.516054703067354,171.27518552228855,1.349186561539946,-0.4392473802921331,-0.6953672127257787,0.231278862512309,0.01646661859101893,-0.17834522842952139,nm,0.0
18.859531000000004,-0.7715739256076735,-39.87607576056392,171.95798192588887,2.3539274541921453,-0.7895479944421282,-0.41355886798212654,0.31386203195063345,-0.26321236842308204,-0.23290548039720282,nm,0.0
18.878555000000006,-1.5918669594561068,-35.78049258744733,173.008014394456,3.0074526014760115,-1.3097381984343033,0.750157063739476,-0.08598084078851947,-0.43330861056569414,0.1263600468838822,nm,0.0
18.88825,-0.7959248745658335,-33.774034237256956,173.48276913678995,2.238320665100404,-0.7507455649451518,0.5945967695656057,-0.18381488900074436,-0.3709983556893666,0.1855686102037126,nm,0.0
18.897701000000012,1.1792418225143289,-32.33207997603965,173.84713165810237,1.470896224393495,-0.45776450460693163,0.7947716931538157,-0.36819742693021895,-0.23796443047275648,0.28774208805044454,nm,0.0
18.907218999999998,3.6587090739373376,-31.717398412353255,173.97333542932247,0.49230661406037424,-0.09815562324653226,0.8088433357705543,-0.4387662284902109,-0.06552491936293772,0.2871223513691168,nm,0.0
18.916788999999994,6.227051185267898,-32.32195747680853,173.80261979504215,-0.5501232016847553,0.4007982451929616,0.5829757305146948,-0.42809759383829893,0.17876502611160197,0.23675513253466646,nm,0.0
18.926288999999997,9.195599714942109,-34.09172430926671,173.44754629983493,-0.881767298618858,0.4684519139646856,0.9302197232141474,-0.46269690199016267,0.4190886499292404,0.25254473097127916,nm,0.0
18.9358,11.605174160798315,-36.755416732732115,172.963242127715,-0.6510371214324464,0.5229215739208326,0.6223432957932784,-0.3353752130178394,0.5876604061057202,0.18088942653180132,nm,0.0
18.964172999999988,16.665881775715132,-46.24510879329978,170.9307204867071,0.9073140168364463,0.4525194425677638,-1.3692349485682163,-0.11323174790626003,0.5573331609901887,0.041975432725929226,nm,0.0
18.983272999999997,17.871355119690495,-47.76675037845928,169.3648786006991,0.3244180240456233,0.44976789041963994,-1.7746524950091063,-0.08364694425327035,0.04327596012993367,-0.06046789947828635,nm,0.0
18.992685999999992,17.4983151381213,-46.41794493283697,169.0023021889169,-0.38794333436082223,0.5325525865415435,-1.0533330204048488,-0.009008346096117332,-0.26336970249307795,-0.1283373661704949,nm,0.0
