timestamp,roll,pitch,yaw,acc_x,acc_y,acc_z,gyro_x,gyro_y,gyro_z,markers,motor_input
28.008789000000007,-3.4441705414905748,-39.15085887239201,173.649648865121,1.4031853161227157,-0.060219259963449935,-2.146583550687243,0.017048552249154393,0.16157024574788645,-0.13999049005774494,nm,0.0
28.01829699999999,-3.4670750848533425,-39.01028667895033,173.96616859311746,0.9494655635096846,-0.013197656552668741,-2.0287780609791217,-0.005533247632520356,-0.01565091699627967,-0.12456113053147025,nm,0.0
28.027805999999998,-3.675601275026663,-38.05193721363341,174.39910057108597,0.40009070585594825,0.0875380951068136,-1.6725012169569604,0.008293319521585813,-0.1814408946444935,-0.12721736645595896,nm,0.0
28.037330999999995,-3.956049133741398,-36.23468563900673,174.89270445789055,-0.16529931202746714,0.2005737414787797,-1.2111721810488583,0.0071397658934458435,-0.3537571980145984,-0.12020227515000984,nm,0.0
28.046760000000006,-3.992353943017422,-33.65681347371803,175.39404297394495,-0.6603790536125889,0.21810255710815246,-0.6343726872091522,-0.040199282017986795,-0.5025663141343648,-0.087552306850962,nm,0.0
28.056453000000005,-3.7516815433827837,-30.68213498859634,175.9201196153558,-1.1078516497472135,0.19420680323020553,0.10227752989896101,-0.08730477063481015,-0.579088306342656,-0.07054220936763307,nm,0.0
28.06595999999999,-3.3580870740568276,-27.592213412820957,176.21275844816665,-1.9647846037223244,0.2237413749203854,0.9560649317588277,-0.11334128438485098,-0.6009212513260962,-0.0748677577793378,nm,0.0
28.075467000000003,-2.900410600618865,-24.69295151069331,176.1216576315578,-2.9564354101477126,0.33105212560581004,1.2504608772743673,-0.1256755758941258,-0.5617459841849703,-0.058351406918870044,nm,0.0
28.094488000000013,-2.778999652797834,-21.96732879995836,175.86352616291148,-3.1368888430235784,0.11704027854536127,1.4558523458313024,0.011526483529505504,-0.14099400884844712,0.0476604056886,nm,0.0
28.113507,-2.83441756357306,-23.22224415053825,176.02376260786505,-1.1014922496813835,-0.14983482078636243,1.520678050176773,-0.02559377307825388,0.1895020112324226,0.16936908699208447,nm,0.0
28.123019999999997,-2.6749119369232535,-24.336897501165822,176.1852300008587,-0.08355981069275792,-0.4306533276918924,1.6694054060393106,-0.01924983288445387,0.2371747037823575,0.20165159449533826,nm,0.0
28.142041000000006,-2.3782005809786435,-26.973587633671798,177.33789041295333,1.2978013119775458,-0.4568886956980951,0.9621103773451791,-0.06055781292840224,0.29319960797800876,0.22390017332693934,nm,0.0
28.15154899999999,-2.086411821613691,-28.335664584118447,178.11247178611026,1.8630430665307987,-0.4478692046274125,0.3787102489108162,-0.04840163952042919,0.2866973530540628,0.1670250002196442,nm,0.0
28.179914999999994,-0.8342051265863499,-32.99393084179142,178.88404319855618,2.1191769809962717,-0.04539914135071744,-1.0390328864976337,-0.07652970875353246,0.31353468115800326,0.027126748469135487,nm,0.0
28.198921000000013,0.12593092736425146,-35.45758438087925,179.45558400082083,1.6678071311910567,0.23457803965652457,-1.738317794858042,-0.09028062113976393,0.23343009747549398,0.032041107682675415,nm,0.0
28.218018999999998,1.1383497060679315,-35.910420708422855,-179.6208172195148,1.1077790495689734,0.1993683910648916,-1.774951552523295,-0.07618951546022378,-0.011840192245562757,0.029840296867164984,nm,0.0
28.227553999999998,1.24703320481092,-35.082613506141456,-179.2739725719321,0.6109479612838451,0.33333769604218916,-1.6789360142736611,-0.023588387276150723,-0.15451447018732736,-0.03544221573976875,nm,0.0
28.23697899999999,1.4281494135619404,-33.480330175736945,-179.09415837601122,0.23325972233186643,0.3810935463266074,-1.2514079775838627,-0.0321132883785034,-0.30991769862426793,-0.06102778248463181,nm,0.0
28.24666099999999,1.684653584747085,-31.169504363017104,-179.0843757080044,-0.13480154069002326,0.3411311140998055,-0.6005906103771785,-0.042003726927736455,-0.45211707037009113,-0.08961216613676937,nm,0.0
28.25616199999999,1.7619161555908545,-28.372610939581005,-179.32900207209957,-0.7327026239737003,0.359385378685006,0.1080434356642231,-0.01162955596806501,-0.5487602553730456,-0.13604478104174364,nm,0.0
28.275204000000002,1.024411280104557,-22.11304562847894,179.70115925794835,-2.7924097868269,0.32495424854017374,1.2822896303010909,0.09486027077472453,-0.6186903636784318,-0.14615321175480636,nm,0.0
28.28470200000001,0.04471324649479449,-19.878928110056602,179.3565105023872,-3.540430681243913,-0.04897428813972863,1.722814066814995,0.17083262747153372,-0.4374948750012875,-0.0848567371689694,nm,0.0
28.294213000000013,-1.6339010136684375,-19.02696660905157,179.0638555024333,-3.5988866445745735,-0.06863779980279024,1.734303701463845,0.3062821410135922,-0.1646759255748419,-0.0481907881381065,nm,0.0
28.341764000000012,-6.144687639080022,-24.386126937130104,177.7589161369059,0.6571339564462295,-0.43061237744837755,0.8660815355186474,0.08733352491321528,0.3229725586779917,0.12624308123329278,nm,0.0
28.360779000000008,-5.917396571626148,-27.968837481666167,177.17921038310266,1.4525872182113893,-0.3929020082808546,-0.1023821808734625,0.016679934767103152,0.4030570845546037,0.07981202218052054,nm,0.0
28.370123000000007,-5.201454593962896,-30.290880405754855,176.91431003576577,1.824446606555585,-0.36859927454478386,-0.3353057430459376,-0.10606727598178699,0.4836845748930774,0.10508361876497117,nm,0.0
28.379627999999997,-4.220107565315902,-32.61376825320708,176.7830854007039,2.1750525306757966,-0.33974478750141807,-0.5652474052483277,-0.14842007201636878,0.48617106986501646,0.0884074786126402,nm,0.0
28.389141999999993,-3.399835286443311,-34.61945776635967,176.78822723618111,2.114670969889923,0.13479611575757863,-1.434098700894282,-0.12186335233209306,0.42081367049390234,0.043343964487129225,nm,0.0
28.398649000000006,-2.1749351959415413,-36.29059538028696,177.13840268516577,2.0570144122338974,0.2448237341834511,-1.7816232421251315,-0.1905015156759143,0.35619076892091395,0.10970308398277821,nm,0.0
28.40816000000001,-1.0181144628987118,-37.38028035533708,177.75972344403544,2.1162220924414896,-0.007303132346100863,-1.6494108368160914,-0.18423853370696253,0.2373289001264435,0.13225734148494778,nm,0.0
28.417745999999994,-0.8375383327637144,-37.57634770107734,178.4447914991087,1.3617033267872043,0.42121339594464574,-2.0999543953994606,-0.03523562610140244,0.052014313508501324,0.016184010716623,nm,0.0
28.446208000000013,-0.5647824216090022,-33.677581252466794,179.91254542000146,-0.2543919021311682,0.44969147904664186,-1.1369386287676568,0.019543284238723507,-0.3679921051277824,-0.0995711990134811,nm,0.0
28.45591300000001,-0.39751159327107394,-31.160131013513023,179.74106169563694,-0.6740657257097029,0.2736578109883477,-0.3462041800124964,-0.03540536997757497,-0.49237593959515985,-0.12078884119280596,nm,0.0
28.48442700000001,-2.4130585207728283,-22.616762538815124,177.08310914440048,-3.2239109404965767,-0.19560104419171245,1.6721995160143792,0.1891864249632396,-0.49929273759915865,-0.31487623657314084,nm,0.0
28.493933,-4.421327160744722,-21.154326073733888,175.85749561507672,-3.7347855950971143,0.04071908721034866,1.506294242294101,0.34702190083935575,-0.3037325074108427,-0.3288040863370362,nm,0.0
28.503446999999994,-6.3515201434824755,-20.82636038326194,174.65073335028242,-2.9773245373372976,-0.37911108273668453,1.2846462016784819,0.3475856420663663,-0.08451097508595833,-0.25066493968930564,nm,0.0
28.522459999999995,-7.649235622253466,-22.61026460219082,172.45852779461083,-0.984342711374682,-0.7579516275792261,1.8288246899320417,0.012760793440019185,0.21889113472834779,-0.007069477083229223,nm,0.0
28.53196700000001,-8.036995366759616,-23.652151932833977,172.09831609807597,-0.13895398076199234,-0.8604650097553301,1.548483702014075,0.09496615739639634,0.2095038647495544,0.07827533738011513,nm,0.0
28.55099100000001,-6.583560365059134,-26.140436443095886,173.1016635647561,1.249462443599032,-0.930205898309291,0.9292780807404886,-0.24562268626889702,0.31610731106851425,0.4270385970888878,nm,0.0
28.560505000000006,-4.987820353185588,-27.631294046823616,173.71187379376735,1.7813008834730926,-0.6373031237118479,0.28167480465435496,-0.252842073605014,0.34369375338297814,0.4117945414072174,nm,0.0
28.569840999999997,-2.908777135522161,-29.520669156983445,174.4075226176695,1.9706339424770216,-0.13882635620109213,-0.28670055059593197,-0.3300023675383961,0.42752579023088255,0.3922777138491335,nm,0.0
28.57934800000001,0.16938401494387295,-31.646113881595824,174.9305272185306,2.359058772215199,-0.1676235546782322,-0.4187354545319831,-0.49595483827815856,0.4851865871394281,0.40996437333063684,nm,0.0
28.588853999999998,3.1498774134559486,-33.67627530820305,175.14804770784664,2.6839570989536825,-0.03811669281013568,-0.764222988360154,-0.4738500047017266,0.4593952290674374,0.31191252926326524,nm,0.0
28.59836999999999,5.393615651670042,-35.453624107181035,175.1843689812028,2.4294448862327087,0.5628457097610065,-1.710082077794357,-0.34795153288360375,0.3962727016200556,0.1669198610566617,nm,0.0
28.607876000000005,7.544589736760222,-36.762742995544535,175.1640142479198,2.2874029920288583,0.6700696357779464,-1.9944609439082417,-0.33383001563610537,0.30083904274013284,0.15611952498455528,nm,0.0
28.617400000000004,8.918943737740054,-37.272413639330466,175.3470900300698,2.0353675251234176,0.6097908767834843,-1.9816606843890607,-0.21928273070634577,0.1304222661743738,0.09446461715508801,nm,0.0
28.626985999999988,8.970943476497464,-36.82814044603425,175.7629987562112,1.307928297189604,0.7799971478116654,-2.14645764629188,-0.022995915838542852,-0.07668051345715127,-0.029282151011722848,nm,0.0
28.63649799999999,8.488635858115217,-35.45467662463019,176.3152258885034,0.8153095716875021,0.700736440897558,-1.6774068114780316,0.051921640568087936,-0.26804973251941966,-0.062447744853138754,nm,0.0
28.655635999999987,6.611691373982747,-30.34655605431249,175.65862879595815,-0.4436812417739046,0.4652273500861622,-0.38448638963957765,0.12800891562094827,-0.5775146008392036,-0.21730568074779666,nm,0.0
28.665119000000004,5.530889619283208,-27.064915593964468,174.63503646280964,-1.0925747869281015,0.2982738496972821,0.7659520046324921,0.12626633952364066,-0.6589141614132287,-0.31125784470898465,nm,0.0
28.674634999999995,3.7940162995758584,-23.620584959296405,173.2060470935748,-2.211739325894931,0.2328098370751671,1.5355243824836544,0.23288183374325422,-0.7068643607611049,-0.4374830945622303,nm,0.0
28.684144000000003,1.2489913130918093,-20.73041020459431,171.66676479422017,-3.476540971564749,0.27304716467679707,1.5313291026897051,0.3861477306514699,-0.6229066512801423,-0.518367232150309,nm,0.0
28.693651999999986,-1.6827182479856957,-19.314558069728413,170.07960654027855,-3.9501620587284534,0.3234761513319272,1.6909597630936688,0.4938690696971314,-0.35500968135874506,-0.4933866059617324,nm,0.0
28.703165000000013,-4.485396438830357,-19.083539653274016,168.61357865001096,-3.3419836359106587,-0.1604171346426765,1.4637947327431273,0.5070845639608298,-0.1318010731359828,-0.40682631113446516,nm,0.0
28.712673999999993,-6.73650169668513,-19.80661491633047,167.30528033959519,-2.591998412246281,0.11947900953303889,1.0496714368614612,0.4418239678304906,0.06444034883230322,-0.3122857348154621,nm,0.0
28.76022499999999,-7.802383568692922,-25.194868280294674,169.6625185351157,1.186855911168744,-1.0629293880914124,0.583752055490626,-0.15070467222095998,0.344058495540655,0.3917637466155336,nm,0.0
28.769565999999998,-6.186096149075811,-27.247570745046588,170.36156180867638,1.4312565201963545,-0.34350823060382296,-0.2295552070949103,-0.21985910905723186,0.4683812314863982,0.2826560631939889,nm,0.0
28.779079999999993,-3.0472169747231055,-29.858157866322298,170.25476467346243,1.9340609181894837,-0.4134036311270325,-0.3209058235746523,-0.4617883671829074,0.621196120779567,0.27856578651944003,nm,0.0
28.78857400000001,0.4835279172132203,-32.60488936262295,169.46623347797495,2.4230735060869284,-0.44235972092005194,-0.4404945182197874,-0.5041261511226244,0.6606298711336239,0.20807696088075345,nm,0.0
28.807591000000002,5.439277231499927,-36.79838847109375,168.69900275968394,2.5666755537134747,0.3771580717052013,-1.8020389791907896,-0.2907505867959582,0.4351790672803749,0.12763989119192187,nm,0.0
28.817114000000004,6.45639357513295,-37.801584440554095,169.42805376815593,2.4186478387253496,0.28040585241025,-1.907479643961988,-0.1288794694395073,0.2398153172178599,0.13970376854986055,nm,0.0
28.826704000000007,5.641270948407895,-37.813021177524355,170.26740994452723,1.7003357411690978,0.47996448779738676,-2.185174974151582,0.12061911193700976,-0.007985244214960002,0.06713658211504572,nm,0.0
28.836219999999997,4.045807030678477,-36.77595072251233,171.61271998500172,1.148644430076588,0.38465269644579175,-1.904010784650889,0.21149154972593878,-0.23262896739123162,0.07496922418748984,nm,0.0
28.855158999999986,0.2818767348972592,-32.45128134959523,173.4852285605156,-0.002852473602567037,0.1391437543913047,-1.03258020224172,0.24989121480768992,-0.5077663550711219,-0.08878854603136803,nm,0.0
28.86484200000001,-1.10301365581448,-29.776833583187845,173.8006876075403,-0.49541538396752616,0.06587743168497577,-0.4318105818049933,0.17285584871807477,-0.5450830237254488,-0.19181723052391542,nm,0.0
28.874351999999988,-2.196490640011649,-27.079975403772895,173.26417890700677,-0.977136141135652,-0.01937894265009342,0.1540160670951883,0.12656458766564427,-0.5450392075217111,-0.3063595031336331,nm,0.0
28.88386700000001,-3.3721232463603927,-24.595286916697386,171.81938650349846,-1.5512752314032052,0.04363224257635375,0.5240340191304991,0.13977839284786253,-0.5079200833640658,-0.39293423607941247,nm,0.0
28.893385999999992,-4.690550437532369,-22.550179120481918,170.21707228780434,-2.0204453538150644,0.3027851256496192,0.2857980668369329,0.1692620682375124,-0.4293734062032471,-0.39571456339786487,nm,0.0
28.902879000000013,-5.905226484265702,-21.244073295377053,169.028383107554,-1.9947063387338735,0.08686594369806001,0.508045330525432,0.16969361088752127,-0.284823097583583,-0.30053518343273833,nm,0.0
28.912406000000004,-7.058581917703505,-20.503605937801265,168.1893640778923,-1.8104294796714757,0.13259847784578666,0.48520237728377696,0.17725107111289884,-0.17501939179530163,-0.19072504873865648,nm,0.0
28.94092900000001,-9.134200789929166,-18.97960887716801,167.3076784305713,-0.37206342705749146,-0.4453259076983923,0.34542347116155214,0.04832236847979634,-0.09976077901723478,0.08322887788600063,nm,0.0
28.950435,-8.70133708525391,-18.310515645664115,166.69409128021255,-0.05040267711983835,-0.6783703584671195,0.5723255966605887,-0.11511548199209139,-0.09752264439359412,0.1007931071415024,nm,0.0
28.959944000000007,-7.7774328776080734,-17.464155230894686,165.60823105803357,0.12523001787520718,-0.5357578494275981,0.4997872031392232,-0.21644194120270588,-0.10677652225667122,0.05370468067642215,nm,0.0
28.969291,-6.249404133193326,-16.62178992054777,164.09676255585998,0.15425044412006558,-0.3084698114475026,0.5851772087480808,-0.3308452281828648,-0.06933795195400536,0.021538341573153822,nm,0.0
28.978798000000012,-4.25911165439286,-15.808742876950602,162.2429946081131,0.07861727382347028,-0.09829157877996392,0.9420694377278274,-0.4171458788152639,-0.02637225133023639,0.013714253429637354,nm,0.0
28.988306999999992,-2.2195354231077706,-14.94536059790342,160.6009318603508,-0.07099260209451036,0.29898976969088326,0.7829427228982471,-0.4316732483418968,-0.020089504003768306,0.026699291675680553,nm,0.0
28.99799200000001,0.05015465571780161,-14.19560544386437,160.52136717634878,-0.19676871852069147,0.36121712663202626,0.733495196591792,-0.46781098950254973,0.01833446337502015,0.09523205582509703,nm,0.0
