timestamp,roll,pitch,yaw,acc_x,acc_y,acc_z,gyro_x,gyro_y,gyro_z,markers,motor_input
7.011700000000005,-3.8430763612140844,-44.727659439876604,-37.244729477102254,-0.2900020112520385,0.01094152110553981,-1.399717048191259,-0.39284443423479104,-0.2947546048441404,-0.1994770291999492,nm,0.0
7.018750999999995,-5.42650629886352,-46.49424969822526,-37.18229882640382,0.07566507805340239,-0.033912182157047,-1.6557471043760077,-0.3922569366606018,-0.16153722684965618,-0.2120915682436509,nm,0.0
7.0282629999999955,-7.5496205466183826,-47.63531625723439,-36.89855843372102,0.5249960414622891,-0.62513589468573,-1.840888342804104,-0.37076451350350653,-0.02177937936051321,-0.2519970064906611,nm,0.0
7.037769999999995,-9.288178249749881,-48.12510831424411,-36.59516620357619,0.8463328633142488,-0.7046032021481263,-1.848837457052268,-0.2479625616424069,0.047347897045349266,-0.19470277224418495,nm,0.0
7.047246000000001,-10.77641802310134,-48.30399937607593,-36.524685672039446,1.0109157702418619,-0.4912744754881319,-1.6650224133033857,-0.18326435339628175,0.07584954072258465,-0.20507707214797555,nm,0.0
7.0852589999999935,-15.17915323425033,-44.782030487530776,-44.91564810510017,0.045460690400973156,0.5863310347302193,-1.2551823521011858,0.184269310183264,0.3375539864197444,-0.1421284496418348,nm,0.0
7.094748999999993,-15.443491426854864,-41.79267584547,-46.04720956953838,-0.24108564222907666,1.201234339651413,-0.6531365575985304,0.40075005343372694,0.4288926533138038,0.04704798629828844,nm,0.0
7.104437000000004,-15.03256695877472,-37.74643812042599,-46.72392763403148,-0.548758654041182,1.716264782518083,0.19980620480203026,0.6320611104970134,0.4916593044200053,0.224584613388622,nm,0.0
7.113949000000005,-13.638280454979634,-33.41328757435428,-47.089266048690384,-0.7931086025189469,1.8199246659143888,1.2659889323783695,0.7896630801229245,0.40308875779914044,0.39852439475619916,nm,0.0
7.123467000000005,-11.01182028683016,-29.700770209733665,-47.496090769723,-0.6427449076854334,1.4832271324799156,2.2539132162668163,0.8480855125826932,0.14933078077220976,0.518430467238429,nm,0.0
7.135384000000002,-7.609833847210385,-27.38194217457954,-46.58872140701868,-0.1830128443580309,0.42079013772280016,2.8510495236248827,0.743634208851627,-0.13532049675547828,0.5071775522944004,nm,0.0
7.142493000000002,-4.265803156859914,-26.287842848016318,-48.401608230183,0.4370137807209619,-1.0413278730529463,2.8467949943033557,0.5555323223337689,-0.31674736513955454,0.37212702730930275,nm,0.0
7.152090999999999,-1.6920691415368112,-26.824461530866284,-50.66682302842588,0.4671371998130733,-2.1295544360035144,2.4430712140207866,0.2041682443725251,-0.43849741103811407,0.2652635437569263,nm,0.0
7.171092999999999,-1.130630596241765,-33.16782680643981,-55.17169288561851,-0.360864030066643,-0.9840880667858523,1.1401029736796817,-0.6774521235791388,-0.3179426388428885,-0.04818912177816482,nm,0.0
7.180604000000002,-1.2610123972795484,-37.00773265172356,-58.024576852066154,-0.8153268729589479,-0.4659971463580371,-0.13816162802485019,-0.6675768511425126,-0.40518554210504115,-0.12488178990295534,nm,0.0
7.190036000000006,-0.6140885924985923,-40.85771491733039,-61.42760466336646,-0.5973391749116297,1.1137650821439218,-0.09544448908491436,-0.6300469339733289,-0.47712652401969924,-0.18555407939948687,nm,0.0
7.201911999999993,-1.3273461047113109,-44.12350992464462,-65.20299524894031,-0.7782113159174183,0.3095105084483166,-1.7165343296098032,-0.642265584420191,-0.20150944156914982,-0.4861247841552502,nm,0.0
7.2089579999999955,-1.778315721693536,-46.46415157717393,-66.86710797118079,-0.6047269062211513,0.024807330031306276,-2.2568712664854074,-0.46206573432016995,-0.14401828483852094,-0.39590206582489385,nm,0.0
7.218504999999993,-2.8549190843510006,-47.75629541095858,-67.55956274197376,-0.07793597927093317,0.4262235133300291,-1.793657174930207,-0.30359755246325365,0.023616909426131146,-0.2948055964745876,nm,0.0
7.227985000000004,-5.951393434552102,-47.79303854314865,-67.19821443431636,0.04894445594386827,-0.59611135251238,-2.0276186883828613,-0.17556725398853174,0.3706648337893586,-0.3845403824241429,nm,0.0
7.237464000000003,-9.233664114781616,-46.72109932668001,-65.98703740048533,0.18646524297608078,-1.29495266408301,-2.1070084575036674,0.011111962672598877,0.48362131760803945,-0.23756312471379967,nm,0.0
7.256442000000007,-14.473006415377354,-42.86636750637073,-66.34556960092216,0.853473143106957,-0.8788238918306944,-1.3296176038102812,0.225891350912558,0.5182778267901601,-0.2052356866609471,nm,0.0
7.265972000000005,-16.045937690077817,-40.48794464336787,-67.45954256458717,0.6930129904297538,-0.8336299988171066,-1.3202762766522667,0.3404771084430854,0.38950439632319145,-0.19482086488041306,nm,0.0
7.285353000000001,-15.769204331163893,-35.67867965958508,-68.88451069649024,0.5413115857658042,0.4722240664954462,-0.29254085435579646,0.46244815254830574,0.1132205786134366,-0.1271866686730289,nm,0.0
7.306572000000003,-12.173242663373859,-30.1235002488694,-69.56662060786978,0.08685840131332638,1.966718904646991,1.9479123086153827,0.6686673336207027,-0.1582768519513082,0.2228846704162142,nm,0.0
7.313668000000007,-9.886382780661474,-27.33801067325822,-68.9735404268964,-0.4321221979362395,1.594035322867412,2.4838884166369866,0.6547069938278609,-0.18912468461600238,0.33935799039697184,nm,0.0
7.323177999999999,-6.896799596589233,-25.510688137833956,-67.841421459736,-0.3670131852834697,0.9650597201869167,2.722058289399427,0.528899311240216,-0.3752145597247274,0.49270880320101007,nm,0.0
7.332704000000007,-4.214197326999175,-24.9650332155469,-66.64555580953109,0.05962993117342894,-0.05369205342781985,3.222994836396308,0.2806213531850184,-0.4174851025152334,0.4675113373900855,nm,0.0
7.342207000000002,-2.626198515294551,-25.367483446370645,-65.77964074879249,-0.37772902049354806,-1.833397732440179,2.0491997725539384,0.03460333245346536,-0.3077158298905572,0.30740106970552533,nm,0.0
7.3613129999999956,-0.8975591872231217,-30.92286664741352,-65.04693783191664,-0.24899515931126256,-1.1414346092629093,1.6559320828674782,-0.6344985584978984,-0.32491421209930904,0.02586432874508277,nm,0.0
7.399195000000006,-2.093663458030819,-45.023878798428086,-75.53984462988952,-0.7621576886972625,0.4846920028059266,-1.687939588512775,-0.5983365717194584,-0.023387463709408692,-0.42404665721589413,nm,0.0
7.418149999999997,-6.3748902816561035,-47.97738456255741,-75.21658974822948,0.02070723754033322,0.13298774205264452,-1.7383790715242056,-0.2950241192356318,0.3233259137938587,-0.2788748331180423,nm,0.0
7.427717000000001,-10.317979651565414,-47.74940717267753,-73.7330807920618,-0.00757638965656883,-0.9704911917454179,-2.03003062656971,-0.10794577723624559,0.5130393392100101,-0.2856298183600857,nm,0.0
7.437220999999994,-13.519378430623226,-46.81410681738716,-72.11087514704774,0.43749753426517884,-1.128203389039122,-1.8388311439518281,0.04115233611557762,0.4612568298422092,-0.14291805028998036,nm,0.0
7.446648999999994,-16.286488979250375,-45.80308916924611,-72.18173729879082,0.83698886594558,-1.109815553057297,-1.5461673244018408,0.06925940305606701,0.41652944478676973,-0.18136489224136082,nm,0.0
7.456340999999995,-18.606850808765575,-44.87278925238415,-73.13661111745685,0.5648312560831756,-1.5705832285889114,-1.7264926273355408,0.07327688917628769,0.35791887060344446,-0.30310545614460066,nm,0.0
7.465860000000006,-19.490697452079683,-44.006736235709624,-73.90319737546312,0.7573871726350397,-1.103322514484315,-1.5082631661168242,0.11969763775264476,0.16201185307968854,-0.2734308716645481,nm,0.0
7.475384000000005,-19.719312528426844,-43.152080926561474,-75.20854965993114,0.7841806513686707,-0.5442070596219593,-1.3657211271813179,0.1451971995940174,0.06941421198256616,-0.28898285645071126,nm,0.0
7.487329000000003,-19.762268810718798,-42.079448419878524,-76.44134076281794,0.5362072692483516,-0.060078638850904476,-1.2517187694699083,0.19561114770003105,0.05077976882776602,-0.248798918722515,nm,0.0
7.494372999999996,-19.310404189219454,-40.290170319985165,-77.055979329095,0.43758839592347903,0.6510594256601112,-0.846857869669464,0.35323527031345564,0.00781606118880187,-0.05982976626670132,nm,0.0
7.513525999999999,-17.327948770934835,-33.70446755155731,-75.7532904443217,0.20469022386997482,1.8093797157680729,0.551430885181207,0.7574641178285836,-0.015010077759500723,0.3496252092484528,nm,0.0
7.532548000000006,-12.063910009914663,-26.706937357559536,-72.6126730258958,-0.12672378855584052,1.4635027239417222,1.9950818665521264,0.7510762250704742,-0.37216963933775427,0.6188988519693249,nm,0.0
7.544388999999995,-8.301072801019226,-24.84742693805491,-71.54139966456366,0.0418814575417336,0.5917539939033863,2.9700412216338323,0.5535903287064677,-0.5417338227164517,0.5419588128476547,nm,0.0
7.551444000000004,-5.173723475281692,-23.865107995263468,-71.32055149128465,-0.5704468018848535,-1.1471553492525437,2.3221362576460796,0.3589877352072367,-0.48904289491458675,0.30158935059236014,nm,0.0
7.560950000000005,-1.9809007813670467,-24.13239143995666,-71.51777579339048,-0.43932358197082905,-1.6558275145166474,2.38985521931735,0.1265526325567776,-0.5816901366126934,0.21907140399611374,nm,0.0
7.570455999999993,-0.4703384407536714,-26.083516847529122,-71.85475101735945,-0.39409823647474446,-1.2521094475164685,2.472758622806834,-0.293551082542281,-0.3938964335362977,0.05937954146573499,nm,0.0
7.579983999999996,-1.0623839226031664,-28.758384137851458,-72.40676778684609,-0.871538747209241,-1.107144471436736,0.8985203012320855,-0.5509649318576206,-0.07522186182097838,-0.16615908776336658,nm,0.0
7.617846,-4.63863295500752,-39.56783989494467,-75.90120829619872,-0.4716493185104747,0.9660502056361238,-0.89205909960594,-0.4284364127991368,0.11495801861522657,-0.3026591582984562,nm,0.0
7.629800000000003,-6.55469659613015,-40.62777087024512,-77.51968275417633,0.016168350802410605,1.138600847971457,-0.7366685267378299,-0.2811558158084355,0.2309475397953913,-0.25911447537690757,nm,0.0
7.636866999999995,-9.368661313683583,-40.83184277589518,-78.55258646046143,-0.1467646213372213,0.20356896238882835,-1.0262271699314571,-0.13432712173512826,0.40171678124666543,-0.29680608948542736,nm,0.0
7.646544000000006,-11.49720595046897,-40.246202046579704,-79.20295331986571,0.20512680458155222,-0.11245024008942829,-0.7575547229530236,0.04529041389082046,0.33117358832867333,-0.1529956773201125,nm,0.0
7.656087999999997,-13.249832511507298,-39.35170491270575,-79.81451233529327,0.57853411090019,-0.34378169895858895,-0.4404223545221214,0.11881648882260337,0.28806848916770295,-0.11185802873572329,nm,0.0
7.675195000000002,-15.379055686860532,-38.223031776750375,-80.6658816275747,0.5352489938010068,-1.0185141887682783,-0.3353838437720137,0.05537834921811383,0.0913380423722888,-0.06923184624570823,nm,0.0
7.684719000000001,-15.398418933280274,-38.1662830444106,-80.95835614258243,0.5880357809708162,-0.903731086970792,-0.3283053564815597,-0.0007548038434058923,-0.003078249555033866,-0.05826457957577447,nm,0.0
7.694034000000002,-15.141183655688524,-38.485038922228384,-81.36119771575623,0.32335980748072507,-0.860576125660226,-0.5603052604893735,-0.06839600307631105,-0.05757623554011253,-0.0460466519102932,nm,0.0
7.713266000000004,-13.526877066542468,-39.29246885241963,-81.84672309055088,0.19414326713745325,-0.07130381132271421,-0.5929362709981727,-0.05602315298702767,-0.14719412661693587,0.0758985782795101,nm,0.0
7.732332999999997,-11.58228904700467,-38.980095255216675,-82.66805527334708,0.045108916324044616,0.4173424695064975,-0.6636583979332549,0.06857115114453739,-0.15981868897835932,0.17983112711369162,nm,0.0
7.741833999999997,-10.608257721785298,-38.33423154540324,-83.49235953143804,-0.020880311902406055,0.40422848640087466,-0.5541108003809675,0.133905768812619,-0.14498001598564347,0.17046163898185265,nm,0.0
7.7513409999999965,-9.581584726305401,-37.33458953945375,-84.46419990892815,-0.055160335127783795,0.2702344481749874,-0.42404736142836813,0.2031676348881374,-0.15041412769363474,0.14247995205163777,nm,0.0
7.7608630000000005,-8.441700617707914,-36.1744778024191,-85.71639810292722,-0.06443673711100066,0.05129978024404952,-0.2749657385376282,0.23375331615955117,-0.17263373462053563,0.11267573467406967,nm,0.0
7.770208999999994,-7.328857268104516,-35.041000222729416,-87.18771640859693,0.05139512121900873,-0.07911045420899294,0.0497255667889572,0.22414038682113496,-0.17696216344551247,0.07291985577894446,nm,0.0
7.779700000000005,-6.619318537442226,-33.96926293613165,-88.80243030069154,-0.10881420498606183,-0.3377223063860241,0.10737179288494869,0.20534767409326848,-0.11933929471549745,0.003954382890071128,nm,0.0
7.789186000000001,-6.0712958519720726,-33.00613851949184,-90.30881710361885,-0.14210433346023668,-0.42333330410148234,0.17544012493352,0.18042736668109838,-0.09926238013227345,-0.004321285329297115,nm,0.0
7.798741000000007,-5.785269324815606,-32.225326760063155,-91.66385317445898,-0.06513812833399348,-0.3754174193175183,0.3105548855058468,0.14260799842349223,-0.059549132533247354,-0.000414430853898124,nm,0.0
7.817751000000001,-6.100271674707283,-31.0488750915029,-94.09169212660801,-0.01124774182386548,-0.21968523022147393,0.1810689339277704,0.09882557253476199,0.02129739833137828,0.009801799002441283,nm,0.0
7.836810999999997,-6.623970646734867,-30.197320998046944,-96.41332393657362,0.0325482896847056,0.032134572665576094,-0.024563066379304235,0.07013711054930334,0.02771797468098928,-0.007811503351534068,nm,0.0
7.846312999999995,-6.688262459729669,-29.810405059356487,-97.83110512312066,0.11348782563974653,0.19165891801447196,0.046883759637389305,0.06519747195829693,-0.004998227513603513,-0.021277640175692333,nm,0.0
7.855778999999998,-6.615964307720666,-29.38352934984205,-99.37659108057265,0.09606486043986026,0.23943496799798575,0.10016351196659616,0.0691258097539229,-0.03135810622722492,-0.04254752008698074,nm,0.0
7.865292999999994,-6.386840812016555,-28.895700427122854,-100.98429707375864,0.07657979103092814,0.2286923889285914,0.1905048808798928,0.07508283051993783,-0.06253342922424683,-0.04559982055878767,nm,0.0
7.874813000000003,-6.108198497989673,-28.359374695823078,-102.56934813271369,0.008877868212477026,0.16980455294968771,0.3106196853073139,0.08088230522712045,-0.07543134746942876,-0.032822884655536906,nm,0.0
7.884270999999998,-5.918360322723793,-27.80072922892204,-103.96879329913368,-0.11169615020448281,0.05678305380649799,0.28320398643446076,0.08696589658742078,-0.06362500927013924,-0.009586306898964158,nm,0.0
7.893823999999995,-5.8197323308392805,-27.25692715750511,-105.15550687786343,-0.1447933411483248,0.0023347028882853647,0.3383679658533895,0.0868454065715344,-0.04937437760039197,0.02662123202831409,nm,0.0
7.903330999999994,-5.895918134849145,-26.780949210388762,-106.09836645830843,-0.15034244077300615,-0.03864395699571318,0.32966661955619003,0.08159773864564979,-0.017295513703396128,0.04945740848743872,nm,0.0
7.922362000000007,-6.455456015699362,-26.227030568840444,-107.90440612251943,-0.07805047635028342,0.001016386963283551,0.2892845340007122,0.04199985418228812,0.0384025022370288,0.040391829887696205,nm,0.0
7.931872999999996,-6.804364059868995,-26.123852688515516,-108.98580148484325,-0.0645301490633775,-0.022043709673955306,0.19909565268860493,0.026122004511463945,0.04961115581125451,0.008899545209743377,nm,0.0
7.950861000000003,-7.366846526872365,-26.176488644804497,-111.57090890196221,-0.019060133171580458,-0.061354076739946,0.07313362363456738,-0.01275539638632937,0.04821975759807388,-0.03972462281759293,nm,0.0
7.989208000000005,-8.373905126244376,-26.834891560670734,-115.87952381470122,0.042380531923679125,-0.024155039900513365,-0.006393261283947942,-0.013593851482604651,0.055022986361030736,0.05366141355110832,nm,0.0
7.998717999999997,-8.53439089767497,-26.85104138831848,-116.53116437729084,0.06676997676224222,-0.007625138004586387,-0.022266239816505957,-0.0022893671845409936,0.04122514274552166,0.0805702742199503,nm,0.0
