timestamp,roll,pitch,yaw,acc_x,acc_y,acc_z,gyro_x,gyro_y,gyro_z,markers,motor_input
66.003423,-0.6920392565047819,-19.442526451533272,148.72775434530107,-0.07047379107217547,0.08902170929763129,0.1966304030301589,0.03348846035625736,0.03852597970542598,0.06005420561580805,nm,0.0
66.01291800000001,-0.9756654954443097,-19.487312751580525,149.67427229585013,-0.13287955922127842,0.17173737892298985,0.1729302217506919,0.050088705527418315,-0.005477305978952119,0.06409600967344699,nm,0.0
66.03193099999999,-1.7600793245383788,-19.62812735332174,151.5462043018532,-0.27423729081277554,0.11633295409455999,0.22111591168726077,0.08727177033001489,0.0037042382221935395,0.04520326090009042,nm,0.0
66.04143199999999,-2.305134725580598,-19.990037277119853,152.23731340991185,-0.3041873401646037,0.12401237932960414,0.1959722036602628,0.12355560553808424,0.030095462522630057,0.0028445717342045615,nm,0.0
66.05095499999999,-2.810550803228,-20.44058457685091,152.72724210037813,-0.2597923473933421,0.06064634959013678,0.18305311146388215,0.12458130433182595,0.05070181165303037,-0.03494653717830226,nm,0.0
66.060464,-3.3003378503349428,-20.972877852460496,153.0259116643596,-0.22514616662651213,-0.006305276684696738,0.2051636699222263,0.12882639255052208,0.0676000172170277,-0.06523054476748286,nm,0.0
66.069972,-3.82052536870912,-21.509520740063497,153.28271321357522,-0.2556794381737671,0.0364573234055944,0.23344319051965678,0.13370871052735214,0.06663892645241155,-0.0781990956855063,nm,0.0
66.08899199999999,-4.5649858315711445,-22.077887553540876,154.19497366380293,-0.34763621599483513,0.0747187294739063,0.2695350414336985,0.0690877256019241,0.024295424759442918,-0.031174189838782,nm,0.0
66.09850399999999,-4.7462385632207145,-22.236099851403406,154.88606548799854,-0.39759734481260783,0.12085747841245525,0.2711567965811079,0.042332929136361906,0.028463175472667315,-0.0023313151952872066,nm,0.0
66.10800900000001,-4.747758941814694,-22.388808124583658,155.56660010002778,-0.47397841999734475,0.16841208935330368,0.32063768912712526,0.0,0.0,0.0,nm,0.0
66.11752100000001,-4.614863331220614,-22.50245057701669,156.1510536515708,-0.5907168654611016,0.25534380457398775,0.33767782902539684,0.0,0.0,0.0,nm,0.0
66.136548,-3.8449372915717954,-22.884957808927226,157.14356360642228,-0.8731988891013417,0.40692252337270307,0.4750221257007906,-0.06564500946623132,0.09511279674027782,0.016528430498447072,nm,0.0
66.14605800000001,-3.6303467838372807,-23.307955923888322,157.7131018429914,-0.9203079692642434,0.5134279907857372,0.45947652844663356,-0.006891471629121434,0.1073083242617318,0.0015211111031525264,nm,0.0
66.15556900000001,-3.575465379335765,-23.94991747932642,158.45012604354136,-0.79843568032909,0.6186456639849616,0.32967872741607107,0.035322477300196976,0.13716499065617244,0.012721533678190629,nm,0.0
66.165064,-3.4629521063484474,-24.847070670600637,159.3772126245311,-0.4276364281488345,0.2882429137438847,0.6147104062283311,0.041547939250078283,0.18916601495339902,0.049162859201538824,nm,0.0
66.174577,-3.7201888012558206,-25.840910947668537,160.38918341450955,-0.048770391255771955,0.10832012252512126,0.6218310247159331,0.10798700314434813,0.1854240768100912,0.031715661296109685,nm,0.0
66.184103,-4.15248918113473,-26.63295093742443,161.41579805473077,0.3273636883448813,-0.07540734423432288,0.40679490161132464,0.12111940878224622,0.13914010648170966,0.007353709738056386,nm,0.0
66.1936,-4.596030865648841,-27.222883637256814,162.3859333409452,0.6346715766385786,-0.3603894766581812,0.2682515582872048,0.10782197716035732,0.10231010210279214,-0.023221281945530726,nm,0.0
66.203114,-5.1990215987962,-27.755749716250474,163.14592474801051,0.7624450117254742,-0.48016524550687745,0.07727161742858803,0.12980158259844446,0.08492459838572203,-0.0770771358019308,nm,0.0
66.21263300000001,-5.981322865718897,-28.273133683877383,163.78160125516877,0.810060414161598,-0.61067024365598,0.08733705348231773,0.1579524211125257,0.0749265286272088,-0.12313235339950641,nm,0.0
66.22215499999999,-7.03878236057026,-28.75856439209086,164.38524763160925,0.7442975102577056,-0.454058286954207,-0.2685469151497139,0.20158509845737652,0.05775296026489982,-0.15696349688050062,nm,0.0
66.240974,-8.904824029648605,-30.29988590975029,166.1225162397845,0.9869862108419194,-0.8784821761196384,-0.3510806897973528,0.20316308241168152,0.14772491781855007,-0.08435917399863473,nm,0.0
66.250494,-10.022299390015505,-31.30107930131571,167.21760695720226,1.1707221106647057,-0.8612728757773709,-0.6411537334382302,0.22806198445516981,0.16623511958850754,-0.07808660492919169,nm,0.0
66.25999300000001,-10.818648742083893,-32.280800791113556,168.36101085824498,1.4299910556661628,-0.9886258614672951,-0.8767865591067374,0.16847298444573303,0.17806216670302719,-0.044869824912441465,nm,0.0
66.269506,-11.348255682167675,-33.28399356480144,169.41966064559026,1.53410137221652,-0.9690176848656411,-1.183253391578812,0.12034922870474357,0.19449126118853555,-0.04170285342749835,nm,0.0
66.27901700000001,-11.578876316445342,-34.322634987043415,170.2908328491612,1.425527158331711,-0.7770679103533452,-1.326214295220434,0.0683002208192879,0.21199835772331188,-0.04260488581116725,nm,0.0
66.28852499999999,-11.4667510504793,-35.15399668641006,171.04084382563047,1.203444302122268,-0.721878430381832,-1.0467335486690064,0.002725794174442939,0.18067465546328257,-0.03613070475187114,nm,0.0
66.298035,-11.261309903003866,-35.511390227949406,171.72305830651595,0.6477339748952725,-0.38049742828743877,-1.111834404218275,-0.027943246767981534,0.08884400558354198,-0.0520863979717815,nm,0.0
66.30754200000001,-10.88789368461255,-35.607163460690096,172.45479590405725,0.20421484980133414,-0.18194497341794735,-1.1002309739320115,-0.06286287482219609,0.04001859513563322,-0.02410931865237848,nm,0.0
66.33609000000001,-9.610784039897359,-35.65903277588457,175.23128167435138,-0.3207210056583851,0.01911959860201952,-0.8438440936809131,-0.09662031584323462,-0.01752111854615436,0.04609497001144106,nm,0.0
66.36479,-5.081554672433245,-32.15131783665863,176.93578593381713,-0.7552762185616156,0.2771084843363583,-0.011756162610339172,-0.3889399305561239,-0.3420021145081609,0.10768250062621824,nm,0.0
66.374326,-2.2007277191921752,-29.683149991058933,177.12773906224592,-1.0993221389860641,0.13760850596287774,0.9516266613205612,-0.5233813484184093,-0.4595724791789807,0.15808418549038572,nm,0.0
66.38381899999999,0.3882727161652618,-26.90615636498417,177.30779113366418,-2.145762350360283,0.4962624941028402,1.3719304953740512,-0.4870231017189192,-0.5241516405088226,0.13708504860079038,nm,0.0
66.393326,2.7395593650619148,-24.49060105564872,178.1781341104628,-3.326086829932423,0.7479250140515101,1.6376713777783851,-0.44752617868608335,-0.4578577130177078,0.21988577464755502,nm,0.0
66.42184,5.7502116350511825,-24.155268328450905,-178.0626832958863,-1.8501935258249593,0.4355730492821403,1.1602639337913785,-0.10138107081603069,0.21446071547646933,0.19851866865489354,nm,0.0
66.45989399999999,6.068342916319978,-30.442382486911516,177.20166991980793,0.8746834335406278,0.4824743374450152,0.4545262976470939,0.09924342488166155,0.27573509591300005,-0.4235322315126847,nm,0.0
66.469414,4.632881391173,-31.510563619599377,176.70153098467003,1.6860136179130871,0.2905863030124641,0.28266012907354476,0.24875649077999765,0.21344861722159914,-0.3569882934553111,nm,0.0
66.47891100000001,1.9379338111094333,-32.61212135914044,177.39728568085695,2.56026580399991,-0.009486038268753065,0.5359499999762154,0.45954874735020534,0.21067298073470733,-0.24894606106888478,nm,0.0
66.488246,-2.1770823129076327,-33.28608469739361,179.43990448059725,3.0670404360781314,-0.21809729407549766,0.25335219028289563,0.6867017562382046,0.1309078784413635,-0.1443500163806457,nm,0.0
66.49775199999999,-6.567484343817781,-33.05793163174127,-177.50620895547976,3.2298997762987507,-0.4802532455013728,-0.3130134674729268,0.7288362286093183,-0.017756394956420993,0.018244194507145584,nm,0.0
66.507272,-10.425809884373635,-32.11439311292652,-174.1818477279538,3.2509341474055953,-1.0503864559025962,-0.5222971559308028,0.6556241779903715,-0.12587453805056226,0.12365397163208892,nm,0.0
66.545312,-17.249090529425196,-31.234361499030697,-171.87982032642327,-0.3411711648427284,-0.5768974301304919,-0.9164516901309867,0.01739388726936329,0.21783807562053176,-0.19527468776861084,nm,0.0
66.57402400000001,-14.243285408611417,-36.38937026383817,-174.47921094679995,-0.6334859388049741,0.22596911117627502,-0.5742943392230154,-0.25367617885667215,0.30848954209910023,0.06707560281685157,nm,0.0
66.583347,-12.433379828993246,-37.05290040442739,-174.34029758809933,-0.43774888899848,0.351849869353387,-0.7131683397106546,-0.3097254555363512,0.11572924683724987,0.24656134586680975,nm,0.0
66.593053,-9.965548402955763,-36.45288458942041,-173.90894199012246,-0.135689128497293,0.12287605326845878,-0.4916584679177699,-0.3896545495805022,-0.1484543436765813,0.38360879058796427,nm,0.0
66.602565,-7.402181392402319,-34.78339823707753,-172.67838401942427,-0.2105623342203831,0.08788449353175808,-0.012675092045670322,-0.38074809854571295,-0.37272690851330986,0.3475531816062248,nm,0.0
66.612076,-4.856403098617723,-32.44847587456099,-172.0405908954828,-1.0509983611981382,0.22994801620058059,0.8495038526576097,-0.3636001106154326,-0.5116734356787629,0.22979225373637757,nm,0.0
66.62158400000001,-2.1169869952412137,-29.645639296321466,-171.9603375626316,-2.8828306675691793,0.40484721240876304,1.4733669303338746,-0.39237793110189434,-0.6130870139923758,0.14012727575590028,nm,0.0
66.631088,0.4052248063339449,-27.410994794069214,-171.91392300931338,-4.274690199998229,0.03423879423962687,2.401903635708297,-0.3831659501418773,-0.49698890626381304,0.11475715008783642,nm,0.0
66.650104,1.8421705470972596,-28.39760758438287,-171.84962387835407,-3.3069163060618476,0.18637132669145487,1.7316340527259808,-0.10178000090241128,0.29068474921172516,-0.010680145151458063,nm,0.0
66.67864399999999,1.4336261108189956,-36.14148299494448,-175.45368617660273,0.27708846419637395,0.2972234864640408,0.41047094924589833,-0.09209914008755991,0.5589298723606524,-0.4041228342281967,nm,0.0
66.68815699999999,0.9530307621549503,-38.471490825513925,-177.35918677037805,0.8734511490881367,0.33489106144165204,-0.2639148618939051,0.03679625265528302,0.4819469563948979,-0.524575516087535,nm,0.0
66.706989,-2.4924759202603504,-41.27556190264635,-178.48183858352039,2.683799749342377,0.0063556744801948955,-0.37579295760014403,0.3175043642497684,0.2467901829395306,-0.38569539604229297,nm,0.0
66.71649500000001,-6.3869573182099275,-41.82696340064261,-176.85239876720118,3.3445871806824985,-0.12049302507918595,-0.5301446854039454,0.5700922948138362,0.14896069122684527,-0.31416476622823003,nm,0.0
66.725997,-10.776285171470525,-41.30034730454267,-173.84786766064389,3.251477166847547,-0.05794193788038886,-1.248461878753287,0.656410723186585,-0.036205349947991676,-0.11361840292510725,nm,0.0
66.735514,-14.2831514912909,-39.62745717261697,-170.23233185954996,3.5843077100392016,-0.7119696209756555,-1.3265154943216928,0.5688951379710571,-0.24275344079433583,0.1280552834298524,nm,0.0
66.764051,-17.969987300018428,-34.69914776559005,-164.90815175037017,1.5610523296792322,-0.7695208369079187,-0.8949548571264611,-0.010897219028986781,-0.1642439579091072,0.13508421360053116,nm,0.0
66.78325899999999,-15.867169469963777,-36.15927177444389,-167.02024096473218,-0.4341685467148051,-0.2863549799263232,-0.4851866992418943,-0.28021562546629897,0.18407030516824324,-0.12603795117518174,nm,0.0
66.792788,-14.27397147783929,-37.79261468625613,-168.55599525313627,-0.7620011834548901,-0.11558092211629958,-0.3149237547626921,-0.3268049434974925,0.27683209530833086,-0.11306648166319919,nm,0.0
66.80211800000001,-12.984286446214021,-39.37795632530905,-169.51954054070296,-0.9365904249897969,0.2859254704955776,-0.48663186529470276,-0.26699786925790975,0.28444336025720185,-0.029407003937682287,nm,0.0
66.81179700000001,-11.742390581037938,-40.28150861121373,-169.47738509320874,-0.7132923081854232,0.27334027451653703,-0.47012148201110143,-0.22935197662922996,0.15418108597511657,0.17001571409582544,nm,0.0
66.821293,-11.002608200526918,-39.946040582255776,-167.8179133619523,-0.4037460252940688,0.008022179263829102,-0.295081679174908,-0.1062992795742375,-0.07804676976126998,0.27729360667267194,nm,0.0
66.83081200000001,-10.920270372922305,-38.24874517410295,-165.88063363025378,-0.9109051042168624,0.20114431849459785,-0.27545144386088966,0.057575857991130054,-0.32304593491959915,0.25128164756272364,nm,0.0
66.859344,-7.803866818235998,-29.582139629172296,-162.19117488636635,-5.445982468163428,-0.9442495520961415,3.029325956982273,-0.05348212587630586,-0.5700415878946602,0.17775094849039078,nm,0.0
66.86883700000001,-7.4346807176610925,-29.393609111467697,-161.58341080715624,-4.898875161790599,-0.6704783159856189,2.444430011762312,-0.05994658662668317,-0.046698025464232566,0.08620768749563612,nm,0.0
66.87834899999999,-7.335368280202125,-30.542389208733013,-161.41110317043186,-2.629817092810968,-0.48761051445411746,1.1437578863922,-0.10045514497683687,0.22183327037800457,0.002786253427007555,nm,0.0
66.887866,-7.159504142147315,-32.642097145702195,-162.13366779794183,-1.310766014615617,-0.17569175176116802,1.2162595172317656,-0.1711932871049215,0.399191862643473,-0.1602457613043961,nm,0.0
66.897379,-6.728163583012993,-34.86480314925884,-163.62205457170836,-0.6772994394102398,0.21112446783235375,0.505765824359053,-0.21091525828231386,0.4134873407097884,-0.29976751601768725,nm,0.0
66.90689,-6.044152167066346,-36.92158833441468,-165.30467947973804,0.06746274888687978,0.30430484299049493,0.51926275103996,-0.22853357035400645,0.3763317103524675,-0.3310389779370775,nm,0.0
66.916406,-5.9801744387494695,-38.823466782530694,-166.59916032543794,0.9366325932206376,0.4047792603459618,0.12065763807672562,-0.11345910232568894,0.37681107796257024,-0.33529191971717953,nm,0.0
66.92572799999999,-7.054805155161618,-40.56783740331597,-166.9419399760424,2.0049104955713206,0.6312377182036858,-0.09428910824420775,0.07007374723431183,0.3886063638176126,-0.2991358987559071,nm,0.0
66.954264,-15.036475035845655,-42.29913867910345,-160.87254923756439,4.072351601329131,0.83669164072632,-2.1211167630963534,0.41617669300011606,0.09468418466516415,0.07089433105369748,nm,0.0
66.96377100000001,-16.60918682253561,-40.707977134811046,-158.34611705933898,4.284193862233841,0.2937921454255058,-1.9031185085380875,0.3231892296552306,-0.20519128098535308,0.18452079652479422,nm,0.0
66.99229299999999,-16.127624761992312,-37.24204994148613,-155.8081480635163,0.5787548586370336,-0.3138237331136142,-0.8647326203713231,-0.10418581099956227,-0.11167402510460195,-0.04982149538005323,nm,0.0
