timestamp,roll,pitch,yaw,acc_x,acc_y,acc_z,gyro_x,gyro_y,gyro_z,markers,motor_input
76.512282,-9.049102643000632,-30.62082939893896,-158.7914959030999,0.21429791941371512,0.32179223525511813,-1.099699364424241,-0.22742110479855776,0.3623464869179066,0.05996074578527946,nm,0.0
76.53138000000001,-7.9569220954763455,-34.32346303884191,-159.0301428668939,-0.6758529881840378,0.2803411635645808,-1.935911178799433,-0.24828170801575872,0.27336312254511835,0.025121842161648145,nm,0.0
76.540897,-8.006094053690292,-35.128266647574826,-159.1524807507356,-1.104215284776351,0.25954832137463096,-2.0938911676426097,-0.0611848652878544,0.16232105627212132,-0.0686267690893847,nm,0.0
76.550409,-8.521603878051591,-34.791974854627895,-159.11911974338676,-1.6502459789656612,0.28813365853351136,-2.1298320065106973,0.09217553341015498,-0.02360498467780851,-0.09386701008091893,nm,0.0
76.55983800000001,-8.88108750475807,-33.395217243955834,-158.80724147108907,-1.939086551789247,-0.1543650303405599,-1.593813924235193,0.1455710455604585,-0.23038302380693873,-0.024055320572541047,nm,0.0
76.56933699999999,-9.465081391539997,-31.083612839487557,-158.33117714294505,-2.5399971582869463,-0.4934638892277564,-1.1365677127594656,0.2510601410875455,-0.3852688972132268,-0.01694229791035323,nm,0.0
76.57885099999999,-9.986537381552408,-28.224665599130393,-157.8102547258115,-3.377778915912874,-0.8387368893265522,-0.6786687285476184,0.2879287223903984,-0.48773461723466677,0.005614675476229932,nm,0.0
76.588367,-10.037255048709008,-25.53718894147638,-157.37170282132533,-3.8426419128341407,-1.2025305323781772,-0.3917394544726601,0.2030049679970569,-0.4850451691530359,0.05319395180605565,nm,0.0
76.59787800000001,-9.773886207594746,-23.79218364602114,-157.16406305112628,-3.526508270216148,-1.3105037967404056,0.10950228266929549,0.07959091807891712,-0.33212450923709824,0.06358675091798069,nm,0.0
76.6456,-9.852914017023963,-22.97773774273883,-158.90662340833975,2.6826694149071573,-0.010244672394794199,2.4363695013368174,0.18633359200849733,0.102690895288761,-0.09497721979676685,nm,0.0
76.655112,-11.680421069134924,-22.919657411750066,-158.90627945063474,3.9855690799692685,0.2822254061973467,2.498484469314891,0.30779656696649016,0.11947362555175037,-0.13324322211443437,nm,0.0
76.66460900000001,-13.08177426900746,-23.40475593834881,-158.46182253610064,4.468350990274944,0.5518828551952157,1.9554860683963406,0.19408075894309587,0.19360914463205803,-0.03752720280836345,nm,0.0
76.674148,-13.423584924039643,-24.095887712558387,-157.6631779989549,4.646276654112881,0.21530928933248733,1.816392962805937,-0.0048373873090421715,0.16085575414727776,0.08426341757201962,nm,0.0
76.721698,-9.269483838463712,-31.37544818704537,-156.82698227521217,-0.4356055553129195,0.14038339219166843,-0.63410686017603,-0.3800490973289744,0.35654752204831003,0.01999989646087821,nm,0.0
76.73111,-8.477258196516882,-33.66825756720072,-156.96615647617983,-0.8971102537655645,0.4563751717127112,-1.6079310574777974,-0.3147345165030486,0.37820163810647256,0.04327713956848924,nm,0.0
76.75013100000001,-7.4951882802476915,-37.083339661807045,-156.27790574150674,-0.6874568374590844,0.4633196653091437,-2.126849052314176,-0.1458785974834245,0.23209274677595906,0.12006754164879602,nm,0.0
76.759637,-7.635323819576337,-37.01821618622155,-155.73272925157914,-1.1495178020335326,0.4221015113209117,-2.4248786492704397,0.01427585865515795,0.0054898688332930675,0.06561577971616797,nm,0.0
76.76914400000001,-7.48794648661639,-35.68680338373496,-155.342714508789,-1.5567689868541683,0.12019219555549786,-2.073719943944162,0.07777857591848626,-0.2441712461127651,0.043604611673920116,nm,0.0
76.778572,-7.28756617583681,-33.421095169863825,-155.28078502053185,-1.9742123555688307,-0.2908071667303552,-1.2488125366860647,0.14901107951285641,-0.417511624982828,-0.02631564204382813,nm,0.0
76.78809000000001,-7.35261447798203,-30.524373108552354,-155.55061723441702,-2.7713942928107356,-0.6670554545892615,-0.6405203607998364,0.24103188320528107,-0.514139440518176,-0.11546877559989337,nm,0.0
76.797594,-7.635321758398012,-27.38248436077849,-155.95113034394092,-3.464798368983137,-1.0695653449181297,-0.13841344145157272,0.29322751077562886,-0.5443995945946339,-0.15669581502501154,nm,0.0
76.80711199999999,-8.222472147777403,-24.894046447297963,-156.37868415544605,-3.4143968792629833,-1.2790142107178817,0.19222163934955389,0.28683865079321935,-0.4045004486541036,-0.156740383555752,nm,0.0
76.81661399999999,-9.103707734314066,-23.47028422659362,-156.94277921187745,-2.7575460452833354,-1.0485521420970025,0.08111031172372923,0.24917162798669895,-0.18979089123175436,-0.1513076335641459,nm,0.0
76.84531999999999,-12.030132588939944,-22.595875272790032,-157.71238954279298,1.3526633848109166,-0.4105093811658526,1.9798963629374529,0.3410811027489029,0.20434415611012516,-0.08356319691794896,nm,0.0
76.854836,-13.94764917801498,-22.678550929065164,-157.46920366982172,2.4211159018396984,-0.01443076720937686,2.2050245485529807,0.31079095796046124,0.1585885843431193,-0.03665593855580303,nm,0.0
76.864341,-14.48914948549132,-22.40376242262741,-156.93595267611255,4.377758507417729,-0.32398620812397805,2.7441382566866626,0.10265691531389573,-0.00298564420805333,0.07456351634991874,nm,0.0
76.892875,-11.429900370674334,-23.95306161909521,-154.9533908189799,3.2918823203119794,0.33662889316808503,1.657958141956291,-0.44434395017874495,-0.06621914299382442,0.18423576691667484,nm,0.0
76.90239199999999,-8.841396505864939,-24.882868346879555,-155.14254604963335,1.379499691188225,0.6347242107585827,0.3711280407680216,-0.5179262327443798,-0.023927913191266283,0.09393840250124455,nm,0.0
76.930732,-0.9561397384638777,-32.03452795388219,-157.37647377665573,-1.0723999404200582,0.7036214968376966,-0.6513592635570155,-0.45752652467708566,0.3574192787140123,0.058189293739083985,nm,0.0
76.94985,0.6562648965109136,-37.1816874241628,-156.9971790197214,-0.5003582955184542,0.6939747945877763,-1.8958064177595675,-0.2577215241398126,0.4721783719623043,0.16992236454312543,nm,0.0
76.95934500000001,-0.20135068372522355,-39.20971939912134,-156.25751295981655,-0.8278528754080682,0.6909353618583554,-2.49619510348213,-0.048685110893029473,0.4339138946417158,0.07436785176142287,nm,0.0
76.96886799999999,-1.3221173280478922,-39.80255414571089,-155.52000288325988,-1.0243381516571946,0.3980304657051486,-2.843450646476963,0.09756626195458859,0.186559064607294,0.014317819462183478,nm,0.0
76.978373,-2.5402435595863517,-39.027868107807656,-155.12936606693535,-1.423897462710178,0.09783184658544201,-2.6601191853532367,0.22407009112344023,-0.05449322074133775,-0.09844720090325776,nm,0.0
76.98780500000001,-3.789869487316102,-37.309291006422306,-155.22766743601574,-2.0282555732839964,-0.15271225645683656,-2.0885805601050107,0.3115319017454365,-0.22150969591078484,-0.21089291311238761,nm,0.0
76.99730400000001,-4.784864415228912,-34.8176083755863,-155.63674436608997,-2.4980278208973252,-0.4777861059774182,-1.3863251041180726,0.3429739699303723,-0.3781953814097708,-0.2448117392643947,nm,0.0
77.00681700000001,-5.749827935977145,-31.78099357500302,-156.1746319329093,-2.586498322668246,-0.8459271097411207,-0.7692603736790729,0.3851110185021563,-0.48020998779463603,-0.2617989962676134,nm,0.0
77.02585099999999,-8.069156770022088,-26.308786384071567,-157.4654111287038,-2.194991037882219,-0.6723825610459265,-0.34229071494885493,0.3463985933970027,-0.3859615053755494,-0.24514553561583033,nm,0.0
77.045049,-11.22963536766478,-22.272021849316484,-158.03560431457447,0.20682063387253946,-0.6478641013552653,1.157475292942205,0.5041872045641091,-0.16839016105471372,-0.19006448707266554,nm,0.0
77.054543,-13.472327074393519,-20.813676241905558,-157.77499147990235,1.389117274379281,-0.3034641910886245,1.7174011669903961,0.4858679729226593,-0.10474200713286637,-0.09463710496887667,nm,0.0
77.073568,-15.765707658725823,-18.51659122174653,-156.33645287801798,3.69333546350368,-0.5374377391375054,2.983480915396001,0.25624096578456695,-0.11145935019124913,0.10822804601421865,nm,0.0
77.08308500000001,-15.120449075654339,-18.096380575042154,-155.1955793343193,3.769704335857613,-0.1149377666709293,2.2242808371305647,-0.08849553255836103,-0.11848051536829757,0.2527471993000877,nm,0.0
77.092592,-12.856441001215998,-18.700798448791236,-154.1121133026166,3.7060403380356113,-0.17603928613130712,2.679893186552538,-0.4519948724360641,-0.06723802244597755,0.3205039309655642,nm,0.0
77.10210599999999,-10.085601751746188,-19.863623699029013,-153.89916579634536,2.4451547060943617,0.3640761764824524,1.687129351065513,-0.584433007280919,-0.013243296749917918,0.18428077483209235,nm,0.0
77.12111999999999,-2.0175190629100817,-24.667537072627475,-156.62487923468765,0.22247745952166204,0.13764412426395004,1.2074282810374555,-0.9541358905234785,0.21177935869437486,-0.0059829763026374595,nm,0.0
77.13064600000001,0.9249888703504148,-27.742939330505955,-159.01770305510001,-1.0934484365996415,0.6110828179964009,0.4043418993672616,-0.7319437730171797,0.3818804704928116,-0.11490082424061589,nm,0.0
77.159074,5.2360571992094584,-36.42801295783535,-160.12079898378755,-1.146063970648715,0.766563334248113,-2.2692129542424126,-0.21690144926223226,0.5710225552165298,0.20322458301315577,nm,0.0
77.168588,4.402836485131118,-38.692296975633624,-158.60273751937115,-1.2334301490983637,0.43731212424023935,-2.8932572649038804,-0.04736327762289678,0.4784133164746888,0.24193167594289086,nm,0.0
77.18760700000001,1.8399874163789984,-38.673660727530134,-155.7025243928938,-1.539955858469222,-0.12724495211911405,-3.0319375988957926,0.2324863147902506,-0.04624461575630507,0.05909341713146456,nm,0.0
77.197114,1.0898701222189224,-36.98406612030416,-155.387836472817,-1.8795888152919944,-0.39444282128043917,-2.5414376794711275,0.2361456317684973,-0.2514057705694553,-0.05903315443313091,nm,0.0
77.206548,0.8719646118455716,-34.59916575225029,-155.86381029775146,-1.8776654897083849,-0.5924625351805991,-1.857362699089499,0.21777962787238989,-0.4128019125060353,-0.15368442629473913,nm,0.0
77.216057,0.6853758818000394,-31.744775571126414,-156.81536994520243,-1.6392250420162335,-0.5670479907392474,-1.2351714951567896,0.24677645211904808,-0.5031210021283287,-0.2436943134075164,nm,0.0
77.225563,0.37960637047435236,-28.734164113747568,-157.89723502689768,-1.069916560816667,-0.4738252151409354,-0.6230866039417348,0.2698971171888303,-0.5278594293475417,-0.27946562600689645,nm,0.0
77.235251,-0.4522959044681274,-25.826716673547587,-158.82048168338886,-0.19997399161256738,-0.3621366699059666,0.10739555366684114,0.34139031236489925,-0.47804301399897664,-0.28906247607329566,nm,0.0
77.244767,-1.9849405339638684,-23.142789362236613,-159.34030548738465,0.5677799343821538,-0.04273171568709152,0.6812355334633364,0.44180964379254056,-0.3935067496856825,-0.250188738537767,nm,0.0
77.254276,-3.395937790542238,-20.69180651360022,-159.27883934504158,1.7679981206655835,-0.19045931389264584,2.1568089481372574,0.4074397618630727,-0.35793974864595657,-0.09481021542831815,nm,0.0
77.26378700000001,-4.964091763897511,-18.43253492922568,-158.62168562906874,2.638978596083681,-0.3709326864268935,3.460158653430861,0.4274691792443744,-0.30730845001716356,0.024761497348080055,nm,0.0
77.273302,-6.162011674901283,-16.524087355088955,-157.6531405768939,2.661427439555235,-0.06172066966866298,3.0941175394108105,0.34328477718637557,-0.2611076270183104,0.13224445867868043,nm,0.0
77.29231200000001,-4.797022146579441,-15.248648216906842,-156.15708370548379,2.646149045941972,-0.25466937800967554,3.206224054965585,-0.15231254997448798,-0.08145626859163613,0.14726815659989992,nm,0.0
77.30182300000001,-3.698327129690177,-16.302036720746273,-156.6942416105353,1.1954523323227362,0.07485269973925895,1.473068867511982,-0.2897265458319671,0.11710611970915777,-0.024259715029673373,nm,0.0
77.311338,-1.6234017874905968,-18.279881622854894,-158.35683588919068,0.24704983725878107,-0.20816077748305584,1.5248475334009364,-0.5285681911034126,0.22431793802106473,-0.1324689800713947,nm,0.0
77.32085000000001,0.3558650860837068,-20.673149731092785,-160.68898521582508,-0.5810626730152706,-0.030722660324620163,1.2546037302126134,-0.5272660587438879,0.3292477523658273,-0.22294690462837288,nm,0.0
77.330364,2.188701331705672,-23.53613123727369,-162.86922465438406,-1.0225552677678391,0.2077117872441199,0.6283524699393098,-0.5110178989904617,0.44942858853270834,-0.18267360024486348,nm,0.0
77.35877099999999,4.33752322861521,-33.75176475341865,-164.12866018489825,-0.1905009011044455,0.5464317627721625,-1.490339710312341,-0.14685551879342668,0.640966424966813,0.1506871443733779,nm,0.0
77.368289,3.533730862795471,-36.32966946077997,-163.04593928386114,-0.430217980401287,0.35346133334314983,-2.3644086981493824,-0.02999396271648837,0.540902389315488,0.16153216259133418,nm,0.0
77.37781000000001,2.7005033341592224,-38.04690461396939,-161.96277023046707,-0.7993872159745262,0.05567309386090342,-2.726928630201101,0.01204389429674915,0.37624054380777905,0.12695756045415246,nm,0.0
77.387314,2.0339670130472816,-38.79271314000623,-161.31916615358048,-1.293160961995133,-0.14536511199186888,-2.6467544527952764,0.040609536168344125,0.1829694375947022,0.040383078976458084,nm,0.0
77.406353,2.1434084603750714,-37.68299594051147,-161.21317515514804,-1.8930365234570181,-0.3994334075839125,-2.145363616630968,-0.00034002113289844575,-0.17506392579707955,-0.025022460330941194,nm,0.0
77.41577899999999,2.4098865755854395,-36.4277452938287,-161.39079620673564,-1.8372179120510772,-0.32739854070401336,-1.9304905856306893,0.029202833032179246,-0.24344008609658874,-0.04981179437361745,nm,0.0
77.425298,2.6885738094642804,-34.77960429246972,-161.39927543034148,-1.2424575686076065,-0.1629181532167955,-1.5249248118688326,0.05139897986990253,-0.31894561744483924,-0.01608416177713178,nm,0.0
77.43479500000001,2.7586958160580153,-32.63735616259583,-161.18777576266802,-0.3495154805914333,-0.04521630675388363,-1.1992785724835315,0.1158094362190179,-0.40165332603549403,0.0017879131804471185,nm,0.0
77.44430399999999,2.385136886780115,-30.069889525996622,-160.92651612844696,0.5217051411481526,0.1593002628084006,-0.8684604918003075,0.2166875048908684,-0.456955823205074,-0.031032887482733827,nm,0.0
77.45399800000001,1.6976965937425592,-27.132740098741504,-160.75731125804194,1.5938367128897701,0.25256385749425103,0.18497933136487804,0.29664267939203676,-0.5071557054921015,-0.07206511930700939,nm,0.0
77.46351000000001,0.2472208900316782,-23.812730800028522,-160.79609234557125,2.1501231028436956,0.3563607504269169,1.1861680363220242,0.4560575228961022,-0.5322611385455899,-0.1672476731724709,nm,0.0
77.49204599999999,-3.8662233421599725,-14.24593544048324,-160.78507109622498,1.2829022241147652,-0.3146105367010295,1.9564977479362549,0.36996289455170345,-0.4357517561189301,-0.059983554763492306,nm,0.0
