timestamp,roll,pitch,yaw,acc_x,acc_y,acc_z,gyro_x,gyro_y,gyro_z,markers,motor_input
62.00863899999999,-4.411297182327589,-31.950609205394713,153.74797828193277,-0.29037442133890695,0.5403109644149205,-1.1383301578819234,-0.025587417357624112,-0.08646566749027895,-0.19526343900154003,nm,0.0
62.01815400000001,-4.569824996283091,-30.611531433469054,153.99623386536803,-0.8810316948597999,0.7091124830416035,-0.6381706744930946,-0.09254313692581012,-0.23954342648822866,-0.20456743062616572,nm,0.0
62.027649999999994,-5.10257361831092,-28.86938442167673,154.41787720852594,-1.5650147571038973,1.024097674273697,-0.3165507349639254,-0.06620452568773831,-0.3409943608438452,-0.2054920067719664,nm,0.0
62.037341,-5.926184079563244,-27.10341066477184,155.09630421868903,-2.0995069456154005,1.1980657678546733,-0.138415891672366,-0.01701784503089005,-0.3680302910360115,-0.15752190897013893,nm,0.0
62.046853,-7.005062636594245,-25.682712616523087,156.0738768928808,-2.2512533210359407,0.9588414793602633,-0.07495494847456873,0.059869931132696466,-0.32442697200612775,-0.09647621120305613,nm,0.0
62.056354,-8.2185035255619,-24.868675517984833,157.1863073017381,-2.053326837196669,0.994750214591261,-0.18660159593878967,0.13702489486270045,-0.22166181157569095,-0.05405237925126831,nm,0.0
62.075559999999996,-10.123085632864269,-24.23757518879192,159.89385108737432,-0.7103188918251258,-0.15868305709632166,0.19875487047500867,0.17870256805633405,-0.0843489534974216,0.048024686481143004,nm,0.0
62.094584,-12.160815226338691,-23.682177281115173,162.90520391280995,0.5436476280067147,-0.6472663922038799,0.06257404157411346,0.08066235397539712,-0.10068782790240789,0.1059428861101837,nm,0.0
62.10409100000001,-12.504573724336197,-22.937825966933538,164.543475852325,1.0624211774536962,-1.1129177289901138,0.13825944083535954,0.017019462998968466,-0.14679985821049027,0.11719339689519995,nm,0.0
62.113606000000004,-12.771995911561293,-22.170318629828905,166.30529330669958,1.344323352209503,-0.9965955122645118,0.3225455727211474,0.007014411919983331,-0.14735979669927113,0.13129056859378824,nm,0.0
62.123121,-12.259158384264378,-21.26405028761464,168.3498119335683,1.7408182838060926,-1.350969511457673,1.0813191807346385,-0.13548760817436994,-0.14382068511119625,0.22334638994260458,nm,0.0
62.141943,-9.607857112384025,-19.125204036074578,173.1591807115762,1.9712718336203259,-0.9578068994131185,0.7294889136949521,-0.335528914580356,-0.15019486463219492,0.34703786472242293,nm,0.0
62.15144599999999,-7.463278712181916,-18.497908019852733,175.4579343944185,1.959265723200701,-0.7440481546966968,0.7325627745063382,-0.4221914306863288,-0.0762301328124183,0.3587309517319707,nm,0.0
62.16116600000001,-5.098478943864536,-18.313156520478284,177.07611336409846,1.4940480506310823,-0.25757106961235315,0.3351996695992874,-0.4573443705316511,0.0011581817434935706,0.286622338110859,nm,0.0
62.180172,0.45373045063223494,-19.54007619616749,177.56264752652046,0.5034100140154365,-0.013783114257786618,0.8446990570987865,-0.503959022974657,0.2190207343801267,0.04843785450444988,nm,0.0
62.208698999999996,3.766313167702015,-25.13436177714515,174.61495209547326,-0.27213867038047584,0.6519733749902616,0.2554783049828028,-0.07002288019241032,0.45158594500727767,-0.19155803769919835,nm,0.0
62.21823699999999,3.156793343103696,-27.382698176142647,174.06722639559945,-0.12886396252110682,0.8704408005552188,-0.42115330073632834,0.14531508047463285,0.4498266131016465,-0.22060970402115412,nm,0.0
62.23706999999999,1.0623614355177537,-30.522255265794797,174.16196780750465,0.6440497758710936,0.297248413452277,-0.807845811523584,0.23640626570712192,0.23087243674121205,-0.17451246766679476,nm,0.0
62.246579999999994,-0.49507391427820896,-30.793913370122535,174.26116061200625,0.4793196613173001,0.3068064259811327,-1.2160427378250316,0.26557058658003607,0.040811579910364604,-0.24634905758672584,nm,0.0
62.26578000000001,-2.7143577516734125,-28.63751160351245,173.27122804287765,-0.4182871662043032,0.078924943803282,-0.47396579751601425,0.14769671222740755,-0.3038472430357994,-0.37006349189160337,nm,0.0
62.28461100000001,-5.099368376288016,-24.812204215248485,171.6302784879155,-2.2378655621786203,0.29176550187804745,0.186434681669286,0.16043686240692467,-0.39374012459418184,-0.38610623274416284,nm,0.0
62.294134000000014,-6.662631474879028,-23.341404563880417,171.28140962561892,-3.065984314144303,0.33132680045119245,0.25073013525125143,0.23522137128713203,-0.3193897655066466,-0.31039505534712214,nm,0.0
62.30362600000001,-8.697095194516827,-22.788068591137538,171.45648515913598,-3.116366370527486,0.2731524814834748,0.32610586163418886,0.3493583978477587,-0.15137663620990763,-0.20180943490242878,nm,0.0
62.313131999999996,-10.712075596289951,-23.03608671390331,171.9599567239552,-2.5175915235208186,0.2674743553403689,-0.11470005718417205,0.36984455605451116,0.009418395754233568,-0.09383758374985773,nm,0.0
62.322644999999994,-11.701905106696929,-23.657766580231904,172.6295382244505,-1.5939936639808931,-0.003417366790755388,-0.18269070139115204,0.19182545531758158,0.11228310179694234,0.04610671614589448,nm,0.0
62.332341000000014,-12.669471394289193,-24.59686880062479,173.6527410187756,-0.5000320190596477,-0.8078609183427975,0.32990891020008517,0.1926079562106882,0.17888981577664412,0.11121705875812372,nm,0.0
62.34185500000001,-14.233661531237264,-25.407097789987105,174.9051652549837,0.037079869707221214,-0.2793147276583236,-0.4788966846659502,0.2929478592050571,0.14679436943942095,0.07573829443678945,nm,0.0
62.351369000000005,-14.583607296383489,-25.647284913652367,176.29946431389732,0.7551451591357753,-0.742467592348081,-0.27621668173507463,0.060887134603507066,0.05629207128529789,0.17531118958904973,nm,0.0
62.36069800000001,-14.449482809121278,-25.29699781186495,177.98997281858516,1.3239587909649904,-1.0599015661302555,-0.2050298839968423,-0.033317311360145103,-0.05626324892793056,0.1844051755591851,nm,0.0
62.417952000000014,-2.062836106390731,-20.680291165918337,-170.78792902585496,1.5767702688336267,0.262233410251629,0.3359417480552272,-0.586038564486079,-0.09693695623421911,0.4062623909231617,nm,0.0
62.427457000000004,1.1580567322865516,-21.01336109829996,-170.16268934901862,1.5894465787147098,0.2988594333078565,0.592695750264067,-0.6150498774225931,-0.025542532201756507,0.28883363614688834,nm,0.0
62.44646399999999,5.508321062545376,-22.891378406983044,-171.5988656863119,0.41327364364595387,0.8171210337085049,0.2345526350597436,-0.3986498464966368,0.17244498445079226,-0.09923302808598605,nm,0.0
62.45596900000001,6.629829695552035,-24.11958565147899,-173.05491856247784,0.10828954054681454,0.7675622133033945,0.32378156576174816,-0.24669561001193924,0.2260822076792096,-0.21919356737785062,nm,0.0
62.475008,5.399743869183532,-27.08397089488777,-175.35882714340937,-0.2847470846109634,0.8268220384833015,-0.25280433971291316,0.133985695848493,0.3413520393497822,-0.2806206497134334,nm,0.0
62.494035,1.3827767722836601,-29.623563586206604,-175.78554880925452,0.17037915054236685,0.3462542565156012,-0.6165827342687321,0.3901938920743237,0.24573886896356967,-0.2393909930912987,nm,0.0
62.503355,-0.9825885080719193,-29.91748115521951,-175.84682051513767,0.27673184138683765,0.09834603201978148,-0.8809010529220207,0.39706359070396186,0.09988382704349,-0.2483230425462714,nm,0.0
62.51306299999999,-3.0470599504888125,-29.480688752989305,-176.0200672581694,0.1786630508792,-0.1363178337908427,-0.76705139428249,0.35612934729679846,-0.04935530639292543,-0.30458439189272135,nm,0.0
62.522582,-4.755607061354909,-28.353720375715504,-176.72730914362234,-0.2990386893477953,-0.2292561927913383,-0.5774783327014106,0.30577624678120247,-0.19352908997591506,-0.3892537768106856,nm,0.0
62.54139799999999,-7.414869274655838,-25.126726860345947,-179.10442852028117,-1.808897740159292,-0.1820813996552173,0.03952279380524893,0.22447388721918546,-0.30817327714283554,-0.4444504509494906,nm,0.0
62.550906,-8.531205570696594,-23.674978917201617,179.9391232169384,-2.635711095641658,-0.28993044617429675,0.18489025392920602,0.19958107659862195,-0.276248264854939,-0.35835532085472716,nm,0.0
62.560416000000004,-9.845491969119758,-22.84232812783214,179.3247348405447,-3.067043457343453,-0.28268273540532846,0.2118913157964572,0.2339056257043306,-0.1558309926509959,-0.22701523809216792,nm,0.0
62.569931999999994,-11.159852861332288,-22.791609340116104,179.51106022872898,-2.7088747679162006,-0.38372865312662846,0.03388078678428943,0.23572871032348822,-0.00012555990199948974,-0.0646175004361567,nm,0.0
62.59865400000001,-12.762541080318078,-24.75312087114257,-177.2386358280883,-0.2884045522248816,-0.5015340431573915,-0.1691874632649583,0.10514575612582056,0.18283591212980638,0.2172932043630497,nm,0.0
62.61764500000001,-12.168353886438021,-25.44282253233396,-174.48753633745108,1.2601549874920448,-0.7027911464440236,0.012673405968612977,-0.13428868004426037,0.02590337140450037,0.2375197483915664,nm,0.0
62.626993,-11.490824235874868,-25.1792205109297,-173.32360902602284,1.53338845106938,-0.3768672741974729,-0.11970701018786858,-0.12419125823544344,-0.05461615613665437,0.15689357637686827,nm,0.0
62.63666699999999,-10.21579365487489,-24.64565099278706,-172.3327304641209,1.7036716073028837,-0.27954909951023504,0.23771004603440896,-0.22420469939458246,-0.12474835655689574,0.18006895847848928,nm,0.0
62.655698,-6.909959688043098,-22.70797610612753,-169.54988218668336,1.8278421853369684,0.10475349529798002,0.8004210612534813,-0.2726643095657338,-0.25459926026649676,0.28772058501561765,nm,0.0
62.66520299999999,-4.947764873306987,-21.79427320619352,-167.83577028829745,1.7788031526757409,0.19042606373433865,0.8306776602251499,-0.3292147649709074,-0.2420814373403779,0.3734275089212314,nm,0.0
62.684235,-1.0668538590664767,-21.210883823009176,-164.85631308486774,1.226800318636842,0.3185827147570538,0.2552404883989605,-0.36690877190784066,-0.09505573682100864,0.3332738072870292,nm,0.0
62.693747,0.6919811420776445,-21.700796263018862,-164.3505360651602,0.969094087597599,0.28102125607548917,0.4173496763504548,-0.35273125501836405,0.01627331707775258,0.20139101047084682,nm,0.0
62.712773,2.826258165011037,-24.208527605903708,-165.5969850781608,0.037713678859522634,0.5022458468897096,0.15275328992585516,-0.27210790804923884,0.24523724283299964,-0.09832618445663203,nm,0.0
62.72228000000001,3.4168391334359516,-25.91669060481979,-166.76482077527538,-0.10032046408425996,0.430202507048279,0.10193582704892538,-0.19628705740811775,0.31580346294539235,-0.18588937769806624,nm,0.0
62.73180400000001,3.2313112932095094,-27.659099826717075,-167.85306630043638,-0.24879653468437601,0.5900591822682093,-0.3190445801194734,-0.05472466902853966,0.3571274005992896,-0.23651899837474463,nm,0.0
62.76015100000001,0.47642733923360153,-30.986191404132793,-168.52722066743416,0.21190039928208756,0.33996795762701076,-0.8678088023210414,0.19476609204388873,0.15587118929070112,-0.11912005853113784,nm,0.0
62.76984300000001,-0.7537983983190596,-30.6906416697615,-168.12296394239831,0.22725866476810483,0.1514867698682979,-0.8234205881830762,0.20900495955144266,-0.004680717166494498,-0.10652290878496179,nm,0.0
62.77933100000001,-1.822445317536585,-29.682272003809885,-168.02804526589787,-0.03883981325827462,-0.017084915640549394,-0.6014672846182089,0.2130459290290913,-0.14879550252049256,-0.14696575561587216,nm,0.0
62.798384999999996,-3.2153350123383238,-26.3893073763203,-169.05552159093543,-1.1848710532704751,-0.2840681142443159,0.06876638898521052,0.15696609794773958,-0.314572541414374,-0.22492907091379186,nm,0.0
62.817195999999996,-4.424789459599755,-23.387035773082076,-170.53002120575707,-2.544314648719578,-0.35011735912955083,0.0785994492990868,0.149124450520834,-0.22769793598249466,-0.17848121447182358,nm,0.0
62.826711999999986,-5.10694684438867,-22.89388798042832,-170.6716292393477,-2.3857033029351418,-0.5306118469216492,0.3421585698372168,0.13082463355129598,-0.0661656541561895,-0.0830615750478283,nm,0.0
62.84591,-6.597502519281804,-23.442997612006405,-170.35075650409885,-1.2743977843797432,-0.28258613624099377,-0.16733515717408373,0.08027991264152101,0.1121007162676949,0.047685849287617654,nm,0.0
62.855423,-7.25593978898798,-24.303418687995478,-170.0593772475611,-0.5784141706700836,-0.3558764231630319,0.018677144890550022,0.08073078392583716,0.20089986579863744,0.05768337435378041,nm,0.0
62.864937,-8.121408516921754,-25.05148065954288,-169.87011597279206,-0.06587898260435138,-0.13708461475178652,-0.30363773274685263,0.12014007146181852,0.18552619618838173,0.011658704153295174,nm,0.0
62.874448,-8.677831073242988,-25.29752200395214,-169.7504323120952,0.4461564943583174,-0.14952161032836225,-0.23317402833766857,0.0814088109084882,0.07714586643140417,-0.0119189812084918,nm,0.0
62.88396599999999,-9.069097250606987,-25.056349231137194,-169.62429218401817,0.7886704111129006,-0.14649022007421433,-0.3080605106658388,0.0693163413384034,-0.02383116457705336,-0.044539790552907695,nm,0.0
62.89347000000001,-9.378421182795407,-24.445690336844635,-169.54159524724182,0.8402483799614802,-0.13988225895981227,-0.008933202362122125,0.068514057045325,-0.09907368764940641,-0.054251628378892004,nm,0.0
62.902975999999995,-9.470489990840301,-23.243684590717045,-169.27284680234067,0.7875110453937284,-0.11942833744319094,0.15852271272964183,0.052323913618155374,-0.2224863323931908,-0.020610729986835052,nm,0.0
62.912486,-9.234473301754694,-21.5573200167887,-168.6142786638481,0.7329857475635312,-0.14017177216869497,0.23134061648696577,0.013868354845416306,-0.32900253645020255,0.061102732554732066,nm,0.0
62.921988,-8.702039839861659,-19.784109528324603,-167.48347898731924,0.7479589440457394,-0.16694180782802873,0.5154214717307251,-0.031954792790928346,-0.35765030980395013,0.15990497712698976,nm,0.0
62.950525999999996,-4.786895351053185,-14.811972908546315,-163.81735814547102,0.8941693792619444,0.1733231289238272,0.1631971292025743,-0.23621388013873346,-0.3642619971731811,0.2539080025264804,nm,0.0
62.960046000000006,-2.7969702602017508,-13.682172494386913,-163.17247357020844,0.7547228286388062,0.2926191238550057,0.047907523578401986,-0.3160109072762295,-0.31766479568041567,0.1962623777888092,nm,0.0
62.969547000000006,-0.6124668750381718,-12.765017515338837,-163.13050187119765,0.695829192112207,0.14930899344117038,0.4296929953715498,-0.36490808190624935,-0.28980467371768476,0.12005816905305933,nm,0.0
62.97904399999999,0.8719446077592653,-11.968168813135309,-163.53421074896255,0.28743964711967507,0.4131006151235151,0.15487097753397347,-0.24303051819500818,-0.22669083801750686,0.013439591843955179,nm,0.0
62.988583000000006,2.1772703907562065,-11.528107573228787,-164.11820349848225,0.004808743539995949,0.5376691019888273,-0.050968522888178984,-0.2317569520244162,-0.1463627699676097,-0.018611811776073003,nm,0.0
62.99808300000001,3.2300514327408765,-11.574703668818724,-164.75391243482414,-0.0746678428833927,0.3730385580176171,0.2677591928041731,-0.211735393424102,-0.03666375935351619,-0.01129617361555344,nm,0.0
