timestamp,roll,pitch,yaw,acc_x,acc_y,acc_z,gyro_x,gyro_y,gyro_z,markers,motor_input
64.02524500000001,-0.7855654859392428,-5.904848289580485,138.3840582089149,0.11898212447001019,0.11280927112149318,0.1356737532384516,-0.00406858161170458,0.032187853949310063,0.0384518926845396,nm,0.0
64.034737,-0.8140794297121692,-5.955549293697961,138.37020185557154,0.11366108390356446,0.10778970471190331,0.12797136605360318,0.0,0.0,0.0,nm,0.0
64.04424800000001,-0.9667818732848144,-6.031974408662801,138.38532013478755,0.10379669164321192,0.09924804076390614,0.11061878103321561,0.0,0.0,0.0,nm,0.0
64.053775,-1.2087380236883156,-6.140733690423634,138.38983870321093,0.1268131867363186,0.053210426119994776,0.09787038116777069,0.053185606967849595,-0.002421717654671246,0.030839445791319572,nm,0.0
64.063267,-1.4925402311278295,-6.256335281388264,138.42881187296203,0.15682728439838484,0.007169109179740104,0.08713383463965564,0.060320401797745046,-0.006895182035618717,0.037698626863168896,nm,0.0
64.07286500000001,-1.864815093073301,-6.183823812343067,138.58919844242217,0.18141899444812928,-0.02425518223079219,0.06166333385937924,0.053485853351459556,-0.00897966790863985,0.049044701885789736,nm,0.0
64.08236199999999,-2.1861640780452003,-6.043746527630184,138.86527644375502,0.19983136069139162,-0.02951475485114343,0.034670504124678085,0.038368068241624524,-0.007447835529456374,0.062334987551885115,nm,0.0
64.091879,-2.4674558324425298,-5.892951910374788,139.1037067018274,0.20728995206411152,0.00895127211313433,-0.009395708259860913,0.023425028831267382,-0.0010479317562794835,0.07568398046497085,nm,0.0
64.101392,-2.7127227190057974,-5.771603654305839,139.38404847906344,0.20783702012990204,0.06898723909129202,-0.0024699267420396523,0.009161416829842272,0.007932399933091912,0.08793118233152855,nm,0.0
64.11090300000001,-2.9468132217821394,-5.672718909949247,139.8592299621478,0.21326298358902848,0.1259423714525766,0.003963158551750087,-0.0022680257541018586,0.014321869859946169,0.09716785086444585,nm,0.0
64.12041500000001,-3.195439131068787,-5.619193867358372,140.352181861243,0.21106925431837162,0.18408143295182314,0.011072754236788978,-0.0065352775611777075,0.018827368162507685,0.1016118950704997,nm,0.0
64.13942499999999,-3.811622909547217,-5.589263527699634,141.23306772769567,0.27848375900260414,0.1878433481213294,0.011738639315056911,0.018368540251830975,0.03169730558791993,0.09674605299271069,nm,0.0
64.14889299999999,-3.9489143107975067,-5.761822597400941,141.67273308172972,0.3114412776103086,0.1537315807930632,0.07532798183332055,0.04508606351420103,0.023581371804605913,0.091464562940256,nm,0.0
64.15839399999999,-4.280764514788142,-5.875274606482219,142.17784728459787,0.33056506067985797,0.1294109202279513,0.05824521092313306,0.0681034508405463,-0.009213983449146678,0.08700216348775253,nm,0.0
64.167958,-5.060763174319909,-5.703205224337672,142.75607439756428,0.3128917811278402,0.08156835189892067,0.04695679799368098,0.08720240051243779,-0.043862041160676025,0.0867701195930501,nm,0.0
64.17748700000001,-5.937607560265199,-5.528606896557726,143.3011476188891,0.23108192885855688,0.04098561496958809,0.05568434480454666,0.11178415446656743,-0.07141838462091395,0.08912239820600239,nm,0.0
64.18697599999999,-6.863217874746456,-5.366467435252803,143.85651702953447,0.10165323649082914,0.0011244474680803804,0.06755525454124878,0.13068791998626778,-0.10076614613288036,0.09086778974073843,nm,0.0
64.224942,-12.323468648960196,-4.314702306922078,145.62565469166657,-0.649816818327641,-0.33339461520438185,0.27894064725335727,0.2828917709992786,-0.2588623525428823,0.04679352420632829,nm,0.0
64.23444699999999,-14.549580623036135,-3.960419409898326,145.77858657601593,-0.8120705733296546,-0.24013177671765956,0.08008027913935108,0.32869430990298054,-0.2954443728299619,0.02168597143484368,nm,0.0
64.243955,-16.650893382377863,-3.5865661177787325,145.75336243520218,-1.3043307559220105,-0.6816522442926383,0.39199145216580833,0.3063628223555056,-0.2844516901392811,-0.0016493413672013092,nm,0.0
64.253477,-19.326358892005814,-3.2373714130850892,145.4276528075045,-1.545943363580801,-0.6617435666891717,0.10953277922380515,0.4029712679281528,-0.3465455771663348,-0.05630782017631239,nm,0.0
64.262802,-21.984491487997122,-3.0788634489314584,144.73080561405,-1.6046670548627786,-0.4942616973637481,-0.3126114102680096,0.4187844481849036,-0.3173984087365099,-0.10359948250990803,nm,0.0
64.272309,-24.054572101698433,-3.30604335832047,143.68222115624712,-1.8320885016276827,-0.745487115038103,-0.29947179582792327,0.3639071052855996,-0.19259076652814164,-0.14356524172804933,nm,0.0
64.28181599999999,-25.881100600688196,-3.9571793373337796,142.220329661442,-1.7789284033313797,-0.6633119525964691,-0.5658654577685982,0.37208486906664134,-0.10376857712477756,-0.2044813178577399,nm,0.0
64.31035,-26.94818781688879,-7.96009401802952,135.7392555602709,-1.0536523060653684,-0.6109739187874933,-0.5562148148897267,0.16578264935723255,0.29706736663332556,-0.27959416876388954,nm,0.0
64.32006799999999,-25.7746047708726,-9.377532302145335,133.0886301422027,-0.6990764167251708,-0.5648932644861214,-0.3937056559948562,0.04863710317603217,0.377341840383016,-0.2752973107460983,nm,0.0
64.33901399999999,-21.23609538068189,-11.411577830912279,127.50250977168552,-0.07376602475599008,-0.5591257049904016,-0.10413598080770209,-0.16229841850927215,0.5225004027418175,-0.20920815257819975,nm,0.0
64.348409,-18.048649248047305,-12.181703475305989,124.68367513742963,0.2879070844508047,-0.39909826282133537,-0.23344683469412916,-0.22960284148104537,0.6110577963505288,-0.15855423568464044,nm,0.0
64.35790499999999,-13.946682370476491,-12.785743008226405,122.00233915926033,0.4579811875415876,-0.4273341827912683,0.08853983141008409,-0.32423524250073726,0.7525360092865998,-0.09687038279094103,nm,0.0
64.36742000000001,-9.019802638495147,-13.097700673213273,119.39340910873945,0.9158055185850117,-0.04609742267402933,0.23759187605159288,-0.41993838323760846,0.8756523989026536,-0.0394687100041123,nm,0.0
64.37692999999999,-2.6889674729470414,-12.90630437602122,117.02402549384631,1.3191288796502536,0.2618971250795043,0.46954933011717764,-0.5977235163170176,1.0893296576410623,0.0754820452434113,nm,0.0
64.39613,11.985479315789954,-11.789566567867725,114.05587979566316,2.111530296914231,0.6251274377727997,0.8544595576818663,-0.6670272316466851,1.258545555036872,0.27669021515140496,nm,0.0
64.40562399999999,18.595953264343752,-11.64604543446383,114.44146894534417,2.517883236733502,1.0131843432935677,0.579408368246597,-0.5530988506184069,1.1811750776897676,0.339047707083998,nm,0.0
64.41496599999999,24.424647888715725,-11.74772580481347,115.4290384861083,2.641769660781778,1.1505409244916187,0.45818274597601555,-0.4591209480372069,1.056068531285182,0.42638408961888746,nm,0.0
64.43399600000001,31.07774145782673,-12.74677743651165,118.62251114010705,2.33636576123338,1.0679774415639876,-0.35379019676831996,-0.09265699196315406,0.48814711506740655,0.43123486363871705,nm,0.0
64.44350700000001,31.69279508663391,-13.590687508870003,120.35665149719932,2.036957730078722,1.0271290697362203,-0.25751376706783935,0.09006628234473593,0.1987614484874149,0.36672816084939286,nm,0.0
64.46271899999999,27.56566102594967,-14.099962201399096,123.87614428655024,1.122254247442438,0.4714383124244945,-0.036961722093561016,0.3122345390229947,-0.4571309481215243,0.18910235341552378,nm,0.0
64.47221400000001,23.30989489156915,-13.760107818979922,125.17284048706018,0.5803065128500311,0.29312302957181025,0.3866238840225054,0.41511053370981105,-0.708077036053841,0.046988980533162715,nm,0.0
64.481731,17.69225747788678,-12.97847405622877,126.10239291434108,0.015148050798478977,0.02666142861575787,0.8072904819901341,0.5136160384864338,-0.9683456971314572,-0.08073741745545567,nm,0.0
64.49122399999999,10.686862443892537,-11.93229677122786,126.7125030860632,-0.5558232189231657,-0.18253879041447457,0.8413624482282022,0.6485052421188536,-1.2140966202118448,-0.18607578367635053,nm,0.0
64.50074000000001,3.1270711144023084,-10.99004567872115,127.15823393782583,-1.1312180440898165,-0.25769599172718444,0.7998097358195702,0.7456231201391615,-1.286360534787246,-0.21589815939615323,nm,0.0
64.548113,-34.44241923224969,-8.047597145939744,126.04545895352905,-2.744870255351693,-0.48979651281843106,-1.505991838058322,0.807512486556769,-0.9558143055105184,-0.3913098196791239,nm,0.0
64.55763200000001,-38.87818187146476,-9.413437965138987,124.61282362967242,-1.9327241618142943,-0.034551357122261074,-1.8695656288443685,0.737514321828057,-0.5466107900651849,-0.41695348875048455,nm,0.0
64.567127,-40.75270972132388,-11.454732659756633,123.04766239530638,-1.9398424584840492,-0.42499209938907223,-1.7241344322446752,0.5521799698502021,-0.06797774426424937,-0.37615775789462486,nm,0.0
64.57664,-41.170768837243415,-13.758879319900558,121.44829686635984,-1.3585255193100805,-0.3626627249316963,-1.6310789641434709,0.44134180632643727,0.1878229226084965,-0.3330145817207226,nm,0.0
64.585991,-39.775895959202735,-15.738547633956129,119.87511295605852,-0.7576488025693875,-0.3841206334402009,-1.3355105372045224,0.21117525557235825,0.44497457100686794,-0.23849058606255752,nm,0.0
64.62419299999999,-18.847367247249668,-17.123867789728305,115.30704955309687,0.29582864557504013,-0.44653312401267947,0.22995497448968458,-0.6676585083099149,1.277426763800691,0.3046005764382351,nm,0.0
64.633712,-10.26728169149139,-16.37796642452074,114.68048464466675,0.597468491115307,-0.23916224317207424,1.1904075107376708,-0.8218515592431279,1.439547986757574,0.36915739792074603,nm,0.0
64.66239999999999,16.558438414932873,-14.204054175019444,114.32218554321204,2.278995901017732,1.2167340150394892,1.2453845975605808,-0.7639022045011018,1.4764178799542966,0.4731154656375734,nm,0.0
64.67174800000001,23.527873517720167,-13.897027259828473,115.11246662379213,2.5238195058405215,1.3565190933951983,0.36891497519582617,-0.6175147579385893,1.215506416106649,0.48949839526826155,nm,0.0
64.68125699999999,28.949117740528294,-14.097205518099793,116.24410797899625,2.552913996881743,1.1466670510658892,-0.07933730350938875,-0.41710315656104074,0.9779277655447647,0.4808874498341259,nm,0.0
64.690789,32.221510843109336,-14.785069765479355,117.47680267364021,2.5943331395440112,1.0304638739881478,-0.18882990249857545,-0.16147711961785857,0.639546325828194,0.4017531593237723,nm,0.0
64.700286,33.11415234283883,-15.43607897853523,118.88969483112166,2.354408353471601,0.9042899174430226,-0.5914834899995052,0.03531508276002861,0.22496164083984957,0.3210583537936463,nm,0.0
64.70979700000001,32.24304652520626,-15.685561604869068,120.5124694434977,2.0044290116283214,0.538255437875787,-0.5047810880109604,0.12837550273495782,-0.10979522714550935,0.26982381027090907,nm,0.0
64.719494,29.63140151551566,-15.493200120039958,122.08987533301543,1.5808618138774682,0.2560346017569414,0.06232659833235828,0.23066136981624785,-0.4388085921124009,0.16723695726820179,nm,0.0
64.72900200000001,25.12115056918199,-14.771268554893016,123.4930562279803,0.9068623841456617,0.18536744886794218,0.44453962620393284,0.35307077933972386,-0.7992930752169259,0.03754409281887033,nm,0.0
64.738507,19.02658515444556,-13.409164827539165,124.74859589404981,0.11535145195280902,0.1292457320861807,1.0712968711519681,0.4415127116819232,-1.1206538286266166,-0.05273619527609492,nm,0.0
64.75751199999999,2.8132581357854165,-10.11676699796138,126.43063032631791,-1.445420825751724,-0.05648666033671786,1.10041567320373,0.7511084191439749,-1.5307371412855402,-0.19253299074227448,nm,0.0
64.776364,-14.089017064786931,-7.797239892983356,127.0581820419358,-3.0985362500375593,-0.5633070073696066,0.7738558744337741,0.8495453361843317,-1.4698595575726776,-0.21917736275349256,nm,0.0
64.785855,-22.173951920105708,-7.028314123024278,126.72490138002364,-3.1271450291102934,-0.6283069341991915,-0.30564202350433783,0.8471905040876796,-1.3636100414674035,-0.2748004259376992,nm,0.0
64.79540499999999,-29.040822771440816,-7.228666119312174,125.93468181553627,-2.867169971308351,-0.5336544690510402,-0.979659087604869,0.8472153542637112,-1.0631125577545921,-0.32644192169660974,nm,0.0
64.80489700000001,-34.18195088368814,-8.376046704376334,124.775536920883,-2.4532889384685967,-0.49300797515473144,-1.4299233156812947,0.7842853480392488,-0.6870645386812362,-0.3682265812278674,nm,0.0
64.81440699999999,-37.618984394537634,-10.222578377281724,123.40492462082251,-1.922185438630817,-0.555604386712792,-1.7117390706053481,0.6939343689315354,-0.3438387301331509,-0.3811710997471327,nm,0.0
64.83343500000001,-38.827267004765915,-14.652446586972808,120.59800121542557,-1.15381975223682,-0.8474303008590685,-1.3738841424042583,0.33539232407090536,0.2976928123964717,-0.2649514494625721,nm,0.0
64.842768,-36.9387623033808,-16.146993278933703,118.93716002976849,-0.7003322086574871,-0.9641484245014432,-1.1434097207457055,0.08695207018600659,0.4755821485103797,-0.22726235962260033,nm,0.0
64.871463,-23.16591437263713,-17.567082225955367,114.36547567867949,0.38044345845686056,-0.30038301279793606,-0.3328820087195605,-0.43813955803166876,1.0416117765713484,0.08649496791270288,nm,0.0
64.88098500000001,-15.37437484025647,-17.363868908886154,113.19026985948848,0.445480654928992,-0.08694030569278441,0.36750520374337436,-0.6282327230384022,1.3564840987354345,0.23369581500397238,nm,0.0
64.890489,-6.218006716425414,-16.61261867156966,112.21928880048874,0.8230747989919922,0.15698762798230856,1.4369660485452853,-0.8067018420861956,1.5708205671984699,0.34009083257519657,nm,0.0
64.89999399999999,3.4615078750019506,-15.625477384701076,111.58735751749104,1.5118545442064348,0.48783949946483557,1.5907303330435536,-0.869792262304809,1.6653658529608637,0.40824601096701785,nm,0.0
64.919196,21.1619282196482,-14.690756037869464,111.48360506392761,2.443309671593271,1.301397121008922,0.9449600918337298,-0.6419305323908685,1.4808570752502175,0.4515548162115349,nm,0.0
64.928529,27.87078184194912,-14.533604951575033,112.13760035177023,2.5992089361272535,1.2443867010481924,0.25504645937487325,-0.5079707170414681,1.2063009405666836,0.4618236374231981,nm,0.0
64.938049,32.67989092663533,-14.80504983314423,113.00546440726231,2.59177278088904,1.0793041432135768,-0.14260451462409593,-0.3042484655060136,0.8920771181692035,0.40907372162536465,nm,0.0
64.95707100000001,35.50350440950304,-15.86004128026559,114.98652812961865,2.056891524878145,0.7852936011552647,-0.66253841849742,0.05789948198049641,0.10592251470916252,0.22639740944089434,nm,0.0
64.966589,33.91612874892747,-15.888261358111455,116.24607486094986,1.7360184451272567,0.3927202832228302,-0.20712568965910835,0.13953611078305148,-0.26204573260170344,0.15677598319083644,nm,0.0
64.97627299999999,30.15909030496847,-15.479069040844056,117.44132206005263,1.1924241737034025,0.14242069675644922,0.30010068794065387,0.25669615197496315,-0.6718460738782143,0.027796773070262747,nm,0.0
64.98578800000001,24.311445010707203,-14.572199964291544,118.47455261849414,0.45894587398642184,-0.021518614377594763,0.9144643372101758,0.37347705504325407,-1.0723607304236236,-0.10427367342610783,nm,0.0
64.99529100000001,16.429616090381707,-13.11073776165112,119.29932395527459,-0.42873641912529264,-0.2902324619624933,1.7630615492112658,0.48913267978330827,-1.4710982352008368,-0.21908974003855589,nm,0.0
