timestamp,roll,pitch,yaw,acc_x,acc_y,acc_z,gyro_x,gyro_y,gyro_z,markers,motor_input
94.011458,-24.03426399789455,-46.97289001015121,-122.21181888636931,0.9375469263205736,-0.1748612264825818,-0.5516065333185235,-0.2412492113461197,-0.09470483138320583,-0.3479160892609967,nm,0.0
94.021143,-22.233468815770756,-46.992906569853865,-122.97895739702203,0.36753862913314006,-0.29571442680988785,-0.22977591162697908,-0.1477332299570924,-0.20265460871080812,-0.01731374049380854,nm,0.0
94.03065000000001,-20.769471734480287,-46.521505858900326,-121.82502690452515,-0.04209139116946467,-0.5223801837290166,-0.05601707315488975,-0.040081704356983355,-0.21761973036186866,0.3343289581283261,nm,0.0
94.04016200000001,-19.856429133772803,-46.064329432121674,-118.89690619605587,-0.6347638904439689,-0.8630583062623799,-0.09577643706966124,0.002273047231617688,-0.15343918899362977,0.6292512889135026,nm,0.0
94.049666,-18.838805596222628,-45.8990142829871,-114.90058743691543,-0.9334767400850391,-1.273684603669399,0.0687824877569304,-0.047838556696439286,-0.14072489849059475,0.8862832177718171,nm,0.0
94.05918199999999,-17.28812825572789,-46.04574542561747,-110.56172762918472,-0.866078782052966,-1.6131254727826307,0.280818262926677,-0.12396131520794662,-0.18857498606957873,1.0549705876346682,nm,0.0
94.07819799999999,-14.102966784857676,-47.28845245816068,-102.00872812424761,-1.4225572052216713,-2.2769682093466304,1.1712320027805978,-0.2053185816347855,-0.1728968722465138,1.1016241265845717,nm,0.0
94.08770200000001,-12.792474917572624,-47.62680528509889,-97.88351508878063,-1.5544258978030345,-2.2505621217738465,1.1148015885080331,-0.11106211648161145,-0.16716244379755152,1.0781435409152909,nm,0.0
94.10654199999999,-10.126400699792656,-48.12399570351827,-91.04391018247371,-1.106648948629709,-0.9099365065607782,-0.18552493758022393,-0.09255099089084884,-0.19174330316328614,0.8583426968644922,nm,0.0
94.11605800000001,-7.276318682516313,-48.50749366872247,-90.38399386427709,-1.2694512242209488,-0.3115290729041271,-1.1708282340254705,-0.09457713536616019,-0.38512972459926414,0.6077326539135142,nm,0.0
94.13506799999999,4.418893509478007,-48.05926612287789,-97.70166935470047,-0.7877830651769782,1.182962437767893,-1.0605263298645797,0.03051018156089587,-0.8542554982032577,-0.04034506623989764,nm,0.0
94.15410499999999,13.011634077170639,-43.52467822167017,-109.00773374929368,-1.1214389986800344,1.0017860248431967,-0.16460655731082385,0.3581322826856777,-0.5948556253281296,-0.5861990900939861,nm,0.0
94.16378399999999,12.838683627624137,-41.66876107898611,-112.5849176775918,-0.9472037558876059,0.8106499569984809,0.5063636618656386,0.34313638730126556,-0.11367037515976851,-0.6981118276013375,nm,0.0
94.18280200000001,2.9653369663271336,-41.67560797795419,-113.00396332198558,0.44848632600715566,0.9901332795563298,1.8028958503842427,0.2869787754036527,0.8893655557893828,-0.5832483073174481,nm,0.0
94.19232199999999,-5.401907352360985,-42.12035084893635,-111.13218095119332,1.7111092594229345,1.2864777337699544,1.6505559917061887,0.3790642032009373,1.1841764712685976,-0.6092253502161064,nm,0.0
94.20183499999999,-14.062679720838368,-42.498057397053635,-109.32472919348699,2.235091474976347,1.3831291961057597,0.5413435256839202,0.36463193373194724,1.2258967783923405,-0.6919017714837824,nm,0.0
94.21116799999999,-20.70783407207409,-42.98429218505343,-108.84664387974732,3.3416954855135326,1.568944195269399,-0.24713075045497965,0.217249998612421,0.9539277323183191,-0.725502660465013,nm,0.0
94.22067200000001,-25.328979529739417,-43.91437072153294,-110.33068779857743,3.2548256213014333,1.374695895582053,-1.4031494084640561,0.037292007724354946,0.6959188733328371,-0.9040866346693823,nm,0.0
94.23017899999999,-27.353534387528676,-45.52560152828152,-113.18834424469568,2.447107825197636,1.0547478076188592,-1.9847944478201447,-0.20673358410204282,0.3884854449482554,-0.8998136353331196,nm,0.0
94.23969399999999,-26.630862538484408,-47.26884135887316,-116.60475822944947,2.3307252575437993,0.6587109231214736,-1.551357635260012,-0.37188177892094115,0.05721140581895305,-0.6831968172193922,nm,0.0
94.24921,-24.579388961399733,-48.202392474188365,-119.99035407125531,1.5491586502662644,0.24950044006516672,-0.9823197916753876,-0.30753834601374513,-0.1533611643821909,-0.502630695623215,nm,0.0
94.25888699999999,-22.160717883689582,-48.06597805634776,-122.18839362299939,0.5899432252374264,-0.12561244063911225,-0.4377800843313928,-0.15484657023411114,-0.28857904621528296,-0.2046615398187922,nm,0.0
94.27791300000001,-18.38795563647474,-46.977485711212715,-119.91901469457855,-0.8010320974615237,-1.3962767658193964,0.6912254107052431,-0.042461385152986836,-0.2353574629560288,0.559448823290043,nm,0.0
94.296934,-15.245017367445625,-46.88280531506266,-111.87591265725385,-1.8434138431577407,-3.2109040848463613,1.543705986611824,-0.15133109348018567,-0.1800802657901092,1.1170950502726384,nm,0.0
94.306443,-14.72103157884246,-48.025433964448666,-106.2107747816247,-1.5949376238275184,-3.0272445088248454,2.692076728869356,-0.2532957640879828,0.005886692917154644,1.2430644991038258,nm,0.0
94.325466,-16.953186178308684,-48.641579620654824,-92.84856254924651,-0.8070238254228,-1.9036353743018295,1.0457565525815458,0.004701363445098192,0.17295285589594653,1.2694696169157482,nm,0.0
94.33478600000001,-17.839679231857286,-48.807775945230176,-87.57297849863374,-0.8789751541823531,-1.4832054848886147,-0.44999360845874464,-0.044682955956643906,0.1117229869369835,1.054180811248693,nm,0.0
94.34431599999999,-16.008243950453416,-49.10203311547111,-85.49242512152087,-1.0440128269922269,-0.7569186358575569,-1.5971941731589137,-0.05759203203756146,-0.25013797276077976,0.8065395118020403,nm,0.0
94.353915,-10.160147034277854,-49.61345084615389,-87.37752547983933,-0.6002528578409423,0.6985561046439631,-1.745899077525395,-0.06833036532183479,-0.7741918281631341,0.560434400481792,nm,0.0
94.363325,-1.6805269987765816,-49.83311355500347,-93.18102023876331,-0.5960395990011546,1.2336376615292437,-1.316040978779298,-0.06076893658182155,-1.103750299686857,0.1213967904132362,nm,0.0
94.372829,7.308572733024812,-48.24252550970252,-101.26729832143918,-1.095229512076331,0.9476237504443151,-1.043802464220292,0.15553274772416226,-1.2163048755919839,-0.2796573472028563,nm,0.0
94.38234700000001,14.23064316196011,-44.86049095141799,-108.59210828153138,-1.3438637624930172,0.8284650572616705,-0.5648472836533288,0.39517169559137033,-1.1011833798575388,-0.4594523001624675,nm,0.0
94.391863,17.21874763591479,-41.63141203567717,-113.70374280159842,-1.5818113567649736,0.4197358937784833,-0.28304274258102735,0.43144020487844936,-0.6460363298714336,-0.5678550868437168,nm,0.0
94.41106400000001,12.876654740872326,-40.406991672512696,-116.51852942458356,-0.8333681698484343,0.4532133318441698,0.8719239347666058,0.2031620673534964,0.5186176744664153,-0.38812454934557206,nm,0.0
94.420558,6.53726673404912,-41.21887164141276,-114.81972282693864,0.44610919034136687,1.0328092467935495,1.233133534503392,0.26178562799400984,0.9310275452734296,-0.3473051439382655,nm,0.0
94.430072,-1.6136469829493219,-42.024865334581335,-112.64596830798914,1.6830704673992323,1.5568908046376182,0.7564273238347321,0.33649372564370483,1.1767866160449558,-0.5130793794221492,nm,0.0
94.43940699999999,-9.690121101844378,-42.87813178165188,-111.49988517452528,2.1967492267302697,1.7463684179322483,-0.017295488739292167,0.28165131023829537,1.1668141136669414,-0.7561939258651871,nm,0.0
94.448914,-15.438638122474936,-43.666597984349316,-112.33325531620011,3.1288084633899502,1.8511302900285096,-0.5580643635214685,0.15459424565812369,0.8356810639020366,-0.9003741544309676,nm,0.0
94.45843500000001,-19.050810010685804,-44.68861049640064,-115.54709709740393,3.1610112634916914,1.401474930610779,-1.2304786833960017,0.011335376964855185,0.5582215370061528,-1.0865706421471566,nm,0.0
94.46794499999999,-20.82102029226707,-46.15972761414039,-119.62929919997401,2.3071400611140604,0.8884390835214131,-1.4818153806086465,-0.15927596846391281,0.3593083336420903,-1.0714748033865615,nm,0.0
94.477486,-20.836585649589313,-47.36690614455774,-123.22845780729716,1.9885827346683786,0.3815533896339501,-0.8191418162592057,-0.21864112058207255,0.13048111189898878,-0.7867068215970198,nm,0.0
94.486962,-20.5218552200175,-47.42334595702751,-125.45816401185039,1.400172636216095,-0.046050889260119215,-0.33504006222275934,-0.046234959102871634,-0.025383884736796685,-0.4972295899015793,nm,0.0
94.49667,-20.6424694681349,-46.51913442538548,-125.52563703367547,0.5789566708252089,-0.3762844713865389,-0.16112152009957012,0.14440153849793255,-0.08744346721356736,-0.1335237341045942,nm,0.0
94.52518,-20.40680132578645,-45.035631493671474,-116.31998623839867,-0.15131338626492774,-0.9750938353369182,0.42320663605273195,-0.07487253674921762,-0.04974866893038153,0.7402848741326095,nm,0.0
94.53470300000001,-18.936774573421143,-46.1361412588582,-113.1226457047971,-0.602420922969809,-1.126862779757424,0.36641114472416253,-0.29987331812551277,-0.09533074376844661,0.8037476534229591,nm,0.0
94.55371099999999,-13.571047081572981,-50.25201347193342,-108.25531511522915,-1.286415493529268,-1.4604934428226262,1.2785410717827588,-0.5388733561217257,-0.21198330228377943,0.8665387072019886,nm,0.0
94.56322700000001,-10.977096066565032,-51.732525845124485,-105.58491377453558,-1.8741245098442272,-1.7678274001629515,1.5773589571453976,-0.39270419693350533,-0.22877681587766163,0.9606637422393762,nm,0.0
94.572745,-9.354259557601871,-52.49817991648961,-101.45864468288683,-1.5600474135569897,-1.5731060102368513,1.538483547771866,-0.20965865665453504,-0.16149241945596332,1.148944698676443,nm,0.0
94.582245,-9.746282541692217,-52.92017623749201,-95.97034017721735,-1.268904326845421,-1.1139154322534006,1.0934347258662813,-0.08907720440035002,0.055197673433107844,1.149873537332889,nm,0.0
94.591578,-10.840365404324045,-52.91328000788788,-90.72080722850684,-1.3166460587473918,-0.9351203351689995,-0.2403095647634388,-0.002690406558765168,0.12580889571399803,1.0101407371053637,nm,0.0
94.60108500000001,-9.882107439185257,-52.67001552887357,-87.84472723983238,-1.139731188979437,-0.46641634907370005,-1.2827100847818569,0.037410908613619946,-0.12241401845921428,0.8553307515296551,nm,0.0
94.610612,-6.133399757388748,-52.609592318605785,-88.72914732071519,-0.6968820413303709,0.5176567351336985,-1.3673107677012826,0.011744611087872149,-0.46208153335037616,0.5208824620174798,nm,0.0
94.620137,-0.39760757509135836,-52.20518093989768,-93.76564444032323,-0.83042463847271,0.6334327915418873,-1.138935367446086,0.05099743318810028,-0.7091169769844389,-0.016580408187095406,nm,0.0
94.63931600000001,11.746859428348913,-47.77858436432025,-108.85622281747915,-0.8990557206489589,0.46626110105772123,-0.3375728456465622,0.3224218586413834,-0.8278903863941761,-0.6395814087838407,nm,0.0
94.64881500000001,13.937869153161918,-45.5997919082181,-114.40845350321597,-1.191368218988427,0.1567852703697091,-0.050855163602385976,0.2811160342319765,-0.4454672453998845,-0.7810031363802228,nm,0.0
94.658332,13.008740246705552,-44.67508621749155,-117.37457793233155,-1.1095987822484394,0.15004105642185558,0.42771962121410645,0.21043005181585395,0.03279650737010254,-0.6657200741433618,nm,0.0
94.68686,-5.247330421157427,-45.12145383601103,-111.7747818089061,0.7734911549375131,0.3698766819615228,-0.13376889159840855,0.3843553541290213,1.0015724349753772,-0.30551748637451304,nm,0.0
94.71521100000001,-19.112313740208783,-46.11720096647412,-110.3291165386336,1.4400717276453083,0.21383651648657342,-1.3099170503531288,-0.039427200081198696,0.3791091594881862,-0.6502355737602632,nm,0.0
94.734249,-17.821117039808147,-49.01428840432454,-116.73511075001181,0.881163949629237,-0.23175104182192788,-0.53818775159294,-0.36509469410303286,-0.032612198010713696,-0.5414721673691609,nm,0.0
94.743942,-16.092953760741395,-50.04179940777783,-119.27124814468621,0.4124711772969468,-0.28113757032213793,-0.1090516515312196,-0.3002659204805442,-0.10104934494891019,-0.3232264365270116,nm,0.0
94.753425,-14.930727879106076,-50.38515863777961,-119.89528649332162,0.3252556551044697,-0.2168787785781381,0.2561364749119639,-0.14657289723392475,-0.09438360530602219,-0.01837181458631407,nm,0.0
94.78195199999999,-16.73121522311557,-49.97473478003224,-111.90329694393877,0.35475377088604987,-0.001674263911243607,0.10983941715889005,0.04610042863336372,0.09323229230166794,0.5295372353563654,nm,0.0
94.800974,-15.780928034658508,-51.089778403247486,-108.46474716500174,0.4622730623948824,0.18391193399392608,0.10172491629444518,-0.20859518366517196,-0.07669682260942376,0.3344901539936032,nm,0.0
94.82000500000001,-11.155589203853769,-53.334596541574,-111.29963710348856,-0.32509526994761206,-0.016958623890386458,0.27784505298505247,-0.3403756147692375,-0.23058166445816475,0.006639749448939114,nm,0.0
94.829523,-8.555229767485564,-54.27750838401995,-113.25585668597672,-0.4278304453119136,5.15125686270199e-06,0.5776602991136338,-0.3045501006525944,-0.21440993062153552,-0.0197306502612556,nm,0.0
94.83902,-7.284004716894717,-54.93441001358304,-114.25028551454739,-0.6718971340795665,-0.09068724947822726,0.7704760662155812,-0.19347810725137263,-0.08298896679416277,-0.01968828041072906,nm,0.0
94.858048,-10.090558156404088,-55.33692532706114,-111.06821401955632,-0.5713393429485976,-0.342654647036705,0.6453668058597628,0.07319557489614884,0.24546521304917296,0.1182692247461091,nm,0.0
94.86756600000001,-13.411825970215276,-55.197050477821335,-107.81409781263885,-0.38784948625035054,-0.34216772259410694,0.38264375733231126,0.1394977795864955,0.34639483954028066,0.14742750678739652,nm,0.0
94.886583,-19.01036966956693,-54.45577940661715,-102.8329835421123,0.14001297519566958,-0.040376165134822194,-0.17179931395130582,0.12745270821384572,0.24832055502965794,0.035525100600489454,nm,0.0
94.91512499999999,-18.84328439537218,-54.0215542545189,-105.63972154116331,0.11036379031895067,-0.10061751066914555,-0.20222686922164557,-0.03244470684400742,-0.1223850301019125,-0.25292376611419404,nm,0.0
94.924666,-17.779946013017227,-53.92845432746053,-107.47019896159674,-0.0678473728909988,-0.20656166597553774,0.016984194398177065,-0.030913242061531336,-0.12594695177858833,-0.24509650419724702,nm,0.0
94.93413699999999,-17.20152153074674,-53.68121623336382,-108.44765946178383,-0.057769440185539894,-0.23382427601236794,0.2100227615635111,0.012756697424876711,-0.08073923099758468,-0.15386767576947932,nm,0.0
94.94362899999999,-17.544845171414647,-53.269115043714294,-108.36356697815208,-0.07530309975889676,-0.2865654171849583,0.2834700190633072,0.07775069716999153,0.012346194829324976,-0.05277143830920952,nm,0.0
94.953148,-18.601078010180743,-52.734714949735675,-107.21228924523005,-0.09261073069606465,-0.3116491642955406,0.17847390151324533,0.12731198285174328,0.08788962066118525,0.059558674294161625,nm,0.0
94.991207,-20.313760424936415,-51.987398294161316,-102.9204527125168,0.2322212584034516,0.14775250434259354,-0.25207605768453073,-0.07500633770889556,-0.07958079446155605,0.10365021405113035,nm,0.0
