timestamp,roll,pitch,yaw,acc_x,acc_y,acc_z,gyro_x,gyro_y,gyro_z,markers,motor_input
96.018135,-20.45773005135003,-47.25489721982788,-113.76585202791273,1.9300866286664222,0.6857521516871691,-0.9401811629454828,0.1738013495203419,0.38861076912156084,-0.5851347496147944,nm,0.0
96.027637,-23.87153862575807,-46.72099651860758,-113.02848561956486,1.508948446064768,0.02156424995879161,-0.7316098838875514,0.27027062091689663,0.3864065755977939,-0.32869975019273173,nm,0.0
96.03717599999999,-27.428587411029035,-45.89160247545293,-110.86153272610044,0.666313287675377,-0.6872242600285582,-0.7055125250786456,0.3249375400094396,0.3951541516558788,-0.06299272291254389,nm,0.0
96.04667699999999,-30.310229750081184,-45.11608577587771,-107.77560439652395,0.40993142614471884,-1.1477951166977858,-0.4674495821603133,0.26734858021242536,0.33084230118044916,0.21717957359449347,nm,0.0
96.05618000000001,-32.474073421981835,-44.9847863266184,-104.42394296714254,-0.12891978067291912,-1.628433860604246,-0.23862903341749206,0.0973633469794334,0.28693067809113454,0.3812674349923416,nm,0.0
96.06569400000001,-33.53475657915873,-45.76014901667058,-101.35166424007238,-0.9686275384523785,-2.3636332193703176,0.31441646419317404,-0.13077143859238052,0.1798919395323297,0.4894247073648556,nm,0.0
96.075391,-32.6775137263717,-47.074776705118225,-98.79606725427153,-1.9759781989064702,-3.178948983173167,1.2511065641248011,-0.2927805033106241,-0.07133701128243192,0.6420582862827698,nm,0.0
96.113441,-25.07919534745107,-50.44278767450553,-86.9588379015622,-0.20401538768413321,-0.016050239074337357,0.02916450900970872,-0.16539010014849745,-0.45954798269411873,0.7939357155240113,nm,0.0
96.12276700000001,-17.022116218322406,-51.5260612205779,-91.5401191954415,-0.927723027798876,-0.09824075935319186,-0.9212936472273615,-0.2159132423931217,-1.0224813603300116,0.34118710381073636,nm,0.0
96.13244700000001,-3.474920463382568,-51.346318061526645,-101.14864040974741,-0.29210433295185084,0.7351729144865679,-0.5287125589747822,-0.15889195052646923,-1.6873374294614216,0.13165775446344738,nm,0.0
96.151277,18.75155683558166,-44.26111995918913,-121.37941497751424,-2.0122832549757073,0.4717433238722453,-0.16540048715476743,0.229160127161037,-1.4845056855256964,-0.5133569843247692,nm,0.0
96.160798,23.089233609484612,-40.64443778228455,-125.75270928663356,-2.137930224672333,0.5315634449752646,-0.21350814490233838,0.2382463119061369,-0.9369943315863415,-0.3622151895314278,nm,0.0
96.170301,23.122996196206483,-39.57682294787988,-126.98907077415276,-1.6803266258628975,0.7388330639497841,-0.009543147460312883,0.15536935692551584,-0.13442929927794764,-0.20857124573083982,nm,0.0
96.18950000000001,12.393015369261592,-41.95774138213156,-120.36105513569278,0.8901222433008804,2.1990837642569594,0.4805244765183514,0.3081054225626809,1.012503120548583,-0.0090612250898973,nm,0.0
96.198826,3.457183621832632,-42.69258006968742,-115.63834262787765,2.3561541100197716,2.746246308985255,-0.18220250173898975,0.4772190791843934,1.2337451027238966,-0.2602929719248341,nm,0.0
96.208337,-5.381526948571848,-42.80650612121975,-112.73594257871214,2.6906399339261076,2.669664846898307,-1.3340682560704737,0.49757928256377826,1.192537311757785,-0.6194630742784266,nm,0.0
96.227364,-16.56052331648395,-42.92892282853998,-114.21091419096025,3.2327339703751314,1.5680472994361594,-1.546541299771618,0.22609247751039385,0.6592792743828874,-0.9989893200583624,nm,0.0
96.23686799999999,-20.666698173940535,-43.686065261371745,-116.42107738135998,2.007781728231261,0.5397468668838734,-1.496741615913089,0.10538715586893886,0.6071353696154511,-1.0023304539148639,nm,0.0
96.246396,-24.088117517951034,-44.66686773047354,-117.41617394275832,1.2938203984880543,-0.3261055002650339,-0.9565258270697684,0.034156320486438164,0.5291321601440796,-0.6719918205447382,nm,0.0
96.255897,-27.637792385624287,-45.320147195404836,-116.43593229699488,0.7668270883456577,-1.0137301729131707,-0.5600443317516199,0.09803006301186641,0.5097023417386363,-0.30109771425073356,nm,0.0
96.265413,-31.38026295802489,-45.448063130214116,-113.54313443164561,0.013496794586240689,-1.4027536260360307,-0.5810532195929182,0.1863243516033848,0.4899772075182943,0.05145300512344469,nm,0.0
96.274914,-34.45780528061437,-45.391718170267204,-109.24900478964194,-0.09936726130287862,-1.5925654522527928,-0.5054479539993293,0.15560697206658383,0.40015945687399435,0.427003495305706,nm,0.0
96.284427,-36.73903318702276,-45.71388668625615,-104.21744495048797,-0.27985252203934974,-1.65703131321547,-0.4361441450059922,0.01731905051358411,0.3257170110513888,0.6597769201435588,nm,0.0
96.293946,-37.81828285378694,-46.732855259577256,-99.40952278855717,-0.8762823131477342,-1.9513167659765387,-0.1490134484524485,-0.18188443397295323,0.18792902014540785,0.7881916917507968,nm,0.0
96.30344600000001,-36.530225605451115,-48.1029653764263,-95.65971934333058,-1.531065811549895,-2.525223379651783,0.39277598846907463,-0.30724132712295527,-0.1385372378451467,0.9024944282843195,nm,0.0
96.313142,-31.945446118343344,-49.10968885846731,-93.27130854228828,-1.6366043848293246,-3.0699709853122945,1.6286638047053847,-0.25866804522108966,-0.5926042009357718,1.0855587192158276,nm,0.0
96.34166200000001,-17.576216821030606,-49.49289757519188,-85.73700853770555,-1.2513999765421477,-0.8328803403885382,1.2072942485354083,-0.0013877241913150928,-0.6140167298165952,1.2189416275806981,nm,0.0
96.360499,-0.3354568256389847,-49.4457367807306,-91.09202242616529,-1.0060847113506242,0.5476846302611382,-0.6083522173618164,0.07059701602188699,-1.2704165003769472,0.485387265309974,nm,0.0
96.37971300000001,21.16000368184907,-45.38050889062122,-108.62071398930203,-1.3157779767001576,0.8227642924724854,0.17224651922931203,0.19405010532433564,-1.471638519865691,-0.445239719576399,nm,0.0
96.389036,26.59532543396325,-42.0633604682312,-116.36200193671141,-2.0513532086411033,0.10446848571961223,-0.3859874367922094,0.3001615859511035,-0.9869064564171479,-0.8031722873792687,nm,0.0
96.398548,28.231201306225277,-40.12775522358917,-121.15165555007124,-2.1153848561570636,0.29775691266305265,-0.5831795213365356,0.20841186007531406,-0.4083032742550208,-0.7468073639183367,nm,0.0
96.40820299999999,26.378748019171002,-40.80381251200007,-122.85436998079501,-1.3361650328163248,1.4494137638665012,0.40958808334969576,0.02176255642666559,0.3063563492630617,-0.5846861794592594,nm,0.0
96.41771299999999,20.036339889522367,-43.17931794518384,-121.2129451413551,-0.1865505802751569,2.3159116928785473,0.9366023991175079,0.0843789156960226,1.0480217034811263,-0.5233282748382054,nm,0.0
96.42703599999999,9.83434516702889,-45.05373079861519,-116.5571266062989,1.6366730408978079,2.9396235377269924,0.759618291433924,0.3666993981549491,1.4606609797725583,-0.49185120839260654,nm,0.0
96.44610499999999,-12.829095912454584,-44.44300429055497,-107.73145405565924,3.5608767740199654,2.67513152006349,-1.1183359314142178,0.6509893585364016,1.3535114868288336,-0.7965066390598204,nm,0.0
96.455611,-20.562345589390965,-43.35880558198021,-107.2266834786588,3.820048194050127,1.8574911035987924,-1.4743399655114338,0.5283341569941522,0.9981710711191017,-0.9687747283827165,nm,0.0
96.46512200000001,-25.947382074902926,-42.91586495767181,-109.04101504226783,2.858066398947964,0.7160891907469643,-1.7772555945483366,0.315934867410417,0.7206162654223406,-1.0955196618088723,nm,0.0
96.474639,-29.363041177492434,-43.576494765474244,-111.38950901191379,1.8502829233914277,-0.27510543636286094,-1.4896865981599616,0.03506757377727383,0.5146544175215513,-0.9332913101984411,nm,0.0
96.50317999999999,-34.76406243811738,-46.94235116438956,-110.9902476236694,-0.049824045245246334,-1.5483078455954704,-0.13415857635234427,-0.07646673660704086,0.24716555366452214,0.17416749507167875,nm,0.0
96.512678,-36.11927238837686,-47.32627331527966,-107.17030218093727,-0.35622663039165786,-1.5826100153806821,-0.14412999030433538,-0.024839919913705887,0.20111959970302828,0.5725009427408122,nm,0.0
96.522176,-36.99619342295816,-47.580468296188215,-101.79180993381563,-0.4493311376713272,-1.6481556937474147,-0.0615092851096677,-0.03251650102533773,0.1281080692965989,0.8908758454431771,nm,0.0
96.53187,-36.743668687423636,-47.72943867151264,-96.48674595474266,-0.6881492643511764,-1.9301716790643852,0.1928060773273343,-0.04738431440020109,-0.02972438984326079,1.0608182234266859,nm,0.0
96.54119700000001,-34.34881362443148,-47.649611646946525,-92.29254234229946,-1.2802643744297306,-2.6193374625034065,0.4689341621592858,-0.020684017847234976,-0.3252633062489598,1.1533161833170034,nm,0.0
96.550896,-29.492760957772614,-47.471699509039205,-89.2376763981232,-1.1313603781921189,-2.782818752446766,1.4228622780321913,0.016196590920225327,-0.6602271884811194,1.2674231602872006,nm,0.0
96.56040899999999,-23.837064225843893,-47.512338387645634,-86.4684015468972,-1.1394062046613471,-2.359308449471478,2.455166750819573,0.01087715273062339,-0.7701791441059596,1.3114044422481363,nm,0.0
96.579431,-11.04575073521177,-48.520233341365696,-83.96289926231968,-1.1102196061419916,-0.4309597576750227,1.0420863647012435,-0.03434868203396761,-0.9737220981306913,1.087982467268482,nm,0.0
96.58894599999999,-1.72563534416122,-49.12053908677028,-87.24711039806712,-0.9556622986630656,0.4240560490539848,0.2785151464931786,-0.036294122119115806,-1.2420006318364238,0.7382445898568993,nm,0.0
96.60777999999999,20.392594718427507,-47.04403886972246,-102.93976857288396,-1.3879818340280385,0.6803042975734929,-0.29447275816567087,0.12099100100528408,-1.544495680842667,-0.15954662681540252,nm,0.0
96.617289,28.431825435611547,-44.15436375714961,-111.39796084002941,-1.699949981568657,0.5967841474585738,-0.3965754362049339,0.20694608940507137,-1.2540967566295962,-0.5285192441501078,nm,0.0
96.626802,31.882895237795296,-41.74466022399698,-117.39541890018793,-2.131376825583074,0.32356133783238655,-0.9728205896603924,0.2185260511498937,-0.6668083431834244,-0.7328509441334214,nm,0.0
96.645961,27.29613538484262,-43.36351450805131,-120.69572947038786,-0.843619281463557,2.409381335713858,0.5701617556349572,-0.010679477077593959,0.7590310270891523,-0.6329917053886359,nm,0.0
96.655476,18.032016299326482,-45.90137295254661,-117.41833575857774,0.5518429641406088,2.900102344602237,0.8137913003748761,0.18448572240211553,1.3950084477891933,-0.6493899953932185,nm,0.0
96.67435699999999,-7.394141462013125,-46.59064108550217,-106.59634174522975,2.9727543219572907,2.676227032536161,-0.39866772075566836,0.664916792806989,1.619511295294047,-0.8383029330302499,nm,0.0
96.68387899999999,-17.37946125991273,-45.241797649415965,-104.11146502430013,3.6139018611932245,2.050144056605936,-0.9732666118521563,0.6143799667111627,1.267583643013842,-0.9357804276373145,nm,0.0
96.70288299999999,-29.12962474703254,-44.77636466362887,-106.73689797744584,1.9569885178482127,-0.14014763974018477,-1.7002298252859207,0.08724255769681574,0.6591901332570934,-1.0734166538270487,nm,0.0
96.731415,-34.11294010754566,-49.642892584163896,-109.38850031251874,-0.28915099860307614,-1.6493393281886457,-0.173931622218033,-0.2305644961739061,0.22960552627175523,-0.028033714055404564,nm,0.0
96.750617,-35.45670071279486,-49.92177104224709,-102.09097900210482,-0.8094847659067949,-2.1185324792942932,0.31764766311646925,0.05588456095685877,0.05343346377902294,0.8331768638835475,nm,0.0
96.76012399999999,-35.210619998865,-49.090102822480944,-96.77504207457044,-1.0121430833031695,-2.5710883708286816,0.6768535614032493,0.14648074902848793,-0.05967570747302626,1.1084669253667434,nm,0.0
96.769452,-33.132160912986926,-47.89943550106917,-91.65022250246118,-1.2488067428181973,-3.1755223771378924,0.9090107347695382,0.2052758374091791,-0.2949295348247446,1.3243313694268788,nm,0.0
96.779147,-29.355337074878395,-46.94966352510811,-87.13120862147917,-0.9714732437760291,-2.8561382366545485,2.1389936783531254,0.18372050807348805,-0.5137862037532793,1.444647722685772,nm,0.0
96.78865300000001,-25.213722784890134,-46.610634018975986,-82.88284603200617,-0.9445466369468931,-2.0987732574987903,1.6175166674673545,0.10526074468407301,-0.5657902771228152,1.4487211562032452,nm,0.0
96.807691,-12.480754810291824,-47.992485532594756,-82.50250470097075,-0.8421409006232995,0.12742528444983856,-0.2610172323791557,-0.05609463182669183,-1.0438153948422617,0.6907496384970875,nm,0.0
96.845549,27.33297853966686,-41.814582408323794,-116.84034060724497,-2.2574424260868162,0.05976656759282753,-0.6716692010388291,0.16956586976725985,-0.9788072435269742,-0.6924827468265286,nm,0.0
96.855007,29.100152285432856,-41.30538532862124,-120.66327422078739,-1.9841486100248578,1.009180062480994,-0.26999986094021267,-0.050533584664609534,-0.2868724328797164,-0.5338020153390081,nm,0.0
96.86452,26.212467542165275,-43.25891026585916,-120.83135137938383,-1.1816236220757352,2.050577223409326,0.3606354314619424,-0.13034102094802175,0.562360979887041,-0.4253005049689827,nm,0.0
96.87404000000001,18.528444007215146,-45.899818641834365,-117.04087908818214,0.19947602707082446,2.8153044859267076,0.36725035568702064,0.05484814404087777,1.209329886479466,-0.32328391645431975,nm,0.0
96.88353900000001,7.288609926216575,-47.3362077292113,-110.68018825467736,2.0558609308109346,3.4887661471987554,0.15224945287505837,0.34932938215286813,1.5239917551372166,-0.3641809534113912,nm,0.0
96.91210799999999,-20.709634969807514,-44.06138542560177,-102.07147668928381,3.260898348567268,1.540277398345632,-1.1709103103638276,0.44667748709356375,0.8155507872461346,-0.9281506059438224,nm,0.0
96.921637,-25.19896028138529,-43.947489350036946,-104.0756419659746,2.005280689499791,0.11505016160743649,-1.3618169532571855,0.15524012150288438,0.6239168956503477,-1.0208495673323226,nm,0.0
96.94064599999999,-29.5607297595314,-46.87457645820709,-106.97953694065589,0.594476109045355,-1.5848298241757754,-0.1771360749847049,-0.2694170748628343,0.3130721512261297,-0.4159015767825277,nm,0.0
96.950333,-31.12754323608171,-48.15621138143879,-106.19228151512611,-0.25076106863781666,-2.0117552744850706,0.17726528054185162,-0.1983663817887186,0.27709495759571257,-0.06788354951541431,nm,0.0
96.95966000000001,-32.532001751546886,-48.76152305453332,-103.2461166576122,-0.8857797373900796,-2.3011907514426087,0.2702349239090424,-0.08268756769139281,0.21148334869209204,0.3854961852226752,nm,0.0
96.96918099999999,-33.31671535214718,-48.69659484486306,-98.50351330244006,-0.8141439649355494,-2.487782674746731,0.4642564558818171,0.019537664751993363,0.09864163823769716,0.8377443528993085,nm,0.0
96.978869,-33.03567907963326,-48.01392693290247,-93.2125568751795,-0.8608904102798438,-2.6637526002666045,0.6885218500099369,0.1195478332104374,-0.053208809434399616,1.1076916843365494,nm,0.0
96.98836800000001,-30.692682983373462,-47.04823516804573,-88.37535915814075,-0.714269356125218,-2.693467387003192,0.8163400965280784,0.1766936804461618,-0.3230666333403452,1.3087422546510115,nm,0.0
96.997875,-26.49789700141477,-46.66949371522202,-84.53639635825881,-0.618482770819334,-2.203071122802895,1.1359259838307827,0.09935130267466362,-0.5738832361614672,1.370749052869103,nm,0.0
