timestamp,roll,pitch,yaw,acc_x,acc_y,acc_z,gyro_x,gyro_y,gyro_z,markers,motor_input
61.010478000000006,-2.724610463622769,-5.6107766844053,115.78918419137362,-9.00737480776719e-06,-0.003124344216398723,0.028595500454238622,0.0,0.0,0.0,nm,0.0
61.01998900000001,-2.6784745648521846,-5.588302379642492,115.70716534311909,3.470247739009979e-06,-0.004228326130696369,0.03895276944335892,0.0,0.0,0.0,nm,0.0
61.029493,-2.6309785370982777,-5.567802900208256,115.54853062633102,1.4120613239170882e-05,-0.003932394203338282,0.03645718824555831,0.0,0.0,0.0,nm,0.0
61.03901099999999,-2.591237489190553,-5.548883987534398,115.40450096685659,1.601026879201729e-05,-0.0028370406677586755,0.02644947139721803,0.0,0.0,0.0,nm,0.0
61.04851500000001,-2.5463920474542916,-5.540682447142279,115.34338448427197,0.0,0.0,0.0,0.0,0.0,0.0,nm,0.0
61.07703900000001,-2.3934376560398594,-5.568815910277683,115.1613299883979,0.0,0.0,0.0,0.0,0.0,0.0,nm,0.0
61.086556,-2.353386562903871,-5.5746772166967435,115.0806347737169,0.0,0.0,0.0,0.0,0.0,0.0,nm,0.0
61.10558499999999,-2.3078868513866793,-5.614379291766862,114.96940828353037,0.0,0.0,0.0,0.0,0.0,0.0,nm,0.0
61.115094,-2.3080614014829655,-5.627820609760925,114.95105466504174,0.0,0.0,0.0,0.0,0.0,0.0,nm,0.0
61.143618000000004,-2.379095608965167,-5.650050591480225,114.9136355171574,0.0,0.0,0.0,0.0,0.0,0.0,nm,0.0
61.153132,-2.4139536665956833,-5.65628583146413,114.91971452378874,0.0,0.0,0.0,0.0,0.0,0.0,nm,0.0
61.172161999999986,-2.467901418680845,-5.6641444827665515,114.93737496497934,-0.010795120787424301,0.023216429178481456,0.002539383971011865,0.0,0.0,0.0,nm,0.0
61.181668,-2.495210114810057,-5.6696701362894,114.93283422166996,-0.01296079746030755,0.030713120705659593,-0.02423620417442594,0.0,0.0,0.0,nm,0.0
61.200680000000006,-2.5807715108457314,-5.702276078663842,114.75443403084908,-0.018910116032381543,0.04544350225382946,-0.0364723723163183,0.0,0.0,0.0,nm,0.0
61.21969899999999,-2.767911557147252,-5.754274779624622,114.69562630745318,-0.03141809398608905,0.0756808191966373,-0.05566677159568689,0.0,0.0,0.0,nm,0.0
61.23872800000001,-3.096913435709536,-5.848761287096124,114.57753609974537,-0.004742606483659882,0.12886941707842908,-0.04678279317738441,0.0,0.0,0.0,nm,0.0
61.25774100000001,-3.6347400410652226,-6.011616289757926,114.32668807573565,0.01703257849495096,0.1686937838663322,-0.023770108856671922,0.0,0.0,0.0,nm,0.0
61.26725999999999,-4.02255531294255,-6.1093886228254215,114.21602889586696,0.04112674729662855,0.17552971842286222,-0.0042410262566383635,0.0,0.0,0.0,nm,0.0
61.30521999999999,-6.334528304947177,-6.3180936144167585,113.92080954069223,0.05168636828548312,-0.1745128828893942,0.19312374567882876,0.07526491399377107,-0.1328812971470569,-0.002618711510107476,nm,0.0
61.314739,-7.046129622041186,-6.064682353258835,113.92491421708822,-0.012084917866889049,-0.24646739290460068,-0.1844759920807801,0.01932879501123646,-0.13899657936388032,0.011098036959581968,nm,0.0
61.32422700000001,-7.747467748471861,-5.615071349857965,113.9325816326381,-0.10218487477385643,-0.10279987616214267,-0.4785282081693681,-0.01736650711201196,-0.15310915580345508,0.018696481406603092,nm,0.0
61.333775,-8.350216021503515,-5.2233978196508515,113.95991482206956,-0.2109184527680755,0.005582850528449836,-0.1408894317513693,-0.014534838684758246,-0.1305591417132578,0.018533164548593172,nm,0.0
61.352754000000004,-8.874692383745696,-5.693394174812303,113.59277885315477,-0.31805788986812006,0.13877211633373748,0.5278184848187872,0.10671581341079496,0.0234442256806419,-0.0019662222822486295,nm,0.0
61.36228199999999,-8.830547148986318,-6.432470712901453,113.24605208887363,-0.27492844454692894,-0.008979251288342996,0.8351948431131765,0.1411716530813235,0.07754241841934364,-0.010498665295916533,nm,0.0
61.381305,-8.450576101363373,-8.136499002401582,112.55569576898804,0.004893303678546138,-0.4813643636679293,0.3586661955074072,0.15529397353533794,0.12113814703314385,0.002231680424370044,nm,0.0
61.39080799999999,-8.217838512013607,-9.137416072003813,112.37639001645263,0.12211618339716691,-0.7805237898129382,0.33595761256375195,0.17664159842345176,0.12977798163599746,0.018472639228780827,nm,0.0
61.40983800000001,-7.67905446401442,-11.00921120266017,112.22948064801236,0.24617013215875222,-1.1512090516525348,0.5033213619151844,0.14477183750282463,0.13004142554612433,0.035327113673687946,nm,0.0
61.419340000000005,-7.2852409876517195,-11.624320781134514,112.13224116570576,0.2654869478368506,-1.111246835932434,0.46717814372834743,0.09376781514713255,0.12900484130244497,0.028550473500689275,nm,0.0
61.428853000000004,-6.740926518739895,-12.023067494894052,111.99379493921347,0.2569501833268305,-0.9012055158358384,0.38472812417309904,0.04277933521808103,0.13985460858023815,0.018320427862003694,nm,0.0
61.43836999999999,-6.020505115411878,-12.218509932754063,111.90288565671119,0.2155970044019497,-0.5765024218638068,0.295318052436533,-0.0077495977945737605,0.15648449903014378,0.009900171410818379,nm,0.0
61.44786500000001,-5.187709948886797,-12.269785144541652,111.76614270265736,0.15796545603869175,-0.23537651766360754,0.18360836567542096,-0.042451005044786785,0.16612747138217382,0.005633069173123366,nm,0.0
61.45739499999999,-4.352628088107703,-12.362650915690878,111.63506814802386,0.100981342122959,0.09456993563321017,0.02113843573514873,-0.03454246476772688,0.16969774288911707,0.006909646981182574,nm,0.0
61.46689900000001,-3.5947340148757463,-12.660202023471312,111.54596943154004,0.04760930428575121,0.3524506581753221,-0.06714677514582652,0.009421007778918522,0.1707296770956031,0.012404866725280886,nm,0.0
61.476427,-2.9595168315828144,-13.177500561817078,111.50839430876515,0.007614447471706503,0.527584818050333,-0.1466155956881274,0.05934887367948272,0.16440915774071707,0.01821667348636897,nm,0.0
61.485926000000006,-2.4503564161396807,-13.85471655367656,111.51361786169426,-0.01640883773444978,0.6504422311236824,-0.2744577541804128,0.09823775242905225,0.15306113551318187,0.02216135542638929,nm,0.0
61.495441,-2.028707522372518,-14.62552445171065,111.53894781471226,-0.04607024741621593,0.7586915237340828,-0.3793798835944498,0.12192374684806993,0.14391999680825893,0.02313919014696449,nm,0.0
61.50496100000001,-1.6729854877687396,-15.408065295782801,111.55036934399934,-0.09152765919858347,0.899964651677507,-0.44368828215119144,0.12880672882310587,0.13273368779707034,0.018072238270368763,nm,0.0
61.51427899999999,-1.3935510658498893,-16.123095554353124,111.5187936516317,-0.1360624301038504,1.0564428295290738,-0.44129466802152667,0.12170771277882333,0.11387756577148403,0.006245400641457007,nm,0.0
61.542799,-1.223308950848867,-18.06208849918309,111.21250399188835,-0.17667049092050968,1.3853718039547815,-0.39046719071459596,0.13528946607951084,0.047710240885233436,-0.0275337678976442,nm,0.0
61.552302999999995,-1.4129553729640307,-18.684301561743574,111.15576837739505,-0.1567706379130198,1.3947685918185537,-0.5033206649003632,0.13752084414085283,0.022698720022091504,-0.025628159979414457,nm,0.0
61.561811000000006,-1.699406159096007,-19.292452083768303,111.1652124099602,-0.12062901939457911,1.2905578660527455,-0.5813098765462235,0.14148652215507906,0.004670561751267709,-0.01893556024600354,nm,0.0
61.57132999999999,-2.109042428431198,-19.934450937503087,111.22221872633597,-0.06641975689527385,1.0783030647278546,-0.5567036079028403,0.15615601955785904,-0.014257889314090449,-0.018119011886418734,nm,0.0
61.58103399999999,-2.6844273586450287,-20.529571951098777,111.27971530465898,-0.0030026678391296253,0.773583578767179,-0.46219053532515125,0.1586478909864186,-0.04625288094436382,-0.03014260544939594,nm,0.0
61.60941399999999,-5.609355715386599,-21.18593327935424,112.42524303387498,0.2594610864893977,-0.6131474153678479,-0.32288488155929873,0.10475476916409614,-0.18857253695188297,-0.11517380726630937,nm,0.0
61.628389999999996,-8.020705746367787,-20.275439827226542,115.19931637993874,0.45270934378881456,-2.1520242850091775,0.8361487778545145,-0.01974140652331447,-0.25133688203743704,-0.10726871869694195,nm,0.0
61.64739900000001,-10.001525574134503,-18.020264639837215,118.60940307453887,0.7087909061820242,-2.390095247742351,0.5658181515331498,-0.14511514326233949,-0.21684173132401632,-0.050479998391092004,nm,0.0
61.65691899999999,-10.330408044921304,-16.548367745700737,120.43487208691641,0.3229089716193968,-2.161798811072384,0.7065080294367646,-0.21495129360773457,-0.1914402978470393,-0.03406537724501544,nm,0.0
61.666425000000004,-10.81496079416438,-15.004619132868129,121.87670003994592,0.22314073812806431,-1.3094043036958714,0.26670466838342777,-0.20583676898289063,-0.23055313671524302,-0.06724533650922349,nm,0.0
61.67593500000001,-10.7972813848213,-14.107415135174097,122.92807463697228,-0.13647921156443293,-0.5605155612731577,0.1341913795217992,-0.1457494969406252,-0.08262883106771854,-0.04802851977955635,nm,0.0
61.68563399999999,-10.512255704770551,-14.236974770857925,123.47108571428515,-0.5480696169852324,0.08112852843453004,0.26920595215113646,-0.002456823702356848,0.07299208097614537,-0.04595401491818797,nm,0.0
61.695133999999996,-10.230464316923161,-15.177697641458275,123.72797884258073,-0.5813894471114964,0.6140104463518516,0.1314958572827992,0.13230125556167746,0.16304693459736674,-0.07132440614041913,nm,0.0
61.71417700000001,-8.935617544827679,-19.189577282394072,123.5170670031455,-0.29018766251374767,0.41481026758419404,-0.11515728543735415,0.32324774935493583,0.3908552717465945,-0.0626945690031,nm,0.0
61.751857,-6.964718605087599,-26.389990106240973,124.28732181000257,0.47556722101182414,-0.22206508054963783,-0.7041726857771511,0.09949049017976216,0.13220480758712658,-0.07211376315109663,nm,0.0
61.77109200000001,-6.9083153124675825,-24.78866846344529,126.61620395143393,-0.185240516183952,0.7338728999581879,-0.4401596526686821,-0.19941946906367702,-0.13822592389614052,-0.048775613862845645,nm,0.0
61.780552,-6.997013287095243,-23.154736008191634,128.01070185612681,-0.7264666932132142,1.2694684950465043,-0.09279732172761394,-0.2424090323578392,-0.20130711022831937,-0.029681915879887125,nm,0.0
61.789883,-7.23238226339253,-21.517561185011576,129.34542862294762,-1.2354198977047737,1.8484703344331952,0.02992733386315329,-0.22098972569634545,-0.22825403209006323,-0.017709187003653357,nm,0.0
61.799397,-7.4655997700029015,-20.204113604948823,130.67989551517707,-1.623842272228699,2.0598251594840336,0.060183458914346906,-0.16657732999543237,-0.19097647313025687,0.004758325731646467,nm,0.0
61.80908600000001,-7.808218015916796,-19.671761881976153,131.8735657605653,-1.6016760357361872,1.8038189454729852,0.02961275581065827,-0.032084803696816364,-0.10565809667375946,0.004625631354790249,nm,0.0
61.81860399999999,-7.916217844590048,-19.73442627285163,132.76474160232223,-1.1869634073286683,1.5059204473011187,-0.1343894198437952,0.0,0.0,0.0,nm,0.0
61.83780999999999,-8.213828012765891,-20.807467602785017,134.92601528396324,-0.146915198322303,-0.036046727087079566,0.1553991683303696,0.15155465893538134,0.047377246231809195,0.04522132722186983,nm,0.0
61.847313000000014,-8.561277206165816,-21.142045083087883,136.60230715455393,0.3686784904430059,-0.5225108557377519,-0.0034993357757084668,0.09657685078609153,0.017374053693817358,0.0914909122718033,nm,0.0
61.885166999999996,-8.29939631351641,-18.73422944927831,145.69530822845027,1.7153303545607723,-2.0386878308061553,1.1498147274783193,-0.20885692447085136,-0.12029598973737529,0.2122134453030771,nm,0.0
61.89467099999999,-7.502938046180077,-17.598543203218103,147.9056996487617,1.737341343030282,-1.817206536210746,0.8726290211531967,-0.2493673341960533,-0.09652568107622747,0.18396798463319833,nm,0.0
61.904189,-6.462357519163094,-16.754446871990677,149.78990164415217,1.440291471038136,-1.3726462351579154,0.8315944926925586,-0.25726597547140173,-0.03095988906577455,0.1326812454599551,nm,0.0
61.91370599999999,-5.336430682713775,-16.182718878748645,151.04735820857135,0.9293911627787991,-0.7969487117112574,0.6425769010677304,-0.24502900992330526,0.01853713017154519,0.05918463981351243,nm,0.0
61.92339799999999,-4.202440728395605,-16.220733287132028,151.82732497317673,0.28142406458509905,-0.08991923303946761,0.13218849746568734,-0.18963510907974973,0.123175496404534,-0.001859916390982837,nm,0.0
61.932905000000005,-2.950576377924708,-17.27508480760163,152.1714786295004,-0.34779589855134746,0.06877963997650431,0.4933606962842572,-0.11586593275934352,0.3123074225393786,-0.022574138392575917,nm,0.0
61.961454,-2.6612903272943003,-24.737033515037343,152.02992897245406,-0.1753302266361142,0.3864775043633557,-0.004854576735723308,0.28488628424060825,0.5403219058636376,-0.05836664021188718,nm,0.0
61.970946,-3.131007704836991,-27.80833073650037,152.34071747621158,0.22338527303336225,0.2231373950686514,-0.4646931332180007,0.35816245565757543,0.5203334306347908,-0.08153976707011248,nm,0.0
61.98028500000001,-3.700745868012817,-30.347398313281047,152.76073053131873,0.4551048326686813,0.20855064635257034,-1.011487913679701,0.3192966749923941,0.4212313009163995,-0.10310681492304992,nm,0.0
61.989799000000005,-4.022075750359586,-31.92916077401354,153.15240216763297,0.508990084279431,0.08060046952527507,-1.296348410500856,0.18995323031481115,0.27257284075848226,-0.11652579822433316,nm,0.0
61.999393,-4.281489327961271,-32.4554196099339,153.48753506656732,0.214892335707007,0.28062227224691566,-1.4235416520025692,0.08458025547852788,0.08933105316966843,-0.16639096083135024,nm,0.0
