timestamp,roll,pitch,yaw,acc_x,acc_y,acc_z,gyro_x,gyro_y,gyro_z,markers,motor_input
70.50187,-13.077095563961446,-20.286554397475694,-165.62783176811,-0.2165462165716476,-0.23592519859718955,-0.2700072294039198,0.052332381316249836,0.021669170821502666,0.007210904553924968,nm,0.0
70.51138,-13.068657075142339,-20.33406638124968,-166.03452896803728,-0.32555508305856107,-0.33321543329396625,-0.1969687860747035,0.0,0.0,0.0,nm,0.0
70.53989899999999,-11.148155857560825,-21.96655023517395,-169.06125717108037,-0.22649222925698861,-0.12953008887274733,-0.1499726683209251,-0.1835558356136182,0.07556492220176513,-0.017693331694339166,nm,0.0
70.54942700000001,-10.180205310005777,-22.39474877985154,-169.90914510113714,0.016688753896920833,0.015475839944711828,-0.08204615673911642,-0.20087420734762,0.06344358488747659,0.012135884516490154,nm,0.0
70.55900299999999,-9.246321766951583,-22.3143147350293,-170.3212889899622,0.23963359470535028,0.14487432927763222,-0.08890604202356847,-0.20986997618538264,0.023401658810233157,0.05256163262488937,nm,0.0
70.56845899999999,-8.170528957499059,-22.32449024400966,-170.17468884829975,0.4578731885885034,0.21776244785511772,-0.008155472609524171,-0.20581700228739547,-0.021055635191376806,0.08698141315913209,nm,0.0
70.577954,-7.216171641821707,-22.122780048087854,-169.99081092389255,0.4914685164059178,0.298819118845544,0.04605072949838587,-0.17646579549110572,-0.05956597385071714,0.0936434249874536,nm,0.0
70.587468,-6.363611942774676,-21.678874718271437,-169.85144065168834,0.4743208992112746,0.3296746517544913,0.178498381114684,-0.14962757022118042,-0.10458723920325612,0.08048686040628682,nm,0.0
70.596972,-5.667457740824363,-21.066256528991055,-169.89810675013604,0.41555129210043595,0.3071199984019225,0.34434934618941976,-0.1155692881317527,-0.1328853537387535,0.04664255296115501,nm,0.0
70.64452499999999,-5.215447376231293,-18.6205293196,-170.79144684338675,0.056870558614691126,0.14332988899561075,0.4197763491484488,0.03888147678289389,-0.027573649002826446,0.03488644655485321,nm,0.0
70.654021,-5.5257571027811245,-18.498555630071216,-170.8278036692156,0.14217529329563489,0.0991911998064272,0.315647796253654,0.052913047637363674,-0.00412854755577357,0.06220287956766699,nm,0.0
70.66352699999999,-5.865958844605907,-18.40732323946709,-170.8103097487359,0.2981744488240288,0.05534938013641809,0.32659957306899146,0.0576138923173701,0.0028470431469999158,0.0739557080751391,nm,0.0
70.67303799999999,-6.214331188524828,-18.372587589109038,-170.93143706773228,0.3342222106381867,0.011608043814381486,0.28862402808919047,0.0574610917564814,0.014194353015645854,0.06599301085625565,nm,0.0
70.68256199999999,-6.5751302859572585,-18.406526136712625,-171.18025508666346,0.27111280568799334,-0.027923983521067175,0.1598688427809571,0.05780679336797214,0.027980350566278036,0.04446047459597288,nm,0.0
70.69206700000001,-6.9085110319491445,-18.509021444388157,-171.45349677207142,0.2194721674416048,-0.0767603962612814,0.15365758416901773,0.05075058128543772,0.040603854695576105,0.02440683283282228,nm,0.0
70.73012700000001,-8.316740176510953,-19.217261767885258,-172.76988291143604,-0.09597141784792743,-0.14769553435708482,0.01885363696800262,0.04549934671302191,0.05388586078676178,0.047754525848236584,nm,0.0
70.749213,-8.446819616576036,-19.772104360419103,-173.41767063294452,-0.04938611952042854,-0.14100135119356386,-0.06429958709443588,0.0007398188285117973,0.0660459659612486,0.0707614141567119,nm,0.0
70.75867600000001,-8.374623491655628,-20.035404782890144,-173.8856174198137,-0.02550487347522273,-0.09809589511079414,-0.0981937595280999,-0.02734636074410834,0.06250076472207104,0.05996835926854832,nm,0.0
70.768178,-8.112620435100839,-20.25827712932928,-174.39244314468158,0.05620090185899868,-0.04004917869535813,-0.12914827099971662,-0.061595425557963907,0.05119049704624418,0.04062356852650011,nm,0.0
70.777705,-7.690346762050465,-20.445814768522315,-174.98259467004956,0.07774366272130832,0.02051172212735576,-0.1372951096599613,-0.09043969815837204,0.042033018010198604,0.019160467837717618,nm,0.0
70.787195,-7.132060202128476,-20.574875752148756,-175.7262173357083,0.055844489519628976,0.14672280463716833,-0.13738210498272052,-0.11442264950651478,0.029484522184838755,0.007062755931259332,nm,0.0
70.79677000000001,-6.758550579951191,-20.55661613628089,-176.33986674287775,0.03038779369389891,0.23099349867488314,-0.10098053140724671,-0.13350236903549048,0.010880587651106485,0.010458717652104346,nm,0.0
70.80627999999999,-6.4788382051293265,-20.53028268967132,-176.7357459137798,-0.02883009749723222,0.32737427667628205,-0.10884221590677254,-0.13820259743604824,-0.0034602040566818295,0.02536215997644426,nm,0.0
70.815785,-6.257823151092184,-20.523750451755973,-176.983812065217,-0.07751067986914763,0.3956516720308104,-0.07604085597375292,-0.13892038079974262,-0.009430735076990245,0.04915359526788445,nm,0.0
70.83480700000001,-6.072523063655859,-20.58156580332911,-177.0473063925738,-0.11326156554264784,0.4668721978381188,-0.057372418715356165,-0.12044151050676653,-0.005419256686530523,0.07498695632035969,nm,0.0
70.853847,-6.29362497819457,-20.662816143863495,-177.1700394412764,-0.031025177843698577,0.48572061855459636,-0.01857813977763959,-0.07007258247878494,0.014523534319132928,0.02738169096921549,nm,0.0
70.863291,-6.134694730706365,-20.737719747679613,-177.5697953037489,0.048629579510078715,0.47637733495425416,0.028419143346383433,0.0,0.0,0.0,nm,0.0
70.88228699999999,-6.733485392221666,-20.865577755262787,-178.53930391808868,0.16806658874995906,0.34993930597603207,0.15867576409869144,0.08261017411770005,0.01997674031484396,-0.07564584873452447,nm,0.0
70.891795,-7.591648444915541,-20.727038747376533,-178.92157124085261,0.20861049222086225,0.1659498289320124,0.2307996922403705,0.15381282547677777,-0.012392912671197139,-0.09075034713115308,nm,0.0
70.91080600000001,-10.870633024661847,-19.910346884388108,-179.28562535409756,0.11874350854815284,-0.41643008945702226,0.39380136187210624,0.35820662100925715,-0.08233752079153484,-0.1250118495491315,nm,0.0
70.920321,-13.557129626330644,-19.217679945862333,-179.36449271184455,-0.0190514220010931,-0.9161946124875985,0.635092863186723,0.5014862452459369,-0.12098888987800621,-0.1620883695482754,nm,0.0
70.948857,-25.379402552018806,-16.89237392953329,179.98521806420814,-0.6657835140355861,-2.3283417059340668,0.5310486246236935,0.8251718692915172,-0.11833810060245017,-0.28404021410152397,nm,0.0
70.95817199999999,-30.147829066231857,-16.495645702907098,179.18659760177863,-0.9636854393671546,-2.048008194154563,-0.1600145457552564,0.908237581223987,-0.0766559182142898,-0.34788103211105553,nm,0.0
70.967692,-34.245097975105686,-16.614080196598604,178.0376603878868,-1.0730846140466608,-2.016773533355796,-0.5807966618795826,0.7818574816119935,0.012933097836833255,-0.3336567912791794,nm,0.0
70.97721000000001,-37.617884982643744,-17.306553858552668,176.39026845461586,-1.0815835909761087,-2.0335796318700803,-0.821064553155482,0.6485580057094728,0.11399166636847652,-0.3243060037033475,nm,0.0
70.98652899999999,-40.21465901710344,-18.40884162084939,174.151997656752,-1.0100538094741343,-1.4295463451603223,-1.1360443400206477,0.510020604050349,0.18541017021012796,-0.322429704617482,nm,0.0
70.996038,-41.3560676805868,-19.7259602281252,171.55083481151826,-0.7864550910733301,-1.1648787643087508,-1.2226593693806316,0.24783565845444708,0.24364817240936382,-0.247067149213395,nm,0.0
71.00556599999999,-41.264033350329186,-21.072302008892038,168.68852343229608,-0.4959910225753751,-0.9385760281380051,-1.190120525885234,0.032022903415852,0.28065658461834375,-0.1480828213788807,nm,0.0
71.03416899999999,-31.53462029370503,-22.02654500428155,161.53525747629166,0.38202168222734867,0.34345974549439895,-0.8879919650972061,-0.9788122125726727,0.23646684127337764,0.2383811113592385,nm,0.0
71.043858,-23.874405080636798,-21.100522631338922,160.81879997807349,0.690055641045145,-0.3005649934504998,-0.15118402691334237,-1.4113112355154849,0.2989021999033241,0.4231012093987845,nm,0.0
71.053371,-15.338652739414695,-20.18712189210739,157.68735176836933,0.9629354601743464,-0.1615143450128149,0.8400466270295708,-1.552402903440405,0.44490271574919393,0.49137712336075456,nm,0.0
71.06286600000001,-6.406419059377145,-19.305942534114553,154.93636365937104,1.2167636864761717,0.8904902914193791,1.0848176169139403,-1.6030961982905911,0.5612294502200352,0.5103095480933634,nm,0.0
71.072306,3.4800413241800525,-18.326068908272898,153.08346990198186,1.4287729439187415,1.5186126026337903,1.7707874127475474,-1.7624349504406895,0.6846054553951229,0.5977734289777804,nm,0.0
71.08200099999999,13.206703849050093,-17.266722214882606,152.7468246276903,1.6051933537386325,2.194866196755662,1.8427090982712955,-1.7465596282264666,0.6786606754312812,0.6502804845098539,nm,0.0
71.10082499999999,28.675975805128573,-16.5828637120216,154.93517499182488,1.2884659667102594,2.78562716800521,0.39682387720194995,-1.2124806327265685,0.5928200372846181,0.6590002459694927,nm,0.0
71.110357,33.38988483985754,-17.301118299186772,156.52842302731423,1.4913159062200794,2.7618186215050473,0.1536652883849084,-0.7698139446476062,0.512376595833672,0.5857154439739541,nm,0.0
71.11985899999999,35.421061458912085,-18.49236689591284,158.11246499259718,1.513485181559648,2.4814744159248727,-0.4023843271137795,-0.2714762000459855,0.37907933314652026,0.4338975607974095,nm,0.0
71.14858000000001,28.887661491274585,-19.74802759182645,162.14824145911348,1.2651221409424565,0.788360451657732,0.0042139822596382395,0.6988001113560895,-0.2893054705609484,-0.06372623428535679,nm,0.0
71.15809999999999,23.15296933284748,-18.80052836205411,162.85781264691857,0.7270183461640686,0.1901424776339695,0.6692093283260631,0.9708355734601177,-0.495600848368185,-0.24369004172639036,nm,0.0
71.17710500000001,5.763716260805819,-16.24358678652452,163.52038796138987,-0.8739985765180637,-1.0874780426175645,1.542709696286347,1.7014703155018958,-0.7553068366487726,-0.5161519612762331,nm,0.0
71.186609,-4.7973386354864935,-15.22922019034972,163.7852154595137,-1.6433234615443628,-2.3278693898521996,2.496712332288386,1.8927229806899108,-0.7536695302057027,-0.5227703068004405,nm,0.0
71.19611900000001,-16.47526772420533,-14.185515170224352,163.82055123680183,-2.6858910735901884,-4.022905262794181,2.4883026478486188,2.111241970048365,-0.8170058419531314,-0.5863997490392572,nm,0.0
71.20544899999999,-29.132007052633057,-13.399833894303677,163.05120032735167,-3.1935436134654145,-4.304895272621699,0.6310231217517674,2.3127703078009234,-0.8381967783939108,-0.7547734845635561,nm,0.0
71.214959,-40.88015165338405,-13.797478942311942,161.52008343146497,-2.912956220777257,-3.544147892217455,-0.9518444476321551,2.201386476957398,-0.6071640479449896,-0.8532297030271458,nm,0.0
71.22446400000001,-50.93008394480553,-15.641462073543751,159.78678874902886,-2.3643527665943305,-2.8528007466327407,-1.8267299390623795,1.9584241748537488,-0.2853435744147413,-0.849983396350283,nm,0.0
71.234069,-59.38383102341655,-18.48187678717757,158.47443316581897,-1.5915247854536447,-1.8349167151446546,-2.415188006305464,1.7149932932322471,-0.03527166180836021,-0.7497643527881495,nm,0.0
71.24339,-65.66553219714719,-21.551574257707863,157.85357596907366,-0.777503141539617,-0.7151276722252748,-2.506267162274804,1.3265557898240112,0.14001876902413918,-0.5444088496364856,nm,0.0
71.262415,-69.33441057646394,-25.19575865801102,156.4073981698468,-0.010709211045096175,-0.043284921532991114,-2.428538100759877,0.18520679847902433,0.2034023129843275,-0.22820275565427567,nm,0.0
71.281509,-62.40497430647309,-24.70130341361317,152.65397724815838,0.6387117134236829,1.7648748095910143,-2.187894179110421,-0.8534861968055684,0.29453434965017883,0.021009763112386354,nm,0.0
71.30063799999999,-44.01142202508135,-22.721773512061425,149.01266808650936,-0.646147781407984,-0.46411102746111915,0.11877436620587925,-1.7597924281661836,0.7952690594703085,0.48899903036592535,nm,0.0
71.31014200000001,-32.868166922118654,-22.04107927333276,147.95334279031988,-0.6106067943120104,-0.15418789430610935,1.3702570592705843,-1.827413795361072,0.9758964018999857,0.6426399047376019,nm,0.0
71.31965199999999,-21.276809959524158,-21.576921971839635,147.70544118140785,-0.06785926328942443,1.1790317738743459,1.733210961021983,-1.8717209390432687,1.0829151661512022,0.8149177689968153,nm,0.0
71.32915399999999,-8.378337187029304,-20.88066454974168,148.5236246750724,0.7668757864717055,1.1672953443703231,2.565513822596991,-2.1175039282516726,1.168184361022064,1.0977946474486195,nm,0.0
71.338674,4.471639794047025,-20.475191310798838,150.47066646770529,1.7440100887187509,1.2682971242099392,2.161224231951624,-2.117272885186236,1.1663812097055595,1.2937885551327521,nm,0.0
71.348104,16.14592862432484,-21.226707996505873,152.9218993543959,2.3050156244111832,1.5274242810742706,1.3602074961459274,-1.856377393388476,1.1810923064813703,1.316232084569025,nm,0.0
71.367119,33.23542908921382,-23.77548821754053,157.09973268103548,2.8231211405983085,1.9442534408156602,-0.18358153421620854,-1.1416801114351287,0.7468973309964076,0.9487300474232049,nm,0.0
71.37664000000001,37.99758242448784,-23.84949803341199,158.68214531428643,2.4654958175987822,1.8724678384143114,-0.7124587520319305,-0.8101399415990518,0.3516353905181887,0.6941020685092505,nm,0.0
71.386167,39.762912387052246,-22.797577243474453,159.97650761903483,1.6199374822680395,1.6784705438837597,-0.9717580060534069,-0.3857114046591926,-0.07347517695058318,0.39112829157639384,nm,0.0
71.39563799999999,38.50085074396986,-20.81691252581059,161.10642837652148,0.6390855510752421,1.3940307841363193,-1.024811875678037,0.08170777578745823,-0.44313194187436544,0.12411273333559204,nm,0.0
71.40532300000001,34.758066447996676,-18.404488418687276,162.10074385339908,0.09900399837243477,1.3239917361304492,0.028456329617925796,0.5106627699949053,-0.6716441169651073,-0.06078308388038444,nm,0.0
71.41483400000001,28.455552056075717,-16.104397738164618,162.8708030259882,-0.5782690229028297,0.6776371798856845,0.8894673076536823,1.0048042481863406,-0.7912758010437516,-0.22812856589875036,nm,0.0
71.43387899999999,8.536059819726937,-12.82666363006319,163.60065225418938,-1.724885027955628,-1.0332641654708734,2.452494764934132,1.971402871485833,-0.8709696482277122,-0.47694276593202195,nm,0.0
71.44339400000001,-3.2036815322518546,-11.811022855120592,163.38675043228812,-2.253244976052887,-2.2317099129249383,2.5294771142325674,2.1411467652540117,-0.8333790988891612,-0.5470634914838819,nm,0.0
71.4529,-15.414134791526797,-11.412935921056084,162.53029496243286,-2.680271700154761,-4.071286719230248,2.056811434387428,2.264275653464399,-0.7639096557295413,-0.6632803009675143,nm,0.0
71.46223499999999,-28.32176343865768,-12.294617462098577,160.92494923300077,-2.632578277413481,-3.7623246786642053,0.011203920284456706,2.455988127728115,-0.6124036476509133,-0.8484164463102554,nm,0.0
71.471745,-39.26861654011312,-14.414022905882513,158.93252988448634,-2.0135005348120694,-2.898556936349421,-1.363078279651929,2.1483628503446766,-0.32141888291230114,-0.898909826422687,nm,0.0
71.481245,-48.33311935025607,-17.562171982419958,157.26403877717286,-1.5287065760266627,-2.650162527199375,-2.1208810342831783,1.8543837128355027,-0.05504375130991456,-0.8261677543882217,nm,0.0
71.490847,-55.94606059230349,-21.16399093646445,156.38699322394407,-0.5337296440358974,-0.9694479840308494,-2.526133543275548,1.606958724082985,0.10710930128832276,-0.6720536713215086,nm,0.0
