timestamp,roll,pitch,yaw,acc_x,acc_y,acc_z,gyro_x,gyro_y,gyro_z,markers,motor_input
54.514791,-1.893174614991404,-8.334019881815104,128.16748040179556,0.0016613183290139673,-0.003511219478295297,0.02585270449601434,0.0,0.0,0.0,nm,0.0
54.524315,-1.8823727089411613,-8.197466667071655,127.95101762218025,0.0031290801367776003,-0.00671914327409947,0.0501373324001366,0.0,0.0,0.0,nm,0.0
54.53381200000001,-1.925291772312431,-8.081357603150629,127.67553536446505,0.005404525361967712,-0.012010214521086368,0.09021174238309235,0.0,0.0,0.0,nm,0.0
54.54327699999999,-2.0369980930995712,-8.025861111291599,127.38723044819888,-0.01608891228750813,0.015420337475873224,0.10021856523133985,0.0,0.0,0.0,nm,0.0
54.55278799999999,-2.226343210323416,-8.004231262581662,127.13782463248877,-0.03564135910334685,0.04088148754209841,0.1045285946754097,0.0,0.0,0.0,nm,0.0
54.562353,-2.4253104391213967,-8.064588805832145,126.94934963526968,-0.07593023861885392,0.023320777938963092,0.05763118305556736,0.0,0.0,0.0,nm,0.0
54.57185799999999,-2.6077603524563777,-8.155746609288439,126.81049024135395,-0.09458945083514153,0.0020692184249608927,0.004932392223550153,0.04175387396679071,-0.025652154331897645,-0.013646991597195037,nm,0.0
54.58137500000001,-2.732911478398955,-8.26549644948884,126.46691658603194,-0.0999498129350387,-0.03674349301118005,-0.0005932746550590974,0.04632965412106734,-0.015953003918489684,-0.012206730126104957,nm,0.0
54.590884999999986,-2.8058197459776166,-8.371003772889262,126.06093986203135,-0.08683959888163419,-0.062290659430815964,-0.005181772876140716,0.0,0.0,0.0,nm,0.0
54.600393,-2.811985862948388,-8.459671069681113,125.82589754591447,-0.054619269625645575,-0.08730636223603187,0.0171824061879144,0.0,0.0,0.0,nm,0.0
54.61942500000001,-2.6688345566130733,-8.611417266532344,125.29343023929401,-0.02586620213799729,-0.03035815819423814,0.06493600820594508,0.0,0.0,0.0,nm,0.0
54.628928,-2.596978768622083,-8.674046188123002,125.03108054011844,0.0025023337062753483,-0.007569697518923927,0.050045038389248314,0.0,0.0,0.0,nm,0.0
54.63843600000001,-2.512535059551489,-8.74509887294777,124.87328987072458,0.021888489687652328,0.06907139498544611,0.0753675094610606,0.0,0.0,0.0,nm,0.0
54.647951000000006,-2.4740945993901104,-8.820677308557183,124.7813783075453,0.047027345495981455,0.12654744092541306,0.08302262896403317,0.0,0.0,0.0,nm,0.0
54.65740099999999,-2.3273949799233353,-8.807704463581143,124.69211156270656,0.06739046286073949,0.14127058084785127,0.09926827297121556,0.0,0.0,0.0,nm,0.0
54.666912999999994,-2.263421059026965,-8.83449244862499,124.59737398371873,0.09489964738488432,0.12846106356295042,0.1357939748680399,0.0,0.0,0.0,nm,0.0
54.67648199999999,-2.5026202277799814,-8.95276864789281,124.50073426564992,0.12325398219492936,0.13530303983232017,0.077363725080932,0.0,0.0,0.0,nm,0.0
54.68593200000001,-2.6472579502444713,-9.030347051027164,124.30821185457837,0.1322803167821129,0.06388776887987821,0.13708551927517926,0.0,0.0,0.0,nm,0.0
54.70494400000001,-3.4569876248829154,-9.205594875868995,123.87035704748128,0.1380189974671699,-0.04054597030239187,0.10776125949576006,0.07418585375206295,-0.05670310900676955,-0.05400625323499893,nm,0.0
54.714433000000014,-4.023562985155393,-9.212861212602323,123.74830001146553,0.04628187183146975,-0.08965592635554726,0.14684911739834736,0.06966401227298856,-0.07978491875332996,-0.04556473050339398,nm,0.0
54.723971000000006,-4.717727602512396,-9.095557056984465,123.7207120659131,-0.004974714131749679,-0.11003354457593058,0.1315618059900272,0.06287872986069022,-0.11471102411871086,-0.030479201622858734,nm,0.0
54.733469000000014,-5.444423829524043,-8.912735282037659,123.80275942534502,-0.09679794102356795,-0.08078626678658969,0.08466728551590604,0.055680641094629245,-0.1273627018099836,-0.0090608827631635,nm,0.0
54.74299099999999,-6.1103073451610275,-8.677859945345903,123.85340793684485,-0.17581130815227367,-0.08541253125072741,0.030966426576289452,0.04043230798225513,-0.1232120435529356,0.010898904649472156,nm,0.0
54.752555,-6.436527337975059,-8.445216660478994,123.75489643075515,-0.19883907881550303,-0.09629493201999292,-0.020440218164569562,0.024547426355760953,-0.11227852908676883,0.020262153303151943,nm,0.0
54.77152699999999,-6.877541276097395,-8.074772429504923,123.39573634527946,-0.12466885043518909,-0.09414041637125292,-0.12206086334074039,0.0,0.0,0.0,nm,0.0
54.78109699999999,-6.731172681049997,-7.921874254713724,122.92575685323165,-0.10297086521994955,-0.08843329995687457,-0.058072290693080494,0.0,0.0,0.0,nm,0.0
54.79060899999999,-6.565961111427795,-7.758350485923441,122.38551846698283,-0.05982398511396002,-0.0366534573246001,-0.00800063207762956,0.0,0.0,0.0,nm,0.0
54.80963299999999,-6.286123569052991,-7.585059875332361,121.31301547900402,0.015344344884827813,0.038021909718647454,0.08020404806984735,-0.03438022042316113,0.03995328585285953,-0.009987917865463576,nm,0.0
54.82864699999999,-6.480588536822697,-7.356087242147846,120.61189440512948,0.14620835119214765,0.08806800812049294,-0.010397504476723577,0.0,0.0,0.0,nm,0.0
54.84765300000001,-6.899770719475659,-6.999023966452538,119.9373852579475,0.13562310859438412,0.0278171424169812,-0.01640553038305142,0.0,0.0,0.0,nm,0.0
54.85718399999999,-7.237144748111809,-6.836825997646491,119.04993160038568,0.12237456636783096,0.023297293300811133,-0.04102577799238852,0.0,0.0,0.0,nm,0.0
54.866693999999995,-7.505756604235599,-6.719353512639584,118.4250000923565,0.04853711514015073,0.025311836750685157,0.00716194958324491,0.0,0.0,0.0,nm,0.0
54.876202000000006,-7.838259656539558,-6.706230619258702,118.03716912227554,0.05268886413486046,0.03519670524338504,-0.0535792515953814,0.0,0.0,0.0,nm,0.0
54.90473299999999,-8.420305840130778,-7.320411950992045,116.87927873622156,-0.05538299340212317,0.1398571479147423,-0.0749640731249762,0.05658408158811019,-0.017152558916581486,-0.0017282952349446897,nm,0.0
54.923756999999995,-8.488353674288957,-7.821741530921682,116.34279877392011,-0.07114627658094197,0.02218951211533404,-0.06946703043873109,0.04894349079838699,0.024589054829811857,0.03684882873467461,nm,0.0
54.93325899999999,-8.40790238276028,-7.995913834931451,116.08914994915075,-0.026880288664775445,-0.008290411135546856,-0.03114879304204474,0.038756055845715155,0.03708170516110972,0.04228153092796494,nm,0.0
54.95226600000001,-7.941961657313196,-7.896673746223229,115.41788233606809,0.07152356274901897,-0.13122063055390182,-0.08060234795856154,0.0011425647563421128,0.06304290380257219,0.024552269077450575,nm,0.0
54.96179900000001,-7.733933647751277,-7.763085771604894,114.954167673736,0.11041380497897405,-0.11093779253958179,-0.012756528942947673,-0.008448940940731233,0.061664387203624466,0.008588091272424173,nm,0.0
54.971306,-7.550791992242013,-7.547551010355782,114.50887955834837,0.11857946661420572,-0.07405615008505315,-0.0051265617425353,-0.02930416406090251,0.05224299299281923,-0.0031974014485768422,nm,0.0
54.98082099999999,-7.4642505658420975,-7.308106157053004,114.21029544364309,0.122813125488546,-0.01263995112262178,0.052170460726153764,-0.03971068703076229,0.03300844772028375,-0.006665059652054927,nm,0.0
54.99032600000001,-7.472692562415863,-7.121200352790064,113.60441158161402,0.11186096979658089,0.04283557821326538,0.04434172790093551,0.0,0.0,0.0,nm,0.0
54.99982700000001,-7.557933882011439,-6.989807977389092,113.1169988010839,0.0626958524715456,0.11167556343162341,0.08525189883022488,0.0,0.0,0.0,nm,0.0
55.00933599999999,-7.718279634658197,-6.858812016625671,113.08027563727487,0.03567976969706001,0.11227836364295568,0.09013936182050707,0.0,0.0,0.0,nm,0.0
55.01886400000001,-7.9178082412134465,-6.796509262419821,113.11614422739646,0.005772518577551115,0.09100563205005749,0.04851215805203012,0.0,0.0,0.0,nm,0.0
55.028367,-8.136280439405484,-6.843000338880767,113.06098485919121,-0.03260955035903392,0.06312475103863004,0.04567836344910905,0.0,0.0,0.0,nm,0.0
55.03788399999999,-8.356088548908954,-6.921623143101335,112.84177803162954,-0.012509170291298713,0.029697505260959454,0.003911938204441953,0.0,0.0,0.0,nm,0.0
55.04738800000001,-8.532199048502797,-6.977894684123149,112.56664588275413,-0.0295964426717054,-0.04550033499709807,-0.01052241658634278,0.042405280351958584,-0.02350118582500508,-0.014343817799315236,nm,0.0
55.056895999999995,-8.647792628013093,-7.0178973341524715,112.19199284350162,-0.014659807118819031,-0.09542695291871249,-0.017798661731572067,0.046235581258329064,-0.010406716323752813,-0.025213176295347348,nm,0.0
55.066415000000006,-8.67941572575549,-7.001095941668271,111.67928115662045,0.0005744860566897988,-0.12023691213313589,-0.020496433593297246,0.0,0.0,0.0,nm,0.0
55.085432999999995,-8.531563288915308,-6.64705994069699,110.6110075281887,0.0366724315820151,-0.10977137264334375,0.015492579012209884,0.0,0.0,0.0,nm,0.0
55.094954,-8.419485844899599,-6.410763434062859,110.27677989734705,0.04597745504714785,-0.0523527989359365,0.026739139660823585,0.0,0.0,0.0,nm,0.0
55.104456,-8.303453709658488,-6.19538673721362,109.99875641925212,0.05503314403171123,0.015778232849904365,0.03679773283418046,-0.043643375395675324,0.028829044034489288,0.006759497149801333,nm,0.0
55.11396500000001,-8.225824488970135,-6.014349080024643,109.74339706794214,0.07407448261632912,0.0772582943363602,0.018953295778310293,-0.04722935627958065,0.029158785787770227,0.010236002213876971,nm,0.0
55.12347500000001,-8.180646792127764,-5.908512990047531,109.49528560281286,0.10482175503058754,0.11196897088540239,0.02698442418817251,-0.036865637533840305,0.033663555205921056,0.00805979206983874,nm,0.0
55.14248599999999,-8.152840914607287,-5.847702570668157,109.08221486049186,0.14108082611839318,0.11151438319386497,0.0664954444903095,0.0,0.0,0.0,nm,0.0
55.16145700000001,-8.21418199863424,-5.898026901927162,108.59068677491611,0.15679716716336467,0.07631089180813011,0.1275769326867771,0.0,0.0,0.0,nm,0.0
55.17096799999999,-8.331109400883205,-5.961191375131395,108.34665138887887,0.15985313078873967,0.03894726150588695,0.12783709381748182,0.0,0.0,0.0,nm,0.0
55.18049199999999,-8.561194745334166,-6.043486253289023,108.06006743702777,0.14118775795087335,0.03607669191809576,0.0894564167808079,0.039554818796908336,-0.028258067082128618,-0.03662786244015595,nm,0.0
55.190055,-8.955860165315205,-6.153541282567989,107.80428121267029,0.0954850043608618,0.020598428591676245,0.08889546360545378,0.04823631784614565,-0.039252207591630214,-0.03361385468090415,nm,0.0
55.199557,-9.340224265172433,-6.258033195512788,107.58638817306031,0.06099615777938771,0.011723271217114282,0.06615223098892878,0.050505959528911334,-0.04377049093065028,-0.034021081092755805,nm,0.0
55.20906600000001,-9.63216430572995,-6.334323271113451,107.33248754422176,0.021538158051312116,0.0007617871109279629,0.05125215853500315,0.04521867899928402,-0.0351593524162565,-0.03879727681889334,nm,0.0
55.218581,-9.81917065163991,-6.3661824667815505,107.02396979185644,0.008213789797265189,-0.049794205602642874,0.033513581414660015,0.03725316620752064,-0.020604958835024324,-0.048873225125717235,nm,0.0
55.228094,-9.85601202707461,-6.3462644432789626,106.63807201950927,-0.012160659793994454,-0.10726528405592252,0.08468589085395489,0.030158047273413008,-0.0007962244738289532,-0.061343117421044605,nm,0.0
55.23761099999999,-9.874611780457467,-6.291938416150248,106.155960653717,0.023302889600628644,-0.12580969473797157,0.058924525650883276,0.028103070439270784,0.0039411779337759165,-0.07525331142719692,nm,0.0
55.275581999999986,-9.143517145102333,-5.709833057694432,104.22856837104909,0.10413244524782443,0.015900852367313527,0.10183093802637515,-0.030362629133471895,0.061983640508614414,-0.06891249731263688,nm,0.0
55.29460900000001,-8.610573831938996,-5.446872789985113,103.75093320614697,0.15372354837144592,0.08031378954970496,0.09183061069673226,-0.02248598127935941,0.04970285798160337,-0.03742653122746684,nm,0.0
55.30408600000001,-8.36536550346551,-5.371791425975518,103.69960381868177,0.15271975478327554,0.06818081584337292,0.1396052858335451,-0.01586256498674835,0.05326906145011353,-0.025355731049266007,nm,0.0
55.313593999999995,-8.163997116955779,-5.282773523112023,103.76915993526099,0.16610889165993187,0.026289071809686187,0.15143309284152043,-0.01655290334146883,0.04410329922557568,-0.022566584749195838,nm,0.0
55.32319100000001,-8.225618924922763,-5.149966013489867,103.86297368126122,0.23059802231680965,0.05662600046635662,0.003049849422075685,-0.02091508716928249,0.042304741209703976,-0.02151664226706743,nm,0.0
55.34221400000001,-8.045377372641731,-5.0010098472154505,104.0648221563683,0.18973441631285173,0.012510853429390413,0.05707597938444352,0.002272810337085592,0.0628514432262725,-0.011818382458769412,nm,0.0
55.35166699999999,-7.832545877891084,-5.000655847218294,104.2281514516259,0.16691423799549,0.032463370562039746,0.10922544949656145,-0.0002510714611644035,0.05058529699145759,-0.0032008979344033558,nm,0.0
55.36124100000001,-7.845939167073088,-4.993415574449496,104.55209689372207,0.15973010087664768,0.035198556517415984,0.06940879378531842,0.0,0.0,0.0,nm,0.0
55.38019299999999,-7.578741447318493,-5.362247716280193,105.67658662411264,0.08976419692160352,0.08683663669430265,0.13255705557120334,0.03996425511011477,0.07093679417659265,0.05319439168161795,nm,0.0
55.389713,-7.358890765533716,-5.590561259768646,106.30601899092957,0.10618505636947764,0.09911188239817592,0.09089876024836539,0.04159224929341196,0.06466022957047934,0.06106023458958701,nm,0.0
55.39927499999999,-7.244072591369983,-5.960439641262738,106.83542058414898,0.11029253526302195,0.08592624642604989,0.02192362534287178,0.056558697651696646,0.07596073637209592,0.06867883545308884,nm,0.0
55.408792000000005,-7.094276756316803,-6.49580258279822,107.45397226450214,0.09468688286037905,0.07616540519714082,0.08210739959882056,0.08751662383743432,0.08970176000730826,0.0749030387270817,nm,0.0
55.41829200000001,-6.968638597195016,-7.039697819676829,108.3019632322233,0.12207219105811888,0.028960765600583666,0.087765190556647,0.09782574525013878,0.09216624892192261,0.07827597214762808,nm,0.0
55.427809999999994,-6.811856600835606,-7.429573666905878,109.22334916036804,0.1258654703563772,-0.07271758024075471,0.07631383656973072,0.08778880486814195,0.0912072091665088,0.0815500693748037,nm,0.0
55.43732299999999,-6.7183647337246555,-7.67165539052555,110.18320934587868,0.12926935845185608,-0.1756800385730935,0.07623397131130406,0.08404014335857803,0.07106758002140406,0.08234430091879123,nm,0.0
55.446833,-6.720075832812955,-7.743566318903201,111.1643007662749,0.11798530115616383,-0.23263468024812048,0.048369521605264365,0.07076076676919829,0.04027519318693134,0.08174603362635074,nm,0.0
55.45629500000001,-6.828859592944534,-7.858976756752851,112.17321526783013,0.016884044860027075,-0.2939350535497993,0.06512210549298846,0.038248861998495975,-0.00046898152483540234,0.0775212443594993,nm,0.0
55.475288000000006,-7.893668635739554,-7.389669017522266,113.53306200178365,-0.31517354279564075,-0.20363446774958452,0.07427805149016808,-0.0001327666046088555,-0.13920613803819923,0.046195077058160866,nm,0.0
55.48478399999999,-9.078531042348855,-6.916957515569045,113.77295934043292,-0.6655068721278247,-0.19449207663732024,0.37084898251165044,0.016336818712500815,-0.24251247311135102,0.016302471850866352,nm,0.0
