timestamp,roll,pitch,yaw,acc_x,acc_y,acc_z,gyro_x,gyro_y,gyro_z,markers,motor_input
68.000416,-6.376963817891343,-18.4332161812576,-146.25891387877684,-4.612951242839729,-3.3933630365095095,0.6359987237032746,0.16160964085812773,-0.055668561173211256,-0.12187563743008027,nm,0.0
68.009931,-6.306684945908281,-19.83696867008122,-147.40709291822324,-3.2508947701578985,-2.395829689395329,1.304071607566013,-0.17624553943112753,0.23533973226879318,-0.09593716225808525,nm,0.0
68.019611,-6.620790295685814,-22.375218509163588,-148.22103601501917,-2.2386612978474254,-1.2076368200286718,0.9391350401908095,-0.2305913961938681,0.4694441762035003,-0.03450505126725131,nm,0.0
68.029131,-6.371529546945312,-24.933671982597,-148.44645353742249,-0.6808419149931721,-0.40388438874321836,0.5066626519013011,-0.31823184515784,0.42027870829979785,0.09834115960387511,nm,0.0
68.038637,-6.4094711408913865,-27.556620213985386,-148.04395210085045,0.3814322323475621,-0.022384761944067553,0.7344672154477511,-0.2816950937627238,0.45764185495206244,0.15821012646650542,nm,0.0
68.04813999999999,-6.987925740584802,-29.672930791616803,-147.21978013982098,0.9574440448187375,0.645805892412794,-0.3192112331729898,-0.15316518683139613,0.4189249826643765,0.1397747754301557,nm,0.0
68.06699,-7.944847192380054,-32.12860228554292,-145.3358559681225,3.1043086818158714,1.424515455729236,-0.22761030144738587,-0.0248712230085785,0.21699054878265553,0.0800266883819945,nm,0.0
68.08600899999999,-9.259784315905403,-32.30996109948495,-143.8083850894334,3.4743077251775407,2.142011096205501,-0.812339233268528,0.056796579538806014,0.000534915451692968,0.08469468569388819,nm,0.0
68.105029,-9.29268840631477,-30.25227523344771,-141.92072010669054,2.6045202810705583,1.616820436264006,-0.6600137542185981,0.15603650261303803,-0.1723960985762925,0.12507832146584363,nm,0.0
68.11454,-9.129995284749462,-29.168865492972003,-141.1144378345372,1.6423107926772027,1.0099110372418405,-0.6483704329923861,0.10001714175935716,-0.18201981855405783,0.13212955373383087,nm,0.0
68.124045,-8.974906358947008,-28.817831458228454,-140.57714613747228,0.6203793523996752,0.2808235907592919,-0.8269292946526546,0.010181895805055175,-0.06656466271685295,0.08146563565949289,nm,0.0
68.13373899999999,-9.02813387671964,-29.30639301091648,-140.4875495759207,-0.1220925674186436,-0.22596172143096654,-0.5791342324391006,-0.0683402250540359,0.08644218273015473,-0.008740083846187111,nm,0.0
68.14308199999999,-9.17815432355385,-30.038852639334877,-140.8913525462586,-0.546294280791489,-0.38349133081282505,-0.680971944800145,-0.08596928975708247,0.1351710729728082,-0.10045131246371612,nm,0.0
68.152593,-9.292146395035118,-30.69548594044843,-141.58515955828116,-0.5861874234845337,-0.262076942645701,-0.7599600345732523,-0.08013117662439907,0.12018854414024213,-0.15613619100935192,nm,0.0
68.162106,-9.312672558125424,-31.0111211150318,-142.36648604014079,-0.46088736440415423,-0.11109173063265798,-0.7933370477458904,-0.04923106287163844,0.05747306792264644,-0.169395322672965,nm,0.0
68.17178200000001,-9.290845760637627,-30.419695426630565,-143.06497154573208,-0.30288676055053126,-0.06585817748407582,-0.5459530936136973,0.05587495336270886,-0.09075450448187332,-0.16259015648403638,nm,0.0
68.181307,-9.406673937600559,-28.503441181073164,-143.63172521522173,-0.45709069610552044,-0.1883040101707624,-0.2908383047184797,0.2327755354126842,-0.289639969100744,-0.15872531617655505,nm,0.0
68.19080500000001,-9.608263331673452,-25.543195737286087,-144.0267188342049,-0.9093438254643731,-0.5517967096417894,0.11414485363985474,0.3666614271526724,-0.4508579434132931,-0.13100317028529673,nm,0.0
68.200312,-9.78491339749357,-22.237645957275614,-144.2583940707881,-1.9416455328521742,-1.2776124330562137,0.8776363059985112,0.4016240700604418,-0.5111343359188735,-0.08503672035384459,nm,0.0
68.209645,-9.678833375755056,-19.060384579078377,-144.35470300524622,-3.579464381560715,-2.392782232238009,1.300883384055938,0.34201916309341246,-0.5224586749415464,-0.004172515223266324,nm,0.0
68.23836,-9.88764455204398,-20.043929542541836,-145.46005468005308,-2.0345285544255187,-1.5006952863887044,1.426486526792766,-0.22160805574597797,0.38721155612788055,0.07691417227281726,nm,0.0
68.247873,-10.011083360795089,-22.501426033259442,-146.124712470848,-1.039019565528136,-0.5031914959764819,0.9512747638821631,-0.2670916794772442,0.4282798911142641,0.0322487603963037,nm,0.0
68.266888,-9.52050265394679,-26.66512993955214,-146.67411991440835,0.7158459781065177,0.3247170308399279,0.4238275657395274,-0.21284532935505904,0.29976702842457664,-0.0021440544156867054,nm,0.0
68.28590299999999,-9.708941871024095,-28.369292048214092,-146.12103595821725,2.162195504585291,0.6807608400725568,0.5680756938768591,-0.04494658635960694,0.11599762793251231,0.05092124075013499,nm,0.0
68.304743,-10.539953505407876,-28.13752481916609,-144.23406640532332,2.4229998387068323,1.1322322481361402,-0.12215126532809897,0.026432688791988165,-0.03609144303193353,0.1543488062395279,nm,0.0
68.31424799999999,-10.111860186842687,-28.00986481702977,-143.06743409013973,3.0052716352240636,1.115247022264168,0.12511247683538004,-0.05857742387671531,-0.05981427843499978,0.2100941667943433,nm,0.0
68.32376400000001,-9.757605012509048,-28.176534072325705,-142.2095949923409,2.7372746129343772,1.4577405890814148,-0.34445045831949017,-0.08305673455404135,-0.006106953957411996,0.15150998092301318,nm,0.0
68.333272,-8.739497256652015,-28.668932472340053,-141.76446833903537,2.75209250987713,1.5252617557573318,-0.3711189304023537,-0.215080641341626,-0.027918679125983645,0.13097932136577053,nm,0.0
68.342784,-7.606389828481454,-29.595301809803036,-141.95400617194593,2.167990681177149,1.4310940047011935,-0.6911518157772276,-0.28368636754355114,0.028257518092786593,0.033339730327137926,nm,0.0
68.35229899999999,-6.267816005916118,-30.838469963746242,-142.70834557001257,1.3925524024562956,1.1603276540941228,-0.9033713800828586,-0.3487074311503035,0.06043706133866912,-0.03816825575856053,nm,0.0
68.371328,-4.776907347901858,-33.17612644101606,-144.6343760159063,0.08694843768239892,0.6736628472872357,-1.210725656435137,-0.17534276634993917,0.15808248818607346,-0.18101589536743737,nm,0.0
68.39035100000001,-5.922954259260547,-34.33783338428727,-144.87757621094732,-0.012873472597591158,0.2866900159906476,-0.9769824067591462,0.08558555445027312,0.14657723855970609,-0.08892700420242237,nm,0.0
68.41906499999999,-11.144689235876548,-28.478830350742395,-142.85578506102337,-0.5028232221052968,-0.6431961995688674,-0.13432815262952774,0.5690443519804405,-0.33118041597692954,-0.08235102528276586,nm,0.0
68.42855800000001,-12.251497589198038,-24.705478777465974,-142.8646334561921,-1.4562634793572033,-1.2291672577181287,0.6278879342382692,0.6019197773145746,-0.4760010164155834,-0.12955620087194455,nm,0.0
68.437892,-12.41400338602207,-20.69908597538846,-143.3157679467836,-3.0764311887643756,-2.2040016305465557,1.0878303406109497,0.4934356554341041,-0.6170900039250864,-0.12063813087419367,nm,0.0
68.44739999999999,-12.01372413171153,-17.681384518090763,-144.0499590680429,-5.216414385890635,-3.4213208797892567,1.5760794347205989,0.28321941141574897,-0.5261142832918486,-0.08387577665562648,nm,0.0
68.45691299999999,-11.974538217161268,-17.286191304005865,-144.6796071503675,-4.453693643097994,-2.9231410925230725,1.0372792299812439,0.026824062541893547,-0.06268871209653251,0.025606062737908105,nm,0.0
68.46660399999999,-11.796439903814578,-18.418466103849326,-145.17404226239944,-2.419813105088188,-1.9459405324245687,0.9126280737700578,-0.1695735854443866,0.17354149298553664,0.07779030952387829,nm,0.0
68.47594000000001,-11.566153013304058,-20.722171950900606,-146.24748722529952,-1.6327215989257637,-1.1487579061919706,1.0056737559849702,-0.3045203088634461,0.36639495497443475,0.04844300411643962,nm,0.0
68.48545100000001,-11.020723707951392,-23.11408840878431,-147.5364250324599,-0.4936762341442631,-0.4789872255260414,0.7997752259844352,-0.3554141723720223,0.356192229179936,0.017896681450088985,nm,0.0
68.495146,-10.476285490636855,-25.243993695964676,-148.60234145632302,0.06641314228801935,-0.003660759470424378,0.8478882585167207,-0.3202151813262995,0.31848466185816704,-0.010672254389915753,nm,0.0
68.514161,-9.456262909498923,-28.143316158192437,-149.28763323160172,1.3430682635865838,0.5610037440447367,0.6155300864168368,-0.1990924473417075,0.18257982665149605,0.04443187981687121,nm,0.0
68.523676,-9.521131832354298,-28.884830132016415,-148.84340585294123,1.8188618434541732,0.8069674778105197,0.3004088081520951,-0.07899244430561889,0.14016161788011233,0.0695938615040046,nm,0.0
68.53299200000001,-9.837346861037483,-29.211719221595928,-147.95758283485998,2.4913053793037263,1.0890021500807925,0.005700276332656026,0.00027558789188484483,0.09158169150223773,0.11652502564783083,nm,0.0
68.542508,-10.181088717303533,-29.46692435148087,-146.7403246371808,2.877565049808992,1.5465776801430546,-0.39037913727140994,0.010229659846017926,0.08201722124431397,0.1686894103057216,nm,0.0
68.55201500000001,-9.897031802842926,-29.810125606663778,-145.4462751561324,3.490393206829201,1.6950478454056401,-0.4993802124892281,-0.0921710895279332,0.035569580951067326,0.2444199131287904,nm,0.0
68.561531,-9.530788685710467,-30.260811205597278,-144.54787826296408,3.5139422343408295,1.6951022167280896,-0.5109616307313818,-0.11669353436983813,0.043353617868936406,0.17733493328992656,nm,0.0
68.580558,-8.326979788134986,-31.465374169710447,-144.81234175294074,1.7332194749718557,1.0198441397286864,-1.1258328047916923,-0.21590407401671777,0.03530066187615418,-0.04171240065426793,nm,0.0
68.59966,-8.199020561563488,-33.20488164318093,-146.7628554765524,-0.3522143932625207,0.3277670575364579,-1.332153378571484,-0.055502370059243716,0.17799275687959304,-0.27463351925605,nm,0.0
68.609096,-8.591910428092557,-33.78071615801355,-147.28403730596474,-0.41989620674673656,0.044494220672260734,-0.9240157591054663,-0.02047857219397478,0.13900974130149274,-0.18373366320938128,nm,0.0
68.628117,-11.477353053877628,-32.43827742844077,-146.41101463761152,-0.7639840752464994,-0.18990718129590387,-0.7848468548474833,0.36317382821391825,-0.048501054865019565,-0.10296405088724529,nm,0.0
68.637809,-12.712506252265525,-29.812851868783355,-145.69303270723907,-0.6205163730767815,-0.5453238717599089,-0.34672792383432055,0.4572435792290262,-0.310506419146203,-0.020640338010206198,nm,0.0
68.647303,-13.691190999926109,-26.300911966870355,-145.2654538867532,-1.0455615389573631,-0.9700112181122307,0.24628987130384555,0.5291209432797098,-0.47415457381597625,-0.035473600456051996,nm,0.0
68.656804,-14.097653019421927,-22.447284891014647,-145.18224671362603,-2.3481851233468993,-1.598943729059375,0.736559076029957,0.4897597688523443,-0.5839389881861995,-0.06651968398207513,nm,0.0
68.66614999999999,-13.670652200321552,-19.03172437743451,-145.46593257061113,-3.4698524880844643,-2.7255314927744987,1.3465943597894614,0.3120875881093705,-0.6007301460848555,-0.07647122875766077,nm,0.0
68.67566199999999,-13.471606792490915,-17.384161293005906,-145.95202327262092,-5.6475505967431845,-2.9783626748311396,1.3756384456610282,0.1423245989821724,-0.28712866967785317,-0.1069386549876058,nm,0.0
68.69485599999999,-13.786617164390083,-19.596613115820457,-147.3128105812574,-2.2561436829310346,-1.4064166383752048,0.7960999248918474,-0.16181675347202285,0.35036410939341717,0.0039477634062235895,nm,0.0
68.732901,-12.930974118333667,-27.354192053939503,-149.67648274457943,1.5402456144249241,0.26506999358073385,0.28107698330577086,-0.19225229707457991,0.22811433727344035,0.08625631981180885,nm,0.0
68.742233,-13.568572234095104,-28.437199163609343,-148.93825621263213,2.3708757559289637,0.6477201637428601,0.07513542530234958,-0.026019549254021893,0.25142316945412163,0.06493438544119494,nm,0.0
68.751734,-14.59999067379698,-29.17001323226246,-147.7636124984322,2.915857045281836,1.2044342943408086,-0.30312709999504156,0.0644265053352313,0.22724834381428283,0.08681439956817576,nm,0.0
68.76125200000001,-14.924467175446251,-29.543381595955122,-146.2663628506227,4.170956073303596,1.5577283009760738,-0.5993331240770197,-0.00576453538166927,0.10047207203128973,0.20941450878539314,nm,0.0
68.77076199999999,-14.855442555923469,-29.8170484579878,-144.663937569284,4.44082304134943,2.037484701939736,-1.1812659073974476,-0.053599054619904565,0.04475320436674342,0.24994489481725235,nm,0.0
68.78027399999999,-13.80879318939049,-29.57652366297018,-143.6085931006052,4.336034795862867,2.0547724748330487,-1.0874833591844775,-0.1314168457034169,-0.1399601427354089,0.22198462374227781,nm,0.0
68.789782,-12.384282297091266,-28.985059606678302,-143.32987233616623,2.741979778684453,1.8233967416282768,-1.447544340271527,-0.14119267694974472,-0.23779549092346736,0.0981665560602356,nm,0.0
68.799293,-10.183560046310976,-28.579318160680945,-143.44715606485775,1.115199653053093,1.2985157733937458,-1.2360756018048125,-0.27336004892216204,-0.29073389415480194,0.10035956715144881,nm,0.0
68.81831600000001,-6.338102844422697,-28.341248595347253,-143.96324223559157,-1.162883829667085,0.16272911095481107,-0.7722628695955696,-0.1790442263035621,-0.12056479390365607,0.022451036488872294,nm,0.0
68.82782599999999,-5.314839059381404,-28.233837425098343,-143.8295308610182,-1.597052789170525,-0.007481314228999895,-0.5318613667072336,-0.14616731523076915,-0.11837351066399288,0.1097625033498018,nm,0.0
68.83751799999999,-4.70857580158222,-27.612474732303873,-143.26149460578134,-1.0081206549951047,-0.13820529912744137,0.18798512107595347,-0.025515080039571078,-0.15861621682963378,0.16413135493438535,nm,0.0
68.847036,-5.384277423101769,-26.25496845078423,-142.60633733896213,-1.225384745350167,-0.03664023828668099,-0.15407769296764542,0.24689977100386395,-0.13901278552341337,0.06479702818366084,nm,0.0
68.856551,-6.026675773915939,-24.1422434561186,-142.30464110518113,-1.1456850041868714,-0.2450321046253487,0.11262171153057418,0.3367630958293873,-0.2595177422739663,0.0153924338177424,nm,0.0
68.86605599999999,-6.717061915421283,-21.35823083154202,-142.6246961232692,-1.1474273315450942,-0.7642967447731771,0.8910148860976989,0.4274221375734173,-0.3593243808108281,-0.10550301850871019,nm,0.0
68.875565,-7.820052683538438,-18.221893183614853,-143.6724727969023,-2.4437641649374235,-1.408592751269498,0.9680870774811083,0.5296289587119238,-0.37277537376242087,-0.26133060879869663,nm,0.0
68.88489000000001,-8.626142584387344,-15.570779479236268,-145.1404275792864,-3.4315816284757057,-2.4729839441623023,1.1678273530690646,0.421219513924097,-0.33647865321573295,-0.2995386542822493,nm,0.0
68.894406,-9.60069135116185,-14.398320056887012,-146.90529276254802,-4.460200522726768,-2.8507323411149184,1.0712700784928844,0.27462192579287154,-0.08405184991655804,-0.30060472750984807,nm,0.0
68.90391199999999,-10.346250504621253,-14.77659579336921,-148.77459468116413,-3.831694570784875,-2.5400643995067598,0.8617257637436064,0.07099200306658383,0.14732682839967218,-0.20378709952871932,nm,0.0
68.92292599999999,-11.009155277313681,-18.963345787809825,-151.56767035946396,-1.707533592101306,-0.749082738828805,0.6049230058102039,-0.23569659866013837,0.4119824523682658,0.004555529960136905,nm,0.0
68.94212200000001,-10.484322410637676,-23.239315054088312,-152.15325280727666,0.5988517206335291,0.17068313702654625,0.49591171048391297,-0.1833739395113568,0.37407958819244524,0.15528102336825847,nm,0.0
68.95165,-10.213588058431942,-24.710682833990816,-151.56066773564686,1.5943758317869225,0.5290869534065141,0.25344370440558933,-0.19392516743413504,0.2446133732326773,0.21340414408076083,nm,0.0
68.960971,-9.77764447092244,-25.721941979429218,-150.62349568867364,2.818756532134043,0.7660307796124761,0.3428399255631805,-0.17929236781572166,0.14633082092287375,0.2081051347651619,nm,0.0
68.970471,-9.681086418123844,-26.543337438122453,-149.7218880775595,3.0746735272197134,1.2650413056678693,0.03493136797571956,-0.10951962708308485,0.1409495741032812,0.12495544965330609,nm,0.0
68.979996,-9.042189083946756,-26.921154738984722,-149.00917128222366,3.452325592934575,1.5150888777425997,-0.04711688926254912,-0.14928253731073596,0.01334224870450439,0.11992340914078403,nm,0.0
