timestamp,roll,pitch,yaw,acc_x,acc_y,acc_z,gyro_x,gyro_y,gyro_z,markers,motor_input
51.50948299999999,-2.0766802303439387,-13.5727669284428,128.10357479559022,0.0,0.0,0.0,0.0,0.0,0.0,nm,0.0
51.518992,-2.112382971177462,-13.547872975562303,128.0554848619898,0.021479438662725923,0.01651777574302721,0.0009715899702778233,0.0,0.0,0.0,nm,0.0
51.52850799999999,-2.1452360080071853,-13.526482688848146,127.97814835955708,0.026670671675497148,0.020447505745885497,0.0012239137074473556,0.0,0.0,0.0,nm,0.0
51.538015,-2.1796441206098183,-13.488221441038041,127.91115466645402,0.05509464654714633,-0.0106989912440018,0.01831652717489526,0.0,0.0,0.0,nm,0.0
51.55704800000001,-2.250821221251561,-13.30432066073395,127.72744572083649,0.08948573112602543,-0.0693068744697401,0.032630607184148244,0.0,0.0,0.0,nm,0.0
51.56654800000001,-2.3085879853355293,-13.161285359334665,127.56938079157001,0.07795573560905038,-0.10571707924702434,0.037284100619903136,0.0,0.0,0.0,nm,0.0
51.576054,-2.390024428308419,-12.987615589027396,127.41139412494486,0.08629670748778874,-0.11764813230059859,0.0384047877388868,0.0,0.0,0.0,nm,0.0
51.58556300000001,-2.4919637719756773,-12.775627642607413,127.25444102082905,0.10282969122970913,-0.1417238698073821,0.05326770101106366,0.0,0.0,0.0,nm,0.0
51.595077,-2.612262593622928,-12.53865325145754,127.08467995033777,0.09233318892929564,-0.20511358563321494,0.057876843749851185,0.0,0.0,0.0,nm,0.0
51.604592,-2.7490903307899344,-12.285929168906259,126.999727255299,0.1011300842630857,-0.2641990958802013,0.05098679617563391,0.0,0.0,0.0,nm,0.0
51.623615,-3.113466014014863,-11.714421867770758,127.07738224318726,0.11085158929726892,-0.31437619614523915,-0.025824941786256182,0.049740631342799754,-0.02942965246468389,0.007846775548418351,nm,0.0
51.633127,-3.3161346959797346,-11.428119846438493,127.22512511867492,0.088140059994652,-0.28512706766962004,-0.03438387785296977,0.04716216859255723,-0.03362641002284979,0.0335429593240865,nm,0.0
51.64262600000001,-3.5141782768826313,-11.222160056690145,127.4675372255876,0.04210494104633451,-0.19283448358074062,-0.04070037010765212,0.04000006982353139,-0.033201163860976164,0.05966176043951309,nm,0.0
51.65214,-3.6634761831861935,-11.12304333367841,127.8027802876263,-0.026103447184444795,-0.07638600388203912,-0.013121539768136998,0.023924950901754328,-0.028694437603480408,0.08009550817423731,nm,0.0
51.661641,-3.765760436665843,-11.117388423235289,128.1180038798118,-0.085689431188946,0.03173880387623803,-0.06260536102486987,0.009114935554908695,-0.023883495486937897,0.08763193830889385,nm,0.0
51.67114699999999,-3.872328412087325,-11.262773183189294,128.34902280534038,-0.10003708359950148,0.14055507908919046,-0.0975527991427896,0.009121147603818661,-0.013119843380428202,0.08008471185844313,nm,0.0
51.68066999999999,-3.9718691627746736,-11.513766432504413,128.4739687167384,-0.1386933901164494,0.1865371786838412,-0.06252741150270541,0.010564081913605056,0.00011898361270791992,0.0625121616784178,nm,0.0
51.69018,-3.994005070778285,-11.74702015509845,128.4666244332918,-0.12314736854170204,0.2297056138386778,-0.06296247260978526,0.0,0.0,0.0,nm,0.0
51.699634,-3.9232762045207803,-11.578584471416054,128.3490408018618,-0.16145124577686917,0.1391700371751165,0.10808922710532465,0.0,0.0,0.0,nm,0.0
51.709203,-4.191406590875733,-11.608162479593915,128.1091310030756,-0.07553937244907842,0.29140472531814016,-0.0271705827312604,0.0,0.0,0.0,nm,0.0
51.71866700000001,-4.124163468774285,-11.187238652805668,127.79223877026631,-0.10602839631311971,0.36143937608641474,0.07946032239969335,-0.06948760718416178,-0.028305886252599062,-0.007440713660372665,nm,0.0
51.728159000000005,-3.9412210680668824,-10.576937348339706,127.47442079105696,-0.2174803238107435,0.4446175808070692,0.2738170107991995,-0.11356279279399757,-0.03302800954339098,-0.0169716333055112,nm,0.0
51.73764600000001,-3.7845302073017737,-9.83484234533596,127.02254654323212,-0.30324196857908553,0.7445670150591853,0.25146959102010047,-0.13173361314678067,-0.052265399172093094,-0.03978779727365064,nm,0.0
51.74715699999999,-3.4632320863570887,-9.06717135662881,126.41524764022252,-0.5370338895417454,1.0057302513082413,0.4788356053149813,-0.15574500876074737,-0.027939825182975386,-0.05970641596795558,nm,0.0
51.766181999999986,-3.246327292705044,-8.010055245666603,124.8058447156516,-0.7472121566398582,1.488150182214702,0.44468084228027366,-0.05538078863502847,-0.02834267075866842,-0.1271456568243027,nm,0.0
51.77569500000001,-3.2584915146749727,-8.219863562857585,123.87385342063698,-0.7454060036664186,1.4404204619612713,0.4483888011932195,0.04217934623035871,0.03404713748360207,-0.14290384080041565,nm,0.0
51.785202,-3.3848379525183874,-9.056214911198845,122.86132214910474,-0.618451197508865,1.2263047102116411,0.4815471868660553,0.16009481830289926,0.08317064795108707,-0.15061834735258503,nm,0.0
51.794713,-3.558571591174242,-10.346011298837631,121.86027359730863,-0.42949044447217716,0.882288656783608,0.525298375630266,0.24330353465941434,0.1208992155428901,-0.1446009027728354,nm,0.0
51.81372300000001,-3.893592329731854,-13.361862282731845,120.30029821019184,-0.04767453491558167,0.03193715664796138,0.3905346782529057,0.28761179341120774,0.1365647285487944,-0.10628938912840326,nm,0.0
51.823238,-3.925054263372844,-14.849535748338699,119.78750831828343,0.09639223610960902,-0.33974928196746196,0.3068701706006576,0.26802438341563867,0.15564081651486453,-0.06756885507728934,nm,0.0
51.832750000000004,-3.8844977279445083,-16.24287180435939,119.57834339983357,0.23688913303386522,-0.6633379913745965,0.2700287812969488,0.24549213879155743,0.15703434241217565,-0.024728180388267844,nm,0.0
51.84225900000001,-3.7757236918956174,-17.460236216978007,119.84589325442434,0.42987145581845404,-0.794276967319237,0.07231950848833656,0.20796993160919314,0.15153004519749896,0.026202277690265657,nm,0.0
51.87042199999999,-1.8666807291041478,-20.099621779692683,124.9074808851599,1.0063460324173277,-1.4692365184465073,-0.14543680615906238,0.059893916012876414,0.20412829035180388,0.2065002745523249,nm,0.0
51.879941,-1.0178246057041918,-20.67403573613253,127.55620240905101,1.282635221813155,-1.689498868999041,-0.01836961488159386,0.0002198508653406392,0.20970124208533425,0.22661999786702489,nm,0.0
51.889452000000006,-0.13922116502017956,-20.97375904406208,130.04031824885692,1.4570723194905348,-1.592716037834567,-0.3733398715674595,-0.05484531148721449,0.1782988668990327,0.19617107807672454,nm,0.0
51.89896200000001,0.871882711103599,-21.120347934936937,132.1780350478955,1.396996566158623,-1.5327057611900317,-0.36809911164467374,-0.10121934871177965,0.17364781331016477,0.1424170158568894,nm,0.0
51.927671000000004,0.8432408739517876,-21.422849732462005,135.75630267650956,0.42948826821817654,-0.1160688570395333,-0.293464369278988,0.08627775522962756,-0.015510788875633464,-0.1220240918051622,nm,0.0
51.93718799999999,-0.460663689913504,-21.94469852464515,136.65922284031518,0.07615269924591114,0.21408062077435536,-0.48171868880831337,0.25093091498783515,-0.07588242178911943,-0.17322028907479145,nm,0.0
51.94688400000001,-2.228562100749262,-22.721052404375026,137.58288769407005,-0.06222067565252692,0.2924599178330043,-0.5808021083553635,0.3492057329605364,-0.09161316463652404,-0.17603587355731992,nm,0.0
51.965903999999995,-5.962939316753182,-24.093280328570152,139.43455454751978,0.012736765378398041,-0.20112034973881143,-0.7541467458339397,0.3433020820010338,-0.12505492193071135,-0.1774940012635978,nm,0.0
51.98492300000001,-8.710947749870458,-23.52040923376422,140.55866858049856,0.01111732182980888,-0.07436045370762372,-0.7238976467624022,0.07356430792439278,-0.21638997193010803,-0.22932876904565438,nm,0.0
51.994242000000014,-9.043773979206495,-22.04030956688593,140.85299719057292,-0.2958511872946285,0.006848543863390799,-0.29011180256349306,-0.13477866442266387,-0.25585776007359823,-0.22560136097970732,nm,0.0
52.003759,-9.182041277609807,-20.020817778081568,141.193068188204,-0.726442211020961,0.43878230626094966,0.11117513622605296,-0.22777901156202202,-0.31958991373169365,-0.2339994831184269,nm,0.0
52.013273,-9.162062406656737,-17.78546467552539,141.544637275314,-1.3460084804742694,1.068952429896438,0.5513769930512424,-0.2760987838197197,-0.33660721260551285,-0.1985137162999207,nm,0.0
52.022965,-8.889461979682359,-15.513629270764577,141.730705029423,-2.0628178774231145,1.691829169092459,0.593940271043969,-0.3186490085039006,-0.3127635084777848,-0.1261962543733018,nm,0.0
52.03229300000001,-8.578637719266801,-13.892162913633106,141.6593641791102,-2.5881140393745965,1.8215053042756422,0.8153375569794369,-0.2459544153185826,-0.20391416119458855,-0.03657922816309195,nm,0.0
52.061003,-8.507056977630718,-14.884925773851977,140.9917314491427,-1.0915645829845178,0.7620563974526157,0.44797275861330693,0.10239452013570517,0.20470368793162208,0.005457091979109741,nm,0.0
52.07051200000001,-8.253368008254004,-16.524450775565548,140.46771977548212,-0.6528472039784458,0.19140868579902767,0.7361489895826269,0.17326894412712354,0.2985209415984325,-0.01951789324255259,nm,0.0
52.08954499999999,-7.814911114492033,-20.006454552259402,139.75359287542966,0.13555637250320546,-0.4090469142207864,0.42638454050763647,0.17062293231854617,0.3086380138442189,-0.003448368929903104,nm,0.0
52.099052,-7.572916243489357,-21.43030829398914,140.23859753962904,0.5845198376469548,-0.621616420748958,0.016940459773936295,0.1502923676685653,0.2619006517783271,0.056098089364059314,nm,0.0
52.11771400000001,-6.375573828282345,-23.687520540340042,144.26875368206683,1.5721798572907915,-1.368167957856121,0.12436723564397699,-0.0018588034309168055,0.24443239892213348,0.3122248440320823,nm,0.0
52.12721500000001,-5.29410613094606,-23.999701563547838,147.0631382056616,2.205563525295137,-1.525212702993743,-0.2380467432089264,-0.1296800564712357,0.1761320426669902,0.3980154668966927,nm,0.0
52.16525100000001,2.4325400983594148,-20.622478203886818,155.43390799302693,1.1617101909203382,0.188873353065364,-0.3977750933401927,-0.35451761682388994,-0.1362166856727485,0.025282318608771864,nm,0.0
52.20366799999999,-2.048224555448255,-21.804780017354826,158.29176153276123,-0.93907733437002,0.7198180735116336,0.12118662472570832,0.5048732053972242,0.06123677800139956,-0.02404350410318555,nm,0.0
52.213201,-4.857317478439983,-23.292533193098468,159.62753168884655,-0.4889111977016646,0.2847292282244106,-0.14823557135739937,0.5888090155638146,0.10709622039697203,-0.015727300888240064,nm,0.0
52.22267600000001,-7.513420866862247,-24.459888454410656,160.71460338892945,-0.025794642328740507,-0.06372871381888805,-0.37330024355158453,0.5338755386797301,0.07059806201941951,-0.07416220183071183,nm,0.0
52.23201499999999,-9.503625984733505,-24.737074382662527,161.25413020282127,0.27026751754724004,-0.31873447857046167,-0.7634298169524245,0.35836918077332186,-0.04964906584737998,-0.1846078545434885,nm,0.0
52.24169699999999,-10.786021699801704,-24.268687120116123,160.96937279855305,0.1773305736483133,-0.42158247435027646,-0.6231998015622984,0.1893386933457194,-0.14916638113405092,-0.31230529759206993,nm,0.0
52.279561,-13.457717989593762,-18.127269910213762,158.51149591006853,-3.1692422570460064,1.0664678901932627,0.36239160685620925,-0.015209203041692347,-0.31084148774548565,-0.20071479397879743,nm,0.0
52.28907100000001,-13.908804346706367,-17.71547869784704,158.7307667495394,-3.2995481082778624,0.786179264915539,0.6337167080633709,0.0485057158443246,-0.09391826615660427,-0.02505707851183914,nm,0.0
52.32730799999999,-11.077720852127428,-23.85290689609516,156.68532705478117,0.4479643461261502,-0.20544710592556475,-0.15432119730737848,0.0121674066824584,0.46056959750361437,-0.010745725589647311,nm,0.0
52.33680100000001,-9.126045174314852,-25.689688375800287,155.5914236501399,1.1038147725470548,-0.7250101026813389,-0.09345143510255544,-0.17478386936452323,0.49485442072177016,0.05356586044252232,nm,0.0
52.346137,-7.099290893512105,-27.152075627246017,155.93453430530525,1.751321480887077,-1.0045225780105664,-0.04935232368665695,-0.215908196184727,0.4287348076808173,0.0793376965248591,nm,0.0
52.35547199999999,-5.464352372226038,-28.190409835624607,157.03800590036263,1.9859495467261894,-0.5321670114078415,-0.3667793670355865,-0.18828859573110107,0.318382939277457,0.12533316129880198,nm,0.0
52.36497,-3.597339847527025,-28.541663739629794,158.95451873641187,2.231365049950025,-0.5802669037411472,-0.3577435535059393,-0.28367582160098853,0.19903572639815148,0.2858295525304109,nm,0.0
52.37448499999999,-1.8886634314064208,-28.328354700167566,161.319074850917,2.35308530564537,-0.7232147148584986,-0.19780736976714416,-0.30168305860162786,0.07270122203513608,0.39728023776767835,nm,0.0
52.422402000000005,0.877601377270367,-26.516845566619093,169.4982566182357,0.19936721778318314,0.3684022068618377,-0.38275734493737884,0.04112448564053638,0.011976351332869103,-0.09074488872385943,nm,0.0
52.43189799999999,0.14213396371183684,-26.834245129016587,169.72697121307215,-0.17640015617403706,0.3671518083970986,-0.254853853371651,0.13495978947857304,0.052614338606649234,-0.16895253858903014,nm,0.0
52.44144399999999,-1.2344660104163083,-27.310546042219674,170.02003408006667,-0.37784610244198497,0.4321239095559709,-0.3038983263611146,0.25247861081887646,0.06522570541012042,-0.2018330446573818,nm,0.0
52.450953999999996,-2.8703519643305397,-27.735619072417812,170.59386334309193,-0.43386090070470323,0.316693666043339,-0.32191138148315007,0.2949048574835857,0.0496565756481075,-0.16234592063396786,nm,0.0
52.469966,-6.497776586695839,-27.21066444534849,172.45964469088563,-0.4262615643304644,0.04532656864516606,-0.44084071684000975,0.3021505622833469,-0.14220040170527834,-0.12441298378815849,nm,0.0
52.479490999999996,-7.865228423164463,-26.059117019118965,173.17829595112914,-0.5759389871123952,-0.061460879925448374,-0.39557228914099063,0.21010788769171984,-0.24490783835843985,-0.13198323022750175,nm,0.0
52.49847299999999,-9.255639897264205,-22.715533606998058,172.91152493602897,-1.304139022632228,-0.07417732954561027,0.23140921241927181,0.05338947040460498,-0.350042964420237,-0.2732934343950135,nm,0.0
