timestamp,roll,pitch,yaw,acc_x,acc_y,acc_z,gyro_x,gyro_y,gyro_z,markers,motor_input
72.50837999999999,-25.9747325892144,-25.234120339188,153.24920973022626,-2.305053681718496,1.0180500643208563,-0.4390528716455188,-0.18344540282713792,-0.33932985025113854,0.2543260015909356,nm,0.0
72.52740800000001,-21.849098218619222,-23.864488250652983,152.6483911803975,-2.1224752153201045,1.2482859046523296,0.03164582361924619,-0.45817361977644744,0.1840166926781731,0.06432682596257765,nm,0.0
72.546427,-16.35991273705011,-24.721516476436683,150.09857425442746,-0.8890100336605303,1.4762443556276061,-0.3033189465341974,-0.35226784129064503,0.35761667267306557,-0.050163073902103616,nm,0.0
72.556119,-12.150555676236928,-25.61080080853676,149.37726604011874,-0.32687177091799136,1.1575890960501587,0.3056431579232963,-0.5696649083495506,0.5513140301734438,0.17238758208350521,nm,0.0
72.565629,-7.2297512431835775,-26.234243839770272,149.57778647153714,0.6063289334984865,0.20159283162131922,1.1872712602461442,-0.7023333889671542,0.5689377704959282,0.37792096931460434,nm,0.0
72.58447699999999,0.176471788569949,-27.007110203143732,152.62627266854366,2.6568565014941092,0.2611576535614607,-0.006316432823187476,-0.5408431979586172,0.40254436512954034,0.5614145148341639,nm,0.0
72.593976,3.3679305468459306,-27.911052065885766,154.83548607294787,3.8716998479807434,-0.5001224428071045,0.342714703068932,-0.4340587053713305,0.4240418780564313,0.5699104531275812,nm,0.0
72.60348099999999,4.906445661282275,-28.666268344230758,156.64223925694068,4.466374604281597,-0.3784278733515543,-0.46228413115637174,-0.1901270838462433,0.26179021820107806,0.35381551418184387,nm,0.0
72.612999,5.751627443126635,-28.64391366486742,157.97394898764585,4.766271689467604,-0.6295743898982445,-0.4879512298996283,-0.14279877292841878,0.06576383492742209,0.1908160492145822,nm,0.0
72.62250599999999,5.550372813128144,-27.762059015691168,158.1494140699998,4.38979235845453,-0.9332891966848753,-0.35111852027816315,-0.03670290584256572,-0.16355367782688646,0.013741436441064974,nm,0.0
72.63201900000001,3.9327479963977057,-26.466439147659234,157.98786980367626,3.1727972500317505,-1.1772779050705304,-0.09635984782878464,0.1671874816643914,-0.3347409724525795,-0.18221912118398392,nm,0.0
72.641527,0.41151792472982035,-25.039214530980942,157.67440423384275,1.751726374410113,-1.2255953815447758,-0.0698637794518833,0.47749736488470007,-0.4904544290054628,-0.3709158789978434,nm,0.0
72.66073499999999,-11.141154608542008,-22.838494582104715,157.6198228104583,-0.6147280092653595,-0.951012955404488,-0.1510369457258895,0.9771700034324007,-0.5888221438077742,-0.4609694734013355,nm,0.0
72.670062,-17.600769136104827,-22.216462782345594,157.95990452467385,-1.3026311738006617,-1.6725060276050077,0.21183100113766518,1.0579917989028063,-0.5527408085735562,-0.42617903510381455,nm,0.0
72.689078,-31.429380014087226,-21.289065022102285,157.55009367115983,-1.7629376508216037,-1.7527782737207784,-0.7037070427452101,1.125751722127073,-0.536335546849157,-0.5868622283418934,nm,0.0
72.708103,-42.591939895051595,-21.354578235576202,155.22513400142287,-1.8722165534604756,-1.6251162765526825,-1.1409192483319806,0.9185106487376904,-0.3664643184679261,-0.6478498198255579,nm,0.0
72.726944,-48.10596324280305,-19.99547796675727,151.70121089181225,-2.706195110922664,-0.6059412014999394,-0.5594977458374109,0.18144707376314856,-0.33868187810992767,-0.4958711769913971,nm,0.0
72.73644200000001,-47.990436165327544,-17.90766522719473,149.792556407167,-3.129149144076596,0.5423633751816037,-0.2186708269020586,-0.22144445367830135,-0.34200948325933456,-0.3673611027376861,nm,0.0
72.74596,-45.6565609359173,-15.393532634815744,148.68260778764858,-3.733390896024372,1.201074127018378,0.44361927288300546,-0.640298902807217,-0.19106214194021917,-0.08169055412684262,nm,0.0
72.755473,-41.27878832625904,-12.889758357461455,148.72221598118742,-4.012479994371121,1.3753643391945154,0.928046911332529,-0.9850251273054431,0.02644268179264035,0.22753750191196384,nm,0.0
72.76498699999999,-35.55422812573453,-10.880236747834195,149.91602097343724,-3.388182850733015,1.2122072614497372,1.0422545161425596,-1.168722966776081,0.2402103288310631,0.4788871284783292,nm,0.0
72.774678,-28.870809683614972,-10.121923707030186,151.84824179162888,-2.410695747528927,0.39421722505185913,1.2074599050854138,-1.2229015466595181,0.5218672060724521,0.6327853492221877,nm,0.0
72.80320800000001,-2.354485822616591,-15.698137124998729,151.62387459936207,0.30949387570801196,0.8102951103118867,2.963259670405097,-1.518434771583257,1.4212473175419158,0.20174201702540137,nm,0.0
72.81273200000001,7.512065272025611,-17.835803945639643,149.49012378572306,1.1980241558075158,1.941570407163883,2.794340475293234,-1.438797419868355,1.3152194214723907,0.13976122482965544,nm,0.0
72.83174299999999,24.72523606201071,-20.86253446444262,148.5429061434026,2.676717102513404,1.9707747307498065,-0.1665458128842405,-1.1400694578258432,1.1233145236064135,0.6205114773463583,nm,0.0
72.84125,30.927865247563776,-24.111845431228865,149.89507785560642,4.034404898557597,1.5500871439057897,-0.6020021353338324,-0.6583647347120433,1.157490789377349,0.738872977526847,nm,0.0
72.86028099999999,36.469360402106375,-30.433834654587926,153.99466772092563,6.155676495402154,-0.06961419277439891,-2.4699777449334945,-0.09247317144765067,0.6191360086748285,0.6247667442416531,nm,0.0
72.869799,35.77526444572483,-30.758761531064945,155.2082327757625,6.329287329709051,-0.6289737161260225,-2.296321653980167,0.12874849510687075,0.018108692533066437,0.166180837530709,nm,0.0
72.879309,32.84322446980705,-29.407257713165194,154.9093403807472,3.660340676296553,-0.593143688223119,-3.1084559410403148,0.3399459140558683,-0.4485457604636825,-0.36013945928339025,nm,0.0
72.88881,29.64278592232919,-26.843913798099955,154.15095537518178,2.482455482931037,-0.48120418529803144,-1.4121103887439437,0.28382889230425234,-0.6949580209043078,-0.4600384995420961,nm,0.0
72.90800999999999,14.58142412530797,-22.27241764533133,152.69968077513147,-0.1422498337241645,-0.4892352102176916,-0.19309154197517778,1.3632927217690003,-1.0400762920521505,-0.8679959925259007,nm,0.0
72.917517,4.454800745017475,-22.158166156675783,152.80965925065354,-1.065851590444752,-0.7281074533966999,0.7215263763501432,1.6565295624886818,-0.8659654206290561,-0.7476741478088567,nm,0.0
72.92702700000001,-6.659798597392773,-21.627306552157616,153.77692691138998,-1.764152885846922,-2.528082386418773,2.5049171989385273,1.7959801271854172,-1.0085683702914146,-0.6376731769514815,nm,0.0
72.945852,-31.01785716825755,-18.01198727312146,154.4100879257556,-2.86544022424502,-2.998008109712438,-0.03557536350718893,1.84031178054652,-1.2879810736496964,-0.7835945584987173,nm,0.0
72.955377,-41.043767520437335,-16.476355311931542,153.05217458315857,-3.618938749162293,-3.2700330364013745,-0.5522403180474977,1.5848560425170768,-1.1108492929326457,-0.8606748448278798,nm,0.0
72.96488,-49.97594593428439,-15.504609695663078,150.39022788960165,-3.556264272937595,-1.0453442084257305,-1.6606820733141805,1.424094912904154,-0.9738487635077799,-1.0172604334750355,nm,0.0
72.974388,-56.08608694271564,-15.432211183242371,147.7269958507824,-3.446409924860179,0.5153962055907682,-1.3487580356819844,1.0061054172406505,-0.6076456167489465,-0.8505493241778892,nm,0.0
72.993236,-57.43519941701224,-15.446273030120793,144.368830684101,-3.9381945309248074,2.4743926113042503,-0.4614558426169573,-0.187490746934784,0.06481168495213459,-0.23243266177755711,nm,0.0
73.002757,-53.20673538798396,-13.97943509855054,144.05816400526209,-3.6676760726675703,1.9351694204791188,-0.0947212139411827,-0.8333489910520441,0.2522779798371737,0.16071726905801145,nm,0.0
73.01226,-47.036758764465105,-12.12382077414447,145.5855940315271,-3.3622197676709837,0.749867402361487,0.33194652433066096,-1.1954369813455903,0.4024864561136364,0.5909884034433471,nm,0.0
73.021951,-39.47594447627141,-11.090437002154845,148.11136891928018,-2.1051706805890102,-0.2334005720192146,0.8138549280015381,-1.3531585588531503,0.6514050832205979,0.8143876778672594,nm,0.0
73.03145799999999,-29.576861070168878,-12.068359246674028,150.49031085817566,-1.0143029351372392,-0.7918569818910134,1.2784350977914705,-1.5692710715748748,1.1734853875378464,0.8757969109078894,nm,0.0
73.05048,-5.4130416878220045,-18.553242282677882,150.44583548243517,1.3363785608349288,-0.21680156887806393,3.782268157890787,-1.7232316584810334,1.7524982952008663,0.49517993364520896,nm,0.0
73.05999299999999,7.422174014429168,-20.415621402261625,148.13313583345618,2.5296441763370114,1.2073362894140631,2.794207772947355,-1.8944299229706003,1.570163675885853,0.39240256442875415,nm,0.0
73.069501,20.38694580629986,-20.88795270609436,146.270250015753,3.5899550620027227,1.6003518296377854,1.416620057153986,-1.9930381071707406,1.4076064314553192,0.5382917022912903,nm,0.0
73.07900599999999,31.951653637652946,-21.75631739624661,145.4651225477953,4.347173779642707,1.9383581671532455,0.36218163501271805,-1.6921559428657966,1.3654047487617593,0.6741271506972564,nm,0.0
73.08852300000001,41.005689030963424,-23.48686294218345,145.9186437018401,4.669320926376951,1.9192667294734718,-1.0626002528040817,-1.192986220826596,1.2394935342798103,0.7801705748169891,nm,0.0
73.10751400000001,51.32613943471439,-27.541021094427556,149.28152745369923,5.585491512203494,0.5376579531575433,-2.6168623501563073,-0.3995119210352165,0.6874608847737973,0.6872542192430715,nm,0.0
73.11701299999999,51.4678582245992,-28.24113160751486,150.47075690410804,4.10133608422315,0.09811535527578454,-3.0881273168511507,0.040438678339892585,0.14248471395702828,0.24363807741804253,nm,0.0
73.12661,48.71395171953426,-27.592899060506532,151.5722260828808,2.4415971565761323,-0.1533616852035182,-3.0560752197322287,0.35541205939417414,-0.34069900993360624,-0.045437908249491184,nm,0.0
73.145569,38.136444724046754,-24.8716036599942,154.13311338276486,1.0742803711308873,-0.04183448076687865,-0.7291596696903926,0.8640153300137384,-0.7397587538302719,-0.27943255246742893,nm,0.0
73.16475500000001,20.13266518049214,-22.935581048447837,156.51428451019916,-0.5676950952809647,-0.5029092594093317,0.5052392995364904,1.5382989404323613,-0.8584962742522481,-0.5318568153106169,nm,0.0
73.17429899999999,9.818832498582855,-21.726365642968023,157.58767213807207,-1.0748511571299055,-1.1340138990924065,1.3405053232248094,1.6611980452082002,-0.954075539661814,-0.574347154843748,nm,0.0
73.18379999999999,-0.9189276959838861,-19.758596029100147,158.00929778448435,-1.6008318399873083,-2.165059772201326,2.086656353944024,1.7106918866825327,-1.1098039472111683,-0.6796657728194722,nm,0.0
73.19331399999999,-11.832444313971195,-17.42990671919724,157.1884565869492,-2.458106372904653,-2.7700510214764753,1.6940807165684433,1.7366870243761565,-1.205217382357976,-0.8611012349383474,nm,0.0
73.20263499999999,-22.117020820564292,-15.325091624149275,154.999081433649,-3.5541371898298415,-3.0713852240063435,1.1314471424538348,1.6362461912126802,-1.1712272296784367,-1.0162876586942222,nm,0.0
73.23118299999999,-43.39881270626306,-14.839209147801848,144.49577438362064,-4.386283407062977,0.7766988972010341,-0.8078697965252775,0.7751772889276615,-0.2889864766558607,-0.8582362153040528,nm,0.0
73.25000700000001,-42.191514903863045,-15.862199602680809,141.54022386408298,-3.4710574934168847,1.5391284487666421,-0.1431950804523686,-0.3176012528309596,0.2862043565349914,-0.027193050766657578,nm,0.0
73.25953100000001,-37.7381125696878,-15.080136824756693,142.34855257235182,-2.99624808829796,0.3840854315298335,0.4188294010394287,-0.7699597974086073,0.4194951246633174,0.4044900928814246,nm,0.0
73.28822500000001,-12.502883824868139,-17.55239840172675,148.29135975634853,-0.2759655246076235,-1.1083412364744754,2.3275379454151457,-1.4677663667367267,1.5414317677799911,0.9512662719881092,nm,0.0
73.29776000000001,-1.1293192726087535,-20.689167495450178,148.64051707233443,1.3563447669306985,-0.4499449982797031,3.2392513974737174,-1.5073057808056798,1.6733027593357208,0.8137071605192301,nm,0.0
73.307444,10.831332865357384,-23.01016308063998,147.90348285154874,2.9007382947030886,0.4796948410468041,2.27969803794049,-1.6489384293190663,1.5764568447855694,0.7404611095900955,nm,0.0
73.31676200000001,23.046094396422685,-24.4975805799444,146.9974964686559,4.431891831395888,0.6157283292517177,0.942733626487018,-1.7305125006699265,1.4671745491714794,0.7989128759277349,nm,0.0
73.32628,33.92967984908193,-26.017569635789716,146.14648714601162,5.5929373474086415,1.0415544019617022,-0.3800656671591036,-1.4824191023401405,1.3505933989598182,0.7533322042771204,nm,0.0
73.33579,42.97212210824482,-27.165629902056256,145.9056059525757,5.515656782032057,0.792212611595281,-2.5155271984809553,-1.2206532815910451,1.1055399284965701,0.7550523197983948,nm,0.0
73.34531000000001,49.41355320148457,-27.02853999534812,147.01038504521142,6.096841437668895,0.4609489752138921,-2.252246215760834,-0.97955844516272,0.6210177027698547,0.8006407320725779,nm,0.0
73.354816,51.45730741946955,-25.8454855286972,148.76045520367654,4.358357182697568,0.667976756649179,-3.0000545614578975,-0.4440352383937963,0.0028600200963093117,0.5242617880002208,nm,0.0
73.36436599999999,50.79454345672043,-24.522024474580437,150.52472848738438,1.8362140039206165,0.726370207364374,-2.99436789655221,-0.038015531534065006,-0.2809192253721322,0.2882343012511368,nm,0.0
73.37388000000001,48.34612401415668,-23.489476095876533,152.8988017177332,0.7484486242814704,1.0448744771313903,-1.9072892213973112,0.28877769939093484,-0.3858011230338938,0.2672399379744891,nm,0.0
73.40250800000001,30.347836019239743,-22.2354486880372,160.32131301679064,-1.1393515679521673,0.3819982045162396,0.44691344542084344,1.1975627656360894,-0.4939697085251577,-0.16479969573281542,nm,0.0
73.412023,22.51159174512242,-21.070900273745345,161.34606797965077,-1.005364997825001,-0.25185681915864505,1.510421880261911,1.2952389655699408,-0.687300453422906,-0.3802725568099328,nm,0.0
73.42156299999999,13.959679815492239,-19.190199993941725,160.7184478408079,-1.4236822417923232,-0.7571592899673515,0.6160797394839677,1.3938606352217489,-0.8657518563017463,-0.7198902996612956,nm,0.0
73.431072,6.481297567188114,-17.66769540405066,158.18804422527768,-1.52525516079361,-0.8856695209074752,0.5525443616778196,1.2205754812235436,-0.7706672144534741,-0.983257870063926,nm,0.0
73.440584,-0.18128950350538797,-16.77417858555378,154.5575360379236,-1.9033448356797675,-1.4288745992718308,1.204300548937986,1.0945753277387202,-0.6609254885619912,-1.1238159730956971,nm,0.0
73.48796300000001,-23.224008487677867,-14.964480764665037,146.71972951532064,-1.8735630189699042,-0.5779511361021311,-0.459499863728685,0.1682402021042867,-0.35441512029663597,0.007265067448062785,nm,0.0
