timestamp,roll,pitch,yaw,acc_x,acc_y,acc_z,gyro_x,gyro_y,gyro_z,markers,motor_input
81.00139999999999,-7.0825154596274755,1.2725285529439978,127.75333250562534,-0.23182219158162223,0.18338276399014805,-0.015198935086923873,0.00393640735780213,0.04284847804387654,-0.29315863119756286,nm,0.0
81.01091,-6.829362135004406,0.8318685749888738,126.49864637179743,-0.06048742997121445,-0.04190538421525825,0.15782745229024708,0.04580971323095221,0.10602221483524683,-0.25566236322482444,nm,0.0
81.029831,-6.819939073974384,0.10906164331226273,124.54418279539229,0.30483242148448614,-0.5542509318475661,0.22602438334840647,0.059986576557997724,0.03389595981135753,-0.19238090757801518,nm,0.0
81.039425,-6.988931495131262,-0.025691640470799255,123.65080839702377,0.2861431868736954,-0.7142411635055251,0.3832783869707994,0.047959488083499764,-0.0007756473374441095,-0.20282247412699045,nm,0.0
81.067957,-7.504389583802689,1.8869138074924574,120.48686779082203,0.11343472807054203,-0.6174067090407255,0.6073547531623674,-0.14452995712121852,-0.1277926882841993,-0.30368426719411684,nm,0.0
81.07746,-8.367238010877053,2.937083084979162,119.43498637198991,0.12460546567007812,-0.261548412750591,0.42863436015898543,-0.08722568908163557,-0.2435481112106847,-0.3058616522637954,nm,0.0
81.08698000000001,-9.351764751372013,3.994489033173713,118.41526639675791,-0.03086212937045614,-0.035252211783302095,0.4544546130695128,-0.08106054217252155,-0.26374014525611517,-0.29267083860621745,nm,0.0
81.09650099999999,-10.52843701993612,5.092206588251942,117.40354850307119,-0.12879365697134784,0.0495030444714774,0.48538788625325974,-0.07490155748766293,-0.29964187570870904,-0.27627371197460493,nm,0.0
81.10602499999999,-11.951106970111177,6.067358951542509,116.37663804211869,0.004081801334196225,0.01770009911723597,0.13212509130044092,-0.03627426585051209,-0.33035478842992005,-0.26053730022019267,nm,0.0
81.11551299999999,-13.402456072908782,6.842820493859732,115.22898936333077,-0.032519501942184004,-0.0902472340915529,0.169616819820975,-0.0045019365691755684,-0.31677266064262294,-0.26076549298968044,nm,0.0
81.125032,-15.087998196853235,7.586783972794141,113.84874547929395,0.007172248551696895,-0.18987148195174813,0.0823354326075377,0.013403777424970956,-0.355804759076345,-0.28809708923593425,nm,0.0
81.134556,-17.004127657951862,8.365954829764215,112.19452862934138,0.09311787329436627,-0.2687239285662391,-0.04173254925336337,0.015332027369210525,-0.40028799406118015,-0.33355314095372113,nm,0.0
81.15354400000001,-21.326540311865024,9.648585378819721,108.06733945381797,0.1657606520915628,-0.21993586131448367,-0.2584446757065625,0.0460316716375957,-0.4484626826737362,-0.4057599292242198,nm,0.0
81.16306499999999,-23.57942365961358,10.13815942700581,105.69608113747007,0.271722693633003,-0.2235730543468776,-0.41644076397774993,0.046333457665807924,-0.44419262364500545,-0.42853553829560975,nm,0.0
81.18207699999999,-28.11973998913618,10.95011188959826,100.4630113703639,0.2739193632456599,-0.059730989426380984,-0.560696318090849,0.024340848738619004,-0.456835508666653,-0.46856739928779806,nm,0.0
81.19159199999999,-30.508495477594998,11.434170509218465,97.5940491666025,0.27796548928205156,0.0495521544143629,-0.6829132828868574,-0.010320382539870769,-0.470461824099503,-0.4917456952964494,nm,0.0
81.21043599999999,-35.623637071405305,12.08919301261715,91.67483625947719,0.20178585470889746,0.3809976315231878,-0.7839767303416962,-0.009138138854191803,-0.5076287799339894,-0.4644414336073155,nm,0.0
81.21995799999999,-38.22072568299713,12.261355483739633,88.84399909588356,0.17390003313648622,0.44885903086543677,-0.8423929745978218,-0.020470969928522136,-0.5017549783846862,-0.4274884244435708,nm,0.0
81.22965300000001,-40.80271705758969,12.423481156124275,86.46227749709942,-0.10943391610198576,0.44324378311367185,-0.6274301209161984,-0.040694030990499445,-0.49699080448379845,-0.36377298058615654,nm,0.0
81.24866499999999,-46.01824492449467,13.131764168220231,83.17597754532379,-0.10671784068090719,0.19712232580744654,-0.59249842503432,-0.13775839268203147,-0.47259576642048595,-0.16044612597023578,nm,0.0
81.267697,-50.98125642381259,15.459475483593845,81.3798676987495,-2.7803369287811246,0.7641550142138676,1.9650130314371932,-0.331329396835021,-0.44419026618250534,-0.02664492633617756,nm,0.0
81.277197,-50.60838689257596,16.722538230032693,81.17864423446105,-1.6177321594002234,0.3380236769291121,3.8820282451857135,-0.2268589270011215,0.11527418963723876,-0.05707013981862073,nm,0.0
81.29617400000001,-37.9117970699939,15.531514340602797,84.19905284454087,-3.40564410442334,0.6890599146107201,1.5929928554340096,0.32942480583086686,0.9528164959506271,-0.005002613909288604,nm,0.0
81.305523,-39.00904864590098,16.441382062018192,82.75887503446151,1.6317484657003065,-0.5019195917073093,-0.5240545084994302,-0.19205797672824762,-0.18360562287737997,-0.2261712867119722,nm,0.0
81.31762,-37.63635710288957,17.423559621200695,81.17982373108075,0.669129586858494,-0.9204736864967732,-1.6305203416512566,-0.14484635386775246,0.2929971823137942,-0.39493602055599386,nm,0.0
81.32474300000001,-37.88469288441837,16.689186164667547,81.10203783615773,-1.911237777666498,1.2911783379247364,0.7435541145325931,0.15116761846669602,-0.06452613055259675,0.00035872113157150255,nm,0.0
81.33407500000001,-40.506965425710604,16.28180910725412,81.41335330402492,1.5780871421046962,1.2014640216199417,-1.8465344809880357,0.017110609659714025,-0.5047213208811293,0.2132689311733729,nm,0.0
81.36273,-32.19040066740708,15.603960971530267,86.24183448168458,-0.7648143374068228,-0.8655403963035431,-0.20651112606894678,0.4739243821881271,1.1440821201438771,0.2132193011287893,nm,0.0
81.37224699999999,-29.58949388568069,14.62192227058338,87.07602112334285,-0.32159529786225016,-0.4690005772918862,0.7372407284148048,0.2385114943628182,0.496397718405859,0.03105146924466135,nm,0.0
81.381574,-28.693246591105815,15.706704023507605,85.66898318638219,1.2854792402672457,-1.4208107264616299,-0.7050164796062856,-0.19278067025940607,0.1921734070331522,-0.3290567562292873,nm,0.0
81.419817,-21.398668217853157,18.37661790483356,85.47982021855933,0.7052783702628566,0.4190649945901225,-0.20451238350389833,-0.2840120958186025,0.27792822105293125,0.17499573591795536,nm,0.0
81.429327,-20.978735910068085,19.615293722444353,87.60125921325013,0.7157064370574352,0.3546326045486567,-0.2656786925257584,-0.22986560834616335,0.09967001034362057,0.3949064355028315,nm,0.0
81.438827,-20.667807011010837,20.18864159337996,89.94492985538808,-0.33782360501955694,0.2736599453699716,1.1565331668391308,-0.10082899582959794,0.06679503946487199,0.4454506563673754,nm,0.0
81.44832199999999,-21.36557447231526,20.373623676042158,91.54615057456495,-0.3878206103708771,-0.2425833796356232,0.5589566344511661,-0.02279524677039911,-0.12533067601725525,0.3665428053768721,nm,0.0
81.467356,-24.854787165888126,19.74109271354122,91.31228517460455,-0.5774757597414283,-0.7981049487004661,0.12759111828990746,0.13748481649229136,-0.3616251795258979,0.009735030005484957,nm,0.0
81.476866,-27.734433185632906,19.015440796641478,89.97703508955219,-0.9400994854092882,-0.6069266132982898,0.5813730977625338,0.16401340345204868,-0.5358856907409897,-0.07698335241315388,nm,0.0
81.51493300000001,-34.07135256558131,17.14745962440663,85.4711745577348,-0.20138586465545757,-0.6449505911376853,0.15836557069038257,-0.05028502452492955,-0.06548563658792855,-0.22489640763963906,nm,0.0
81.524418,-33.05866351178861,17.227670687511004,84.11773690750329,-0.12816049725008158,-0.3799870549012511,0.1622747951725888,0.014667627858072728,0.19986995473095623,-0.3305931509317417,nm,0.0
81.53392099999999,-30.9890397221858,16.74808594595261,82.51987903442574,-0.5410012263532262,0.17617102257655243,0.7205112082607893,0.15478336796478392,0.3874746362567746,-0.44105554484476994,nm,0.0
81.543441,-28.893417793827094,15.857648049213578,80.37074822224253,0.3291578282037838,0.2915769019900082,0.5512607240379958,0.249737309038472,0.3761377889173952,-0.548479974575331,nm,0.0
81.562498,-23.27218044995892,13.201018991139708,75.01244013093839,0.772678865879705,0.6310893295674316,0.9003299338345506,0.43376552361706117,0.4666163425417356,-0.6723884890438259,nm,0.0
81.58153200000001,-18.761919406434576,10.211742581273098,70.43938343124441,1.4530373677265054,0.2558399926706582,0.5585958496063245,0.4258236218947969,0.32702631506788093,-0.5001972650646115,nm,0.0
81.591036,-17.192927172146156,8.911861932580436,68.86083757995667,1.305527447284952,-0.0314655471149561,0.4338788146298145,0.36577146401447586,0.20114753323572,-0.3704178865636142,nm,0.0
81.609881,-16.930953806091065,6.630770933076253,66.50938018588148,0.9642980995753412,-0.3317389782324432,0.09902137934017784,0.18926824265828324,-0.12207271740289935,-0.2217977018624976,nm,0.0
81.619385,-18.027692147793235,5.841020680784957,65.19023163842536,0.5765032527319316,-0.25483593886628136,0.10350580969906058,0.06907164526782718,-0.26354465068818533,-0.24193436861582437,nm,0.0
81.62888799999999,-19.958993452319433,5.122529976007725,63.54957489487851,0.4800611107400529,-0.23142015502549246,-0.3467795738978593,-0.022672153090482056,-0.4093188131962038,-0.29269370920877774,nm,0.0
81.64791600000001,-25.171455428752207,3.424947414998037,59.629024470446,-0.09015527070187822,0.3554788581109396,-0.1823556354264958,-0.11667697925718659,-0.5873491462226772,-0.3673210879803119,nm,0.0
81.657432,-28.66862424592025,2.45864061229905,57.76663679478504,-0.27060406447710655,0.31988371645535146,-0.19274822480517895,-0.1839989909639938,-0.6993684680103962,-0.3357978282826221,nm,0.0
81.666934,-32.36776754325026,1.0619816930794774,56.654751305937545,-0.196420447038609,0.370783817968645,-0.357688791939986,-0.1519677372426606,-0.7753416799359288,-0.1977858720313219,nm,0.0
81.67647199999999,-35.88065101119041,-0.30813433577287624,56.395308710936575,-0.19811518581561338,0.37762061706928535,-0.3008813657310028,-0.14540415961917305,-0.7395605789297007,-0.044380705534187895,nm,0.0
81.685978,-38.85706899797618,-1.177977091616491,56.77567918600907,-0.5644250647362994,0.22010159229570733,-0.5402628542792379,-0.16917513544460921,-0.5947508355605976,0.07207838345055319,nm,0.0
81.70498699999999,-45.077922749855986,-2.730298553381128,59.23218067011666,-2.3142723808299257,-0.7537160627243011,-0.4433408748622423,-0.17267513774375282,-0.654575644504305,0.2825364804781462,nm,0.0
81.72400200000001,-51.86505528877505,-5.85610915808899,63.082055797668794,-2.877416778243944,-2.054827503457361,-1.1994049357803032,-0.018809404521715267,-0.7105202234284341,0.29374054324531496,nm,0.0
81.73352,-54.7917175701498,-6.801338544538737,63.82115350345783,-2.484878712872551,-2.1612998523340528,-1.6625506156833993,-0.0789471522553203,-0.6053943427228512,0.09079987626601985,nm,0.0
81.743022,-56.74135384145377,-6.8295037770364075,63.35132018399049,-1.4344618235929594,-2.177766947386764,-1.721026351414304,-0.15554513268456036,-0.34946881206933245,-0.13256763495972915,nm,0.0
81.752531,-56.74432800992686,-6.19907889268144,61.98240158013793,-1.7550691005752557,-0.9331330599301197,-1.4262294039543584,-0.10056068884248934,0.05744088547304542,-0.2663835155301399,nm,0.0
81.762057,-56.325970235563645,-5.244981841666881,59.97666798252372,-1.1289343999776986,-0.20876113971260848,-0.9787822021662436,-0.1146862368111531,0.16526435794807232,-0.385629707131852,nm,0.0
81.77174400000001,-54.92064465646208,-4.301272440548023,58.1079081123437,-0.016533012987894728,0.14196597474961695,-0.8111630777593173,-0.005640062510500897,0.33701638886676455,-0.3434797558634124,nm,0.0
81.78107399999999,-52.23168318989928,-3.4892770262261457,56.82563285154897,0.37082829668041783,0.9502847604004362,-0.5745882675655594,0.16431711541966806,0.5393151580931589,-0.21345894553585654,nm,0.0
81.79056700000001,-48.78069633095167,-2.5173528724081504,55.845158888471765,0.8183362028593988,1.3326572153645446,-0.1194266309180802,0.23343958395198633,0.680892676541373,-0.15416283024303795,nm,0.0
81.80026000000001,-44.42874792663085,-1.1532681083543739,55.03171011750278,0.6600770170885373,1.8713043394070155,0.5808776351853567,0.28251345082477386,0.8705761859201392,-0.13001256939747557,nm,0.0
81.80975699999999,-39.84033763681188,0.4495816839650709,54.540861930557554,1.4914015273023353,1.699826535230849,0.5241513752988035,0.28129521217024417,0.9338364492574664,-0.08884453235518991,nm,0.0
81.838289,-23.48143958257102,4.462907289598156,55.41166305751882,2.211967221447567,1.807123636243182,1.1112668042125509,0.4419362793546267,0.9259832368288017,0.04403920738308751,nm,0.0
81.885853,-9.244865245861503,2.449510554550236,55.239999750717175,1.2077632709818116,-0.1771665956111188,0.6301026652489363,0.25996031615884574,0.01638113647949762,-0.0924033600204581,nm,0.0
81.89518899999999,-9.886167674639053,1.3182672955422634,54.91744495255602,0.6351540956576001,-0.7377922859491067,0.569530311419552,0.12601957400767308,-0.23685867753324327,-0.06331153027127942,nm,0.0
81.90468999999999,-11.549477296161779,0.022209709922264127,54.86392064447224,0.055796709669698526,-1.1618885696601913,0.5330037216004224,0.03459886704158196,-0.4236623206239085,-0.009265713044458548,nm,0.0
81.92372599999999,-17.34652713130974,-2.0615967103345594,55.84648010674395,-1.3711472990295024,-1.6440734696942376,0.6014129701818196,-0.21990840977715925,-0.6610766676925658,0.11306029807388597,nm,0.0
81.93304599999999,-21.263708640600154,-2.7410213538645363,56.78927530821185,-1.9536217410521315,-1.828200321297742,0.4336025793674284,-0.3073465677297839,-0.7291833054105387,0.15583893452563943,nm,0.0
81.942567,-25.695708845596794,-3.2031225215506027,57.778769939111136,-2.600768524390822,-1.9122484947279104,0.3671535941908135,-0.38709727064408667,-0.7970852335138434,0.1530467369741039,nm,0.0
81.961581,-34.26194323055357,-3.569549407093961,58.80676626217086,-3.068713827941306,-2.1471009788327007,-0.49869069036262337,-0.3725273730010468,-0.6876249119686048,0.01447755192801744,nm,0.0
81.97127800000001,-37.86352879571217,-3.6512313084823824,58.44879063758344,-2.991892302244356,-2.0245408098393294,-0.8564733013395309,-0.3470936069947395,-0.6241997367482413,-0.11333394119299024,nm,0.0
81.98077599999999,-40.72655185234774,-3.6599139075948264,58.344046639003345,-2.4066485267541524,-1.9213414134369462,-1.2219442163172185,-0.28105017103982105,-0.4916295595517083,-0.23280719650071272,nm,0.0
81.990297,-42.38798472875649,-3.5227852472975774,57.48012836837287,-2.1477720482498297,-1.2876386108974767,-1.1610178989150792,-0.18492147681890117,-0.2690300635027417,-0.30963839578360086,nm,0.0
81.99981299999999,-43.21410449434251,-3.0801266189711494,56.03980116028568,-1.5767998915803014,-0.6698186384233614,-1.062143896124857,-0.15111782097383175,-0.09163121554547873,-0.3711373347505715,nm,0.0
