timestamp,roll,pitch,yaw,acc_x,acc_y,acc_z,gyro_x,gyro_y,gyro_z,markers,motor_input
59.507553,-17.295603563072287,-9.940948148771927,122.92344182220532,-1.971490756754178,-0.24055245047238166,-0.3026385039478026,0.5303537850677241,-0.9399654610423445,0.004056416229044993,nm,0.0
59.52657400000001,-25.28327660002136,-10.216816186886971,123.26635246118602,-2.028815453763872,-0.5345568103596638,-0.8348801795195716,0.4275593379379456,-0.518867887661962,-0.14791604464310282,nm,0.0
59.53607500000001,-27.75755596937909,-10.996613653422557,122.5785998929777,-1.6790008784076664,-0.40643080132607107,-1.145099950795154,0.40312715788655656,-0.31203953457507805,-0.22653617237255047,nm,0.0
59.545590000000004,-28.83703350725225,-12.21465705496154,121.58444317565268,-1.4915354902428635,-0.33846777565418934,-1.0776615847924063,0.3267434951553571,-0.03820521940462653,-0.239821732115841,nm,0.0
59.555091000000004,-28.657490288353504,-13.455021768086755,120.34526666169371,-1.379390005592691,-0.3973201801741247,-0.796676511600024,0.20284754848874778,0.1693018270356758,-0.23731606094594068,nm,0.0
59.564629999999994,-27.6161839272319,-14.387709959128829,118.96571619986919,-0.9547728589598061,-0.29704424037491667,-0.6504334200345788,0.0703490129682911,0.27956313672292493,-0.22336042507468268,nm,0.0
59.574296000000004,-25.67473182749999,-14.992234813960678,117.68347036100118,-0.6342279284862968,-0.2665769103768211,-0.501132933451162,-0.06344661731717058,0.3996376282536494,-0.1557991647996144,nm,0.0
59.58364499999999,-23.14753969079943,-15.31125354499928,116.57339157908478,-0.4941786775085001,-0.3250114242973261,-0.17390877015817777,-0.15728326610540017,0.47498538480322305,-0.08813956333675373,nm,0.0
59.602666,-17.197633294643598,-15.155937717265283,114.40611344491376,0.007392063873190072,-0.14438050560488563,-0.16001934764765535,-0.2820624991516085,0.5594503167612966,-0.052088328388040075,nm,0.0
59.612348999999995,-13.759957136065838,-15.019621365817574,113.12174609633749,0.09675902250827208,-0.09556355500191091,0.08573339397149453,-0.2838954045505447,0.608334675921607,-0.0781142612137051,nm,0.0
59.63136900000001,-6.661726429399961,-14.569535231794957,109.43005612196463,0.6732828134805212,0.36146709846074754,0.2426558779092046,-0.2940728478499039,0.6622172556690219,-0.16326844105073904,nm,0.0
59.65988899999999,4.450154638917579,-13.339211091911515,104.6747092546314,1.574521893106872,0.6739667838408724,0.3373463157422782,-0.2552139103296713,0.7081825209887542,-0.023389052453740913,nm,0.0
59.669409,7.982918103742614,-13.027510984969918,104.56285965615619,1.709577955116444,0.5265978162202232,0.5080029759665496,-0.22686473212668168,0.6604259050866806,0.08842995836081043,nm,0.0
59.67891800000001,10.689795094268453,-12.811184579134338,104.82396061476597,1.838912289704243,0.3932082172028063,0.2654595651702284,-0.1676378137542127,0.5102774726784004,0.1680718668684165,nm,0.0
59.688421000000005,12.679145329310785,-12.797740428530009,105.5150338446845,1.8250683443420592,0.2600262909473113,0.1264388064522578,-0.09637256377255282,0.38454855482572986,0.22089458894491046,nm,0.0
59.70745199999999,14.410654290049342,-12.684836575351298,107.60668264225018,1.4313893187888709,0.0809529057747187,0.11952204855031269,-0.04857131896043502,0.08619965393094033,0.2407422666060691,nm,0.0
59.716958000000005,14.022854310657111,-12.331469038942915,108.81693765944284,1.1001881459605232,0.01029013967859595,0.25409529868899927,-0.036427783048550835,-0.0834092371125897,0.21944248424354024,nm,0.0
59.735975999999994,10.284721973264668,-11.446852385593322,111.35794176819168,0.33255924116031704,0.11853883504645378,0.4716095808207535,0.08180349710050838,-0.454309071342065,0.16161853783179936,nm,0.0
59.74549099999999,7.123911970386142,-10.900064654337655,112.8256678270842,-0.054281286535376276,0.0323525471363367,0.5576389705988587,0.13935771705219205,-0.6053687380750027,0.1661450403824702,nm,0.0
59.75500600000001,3.156568168284213,-10.386501639477325,114.41273974562652,-0.40208583613332194,0.012331188191031472,0.4450330898840661,0.22603001420674335,-0.7452024491027551,0.16660758771131748,nm,0.0
59.76450600000001,-1.051124938631818,-9.863724235618529,116.03922021328528,-0.7691385837359982,-0.10904854270680432,0.4175258763143378,0.26633409762364474,-0.7833872297305485,0.17385828397556957,nm,0.0
59.774024,-5.388956920967482,-9.19063024177605,117.49591523425643,-1.338996622425145,-0.3890963299628066,0.6975868572737335,0.27309352216211247,-0.813800660494327,0.1450331031159359,nm,0.0
59.783525999999995,-10.066694561407846,-8.395728207952503,118.53328999864884,-1.4722527571198771,-0.33501109482463937,0.16801732527873267,0.30201976538675557,-0.8801154462450234,0.06258515023405899,nm,0.0
59.79286400000001,-14.137053139237365,-7.762912065650681,119.09493111437628,-1.5303705478470886,-0.25945252775004635,-0.30146221800911865,0.28572543086458807,-0.7562547910632996,-0.0031485884472406173,nm,0.0
59.80237500000001,-17.32503568465035,-7.492268007748824,119.21790774096955,-1.678444954364685,-0.29922233144999083,-0.5079444291145577,0.2688080223107856,-0.5671240585727949,-0.060446345152455644,nm,0.0
59.81188,-19.868649317388563,-7.592213666092999,118.96474926271135,-1.502177728024814,-0.17015147745815454,-0.7923635249072493,0.27097066852509866,-0.4197645233252086,-0.11729058952919282,nm,0.0
59.821394,-21.398162880137818,-8.014981228940007,118.49863111258381,-1.351333090138974,-0.15564962447332426,-0.8103688851646917,0.22820754680139171,-0.21375040826504674,-0.13427851453520992,nm,0.0
59.840441,-21.932462187670126,-9.361184361758072,117.39745037500528,-0.9653127000247684,-0.23404582018880796,-0.5005573211947105,0.12868487542381749,0.0834578031927541,-0.10992746835261975,nm,0.0
59.869145,-18.253810835293233,-10.69641097720916,115.72014592286664,-0.28193958718184575,-0.2804361625173163,-0.12233082146599844,-0.07326598400811764,0.33377774712456826,-0.05407236448597814,nm,0.0
59.878648,-16.339023754316898,-10.94157973279255,115.04404348911044,-0.10602746967414702,-0.18296760715432317,-0.12031399798561798,-0.10842316530536768,0.3725439661418376,-0.06352754340035384,nm,0.0
59.88816600000001,-14.14667698030803,-11.095083228678845,114.22283106098406,-0.1110566998394929,-0.16915531223891167,0.06132874377188152,-0.14294552341841038,0.4156866039442388,-0.08109464844872812,nm,0.0
59.897661,-12.131086993808346,-11.19688038680277,113.24456229818946,0.00319840597465635,-0.03554256131223034,0.17135645693766086,-0.13191113574490293,0.38179032680537456,-0.11884026229545833,nm,0.0
59.907183,-10.268822566282424,-11.257397213971046,112.1205412871439,0.2823726970472702,0.2056608501982223,0.0030068470622569717,-0.12074097231344214,0.35318120636056033,-0.14004918022036628,nm,0.0
59.916672000000005,-8.22482712365074,-11.26461547299633,111.21137285026506,0.24039525841411538,0.1638166433559968,0.20869501203324242,-0.13822391652887345,0.38431092636123526,-0.12443994444547513,nm,0.0
59.926188999999994,-6.611750649323218,-11.203678360991715,110.49287898413712,0.30219290740721927,0.15201159714309564,0.3183025951727746,-0.11566880991867463,0.30228399695504754,-0.12132323021908066,nm,0.0
59.96425199999999,-3.561188267590602,-10.08563640098214,110.32062735656172,0.4989093382059257,0.009234077104742148,0.0004998609016312774,-0.09149947235302364,0.03883249579092476,-0.04938772765510643,nm,0.0
59.973748,-3.24366708849777,-9.543376363464205,110.54831284200046,0.33883099423957735,-0.05150443965816231,0.12510884336967595,-0.11495690301525535,0.031024958438231765,-0.04314825093382388,nm,0.0
59.992763,-3.0447137907899386,-8.2953253706723,110.90579561595462,0.1883699709707348,0.13274063731979108,0.0665231174952545,-0.11506670651727313,-0.0208362009792572,-0.05669148425123832,nm,0.0
60.00227699999999,-2.921798664620935,-7.671561322711171,110.93518339389028,0.06573471273830513,0.19230822398804692,0.12920313068018788,-0.11663140605995131,-0.011406118143679051,-0.04565873637295661,nm,0.0
60.01179400000001,-2.859808532239786,-7.093202640488824,111.10179303096596,0.03207182197118093,0.249522322565958,0.07124574342352909,-0.10377424796965071,-0.01963700728842416,-0.0278634194533233,nm,0.0
60.021308000000005,-2.7486183013151506,-6.584059687378133,111.35682689288443,0.02388083493241318,0.24044689733837468,0.08237029512346943,-0.09437812357346731,-0.005824066692831343,0.00019904111007382848,nm,0.0
60.030823999999996,-2.5502772227952026,-6.1428332995599275,111.81808394875955,-0.003100717997376796,0.15976120912481676,0.0896640453109582,-0.08815638274603978,0.014677002000715726,0.028397507475250054,nm,0.0
60.049829999999986,-2.1054860026953737,-5.412631825709013,112.9198943756527,0.047629424857278224,0.014434514243417382,0.05545177302809906,-0.07488743276341556,0.02879821679084944,0.05349685339886598,nm,0.0
60.059349,-1.8260853364914342,-5.0726500492984545,113.39754071098291,0.061157968581097046,-0.045867637636314205,0.06780928858740927,-0.07634912164871403,0.035192710342922935,0.05100242586485616,nm,0.0
60.078446000000014,-1.4732348203266936,-4.337483430033718,114.19186632209592,0.07565720772414775,0.026902363218812217,0.0852238209048271,-0.06992361387454307,0.029735857882388743,0.03618077263474983,nm,0.0
60.087872000000004,-1.2936790123451078,-4.0442612123933195,114.55664032023364,0.05898813169091924,0.09348138591972686,0.10910750739276899,-0.06032468544227708,0.019322095288084082,0.03535422192090863,nm,0.0
60.097398,-1.226934526500768,-3.7952113010248585,114.90276973948866,0.04648913570822877,0.14324713689575175,0.11581190334054534,-0.04296014345721602,0.0022219572086844205,0.04111801177517535,nm,0.0
60.106903999999986,-1.2782007404856384,-3.642115394932826,115.23435255788075,0.017459838228552647,0.16504604655458405,0.09384408660243825,-0.015567454628434755,-0.011213724226535798,0.05089921826876781,nm,0.0
60.11640600000001,-1.4682365637998276,-3.5911620300672356,115.66948395548806,-0.008875307635603298,0.1411369317567618,0.11769304930087579,0.01492839745330025,-0.0275437376179605,0.05830052976770098,nm,0.0
60.12592699999999,-1.7899060283931967,-3.626347907792395,116.19336823994115,-0.03695565548521764,0.07070835375353329,0.06757544628992325,0.042242709567177954,-0.043467405306730364,0.05863891787987327,nm,0.0
60.145014,-2.599887935203276,-3.9317625540265726,117.12025224390477,-0.06041131161061796,-0.03531604284999835,0.05665685204269853,0.08747690610728603,-0.05959394737686439,0.03455537060526152,nm,0.0
60.15452099999999,-3.0356223882943643,-4.115076262948291,117.44430643775111,-0.0621477595948065,-0.08038324594493595,0.02851401553801397,0.09748527178888926,-0.062357571240031315,0.017928794113654466,nm,0.0
60.16404,-3.455799491347132,-4.329264721677085,117.69987398937114,-0.07754464309803974,-0.0688872834615378,-0.00798580121176724,0.09993702064779418,-0.06000996387020229,0.005901639866190516,nm,0.0
60.173558000000014,-3.8403664824804147,-4.593778760820276,117.94350994026054,-0.09094209691957802,-0.04761509670442056,-0.006868621383954862,0.10037941450579381,-0.05207280929500086,0.00180947774914166,nm,0.0
60.183066999999994,-4.179687245322238,-4.933493038425797,118.1729263961735,-0.10554559867362039,-0.014590288186126385,-0.004138711007360033,0.10253850299136502,-0.039582005695959134,0.006113645537483942,nm,0.0
60.192567,-4.473368350735567,-5.324144002950507,118.38061546221363,-0.11229927319204712,0.0065737872592450935,-0.0020041657899154187,0.1024946912626824,-0.027812035331899364,0.015734876663262443,nm,0.0
60.20208199999999,-4.724093654408899,-5.711135906395248,118.63143440772599,-0.10357655773901983,0.0004853652984119601,-0.0025247212193641043,0.09921503793422899,-0.01818748528420021,0.025818719261778925,nm,0.0
60.268643,-6.125736372650904,-7.324150675501231,119.50874025363659,-0.047509713205981755,-0.06619878897099452,-0.012399330569598327,0.05625387441840354,-0.018440595181040347,-0.0013095286995063698,nm,0.0
60.27815799999999,-6.276378714112698,-7.382521646268118,119.64864888903965,-0.07062719111838207,-0.03889023852070603,-0.00879323051265065,0.0,0.0,0.0,nm,0.0
60.28766999999999,-6.387417526780128,-7.413221814886495,119.78221813066482,-0.08152513006183043,-0.04510591446698812,-0.010341857704521907,0.0,0.0,0.0,nm,0.0
60.297179,-6.44001776703761,-7.417921430027593,119.93561982484408,-0.0938395167106595,-0.05223194153224436,-0.012019688464105602,0.0,0.0,0.0,nm,0.0
60.306689000000006,-6.42531397910528,-7.397238536150575,120.04835100388168,-0.10304429469813658,-0.057631242632450785,-0.013183957688062015,0.0,0.0,0.0,nm,0.0
60.325703000000004,-6.220145965555204,-7.283803232269423,120.14134408331142,-0.09970439336535228,-0.05606519461240771,-0.012365261324041902,0.0,0.0,0.0,nm,0.0
60.335229999999996,-6.046977451974518,-7.225262484812705,120.11527999541649,-0.08806637796036734,-0.0495256085014719,-0.010617246472575352,0.0,0.0,0.0,nm,0.0
60.354254,-5.643198761652455,-7.139648456775548,119.96320364733258,-0.07324266455589983,0.00018875633765690894,-0.0017070393048625276,0.0,0.0,0.0,nm,0.0
60.39228800000001,-4.832076038457758,-6.91737066470242,120.02813321272869,-0.03615669484157351,-0.02041051839019295,-0.0034841964673213398,0.0,0.0,0.0,nm,0.0
60.401801000000006,-4.6421215397710025,-6.834725294009718,119.96538072253762,-0.03313012394467151,-0.018676815405177242,-0.003066030875688816,0.0,0.0,0.0,nm,0.0
60.420837000000006,-4.253965572855101,-6.668075162625429,119.73224568245618,-0.03215951070070846,-0.02394550025282658,0.041431742072843274,0.0,0.0,0.0,nm,0.0
60.43033399999999,-4.091794388789326,-6.594208325264592,119.59323791782482,-0.0001659988930183146,-0.004084323265917356,0.030013099478188993,0.0,0.0,0.0,nm,0.0
60.44936200000001,-3.786956645005024,-6.484067428038937,119.38451477594488,-0.016253213498455186,0.025258237690992835,0.030301800342634317,0.0,0.0,0.0,nm,0.0
60.468378,-3.519782509442412,-6.399253119788599,119.12968051650071,-0.015932627158879133,0.023763164558989323,0.041640658179400304,0.0,0.0,0.0,nm,0.0
60.48739900000001,-3.298694372560094,-6.3163014833727456,119.1007458573998,9.598709334032253e-05,-0.003788951373436749,0.030331278677699965,0.0,0.0,0.0,nm,0.0
60.496904,-3.1996246724523605,-6.285338284022727,119.07328812869346,0.0001614175773605511,-0.0045681037577877314,0.03696095974866008,0.0,0.0,0.0,nm,0.0
