timestamp,roll,pitch,yaw,acc_x,acc_y,acc_z,gyro_x,gyro_y,gyro_z,markers,motor_input
67.51556400000001,-7.809288007361068,-26.596360754842667,-141.9622284977252,-2.1953104649277995,-1.276531566488884,1.4398889913991288,0.3503960814182684,-0.6017923156941264,-0.17067161596035169,nm,0.0
67.544103,-7.31004617434754,-22.1398074941947,-144.8484936207065,-3.7590973087782293,-2.5711152719523334,1.759099075006354,-0.10795686153588728,0.08267747671071454,-0.1925774463921023,nm,0.0
67.572632,-8.236938612424472,-28.1042264817276,-147.4993342375245,-0.4066636188925158,-0.30137871521786025,0.8270675928154023,-0.2250737543832462,0.3918960549568533,-0.025354654972948438,nm,0.0
67.582124,-8.840457842454043,-30.01795162198616,-147.67511673526963,0.1488091165738975,0.16665056969301914,0.37187829032441905,-0.12798865785871127,0.3870385613831545,-0.04630773700416353,nm,0.0
67.591647,-9.479569807330291,-31.357273807506413,-147.5907057723159,0.7535322292904384,0.3782425497743997,0.3445969799476444,-0.06301060281761307,0.29217915193958244,-0.03949381088039655,nm,0.0
67.61048199999999,-11.384872626818524,-32.38036540724109,-147.04129914345864,2.159531383901206,0.7170020225118309,0.02753122101414964,0.10804833929891629,0.1842840221034337,-0.10046785744870469,nm,0.0
67.62950699999999,-13.433181695250944,-32.752064574070175,-145.71855615759068,3.080933402194609,1.2593209082829675,-0.3906112037372206,0.0700805349013222,0.08173757275869858,0.04436594749605126,nm,0.0
67.63901999999999,-13.604800351035244,-32.58714553926468,-144.58012403711479,3.6392540209041613,1.2739794604163555,-0.5163813822626417,0.030105796670956746,-0.003996133086270829,0.15522974785336283,nm,0.0
67.648515,-13.742300232187153,-32.41332382620338,-143.28303517686211,3.2793414994742514,1.4172311352186016,-0.8619775866916084,0.02662694665497327,-0.008169456293836813,0.18872688659701084,nm,0.0
67.658028,-13.246314008719354,-32.35908952248115,-142.0973740133198,2.9395324549156774,1.2040472438226701,-0.7665131419953204,-0.07282116481085459,-0.05373686047085545,0.23832026400601358,nm,0.0
67.66754700000001,-12.470495971996943,-32.5127110812546,-141.37540396665133,2.137943675950589,0.9243849549361136,-0.9766702786555505,-0.13481012720770283,-0.051701854652202346,0.17279967291433246,nm,0.0
67.67705900000001,-11.528153655988188,-33.10248604598806,-141.28741015514296,0.9710681519712254,0.6144300835732316,-1.236639888184586,-0.21060579671597576,-0.0018324272228569553,0.06477848920100922,nm,0.0
67.68657400000001,-10.10663745181625,-34.09410637736563,-141.76282339729337,0.26092332863080153,0.27721739693391206,-1.1508053443780364,-0.3221989974003316,0.01280086981961562,0.01574214224713672,nm,0.0
67.69626099999999,-8.71195140770765,-35.184936376495735,-142.54461569733274,0.15799383142640655,0.05253365985853313,-0.777359145011256,-0.3285358267973113,0.036475664048140725,-0.0385633855211103,nm,0.0
67.705592,-8.229572854955308,-35.98083343826029,-143.32185920999956,-0.49933624425883466,0.19145116253842281,-1.0590659563607936,-0.17181249135469234,0.08529279211251534,-0.1284631262090765,nm,0.0
67.7151,-7.985021937293767,-36.042883632324525,-143.58782174551473,-0.5480331466183372,0.2741176203242899,-0.9857650889287126,-0.05214962390744324,-0.007969915126023125,-0.06258982651317405,nm,0.0
67.72479799999999,-8.061814365582364,-34.987490938902184,-143.3532295434,-0.308259756545693,0.17171043233907443,-0.6092116408337533,0.12313645636171888,-0.15651811826338968,0.0014043031070490616,nm,0.0
67.73431400000001,-8.55438904642762,-32.646887720590286,-142.90494431979204,-0.6977391264873963,0.014045279419927746,-0.5027527694322165,0.3343388736813128,-0.3196114634615058,-0.004912546538537514,nm,0.0
67.762835,-8.304348642556969,-21.551684194289088,-143.2185073984188,-3.6359209144683224,-2.7788797395867135,1.7119804837806782,0.43975564654673066,-0.6218037408642564,-0.14338621849781613,nm,0.0
67.772174,-8.23191567304131,-19.780411302511993,-144.66990266116971,-5.404271434624462,-3.512794991203512,1.5279631346740923,0.1849352424398063,-0.28880678177053454,-0.2862013662247361,nm,0.0
67.781679,-8.194905808709828,-20.33907466940891,-146.6301405490726,-3.53854569494604,-2.73089411146991,1.5652783707691527,-0.08122499343472098,0.0950438308888581,-0.3118199654665187,nm,0.0
67.791357,-8.991592797169801,-21.95874735657567,-148.3444389873812,-2.3167045882361452,-1.595745334193009,1.2719272763607656,-0.05935423100572611,0.3605538556041886,-0.274872199686121,nm,0.0
67.800884,-9.797088352698944,-23.941729133702847,-149.3444735926656,-1.531827055220084,-0.8678183187848416,0.5629478581764024,-0.08857465126539171,0.4241313508425385,-0.15010756160332542,nm,0.0
67.83873500000001,-12.365001743919736,-29.300801622181357,-146.56583995738046,2.3890832921622565,0.6481929984849539,-0.1894114944441217,-0.06622925262873712,0.17033306519016375,0.20187071448237723,nm,0.0
67.84824,-12.353586053716302,-29.83584094652778,-145.47352741144996,3.2172970899388362,1.2677357698446692,-0.41073117062823267,-0.07428421921317975,0.0941215864710687,0.17590443813743828,nm,0.0
67.86725799999999,-10.02024256076102,-29.805430698551056,-143.9138831351877,4.241016077326341,2.1167520852501545,-0.19064490079018917,-0.1994836875758232,-0.1988985353513916,0.2270497330092635,nm,0.0
67.87677,-8.427983394438431,-28.973167785142106,-143.49492074796876,3.593909744248497,2.205403496172008,-0.15408357410659426,-0.13748506068219363,-0.29343583162430625,0.1796296458675212,nm,0.0
67.89579599999999,-4.794194772457877,-27.785265628757692,-142.79950187107937,1.5148346461090054,1.0681460714782938,-0.09905712244191234,-0.2464016772185789,-0.252230288777286,0.1989445497933001,nm,0.0
67.90550300000001,-3.6771012498380418,-28.118336871969596,-142.5479781396547,0.39213773682471237,0.46820160498256164,-0.308779913719418,-0.21074480223374564,-0.06225624933798901,0.10794932171820841,nm,0.0
67.914826,-3.2426803558313986,-28.93880276181784,-142.5964587364841,-0.6816815711923254,0.24411134220322978,-0.8702347970222438,-0.1738748655361388,0.08890171727682926,0.031236418860347257,nm,0.0
67.92450600000001,-2.6723312371001384,-30.07043314528512,-142.63437406816044,-0.4972859464034329,0.10696374203230605,-0.5705036026394551,-0.22992469725337314,0.12451992467614514,0.048096241969738884,nm,0.0
67.96258399999999,-4.058266917361538,-28.110479092658636,-143.80510845926005,-0.7244946110138937,-0.23053763943353084,-0.15173698625446255,0.3107859295337704,-0.2946948221452667,-0.1463819316281078,nm,0.0
67.97207399999999,-4.65296308928803,-25.233450433353948,-144.45341589049372,-1.4786199562341427,-0.7575803998604874,0.5807487891649069,0.4107677939187735,-0.3990044003939168,-0.18400182448524569,nm,0.0
67.990905,-5.796135937781053,-19.175481541216136,-145.52069745844219,-4.19469066085475,-3.033662271519448,1.5545139997698643,0.4019928652840422,-0.3800949299873801,-0.1185312948658744,nm,0.0
68.000416,-6.376963817891343,-18.4332161812576,-146.25891387877684,-4.612951242839729,-3.3933630365095095,0.6359987237032746,0.16160964085812773,-0.055668561173211256,-0.12187563743008027,nm,0.0
68.009931,-6.306684945908281,-19.83696867008122,-147.40709291822324,-3.2508947701578985,-2.395829689395329,1.304071607566013,-0.17624553943112753,0.23533973226879318,-0.09593716225808525,nm,0.0
68.019611,-6.620790295685814,-22.375218509163588,-148.22103601501917,-2.2386612978474254,-1.2076368200286718,0.9391350401908095,-0.2305913961938681,0.4694441762035003,-0.03450505126725131,nm,0.0
68.029131,-6.371529546945312,-24.933671982597,-148.44645353742249,-0.6808419149931721,-0.40388438874321836,0.5066626519013011,-0.31823184515784,0.42027870829979785,0.09834115960387511,nm,0.0
68.038637,-6.4094711408913865,-27.556620213985386,-148.04395210085045,0.3814322323475621,-0.022384761944067553,0.7344672154477511,-0.2816950937627238,0.45764185495206244,0.15821012646650542,nm,0.0
68.04813999999999,-6.987925740584802,-29.672930791616803,-147.21978013982098,0.9574440448187375,0.645805892412794,-0.3192112331729898,-0.15316518683139613,0.4189249826643765,0.1397747754301557,nm,0.0
68.06699,-7.944847192380054,-32.12860228554292,-145.3358559681225,3.1043086818158714,1.424515455729236,-0.22761030144738587,-0.0248712230085785,0.21699054878265553,0.0800266883819945,nm,0.0
68.08600899999999,-9.259784315905403,-32.30996109948495,-143.8083850894334,3.4743077251775407,2.142011096205501,-0.812339233268528,0.056796579538806014,0.000534915451692968,0.08469468569388819,nm,0.0
68.105029,-9.29268840631477,-30.25227523344771,-141.92072010669054,2.6045202810705583,1.616820436264006,-0.6600137542185981,0.15603650261303803,-0.1723960985762925,0.12507832146584363,nm,0.0
68.11454,-9.129995284749462,-29.168865492972003,-141.1144378345372,1.6423107926772027,1.0099110372418405,-0.6483704329923861,0.10001714175935716,-0.18201981855405783,0.13212955373383087,nm,0.0
68.124045,-8.974906358947008,-28.817831458228454,-140.57714613747228,0.6203793523996752,0.2808235907592919,-0.8269292946526546,0.010181895805055175,-0.06656466271685295,0.08146563565949289,nm,0.0
68.13373899999999,-9.02813387671964,-29.30639301091648,-140.4875495759207,-0.1220925674186436,-0.22596172143096654,-0.5791342324391006,-0.0683402250540359,0.08644218273015473,-0.008740083846187111,nm,0.0
68.14308199999999,-9.17815432355385,-30.038852639334877,-140.8913525462586,-0.546294280791489,-0.38349133081282505,-0.680971944800145,-0.08596928975708247,0.1351710729728082,-0.10045131246371612,nm,0.0
68.152593,-9.292146395035118,-30.69548594044843,-141.58515955828116,-0.5861874234845337,-0.262076942645701,-0.7599600345732523,-0.08013117662439907,0.12018854414024213,-0.15613619100935192,nm,0.0
68.162106,-9.312672558125424,-31.0111211150318,-142.36648604014079,-0.46088736440415423,-0.11109173063265798,-0.7933370477458904,-0.04923106287163844,0.05747306792264644,-0.169395322672965,nm,0.0
68.17178200000001,-9.290845760637627,-30.419695426630565,-143.06497154573208,-0.30288676055053126,-0.06585817748407582,-0.5459530936136973,0.05587495336270886,-0.09075450448187332,-0.16259015648403638,nm,0.0
68.181307,-9.406673937600559,-28.503441181073164,-143.63172521522173,-0.45709069610552044,-0.1883040101707624,-0.2908383047184797,0.2327755354126842,-0.289639969100744,-0.15872531617655505,nm,0.0
68.19080500000001,-9.608263331673452,-25.543195737286087,-144.0267188342049,-0.9093438254643731,-0.5517967096417894,0.11414485363985474,0.3666614271526724,-0.4508579434132931,-0.13100317028529673,nm,0.0
68.200312,-9.78491339749357,-22.237645957275614,-144.2583940707881,-1.9416455328521742,-1.2776124330562137,0.8776363059985112,0.4016240700604418,-0.5111343359188735,-0.08503672035384459,nm,0.0
68.209645,-9.678833375755056,-19.060384579078377,-144.35470300524622,-3.579464381560715,-2.392782232238009,1.300883384055938,0.34201916309341246,-0.5224586749415464,-0.004172515223266324,nm,0.0
68.23836,-9.88764455204398,-20.043929542541836,-145.46005468005308,-2.0345285544255187,-1.5006952863887044,1.426486526792766,-0.22160805574597797,0.38721155612788055,0.07691417227281726,nm,0.0
68.247873,-10.011083360795089,-22.501426033259442,-146.124712470848,-1.039019565528136,-0.5031914959764819,0.9512747638821631,-0.2670916794772442,0.4282798911142641,0.0322487603963037,nm,0.0
68.266888,-9.52050265394679,-26.66512993955214,-146.67411991440835,0.7158459781065177,0.3247170308399279,0.4238275657395274,-0.21284532935505904,0.29976702842457664,-0.0021440544156867054,nm,0.0
68.28590299999999,-9.708941871024095,-28.369292048214092,-146.12103595821725,2.162195504585291,0.6807608400725568,0.5680756938768591,-0.04494658635960694,0.11599762793251231,0.05092124075013499,nm,0.0
68.304743,-10.539953505407876,-28.13752481916609,-144.23406640532332,2.4229998387068323,1.1322322481361402,-0.12215126532809897,0.026432688791988165,-0.03609144303193353,0.1543488062395279,nm,0.0
68.31424799999999,-10.111860186842687,-28.00986481702977,-143.06743409013973,3.0052716352240636,1.115247022264168,0.12511247683538004,-0.05857742387671531,-0.05981427843499978,0.2100941667943433,nm,0.0
68.32376400000001,-9.757605012509048,-28.176534072325705,-142.2095949923409,2.7372746129343772,1.4577405890814148,-0.34445045831949017,-0.08305673455404135,-0.006106953957411996,0.15150998092301318,nm,0.0
68.333272,-8.739497256652015,-28.668932472340053,-141.76446833903537,2.75209250987713,1.5252617557573318,-0.3711189304023537,-0.215080641341626,-0.027918679125983645,0.13097932136577053,nm,0.0
68.342784,-7.606389828481454,-29.595301809803036,-141.95400617194593,2.167990681177149,1.4310940047011935,-0.6911518157772276,-0.28368636754355114,0.028257518092786593,0.033339730327137926,nm,0.0
68.35229899999999,-6.267816005916118,-30.838469963746242,-142.70834557001257,1.3925524024562956,1.1603276540941228,-0.9033713800828586,-0.3487074311503035,0.06043706133866912,-0.03816825575856053,nm,0.0
68.371328,-4.776907347901858,-33.17612644101606,-144.6343760159063,0.08694843768239892,0.6736628472872357,-1.210725656435137,-0.17534276634993917,0.15808248818607346,-0.18101589536743737,nm,0.0
68.39035100000001,-5.922954259260547,-34.33783338428727,-144.87757621094732,-0.012873472597591158,0.2866900159906476,-0.9769824067591462,0.08558555445027312,0.14657723855970609,-0.08892700420242237,nm,0.0
68.41906499999999,-11.144689235876548,-28.478830350742395,-142.85578506102337,-0.5028232221052968,-0.6431961995688674,-0.13432815262952774,0.5690443519804405,-0.33118041597692954,-0.08235102528276586,nm,0.0
68.42855800000001,-12.251497589198038,-24.705478777465974,-142.8646334561921,-1.4562634793572033,-1.2291672577181287,0.6278879342382692,0.6019197773145746,-0.4760010164155834,-0.12955620087194455,nm,0.0
68.437892,-12.41400338602207,-20.69908597538846,-143.3157679467836,-3.0764311887643756,-2.2040016305465557,1.0878303406109497,0.4934356554341041,-0.6170900039250864,-0.12063813087419367,nm,0.0
68.44739999999999,-12.01372413171153,-17.681384518090763,-144.0499590680429,-5.216414385890635,-3.4213208797892567,1.5760794347205989,0.28321941141574897,-0.5261142832918486,-0.08387577665562648,nm,0.0
68.45691299999999,-11.974538217161268,-17.286191304005865,-144.6796071503675,-4.453693643097994,-2.9231410925230725,1.0372792299812439,0.026824062541893547,-0.06268871209653251,0.025606062737908105,nm,0.0
68.46660399999999,-11.796439903814578,-18.418466103849326,-145.17404226239944,-2.419813105088188,-1.9459405324245687,0.9126280737700578,-0.1695735854443866,0.17354149298553664,0.07779030952387829,nm,0.0
68.47594000000001,-11.566153013304058,-20.722171950900606,-146.24748722529952,-1.6327215989257637,-1.1487579061919706,1.0056737559849702,-0.3045203088634461,0.36639495497443475,0.04844300411643962,nm,0.0
68.48545100000001,-11.020723707951392,-23.11408840878431,-147.5364250324599,-0.4936762341442631,-0.4789872255260414,0.7997752259844352,-0.3554141723720223,0.356192229179936,0.017896681450088985,nm,0.0
68.495146,-10.476285490636855,-25.243993695964676,-148.60234145632302,0.06641314228801935,-0.003660759470424378,0.8478882585167207,-0.3202151813262995,0.31848466185816704,-0.010672254389915753,nm,0.0
