timestamp,roll,pitch,yaw,acc_x,acc_y,acc_z,gyro_x,gyro_y,gyro_z,acc_mag,gyro_mag,motor_input,markers
0.0005164146423339844,-57.44535953773109,36.2824141656815,143.92792341399664,0.03425995322280889,0.045880103847424414,-0.0009225026805128909,0.12673338055458383,-0.12099700332357008,0.0815379456550978,0.05726761157124554,0.19326163908476685,0.0,nm
0.015486717224121094,-58.59940002988556,36.5034622495652,143.66318823343363,0.07048776710869638,0.08834892404063602,-0.005988475918789773,0.10356802253097619,-0.11398572162312737,0.09387823591518507,0.11318091506494289,0.18036685727557883,0.0,nm
0.03109288215637207,-59.52196560755989,36.763636119059704,143.54964690034197,0.0673185580856383,0.04565552913735754,-0.03617159655222529,0.07561541690386568,-0.09977846665371623,0.10102220335185476,0.08902022242546083,0.16086926136268442,0.0,nm
0.03548169136047363,-61.59927512992793,37.41704459320966,143.29561694528687,0.11792047442564188,0.05150414647705969,-0.027318287742203934,0.08818682449911552,-0.11956855103571494,0.10667496437548206,0.13154544552459704,0.18290189292768005,0.0,nm
0.04992365837097168,-62.526839405259814,37.6744867494823,143.25829842419583,0.12916647218690125,0.005449884839133303,-0.03564336098296172,0.08312908271631458,-0.08567029204773936,0.10742672203337889,0.13410491401932692,0.16059372322615129,0.0,nm
0.053511857986450195,-63.348423633423685,37.77774632911605,143.31646881492097,0.12116237953226669,0.005996736385979343,-0.07531384702520895,0.08752830752393789,-0.05132959113967014,0.11410693278532615,0.14278815992560637,0.15269683577024667,0.0,nm
0.0623929500579834,-64.22563016663507,37.8222991880729,143.3036357830045,0.11310189435408544,0.015736278230085093,-0.10470529112517166,0.10111997464050741,-0.04564969810811814,0.10701530182506974,0.154928586608877,0.15414739385850793,0.0,nm
0.09710955619812012,-65.50610826636557,37.714492030050565,143.4536649547039,-0.07987216549570136,-0.09141952327508104,0.012581947381486934,0.09286303160337137,-0.02232400718595637,0.10826702395591364,0.12204670194940255,0.1443733092080311,0.0,nm
0.09938931465148926,-66.54920890496757,37.557791127535744,143.8122042216339,0.01030353617776126,0.040169287700015106,-0.07503320909606354,0.04713256253808182,-0.018202711819408756,0.11752663563027145,0.08573049048819568,0.1279270387821012,0.0,nm
0.12926745414733887,-67.7265802718266,37.61738604188986,144.5779799961144,0.12044243533189698,0.10301808550561979,-0.04988462103715562,0.0275375634283373,-0.012139606742355565,0.14880867830684213,0.16615529358386993,0.15182131006831015,0.0,nm
0.13109445571899414,-68.1071718213655,37.70526458982473,145.06536827666693,0.21281834034477945,0.06479603377065744,-0.054355525449294735,0.019866450444687225,0.01358968755641509,0.14649714229913327,0.22900806781941874,0.14846133558258426,0.0,nm
0.14036226272583008,-68.42005092049342,37.724382160531675,145.575354472028,0.2558423895243277,0.035520539076618535,-0.06776790100001234,0.025741502858196173,0.04174856000007648,0.1428544222058105,0.2670384342744671,0.15103957486445224,0.0,nm
0.16652297973632812,-68.79033577769056,37.504514292292065,146.42443586659982,0.19956031002011254,-0.01564633096083545,-0.043350551389511834,0.04372993835649154,0.06076837873348143,0.0873515013156349,0.20481307407886376,0.11504515698043857,0.0,nm
0.1682908535003662,-68.74350485288116,37.28316488208646,146.84282586526695,0.09843083738933776,0.003755334575433996,-0.10553842701731686,0.014847723544939587,0.0820716513370225,0.06924619075682523,0.1443644411350289,0.10840316315487925,0.0,nm
0.17783665657043457,-68.44327713720932,37.02646044231546,147.39825626703134,0.013874213970600145,0.07167168121645891,-0.12850268260914507,-0.016999269205057056,0.08263587363200986,0.06009358796273783,0.14779128235265565,0.10358041358609653,0.0,nm
0.1854689121246338,-67.98885017278826,36.94408899148594,147.93582875695225,-0.03677728330612585,0.06880687434348536,-0.16230868866211068,-0.05729935664196927,0.06622297422584884,0.03750248984444396,0.18008627082460563,0.09526350471945513,0.0,nm
0.19371819496154785,-67.46059762632413,36.98171167102111,148.50745972520303,-0.01199289596531012,0.10248552798694227,-0.14234452931251573,-0.0805389073068379,0.05153816353564503,0.047660071772489696,0.17580977795787905,0.10683716737243265,0.0,nm
0.22364187240600586,-66.8836203540018,37.00146269781494,149.20828760408529,0.03476790384858001,0.11957061804010118,-0.038609684912234106,-0.1133510043318869,0.06566332477465531,0.06268572059277336,0.13037119162429203,0.1452226634163709,0.0,nm
0.2318401336669922,-65.2906263039047,37.22524944222209,150.62949178553953,-0.02644278121995912,-0.16066499189683553,0.3639985002593676,-0.1363695550523646,0.07277625462197042,0.014444403851727306,0.39875728017294637,0.15524715644614417,0.0,nm
0.23379206657409668,-64.75781217861208,37.452252718293664,150.76326389764978,0.21477195134434043,-0.083482811153476,0.45144217253592756,-0.10106923633967185,0.015258261105672292,-0.05742234765053605,0.5068494904666482,0.11723963099546304,0.0,nm
0.2521514892578125,-64.86652552544759,38.16155457028188,150.5053529058526,0.01106440418531933,0.038620330300243894,0.39357515439539537,-0.00925632415553969,-0.0752931855964514,-0.03476401096649717,0.39562021322201846,0.08344626889569623,0.0,nm
0.2644209861755371,-65.31514416213986,38.770912201139,150.2467088788374,-0.07462744155621709,0.16786402045077897,0.18438414055787022,-0.0038091338658180355,-0.12734552424457585,-0.03286531593693263,0.2602788805961609,0.13157325350377247,0.0,nm
0.2725868225097656,-65.84015047999371,39.507115660933295,150.13950639523043,-0.14933601397788088,0.1636880935444203,0.02134646103286918,-0.007123136901221585,-0.15498161477779238,-0.0016929036522300477,0.22259988418154336,0.15515445827052896,0.0,nm
0.27968549728393555,-66.3631259913342,40.1973876027231,150.24798892412568,-0.10416934605315509,0.27001919911134153,-0.13908468044895847,-0.003782543164674421,-0.14646318233039887,0.05679483158132997,0.32110149311621267,0.15713505116775164,0.0,nm
0.3097803592681885,-67.55481327208959,41.00811517540118,150.7059963019508,0.0764872300100879,0.08056414705109333,-0.09515948869272157,0.04196440603779727,-0.0683626532070124,0.10522910973313145,0.14627442166334648,0.1323163983141726,0.0,nm
0.3118472099304199,-68.13483275875413,40.97414250579623,151.0754426398946,0.11048624594754035,-0.01801098039693693,-0.0018095337734382521,0.07827159745973407,0.001182237919252343,0.1172399716201481,0.11195927996783668,0.14097181136982492,0.0,nm
0.3178691864013672,-68.72903849181385,40.71358323300038,151.24474060884486,0.13093664472611014,-0.09434178923176789,0.07101521168303049,0.11673866898939898,0.043492864999654525,0.09840749549769272,0.17631772009066057,0.15875635834014035,0.0,nm
0.32764506340026855,-69.50008165846626,40.190679842874694,151.15271391373707,0.19793460779812486,-0.07800354006707175,0.16495594406689615,0.14759573217185645,0.048336535816090334,0.07173583972570825,0.26920832957060176,0.17107586489975454,0.0,nm
0.35275983810424805,-71.13069541863777,39.50461016121724,150.81697604489756,0.13421693490147424,-0.07495913019283078,0.12674639483225383,0.12920750024272398,-0.010359995512608902,0.03695617119071677,0.19924283027648926,0.13478748538003205,0.0,nm
0.3560657501220703,-72.13212455579871,39.76128041507597,150.30335022992588,0.16999059919762893,-0.02937108398993256,0.06652253038478123,0.10934622523121158,-0.07253030749922315,0.012839579420528897,0.18489107993385387,0.13184118202573422,0.0,nm
0.38158321380615234,-73.86037507039379,40.697313678988706,149.32628447163137,0.05521007328546995,-0.06276460646866686,-0.04929491750742462,0.060632333111638445,-0.11500479322062129,-0.016677517706399515,0.09704399471073612,0.13107448981066383,0.0,nm
0.38480043411254883,-74.62268668552859,41.08643503427702,148.88318427472052,0.06110043828703889,-0.022803743852352083,-0.07350705792183103,0.059157677950342435,-0.09755215576667349,-0.027310280174945547,0.09826780681828284,0.1173111476307166,0.0,nm
0.3974609375,-75.19032483693839,41.239555831262166,148.51822450742856,0.02734001779916791,-0.03672792771337006,-0.048475300214137484,0.060148977446460195,-0.05589877400210327,-0.02855218016672048,0.06668037176132202,0.08693560499050927,0.0,nm
0.42766308784484863,-76.02579601937319,40.93244884534933,147.83896264340606,-0.07278857773811753,-0.0229844812720973,-0.02365591058943373,0.08267309973659034,-0.009054549426788816,-0.04050624478803104,0.07991286213308002,0.09250720054247814,0.0,nm
0.4294464588165283,-76.22045107370819,40.6226817257385,147.56156104559912,-0.27428196525891857,-0.13862194066995184,0.015417364359085771,0.08133140350719592,-0.00882497416269696,-0.047068303174382306,0.30770819622684586,0.09438274486969617,0.0,nm
0.44571447372436523,-76.9356175386306,40.21378234519135,147.01773513587293,-0.2672403945149524,-0.10115049963601307,-0.07298511461880886,0.07685438368635314,-0.05290099838916869,-0.029627622716082762,0.29491639322533963,0.09789232835205502,0.0,nm
0.4512608051300049,-77.1023514751165,40.16088838025624,147.07597577584914,-0.28919782462689986,-0.16002044014995176,-0.08307373825992398,0.05830260364621435,-0.05944943706327922,-0.0026999384008396673,0.3407978418699182,0.08331097662635274,0.0,nm
0.48148608207702637,-77.22039575018225,40.38302680458867,147.2150283580967,-0.10166188600859234,-0.17355354768889925,-0.11041047770039847,0.039503072303195746,-0.05582013360609052,0.00972892155495675,0.2294481348110227,0.06907265704905095,0.0,nm
0.48339271545410156,-77.31713113674418,40.600115898551984,147.06945509776742,-0.05496033524991567,-0.24961069958054974,-0.10449567868285474,0.04307474616511831,-0.04482805384451,-0.01369957953096412,0.27612585293533276,0.06366055802457966,0.0,nm
0.49228978157043457,-77.5683075142342,40.72607605355169,146.8376536595866,0.001711377310090018,-0.18024632334660387,-0.11618831473455199,0.05770913938938475,-0.026774295750357117,-0.029834142309230056,0.2144560336598653,0.07026580768281555,0.0,nm
0.5183241367340088,-78.04388462856383,40.35579904896347,145.96106763419232,-0.09527100973522484,-0.17518800193536768,-0.11260176076980791,0.07034265168874439,0.021800047776672365,-0.06061537398575374,0.22901213471459705,0.09538110029299307,0.0,nm
0.5200297832489014,-78.17557741035277,40.00566613117049,145.58306055159383,-0.10704807647678596,-0.10029415439955523,-0.07997873758028942,0.07411224952603639,0.03378163385380177,-0.06108115259866325,0.16707724725119946,0.10180732546542509,0.0,nm
0.5265522003173828,-78.16589052433933,39.59817824193188,145.30220052954982,-0.1859562026665499,-0.1169493940729097,-0.01646818964531803,0.0662060918817431,0.03994559207162693,-0.0546170789166388,0.2202908789631969,0.09466742965557365,0.0,nm
0.5524439811706543,-77.80403757790293,39.104927937873725,144.69477917023968,0.08215312765525275,0.020984692036422743,0.18222156745292317,-0.04010153291813035,0.09241526154877401,-0.054351266548473456,0.20098306726787704,0.11446734768018088,0.0,nm
0.5557732582092285,-77.41152245101239,38.974158182390696,144.66857608951497,-0.2595890233963952,-0.23582723111695533,0.09319463379304586,-0.04018794075685017,0.0696539663732503,-0.0410172381251886,0.3628859101315509,0.09027269485963299,0.0,nm
0.5666029453277588,-77.9372014355825,39.01744847855882,144.0211619541264,-0.07273564579740902,-0.049224746434789454,0.20886128195005324,0.05592354362238006,-0.041717032478486564,-0.06789711210818512,0.22657578186769012,0.09735384616298838,0.0,nm
0.6111361980438232,-78.2271952494939,38.630109698419595,143.4468446708683,-0.18118894902401947,0.08126386102464965,-0.021462296980136766,0.0,0.0,0.0,0.19973452517961407,0.0,0.0,nm
0.6128671169281006,-78.36787726801509,38.17831333197069,143.16602244045663,-0.31239129662126885,0.05687400454316158,-0.043487770170210695,0.053641778785406734,0.0022084276998341834,-0.0182147452402826,0.3204905002521451,0.056692984824723285,0.0,nm
0.6145279407501221,-78.9835691314842,37.97588418504812,142.55322419008334,-0.08103106587277507,0.07991444926289948,0.0042334533255794825,0.07949553563579485,-0.03180810840990869,-0.02226650549367337,0.113887115006617,0.08847086081608012,0.0,nm
0.623284101486206,-79.27984708810057,37.67619736361086,142.53783866104718,-0.14558054159839326,0.05640844147760042,-0.05631784976534688,0.05528334751366606,-0.0019499376900493925,0.04888737809018147,0.1659738128868695,0.07382429482117792,0.0,nm
0.624934196472168,-79.3628706220841,37.45754335469914,142.73043284807866,-0.20032502421595869,-0.031070685266594903,-0.0731701519701857,0.03940181006838655,-0.007499345472183706,0.06749953800290212,0.21552116821648937,0.07851707107235724,0.0,nm
0.6530129909515381,-79.90010622096645,37.974961381289916,142.76693877576076,0.15830285927352625,-0.14467215217347662,0.02852761407707365,0.017242725610655287,-0.02763976940478312,0.07531303209648477,0.2163415162043797,0.08205681716225702,0.0,nm
0.6548140048980713,-80.03269944729877,38.265306689339006,142.89958667297262,0.14145858112576856,-0.13590380880976657,-0.013500313597323305,0.0030391328993138247,-0.011525892702209467,0.07072265197838168,0.196628161488489,0.07172012293783267,0.0,nm
0.6664409637451172,-80.2673053230292,38.594601981498045,142.72373349395113,0.20309756146920344,-0.1258768412846975,-0.01280920267673689,0.0,0.0,0.0,0.23928575870653798,0.0,0.0,nm
0.6745805740356445,-80.4381354260634,38.83066439101164,142.44681719753376,0.17278518887047972,-0.12674743948969255,0.00777369651516301,0.0,0.0,0.0,0.21442962777496602,0.0,0.0,nm
0.6792502403259277,-80.47495050954197,38.764841031570526,142.207309263731,0.06706255539837111,0.03751299927225869,-0.11467699588045228,0.0,0.0,0.0,0.13804138812372665,0.0,0.0,nm
0.6969645023345947,-80.52266024129865,38.62751561869381,141.8008144012601,-0.07500707989858287,0.05902302527006141,-0.07626794950303946,0.004189321791873587,0.014331793487961503,-0.058763555651393164,0.12217438220977783,0.06063090131650547,0.0,nm
0.7162597179412842,-80.32430732218448,38.40329374228361,141.41903837644,-0.09173221263632955,0.13600070526950603,-0.06459837146310234,-0.04189062970375353,0.03379554907616164,-0.00909779338332139,0.17630638180350927,0.0545869383532531,0.0,nm
0.7190771102905273,-80.04455592586444,38.34011754818544,141.49895773857284,-0.10072544709396052,0.09904487022472946,-0.0035507968944965083,-0.05356816812331921,0.02789484070198643,-0.0008525203755129314,0.14130856367785252,0.06040196656457516,0.0,nm
0.7276415824890137,-79.82945261789077,38.44433785094797,141.58990798980497,-0.0001501253418739966,0.015223224959957048,0.0766322093320612,-0.04786765169855896,0.017730157952278884,-0.0010174316767857774,0.07812979343958731,0.051055908055427236,0.0,nm
0.7384955883026123,-79.66712390815032,38.48918115482356,141.8022798528026,0.025320339122509687,0.0020337363674594222,0.13573774484531845,0.0,0.0,0.0,0.1380941382991472,0.0,0.0,nm
0.7445278167724609,-79.5803220710478,38.46945275971016,141.89398837956085,0.0019237130229592101,-0.04163460318203485,0.14034722096761054,0.0,0.0,0.0,0.1464052023913478,0.0,0.0,nm
0.754523754119873,-79.67985042124837,38.41488913666615,141.77884387542147,0.07014480947342387,-0.04178129821258926,0.13831167411420214,0.0,0.0,0.0,0.16061161344269442,0.0,0.0,nm
0.7812395095825195,-80.0555616826633,38.27256979199167,141.70829754443457,-0.019288173031939703,-0.01963489038533283,0.003766368315500319,0.0,0.0,0.0,0.027780354022979733,0.0,0.0,nm
0.7840466499328613,-80.33108998686876,38.27468396214505,141.59872760460738,0.0,0.0,0.0,0.0,0.0,0.0,0.0,0.0,0.0,nm
0.8094844818115234,-80.77486997299391,38.43743824852314,141.4839248971218,-0.02201026713737295,0.0043935712985870914,-0.09655845370898378,0.0,0.0,0.0,0.09913269042492617,0.0,0.0,nm
0.8122859001159668,-80.80918220447013,38.546422845656785,141.46289080947983,0.0013939543288825549,0.016668175397353973,-0.10352418481787853,0.0,0.0,0.0,0.10486671551047186,0.0,0.0,nm
0.8374307155609131,-80.64604580785043,38.67953332175774,141.5281865863544,0.018783985823069865,-0.025143452837419575,-0.03790915888269165,0.0,0.0,0.0,0.049215197563171394,0.0,0.0,nm
0.8411417007446289,-80.52635484283213,38.66626650905908,141.61486564291042,0.0,0.0,0.0,0.0,0.0,0.0,0.0,0.0,0.0,nm
0.8651394844055176,-80.15665074882878,38.71058186965246,141.82902751423802,0.05552914498619958,-0.03775045992325605,0.087951518458063,0.0,0.0,0.0,0.1106528479813996,0.0,0.0,nm
0.8898184299468994,-80.10189255502279,38.781467750804076,141.89659601910768,0.053356294091464626,-0.03070875010627167,0.11336534171733853,0.0,0.0,0.0,0.12900241143076838,0.0,0.0,nm
0.8979887962341309,-80.20396544278894,38.91097370459963,141.80948410864337,0.04693750397140632,-0.02981267507627575,0.0862575242350421,0.0,0.0,0.0,0.10262692318016872,0.0,0.0,nm
0.8997478485107422,-80.3846919977302,38.974223093354475,141.69547310987346,0.006480272441723687,0.0007883445865899127,0.03891370792464607,0.0,0.0,0.0,0.03945747182158065,0.0,0.0,nm
0.9215917587280273,-80.80995846552962,38.95237019489319,141.41599235858638,-0.034238284918822824,0.02731642060905347,-0.03540835849712923,0.0,0.0,0.0,0.05632227659225464,0.0,0.0,nm
0.9269530773162842,-80.9815197285409,38.86926680714988,141.35419347687767,-0.00691525328224976,0.049963269130388725,-0.07792082674246631,0.0,0.0,0.0,0.09282135654246157,0.0,0.0,nm
0.9506120681762695,-81.06476449898902,38.74938255449135,141.3155925321916,0.04464179249328577,0.011303791749902783,-0.034616662069106026,0.0,0.0,0.0,0.057610577481443805,0.0,0.0,nm
0.9549615383148193,-81.00967620486844,38.76397128874281,141.3790976813142,0.03209016141472172,-0.03228349195811019,-0.005785392329707459,0.0,0.0,0.0,0.04588543425795269,0.0,0.0,nm
0.9797325134277344,-80.83185005942829,38.9025887511515,141.51170039458017,0.055430094867644726,-0.04407260992799215,0.057146503337568516,0.0,0.0,0.0,0.09099787473678589,0.0,0.0,nm
0.9849748611450195,-80.77237884529015,38.98819101501167,141.5128825915339,0.05718076323640059,-0.04546264515426114,0.059130847491579,0.0,0.0,0.0,0.0939837694168091,0.0,0.0,nm
1.0131561756134033,-80.73304991127775,39.048149063027566,141.41295708524547,0.022491697886124835,-0.017946560315500116,0.02334096506476568,0.0,0.0,0.0,0.037050724029541016,0.0,0.0,nm
1.0148365497589111,-80.77457161493605,39.00720901032001,141.32669007400014,0.0,0.0,0.0,0.0,0.0,0.0,0.0,0.0,0.0,nm
1.0210821628570557,-80.80565726788518,38.926393617676396,141.34935059191486,0.0,0.0,0.0,0.0,0.0,0.0,0.0,0.0,0.0,nm
1.0451674461364746,-80.79791458696214,38.6992019728726,141.337436910122,-0.01750382338433119,0.01400443898544673,-0.017958645322985474,0.0,0.0,0.0,0.028723180294036865,0.0,0.0,nm
1.0497362613677979,-80.73446654141947,38.60041432810567,141.31748852564257,0.0,0.0,0.0,0.0,0.0,0.0,0.0,0.0,0.0,nm
1.0740182399749756,-80.5174279277296,38.47878610035408,141.41800265101585,0.0,0.0,0.0,0.0,0.0,0.0,0.0,0.0,0.0,nm
1.0784387588500977,-80.38920420265708,38.4612302961584,141.45278405517425,0.019513788623531002,-0.015548240985307597,0.01981910553663797,0.0,0.0,0.0,0.031864285469055176,0.0,0.0,nm
1.102642297744751,-80.16565086817523,38.430012466381186,141.47663763072717,-0.014345170602650238,-0.014947911105340082,0.043763481352629856,0.0,0.0,0.0,0.04841968882731767,0.0,0.0,nm
1.1262147426605225,-80.07214962117129,38.31852499572922,141.4188692680348,-0.017855361224011247,0.024889554230918563,0.037302941482516526,0.0,0.0,0.0,0.0482681393623352,0.0,0.0,nm
1.129972219467163,-80.05647396604411,38.23065400083814,141.40760472726694,-0.054042791032701716,0.02240811090836203,0.02622560293048878,0.0,0.0,0.0,0.06411340691425921,0.0,0.0,nm
1.1576671600341797,-80.1148550711384,38.03634252937604,141.47991425819214,-0.015185327333276172,0.021141871637261226,0.032017802432511774,0.0,0.0,0.0,0.04126393795013428,0.0,0.0,nm
1.1738972663879395,-80.16302932857263,38.03491369151706,141.45952775413502,-0.012097829244023984,0.016809979942379,0.025485257613759336,0.0,0.0,0.0,0.03283947706222534,0.0,0.0,nm
1.1766033172607422,-80.23263299120623,38.07249600707313,141.4473265480641,0.0,0.0,0.0,0.0,0.0,0.0,0.0,0.0,0.0,nm
1.2035002708435059,-80.41999966926664,38.21123458269813,141.42233471369894,0.0,0.0,0.0,0.0,0.0,0.0,0.0,0.0,0.0,nm
1.2065973281860352,-80.516405180852,38.29753028520293,141.49931457591504,0.0,0.0,0.0,0.0,0.0,0.0,0.0,0.0,0.0,nm
1.2257883548736572,-80.70674439837168,38.49214943877498,141.42855602051432,0.0,0.0,0.0,0.0,0.0,0.0,0.0,0.0,0.0,nm
1.230525016784668,-80.78174578815442,38.593344178350506,141.3495633984349,0.009638047407598556,-0.012899310197436864,-0.019525793549924113,0.0,0.0,0.0,0.02530890703201294,0.0,0.0,nm
1.2667226791381836,-80.83497401756127,38.83225097849263,141.1411728902521,0.0,0.0,0.0,0.0,0.0,0.0,0.0,0.0,0.0,nm
1.268409252166748,-80.80986810447898,38.878363573229436,141.0631622698964,0.0,0.0,0.0,0.0,0.0,0.0,0.0,0.0,0.0,nm
1.29292893409729,-80.75332686644572,38.94677616802015,140.95728409190113,-0.010510305649570038,0.014236430008715136,0.02119479240553026,0.0,0.0,0.0,0.027610898017883297,0.0,0.0,nm
1.2975258827209473,-80.75090644629354,38.98920913097095,140.91918017875304,-0.013104632375652413,0.017769365635855898,0.02640567519971002,0.0,0.0,0.0,0.03442007303237915,0.0,0.0,nm
1.3259963989257812,-80.78562438569465,39.101167116668734,140.88158978336472,0.0240786858239771,-0.019581067282896825,0.025222903945680848,0.0,0.0,0.0,0.039992451667785645,0.0,0.0,nm
1.3278024196624756,-80.86195869087098,39.16464470053572,140.87683894684164,0.03777458857537818,-0.030723938535667333,0.03966196062981133,0.0,0.0,0.0,0.06280088424682617,0.0,0.0,nm
1.3372471332550049,-80.96379562734086,39.21893319762634,140.82900657998172,0.04255456905823078,-0.03467080051450578,0.04479772754401216,0.0,0.0,0.0,0.07085049152374268,0.0,0.0,nm
1.3594696521759033,-81.19664291693032,39.27862414448238,140.81537601900746,0.03834863236340988,-0.03877020077461227,-0.004218899449907949,0.0,0.0,0.0,0.054695019744179146,0.0,0.0,nm
1.3846633434295654,-81.34109754703645,39.28672721076402,140.7475553675167,0.014421591434454957,-0.0189828690267738,-0.028332316942576825,0.0,0.0,0.0,0.037027716636657715,0.0,0.0,nm
1.3863530158996582,-81.34424119888394,39.28278851297371,140.68454168607718,-0.020919135778762445,0.01713154130611365,-0.022117489991223455,0.0,0.0,0.0,0.03493255376815796,0.0,0.0,nm
1.392871379852295,-81.30114201594272,39.27428482054257,140.64422842311274,-0.02478423937508377,0.020325983861544644,-0.026211181056108396,0.0,0.0,0.0,0.041405677795410156,0.0,0.0,nm
1.423309087753296,-81.09686970628793,39.23680258558882,140.59100737443347,-0.014082404414100172,0.018906073279500897,0.02802068357680095,0.0,0.0,0.0,0.03661847114562988,0.0,0.0,nm
1.4251298904418945,-80.99707068198619,39.21243606591583,140.63362257674012,-0.020851535808801374,0.0281131619329569,0.04161079251647666,0.0,0.0,0.0,0.0543745756149292,0.0,0.0,nm
1.4499571323394775,-80.9194530432276,39.177336054056966,140.72356680394603,0.005598854057440176,0.008004839933142962,0.0780244060872924,0.0,0.0,0.0,0.07863353339629643,0.0,0.0,nm
1.4517018795013428,-80.9706508278362,39.17732857546254,140.66399065558062,0.014058849302429947,-0.001247987688437067,0.07401162745583822,0.0,0.0,0.0,0.07534540275053755,0.0,0.0,nm
1.475975751876831,-81.21486566597007,39.21671486183523,140.54130778394654,0.0,0.0,0.0,0.0,0.0,0.0,0.0,0.0,0.0,nm
1.4779841899871826,-81.37780027780919,39.25020983758893,140.46587710617814,0.0,0.0,0.0,0.0,0.0,0.0,0.0,0.0,0.0,nm
1.504019021987915,-81.65002665096614,39.333775769547394,140.33470570390372,-0.006065148389079353,-0.001100649301371512,-0.0448149982398166,0.0,0.0,0.0,0.04523694862721099,0.0,0.0,nm
1.5092432498931885,-81.71838732490282,39.37356240229225,140.31633386637162,-0.0028808267292865413,-0.003954359520302865,-0.043142118760169365,0.0,0.0,0.0,0.04341864268924743,0.0,0.0,nm
1.5305123329162598,-81.72183414340314,39.451064890200065,140.44811802520485,0.0,0.0,0.0,0.0,0.0,0.0,0.0,0.0,0.0,nm
1.5353713035583496,-81.68284674012604,39.480658936267695,140.59028915577483,0.026757711405629273,-0.02198662792673216,0.028528925334106035,0.0,0.0,0.0,0.04486966133117676,0.0,0.0,nm
1.5578131675720215,-81.639673158179,39.51735864104488,140.56588444999988,0.03312710191780476,-0.027243957884888755,0.0353784443440179,0.0,0.0,0.0,0.055599212646484375,0.0,0.0,nm
1.563420057296753,-81.66433365415904,39.52579944665376,140.49948853484008,0.012119818165139106,-0.004519623339485664,0.04744389714611659,0.0,0.0,0.0,0.04917560740751607,0.0,0.0,nm
1.5863847732543945,-81.80687608391196,39.527475144173685,140.3284793066758,-0.011562146135561316,0.015023852777472934,0.022408972946537636,0.0,0.0,0.0,0.02935236692428589,0.0,0.0,nm
1.5942456722259521,-81.90980790942692,39.5213255377803,140.26301389664474,0.0,0.0,0.0,0.0,0.0,0.0,0.0,0.0,0.0,nm
1.6167259216308594,-82.12137886128157,39.48827526848209,140.20985427664377,0.0,0.0,0.0,0.0,0.0,0.0,0.0,0.0,0.0,nm
1.6418380737304688,-82.25024207253327,39.42471441739842,140.24790148787443,0.0,0.0,0.0,0.0,0.0,0.0,0.0,0.0,0.0,nm
1.6550350189208984,-82.29158853176907,39.361641749793165,140.26585822897158,0.01776729521917468,-0.014768586209165728,0.018951827517582075,0.0,0.0,0.0,0.029882431030273434,0.0,0.0,nm
1.6709723472595215,-82.28916540686255,39.34420659752354,140.24297936083747,0.0,0.0,0.0,0.0,0.0,0.0,0.0,0.0,0.0,nm
1.693840503692627,-82.27467379973737,39.33630148351159,140.16181178262696,0.0,0.0,0.0,0.0,0.0,0.0,0.0,0.0,0.0,nm
1.6956369876861572,-82.26871028904728,39.32816679719857,140.12720143360292,0.0,0.0,0.0,0.0,0.0,0.0,0.0,0.0,0.0,nm
1.7033390998840332,-82.25349624048515,39.30363320700558,140.11296118638464,0.0,0.0,0.0,0.0,0.0,0.0,0.0,0.0,0.0,nm
1.7210242748260498,-82.23003811332431,39.19020652125645,140.1491816220242,0.0,0.0,0.0,0.0,0.0,0.0,0.0,0.0,0.0,nm
1.725675106048584,-82.21800625137219,39.11477686802405,140.18941284840975,0.0,0.0,0.0,0.0,0.0,0.0,0.0,0.0,0.0,nm
1.7502033710479736,-82.21776362902256,39.005782858976424,140.2557351646347,0.0,0.0,0.0,0.0,0.0,0.0,0.0,0.0,0.0,nm
1.7529962062835693,-82.22240612192813,38.98929044201796,140.20982248162136,0.0,0.0,0.0,0.0,0.0,0.0,0.0,0.0,0.0,nm
1.7763104438781738,-82.26503734321783,39.02870965715012,140.04627431776038,0.0,0.0,0.0,0.0,0.0,0.0,0.0,0.0,0.0,nm
1.8026657104492188,-82.29105911503108,39.071091367986675,140.01676125058214,0.0,0.0,0.0,0.0,0.0,0.0,0.0,0.0,0.0,nm
1.8070673942565918,-82.29067318566061,39.07318691834782,140.0306450588169,0.0,0.0,0.0,0.0,0.0,0.0,0.0,0.0,0.0,nm
1.8121683597564697,-82.27049728450321,39.05986650485784,140.0677976717477,0.0,0.0,0.0,0.0,0.0,0.0,0.0,0.0,0.0,nm
1.8380744457244873,-82.23043848817802,39.01812282143531,140.1477454768117,0.018121577974236202,-0.015126350610294341,0.01912735276694867,0.0,0.0,0.0,0.030381798744201664,0.0,0.0,nm
1.8415813446044922,-82.2273129658668,39.0066166835083,140.16790471291068,0.01705814560405703,-0.014228507198397815,0.017992224427630384,0.0,0.0,0.0,0.028585851192474365,0.0,0.0,nm
1.8501832485198975,-82.25072955359,39.01879321907355,140.15975696756175,0.015062341806808188,-0.01256740385297878,0.015895923430164695,0.0,0.0,0.0,0.02524864673614502,0.0,0.0,nm
1.8740260601043701,-82.33469704935163,39.09987752336464,139.99987795509742,0.0,0.0,0.0,0.0,0.0,0.0,0.0,0.0,0.0,nm
1.87813401222229,-82.38345203351885,39.137558843158835,139.9349239466599,0.0,0.0,0.0,0.0,0.0,0.0,0.0,0.0,0.0,nm
1.9036345481872559,-82.42465081785461,39.143957500512784,139.84754906899278,0.0,0.0,0.0,0.0,0.0,0.0,0.0,0.0,0.0,nm
1.9056642055511475,-82.4159955098524,39.09822693400226,139.8616854493989,0.0,0.0,0.0,0.0,0.0,0.0,0.0,0.0,0.0,nm
1.9320316314697266,-82.36033565722849,38.99827318694064,139.90572424471625,0.0,0.0,0.0,0.0,0.0,0.0,0.0,0.0,0.0,nm
1.934211254119873,-82.32944075231528,38.972800882884876,139.93135561982683,0.0,0.0,0.0,0.0,0.0,0.0,0.0,0.0,0.0,nm
1.9600682258605957,-82.26707852117727,39.00111482887038,139.96839433031727,0.0,0.0,0.0,0.0,0.0,0.0,0.0,0.0,0.0,nm
1.9619576930999756,-82.2408604627506,39.02996212916588,139.9810969740362,0.0,0.0,0.0,0.0,0.0,0.0,0.0,0.0,0.0,nm
1.9856655597686768,-82.20844979801312,39.03532210881157,140.10575715745117,0.0,0.0,0.0,0.0,0.0,0.0,0.0,0.0,0.0,nm
2.007486581802368,-82.18719975133988,38.92527247234429,140.17908652312738,0.0,0.0,0.0,0.0,0.0,0.0,0.0,0.0,0.0,nm
2.012589693069458,-82.17087457470616,38.85777220218554,140.17815163721932,0.0,0.0,0.0,0.0,0.0,0.0,0.0,0.0,0.0,nm
2.031778335571289,-82.09702631816528,38.79463986315762,140.23983022844558,0.0,0.0,0.0,0.0,0.0,0.0,0.0,0.0,0.0,nm
2.0550572872161865,-82.02664092212747,38.86112987163883,140.41626037660467,0.01614403576964822,-0.01334779249627058,0.016878968211363986,0.0,0.0,0.0,0.026901543140411377,0.0,0.0,nm
2.0586860179901123,-82.01120204336648,38.91017989983553,140.47171878967592,0.0232145128595769,-0.01915582068213565,0.024294445616907405,0.0,0.0,0.0,0.03867918252944946,0.0,0.0,nm
2.084099769592285,-82.02672742563601,38.9615709331985,140.3551205702613,0.020403399908118357,-0.016906097309232534,0.021427801532325697,0.0,0.0,0.0,0.034077346324920654,0.0,0.0,nm
2.087420701980591,-82.04402197776284,38.94840201723368,140.3032575038545,0.0,0.0,0.0,0.0,0.0,0.0,0.0,0.0,0.0,nm
2.097891092300415,-82.05891407458707,38.919616637303854,140.26909789091846,0.0,0.0,0.0,0.0,0.0,0.0,0.0,0.0,0.0,nm
2.1064863204956055,-82.06711100102879,38.89177450160012,140.24098022313672,0.0,0.0,0.0,0.0,0.0,0.0,0.0,0.0,0.0,nm
2.128329038619995,-82.02399832523078,38.887540422326815,140.17945889446034,0.0,0.0,0.0,0.0,0.0,0.0,0.0,0.0,0.0,nm
2.1361420154571533,-81.98379408007746,38.911068055387474,140.1620706372035,0.0,0.0,0.0,0.0,0.0,0.0,0.0,0.0,0.0,nm
2.1470441818237305,-81.92692625570116,38.93413487928065,140.16850179097017,0.0,0.0,0.0,0.0,0.0,0.0,0.0,0.0,0.0,nm
2.1663293838500977,-81.8388761790603,38.929783260459374,140.17710467167768,0.018576870978070145,-0.01549024589983744,0.01953783203305167,0.0,0.0,0.0,0.03109300136566162,0.0,0.0,nm
2.1721911430358887,-81.83052603180894,38.898465656386115,140.18440770766676,-0.011215718201906368,0.01471905008916017,0.02235817109288617,0.0,0.0,0.0,0.0290229320526123,0.0,0.0,nm
2.206566572189331,-81.90262088892851,38.82802529711597,140.1552533239326,-0.012089612853774984,0.0158295596480464,0.024134839357806057,0.0,0.0,0.0,0.03129255771636963,0.0,0.0,nm
2.208334445953369,-81.96999991865061,38.8237870875892,140.14297795361398,0.0,0.0,0.0,0.0,0.0,0.0,0.0,0.0,0.0,marker_1
2.2100393772125244,-82.03579645652736,38.84691074582546,140.15525955518373,0.0,0.0,0.0,0.0,0.0,0.0,0.0,0.0,0.0,nm
2.232538938522339,-82.16430593679303,38.94548083586834,140.202468837066,0.015390241226025277,-0.012821542112914839,0.01618946115203235,0.0,0.0,0.0,0.025755584239959717,0.0,0.0,nm
2.256188154220581,-82.21033430052641,38.9850419384109,140.14220895937837,0.019561210321831026,-0.016331240607060107,0.020624190718757148,0.0,0.0,0.0,0.03278273344039917,0.0,0.0,nm
2.2580783367156982,-82.21777204189566,38.9691515505823,140.1230606675534,0.0,0.0,0.0,0.0,0.0,0.0,0.0,0.0,0.0,nm
2.280505657196045,-82.19481743144303,38.91158702366929,140.0482130118221,0.0,0.0,0.0,0.0,0.0,0.0,0.0,0.0,0.0,nm
2.2958688735961914,-82.15023884783909,38.92541111971199,140.01438912183428,-0.011077697071022572,0.014364818422957615,0.021938934846263258,0.0,0.0,0.0,0.02846717834472656,0.0,0.0,nm
2.3089375495910645,-82.1211962846585,38.96260134837131,140.0417369418728,-0.010693609652368704,0.013870725421295912,0.02115109650729786,0.0,0.0,0.0,0.027461230754852295,0.0,0.0,nm
2.330698251724243,-82.13225307418324,39.020729582564236,140.08556579442057,0.023318080530997855,-0.019506924965882667,0.02463689060513082,0.0,0.0,0.0,0.03913092613220215,0.0,0.0,nm
2.3358728885650635,-82.155649723804,39.00832239995584,140.0952537814136,0.02182583697444295,-0.018252304515500962,0.02304678298060354,0.0,0.0,0.0,0.03661513328552246,0.0,0.0,nm
2.343047618865967,-82.21206894455447,38.97967883522294,140.07019268953596,0.01638575307010787,-0.013715106466326359,0.01729102703962165,0.0,0.0,0.0,0.027487754821777344,0.0,0.0,nm
2.36531662940979,-82.31618949833165,38.94333084106174,139.99522521994882,0.0,0.0,0.0,0.0,0.0,0.0,0.0,0.0,0.0,nm
2.388838052749634,-82.34348479062649,39.011747153613825,140.08669889353214,0.0,0.0,0.0,0.0,0.0,0.0,0.0,0.0,0.0,nm
2.3975915908813477,-82.32126773827119,39.069783286557,140.10671393530754,0.0,0.0,0.0,0.0,0.0,0.0,0.0,0.0,0.0,nm
2.4175376892089844,-82.21579601251891,39.14216166195052,140.146647415724,0.0,0.0,0.0,0.0,0.0,0.0,0.0,0.0,0.0,nm
2.4216885566711426,-82.16277364430526,39.14282250899655,140.17360257046818,0.0,0.0,0.0,0.0,0.0,0.0,0.0,0.0,0.0,nm
2.466417074203491,-82.07616188768279,39.10831144920817,140.3130283993003,0.01668367687442713,-0.013844648114817188,0.01762402362447797,0.0,0.0,0.0,0.027939677238464355,0.0,0.0,nm
2.4682021141052246,-82.07636295474673,39.17518666280226,140.3191607473886,0.0,0.0,0.0,0.0,0.0,0.0,0.0,0.0,0.0,nm
2.496736526489258,-82.08785360656299,39.25826487569785,140.23854114289884,0.0,0.0,0.0,0.0,0.0,0.0,0.0,0.0,0.0,nm
2.498361349105835,-82.05651382637015,39.26767435063663,140.2403437178973,0.0,0.0,0.0,0.0,0.0,0.0,0.0,0.0,0.0,nm
2.5199429988861084,-81.9491869265496,39.22361185598281,140.3094377438149,0.0,0.0,0.0,0.0,0.0,0.0,0.0,0.0,0.0,nm
2.542701482772827,-81.83642204969621,39.18928262219992,140.40101617536715,-0.010398635357149445,0.013497901659388826,0.02038114094731111,0.0,0.0,0.0,0.026565313339233395,0.0,0.0,nm
2.5456159114837646,-81.80966091638894,39.20735032010619,140.42480975068312,0.005890669011806369,0.000538030065648032,0.04079322307006894,0.0,0.0,0.0,0.04121985572758112,0.0,0.0,nm
2.5696299076080322,-81.82724586308896,39.29342562299974,140.2557732745231,-0.010269456520212753,0.013393842444670474,0.02011460187898031,0.0,0.0,0.0,0.026257455348968506,0.0,0.0,nm
2.5713441371917725,-81.87961185043171,39.33796142887509,140.23187065341378,0.0,0.0,0.0,0.0,0.0,0.0,0.0,0.0,0.0,nm
2.6017816066741943,-82.00422018002877,39.370461760312374,140.1869222669783,0.0,0.0,0.0,0.0,0.0,0.0,0.0,0.0,0.0,nm
2.603499174118042,-82.0492714323966,39.36262077879966,140.1936231847839,0.0,0.0,0.0,0.0,0.0,0.0,0.0,0.0,0.0,nm
2.609290838241577,-82.07473020759964,39.35436552151817,140.22543177993992,0.0,0.0,0.0,0.0,0.0,0.0,0.0,0.0,0.0,nm
2.6191697120666504,-82.09344427518751,39.36259020864409,140.2674563463186,0.0,0.0,0.0,0.0,0.0,0.0,0.0,0.0,0.0,nm
2.6285367012023926,-82.09628491880612,39.399644561490376,140.32017413150916,0.0,0.0,0.0,0.0,0.0,0.0,0.0,0.0,0.0,nm
2.6587154865264893,-82.1594248849783,39.65013226774568,140.41486480933185,0.02556172394838567,-0.021135329163611303,0.02748771952781178,0.0,0.0,0.0,0.04307758808135986,0.0,0.0,nm
2.669161796569824,-82.21423642129753,39.73448845773565,140.40954114770275,0.02022984681149835,-0.016729911245185154,0.021821048657928565,0.0,0.0,0.0,0.034136414527893066,0.0,0.0,nm
2.676593542098999,-82.2896532518784,39.80139959395819,140.37074796537988,0.014903315345110614,-0.012341916210332779,0.016122811166689288,0.0,0.0,0.0,0.02518683671951294,0.0,0.0,nm
2.702385425567627,-82.43287636048622,39.87302908477433,140.29931445788546,0.0,0.0,0.0,0.0,0.0,0.0,0.0,0.0,0.0,nm
2.7061750888824463,-82.48932845742532,39.890137361586305,140.2875372040447,0.0,0.0,0.0,0.0,0.0,0.0,0.0,0.0,0.0,nm
2.729581832885742,-82.55933512895756,39.94041159563012,140.28682993010656,0.0,0.0,0.0,0.0,0.0,0.0,0.0,0.0,0.0,nm
2.7338814735412598,-82.56851732150346,39.97686972746134,140.30401685743462,0.0,0.0,0.0,0.0,0.0,0.0,0.0,0.0,0.0,nm
2.766122579574585,-82.5915863504099,40.04515741081436,140.33976158085827,0.026869108649867864,-0.02227568337880637,0.02933322797407522,0.0,0.0,0.0,0.04559159278869629,0.0,0.0,nm
2.7699146270751953,-82.61356151974847,40.049421983528205,140.3354417610087,0.026113233417939235,-0.021652351478123052,0.028514123415026932,0.0,0.0,0.0,0.044314563274383545,0.0,0.0,nm
2.7718751430511475,-82.64690721391544,40.02558033624544,140.31286161941705,0.020694015667499243,-0.017172657094150983,0.022584953291027464,0.0,0.0,0.0,0.035117268562316895,0.0,0.0,nm
2.7961716651916504,-82.7759667414992,39.88110209574001,140.2326256115614,0.020733813551140592,0.02116240894506496,-0.002872291452886686,0.0,0.0,0.0,0.029765561223030094,0.0,0.0,nm
2.8018834590911865,-82.8303973325146,39.78068016215287,140.20891635836196,0.025078625986692343,0.02561594771479399,-0.003454297409565072,0.0,0.0,0.0,0.036014530807733536,0.0,0.0,nm
2.832138776779175,-82.87419995323549,39.58396163672193,140.2689520932184,0.014467150897024978,0.04726532932091773,-0.023175953044787933,0.0,0.0,0.0,0.05459335683420017,0.0,0.0,nm
2.855877637863159,-82.8063883561154,39.4018968791653,140.48368808468487,0.027558732823018812,0.028441522703835286,-0.0038501031649116166,0.0,0.0,0.0,0.03978978842496872,0.0,0.0,nm
2.8575398921966553,-82.5496797929765,39.15969831487652,140.90649218684354,0.0,0.0,0.0,-0.005414155648176696,0.04771730168143117,0.041262625900520364,0.0,0.06331554514766252,0.0,nm
2.866722822189331,-82.37343249110724,38.98893005496936,141.19710772285768,-0.010205117299151308,0.012520459035872854,0.01951756831791742,-0.006728393002822336,0.05675556860824416,0.04533262165199512,0.025334596633911133,0.0729486972213245,0.0,nm
2.8760881423950195,-82.17782750469361,38.79433022876074,141.55323407860215,-0.013776782170588609,0.016900536836289354,0.026495140977863204,-0.004956667469512878,0.05813588586971945,0.040228275645006466,0.03431355953216553,0.07087075517892406,0.0,nm
2.898317575454712,-82.33927692667878,38.58722595600477,142.0778241550102,0.17861950632481752,0.039932301774472226,-0.030603341202033396,0.016176250753803523,0.04475616997993535,0.06953400632385454,0.18556961296898022,0.08426009657701941,0.0,nm
2.9070863723754883,-82.54229772492614,38.49956156300589,142.5941250757387,0.17939772537962215,-0.049736581344510866,-0.029607422171093384,0.04103347631066796,0.04781281140444213,0.12501995166463395,0.18850429926884643,0.1399992836651756,0.0,nm
2.927035093307495,-81.80390877131659,37.90151279105496,144.6026386555493,0.11655442209790651,-0.31512805218769213,-0.0804265196474661,0.030372997903890205,0.16592188596105942,0.1736297517831795,0.3454837878233797,0.24207412490151245,0.0,nm
2.9358088970184326,-81.37670184593313,37.09021548780755,145.6932910714246,-0.07150224167963022,-0.38536765100082904,0.017852235671827983,0.11143345757408528,0.17021763153354658,0.1847553177796852,0.3923512448324734,0.2748199137611359,0.0,nm
2.9431591033935547,-81.37114442798594,35.905710897565974,146.4459236990538,0.13528070540758821,-0.36073911162833205,0.16230175331689375,0.12533304847663795,0.20953787855458522,0.162687973576891,0.41806152064464236,0.2933971239398208,0.0,nm
2.966736078262329,-81.52611988330004,33.082622585444064,148.4320693465972,0.03306566765559177,-0.4617755526299804,0.35125400464059375,0.18996129927861452,0.22711081181192017,0.21768395380903707,0.5811276754382707,0.3674927479711998,0.0,nm
2.9711692333221436,-82.10271151443548,31.791829093599095,148.83197100610428,0.08635274558846719,-0.6681227623276906,0.45558009997814713,0.21099674600548635,0.18171792907101553,0.1469827309257878,0.8132638254017873,0.31487292001879885,0.0,nm
2.9972422122955322,-83.99988004382205,29.642078768913684,149.21678474986567,-0.09365058225263787,-0.44842125367034497,0.42472829919812977,0.24715055796544763,0.09046090432939885,0.12280883335426114,0.6246968708415931,0.2904282752497756,0.0,nm
3.003361940383911,-85.3928005061592,28.866412643512668,148.92523951362202,-0.15208993273437818,-0.42111332994237916,0.3222611995721634,0.2815268404248077,0.019579669000962314,0.062224410076751675,0.551652123211718,0.2889854711350765,0.0,nm
3.030752658843994,-88.48240253291618,27.590685334524565,147.82019024359602,0.8037610707372576,1.4659668585985028,0.3669320476610703,0.26111278182703546,-0.007269866214606298,-0.006010539998733375,1.7116453537291572,0.2612831077190174,0.0,nm
3.032499313354492,-88.28458223141398,26.874344497751807,147.20110086642688,0.8881627357861158,1.5323834794526405,0.36515032245145823,0.04030758863475846,0.15077774978958355,-0.1556256832216273,1.8084155858996744,0.22040413973280415,0.0,nm
3.0536391735076904,-86.37970531894926,24.66198962654768,145.55193361515458,0.5851158631323978,0.13321464822904883,0.46912109709300004,0.03430035762549121,0.29235956023954535,-0.21549071028227318,0.7616963433873765,0.3648107361559628,0.0,nm
3.055345058441162,-85.68184755515783,23.109773450599363,145.56414594863617,0.4241557406444894,-0.1377703247201073,0.730394701158777,0.06458677471947262,0.3397112261548354,-0.04703999251999783,0.8557833687189641,0.3489812739110325,0.0,nm
3.0733487606048584,-84.92725293763053,21.54073711735954,145.600366938403,0.16654460693950207,-0.5086126298203347,0.8212630727113055,0.05671202538938139,0.34928745991612986,-0.042819007433105606,0.9802535120633872,0.3564427736341196,0.0,nm
3.0753042697906494,-84.34633948805684,20.09484299759302,144.87889004595556,0.7035135009891011,-0.35468453442713066,0.8753773240451018,0.07054167014965826,0.31098268437985366,-0.17822266906852485,1.1777172090481212,0.36530764703399216,0.0,nm
3.098649501800537,-83.23848076607922,16.81686786281923,143.1642018861845,0.3272978939335213,-0.4964651604508533,0.6281462204818602,0.13437099171817382,0.3476866659634109,-0.18468482532046368,0.8649677688911048,0.41599286749622066,0.0,nm
3.1212003231048584,-82.60681300063388,12.409676492486884,141.10024806012103,0.06745231380315234,-0.2748647538923686,0.3158489147481548,0.2416739128647065,0.4225116987431719,-0.18649347090859253,0.4241002057501251,0.5212506406957335,0.0,nm
3.122988224029541,-82.47416954451003,9.669042450258164,140.40388995258155,-0.02913591184072984,-0.059836043283951604,0.17752210545801153,0.32462109870257905,0.45189037703236906,-0.11002129617940852,0.1895873185656548,0.5671758600207906,0.0,nm
3.175720453262329,-83.79464071700508,-2.205503725701003,139.2029575770649,-0.03270816548023886,-0.254424950540637,-0.24949329392427483,0.4718822314922017,0.34979578577528575,-0.0030759224851934813,0.3578390465836182,0.5874005391922485,0.0,nm
3.177823066711426,-84.74907270717245,-4.794153159319748,138.90003910642355,-0.024729251873723893,-0.21421740091032127,-0.4074262038561279,0.48295812659001125,0.27514596551393145,-0.053820735007719736,0.46097368942231665,0.5584357849338616,0.0,nm
3.180913209915161,-85.94100352384383,-7.149176159213574,138.38416805391168,-0.10131023508269785,-0.09581125887490483,-0.5378954518055258,0.4891797109407905,0.2053135073965916,-0.11117221568380146,0.5556753351848327,0.5420421454607116,0.0,nm
3.1935880184173584,-87.30353426699155,-9.308074485960757,137.66263974467134,-0.34796320671977,0.019036440792329554,-0.6578488341941583,0.4895404429173799,0.14848748184490546,-0.16674817011915477,0.7444500439649113,0.538055136351724,0.0,nm
3.1988019943237305,-88.8389257608507,-11.302742270245059,136.7756378088394,-0.5266395254819941,0.2903380955534892,-0.7179572162089216,0.4931714077786811,0.09498374689163433,-0.22011634486614062,0.9365404229588764,0.5483531297450667,0.0,nm
3.2239832878112793,-92.18936653123266,-14.764060546602652,134.89522797556455,-0.877533553565972,0.8502264940589223,-0.7258468316154377,0.46565882210732945,0.005609542991135003,-0.2652672109605747,1.4211980339840111,0.5359443056790107,0.0,nm
3.227842092514038,-94.03682316577596,-16.148074345447537,133.97513695220238,-1.126773157722955,0.876385919822353,-0.7972075248873415,0.4478406361352212,-0.05470130423044776,-0.2779945746067159,1.6349953722151118,0.5299381582498853,0.0,nm
3.2561275959014893,-97.94222975690603,-17.938208453686237,132.8297421887569,-1.0033034662639149,1.272001153642338,-0.6680188102103434,0.3339878761824753,-0.14585805556336323,-0.19803219601857083,1.7523852062487482,0.41477611366801637,0.0,nm
3.26086688041687,-99.666790439318,-18.230863390779604,132.53893207644617,-1.2413208294252576,1.1411935468703343,-0.9673669125745821,0.26579829560828583,-0.19685998867328705,-0.1707023682908931,1.9439647261531219,0.3722121540584565,0.0,nm
3.27864408493042,-103.36778594582675,-17.396798837759572,132.5159943978689,-0.85051578915287,1.392016043842214,-0.8822777650933327,0.1140633692858891,-0.32112590389656387,-0.09784000085253815,1.8545888570490614,0.35454895872510883,0.0,nm
3.336609363555908,-105.42466784781756,-14.510863521257376,132.92078526300088,-0.7423520709717263,1.2832490702947337,-1.0392680169738766,-0.13658476187707216,-0.34640478841612204,-0.02424955496655901,1.8104951766831976,0.3731483827255733,0.0,nm
3.3393959999084473,-105.6924545501357,-12.37126568170876,133.31030683220231,-0.5825811847182613,1.1543563623190338,-1.0688031711238373,-0.2782061074807091,-0.32695487583545946,0.02619016167444302,1.6775814932868496,0.4300977256864794,0.0,nm
3.341242551803589,-104.43558915057099,-6.957618339786608,134.6974719297566,-0.14423109375679224,0.6334105016363302,-0.9807612298105521,-0.5387779085196448,-0.2676390822017865,0.15069832425717666,1.1763945179611195,0.6201792466412743,0.0,nm
3.3428831100463867,-102.68965680662691,-3.857919131126129,135.67746219415946,0.20649221960379557,0.20053785652218706,-0.8545807383502569,-0.6869773531047608,-0.18989894960300305,0.20016474919422836,0.9017553476496193,0.7403144072346123,0.0,nm
3.3448264598846436,-99.96412216003202,-0.6302498930690447,136.97956024383976,0.7629153962418166,-0.24236261820941232,-0.5683098453073986,-0.8437559754194403,-0.08525222899182545,0.25051881007574966,0.9817105585667544,0.8842803643674642,0.0,nm
3.3621253967285156,-90.637893700876,5.418731873990038,140.34643294518798,1.5984876532367296,-2.353813664238522,-0.01528152611275482,-1.145022194999499,0.2380176663332537,0.28250264177133944,2.8453180961970808,1.2031358938773227,0.0,nm
3.3719594478607178,-84.56444304515286,7.404009898117309,141.90677086652687,2.8323177976925384,-2.6972884415812173,1.0743296132132494,-1.1924915911830076,0.4613122827358878,0.22203943990041633,4.056053890426072,1.2977467896768105,0.0,nm
3.3958024978637695,-69.71435320475179,6.616241104301582,141.65233117563898,2.3435721853800464,-3.643190456709678,2.0715415506769723,-0.9192497200849373,1.0585171129891784,-0.25604924825904984,4.801713411703018,1.4251455167459934,0.0,nm
3.401637315750122,-62.358666081092345,4.232983197616298,139.25042375544865,1.7219923492245388,-2.128885498184273,2.1748173416920458,-0.8211542446306087,1.317435304452993,-0.5099197768205298,3.4967472863922553,1.6339976296453784,0.0,nm
3.408247232437134,-54.37044237788062,1.7811119298474638,135.20514411660145,-0.30775707568728056,-2.137651550145635,2.1711495113901886,-0.830524193798336,1.4619428111615225,-0.7715383296494016,3.0623779597374123,1.8499509760286674,0.0,nm
3.4188992977142334,-49.12341926980016,-0.6469472115215961,130.9597589878124,-0.15224913600386983,-0.007935016713660153,1.9507519499510493,-0.3558930125657697,1.1134051891819117,-0.7843569122869943,1.956700266811959,1.40767422280254,0.0,nm
3.4449338912963867,-42.47516115943951,-5.925613861843387,127.23737669457252,-0.962904792496732,1.7112641451620731,1.531177912050575,0.0697660773656753,0.7987493957633935,-0.11140017564044369,2.490003295636778,0.8094923729820445,0.0,nm
3.4576833248138428,-43.17610934661286,-12.034175912400167,130.20045506152965,0.3478272120948974,1.0663555032477383,0.9147826701429258,0.5710280759372196,0.2960051120158099,0.3910790651288938,1.4473856301533006,0.752751569264485,0.0,nm
3.472296714782715,-44.96974472296779,-15.268455400020638,132.51272511402976,-0.3136285308307598,-1.1397757307143097,0.867637863058557,0.7215082089143565,0.17711192983100824,0.41790815399959097,1.4663720650262058,0.8524024615160449,0.0,nm
3.4756805896759033,-49.156336282743034,-18.47283675548337,134.17355796663136,0.854508733378938,-0.8114724387693405,-0.33552240677216794,1.0214371339567916,-0.13158756273733796,0.09628772923374364,1.2252542510635602,1.034369581964787,0.0,nm
3.484961748123169,-52.81912336925819,-21.50099280680141,134.455730627614,0.887295683649012,-0.9970013220170663,-0.938711795325489,0.9197273512730533,-0.05878473916384495,-0.18599824632007503,1.6317123217678868,0.9401858294361018,0.0,nm
3.5070102214813232,-60.60781142511387,-27.433325321961362,132.27023051122194,-0.32894094288081993,-0.17299622781870327,-1.0340953798166623,0.9720935583680679,-0.17511696945786467,-0.6957590103284342,1.0988553559504504,1.2081855981868024,0.0,nm
3.5146923065185547,-65.03556627162807,-29.602004203927805,130.69854075147646,-0.6882153092592572,0.7659655302623483,-0.602239606944259,0.8475102556688557,-0.2863248447713814,-0.7794029448312882,1.1929107467121214,1.186475663723841,0.0,nm
3.534054756164551,-73.6236516508459,-31.094896218055904,129.1812215581342,-2.0490569374690506,1.633330687663823,-0.44047458283187896,0.5489721341093725,-0.5523508776592312,-0.6062273734105685,2.6571453340710103,0.9869009698808684,0.0,nm
3.5492172241210938,-78.33572504940459,-30.8452770590398,129.11149485456534,-1.7265608101924321,2.2311444970384584,-0.6474328799213881,0.47863359968032526,-0.6521631743342983,-0.5502100269202934,2.8945098604013504,0.978334299932474,0.0,nm
3.557473659515381,-82.25740542272541,-30.63440101010078,129.09443869042198,-1.3319718349160732,2.2355336923900633,-0.8489282552252092,0.397329720496477,-0.545460468466596,-0.3918975919673277,2.7372320035650173,0.7803728288705323,0.0,nm
3.576401948928833,-87.11444535217521,-30.81031438897283,130.4476122540997,-1.2980190460430454,1.45482060247454,-1.2964802084972247,0.2621645311573344,-0.26998995767052053,-0.052826860506743956,2.341413538933242,0.3800203887041765,0.0,nm
3.5820865631103516,-89.04362675396104,-30.630934254057873,131.26624782332686,-0.6422815263413276,1.3964313993638957,-1.0391136023567353,0.19356046163447907,-0.2706937733193911,-0.019977739023330443,1.8553445207862462,0.333376485791255,0.0,nm
3.58825421333313,-89.50323221300991,-29.778658497042777,131.87466116412315,-0.6936410067497996,1.0367171928708794,-1.110628645645081,-0.07163320602079781,-0.168690753462448,0.08900602471257119,1.6701545954690475,0.20373992967428184,0.0,nm
3.602867603302002,-89.08757644197343,-28.061584199983475,132.09719172247384,-0.702733940623438,0.8096142275476467,-1.1258464660061855,-0.30113910496040797,-0.17167049440184246,0.08115859089294863,1.5546190703096163,0.35600875840385954,0.0,nm
3.608466386795044,-88.12473406870136,-25.456574432723663,131.9860477737274,-0.24047909799436404,0.8211187530175743,-0.8785404169247176,-0.4996979436346486,-0.2169729215370719,0.05443233502578809,1.2263357889662911,0.5474834816224033,0.0,nm
3.6171212196350098,-86.10726553802768,-22.117449946288712,131.95442378442488,-0.304680974710287,0.6053885668873655,-0.9558713349829147,-0.7415404366286636,-0.16753780498705168,0.13312303071463702,1.171757578302939,0.7717984688776978,0.0,nm
3.639902353286743,-80.50224683859899,-14.820823818620758,132.42045711403264,0.15474747094839686,0.23260510578249943,-0.7642596520473078,-0.9291018692241476,-0.04411242004488579,0.24096356177865308,0.8137227603726498,0.9608535929594457,0.0,nm
3.6484909057617188,-76.29232992873462,-11.597052646142295,133.16972976865628,-0.1139724172675843,-0.6239295036554682,-0.8158140880520155,-1.029154366544957,0.17293025331501236,0.35371381078645314,1.0333587778180997,1.1018970199756513,0.0,nm
3.6689035892486572,-67.0022269555588,-7.20010905173719,135.55234298863493,0.8605336992691832,-1.8006495560167943,0.2513286760939686,-0.94396935411148,0.43883175934926844,0.42896306823010255,2.0114728868638845,1.1259044224180854,0.0,nm
3.6909375190734863,-54.96871276382363,-5.7474635393014415,137.13561596835743,1.5598652020788373,-3.204091368513138,1.4125692229407325,-0.9151395450044162,0.7914968269536566,0.35484445076142956,3.833370939008672,1.2608973781179724,0.0,nm
3.6943984031677246,-48.84553009756254,-6.0826654732359975,136.7131841428478,1.879516179333598,-2.908528260285369,1.8154096569831761,-0.837099088606273,0.8996502016117135,0.1814317395583679,3.9099654642877826,1.2421847066860165,0.0,nm
3.7172765731811523,-37.51058305474974,-8.238776266602914,133.3722008691678,1.2986575014721737,-1.3671460933369095,1.9783224314655188,-0.5203227184245571,0.9379129138589332,-0.20150421583952002,2.7330128776674223,1.0913387715522507,0.0,nm
3.726304531097412,-33.4360912473708,-9.97473949536393,131.3160382282528,0.8618874142719026,-0.007009940513575772,1.753939442646358,-0.2812380699588877,0.8427629681908722,-0.27902715126745176,1.9542780310429033,0.9312359656351974,0.0,nm
3.731137275695801,-30.58331326291922,-11.977719469939167,129.4803445698714,0.4665970253945086,0.7818936242909252,1.5428374851263364,-0.05299464853707723,0.700161464935406,-0.25570274236010127,1.7914848392673492,0.7472739806821448,0.0,nm
3.7580347061157227,-29.4035999108316,-17.69771647649333,128.3765209881271,0.17608416855428816,1.2570739521244705,1.131798228394386,0.5101307884239566,0.39285747098991003,-0.012984247369617254,1.7006492246556788,0.6440023326746503,0.0,nm
3.7671959400177,-30.769403332015443,-21.105921980669724,129.02046709623895,0.08857477506364464,0.5617075518502337,0.9470890071253626,0.6994603806381416,0.23804523949701475,0.04204053845718234,1.10468930111632,0.7400525434071658,0.0,nm
3.782723903656006,-36.72698671986017,-27.88585378843112,130.4550570741632,0.20550507248548644,-0.43749524994858024,-0.2562193725566769,0.9037886858311797,-0.01691694101885842,-0.17523064340638564,0.5470674505197444,0.920774646652753,0.0,nm
3.7894222736358643,-40.433718365571664,-30.993454823807465,130.57555510119147,0.05575582187536967,-0.45952530878797143,-0.7657331442202908,0.8991290764854153,-0.07461269279046634,-0.3734638119023439,0.8947734178255248,0.9764606335677797,0.0,nm
3.8184878826141357,-48.35682711043564,-36.08477747246997,129.13251907762333,-0.5970018738787916,0.24624706825126147,-0.8715055443826667,0.7913729407121545,-0.20541287713200476,-0.6991989816305938,1.0846984695881423,1.0757996083361951,0.0,nm
3.8203794956207275,-52.69386286862657,-37.7295441896327,128.07618707635802,-0.7921135411921633,0.9693670950997134,-0.6340375944832284,0.6986750792737411,-0.3271400793375964,-0.7819256284394532,1.4032533977938997,1.0984421633921428,0.0,nm
3.8430981636047363,-61.42812281305957,-38.57705125376937,126.68776523502557,-1.847988395872981,1.5951773306320334,-0.23783769632109295,0.4402108397913762,-0.5536726945229115,-0.725910045752986,2.452798115873962,1.0135504085417717,0.0,nm
3.8523061275482178,-66.07261136197963,-37.96696062143051,126.40982183668253,-1.8191579398870656,2.128014525588806,-0.36799261132646277,0.3454028973932559,-0.6523608491180777,-0.6807031480002201,2.8236855337239617,1.004108865953849,0.0,nm
3.877826690673828,-74.16368748024944,-36.22200495732696,127.14823662515268,-1.5103946587568804,2.212314851805867,-0.7601637044315536,0.2302223499847908,-0.580917056174598,-0.36174531500054774,2.784506758163325,0.72202952121913,0.0,nm
3.8794589042663574,-76.76437311259981,-35.218897590709126,128.0787753969721,-1.33113726099762,1.9314320687461661,-0.9667582122544196,0.10577380655399325,-0.45229329991240197,-0.1633027809121283,2.5371199586851825,0.4923668607372009,0.0,nm
3.898235559463501,-79.8402968923212,-31.82625887630922,130.3132405675209,-0.7169323807729875,1.301418553774372,-1.2216059123241625,-0.16765660066528612,-0.4103205236642145,0.08225386579246413,1.9235392628522952,0.45081855144228383,0.0,nm
3.903853416442871,-79.50462046820526,-29.063466411769674,131.05229616920505,-0.632278991390166,0.7973607237920772,-1.380131803684325,-0.45301140165038567,-0.31094086530717485,0.19458458591047934,1.7147374849639636,0.5828951130496587,0.0,nm
3.9280049800872803,-75.89587462355836,-21.6615446242428,132.4762402693726,0.05593845116672283,0.020410276085114157,-1.281352805825854,-0.8560875987794657,-0.21745682827502893,0.31984418875799175,1.2827356324225936,0.9394007419784619,0.0,nm
3.949838399887085,-67.61924734167492,-13.587625547434433,134.92705057329837,0.47829351399415415,-1.3675192973572523,-0.843702303763717,-1.1980942402976076,0.10929538016265472,0.5203575246124418,1.6765164155323837,1.3107811572417376,0.0,nm
3.951692819595337,-61.60687139196803,-10.296837095472007,136.46640563836903,0.6326260004038715,-2.642530707484689,-0.30972477512264956,-1.2998499551823925,0.36513241333134006,0.6056674631908594,2.734796817445732,1.4797853429537973,0.0,nm
3.974273681640625,-47.628748176058075,-7.484031248861978,139.05397099140845,1.966747742822719,-3.657553339956542,1.329114254273173,-1.1794404603734996,0.8758799770952104,0.5029787629046629,4.360313958815081,1.5528145960723914,0.0,nm
3.9999914169311523,-32.35908599061608,-9.491801779203756,137.79245274322994,1.9214151634170364,-2.441143433964427,2.4345950413153816,-0.9061902883697792,1.1910822441028641,-0.06940601985569077,3.9469317843856886,1.498223930707632,0.0,nm
4.001624584197998,-25.846014758632105,-11.010157670259337,134.95548190903668,1.5260912327457858,-0.8524662527724703,2.2713616580189875,-0.7157694971301164,1.119149502432466,-0.333428214716007,2.8661362396610275,1.3696700172616176,0.0,nm
4.0302653312683105,-17.65116341064667,-14.175989815483028,129.6775630344166,0.7365882222088554,1.6186037282666323,1.5122295409183528,-0.12677330128458353,0.6939330824255168,-0.29467166409724993,2.3343689559882295,0.7644906686317455,0.0,nm
4.033026933670044,-16.52595165324385,-16.53137476859493,129.12602821712426,0.5384819000507096,2.116028408317424,1.191336143825734,0.23128727013481226,0.48088967563371854,-0.05016629599725909,2.487332062486664,0.5359713972886998,0.0,nm
4.035984516143799,-17.111960133795126,-19.40785529595341,130.23005371739453,0.3371703919258652,1.5320448406134881,1.263358903291146,0.5191585055163406,0.29551635750196703,0.18584481097694036,2.0141799783948944,0.6256147098400463,0.0,nm
4.05380392074585,-19.563777645247253,-22.519390314041296,132.3297516536623,0.3215172236488336,0.5728406907208261,0.9776415456577796,0.7749531467231876,0.0801111055111972,0.24649324346646256,1.1778381781231664,0.8171469194196435,0.0,nm
4.0557098388671875,-23.384892759051116,-25.48528442729376,134.36215573469812,0.38320493475592665,-0.27975200712759757,0.3774048723921554,0.9157025451233247,-0.08733875458689294,0.09847416795018339,0.6062521300734147,0.9251142475130328,0.0,nm
4.078684329986572,-31.795275603909158,-30.68590517966342,135.18457217136532,0.1648661397692041,-0.6883333727243495,-1.0536019548610562,0.8760547898134874,-0.12936299157762893,-0.5127641542766321,1.2692756813771846,1.0232955859653148,0.0,nm
4.083091497421265,-35.54215352019009,-33.32412439243538,133.76111403012837,-0.22829738320190238,-0.30581392753949743,-1.1162014192541065,0.8283968263814736,-0.06992068312671566,-0.740609890951426,1.1796386996868367,1.1133881688175453,0.0,nm
4.112076282501221,-46.68276803940966,-38.53514676286292,129.6536704926101,-1.4767372453501686,1.2273896449286834,-0.24992785334087209,0.5388753093699891,-0.33519056665177477,-0.6701910343897151,1.93641477069303,0.9229817644987877,0.0,nm
4.13474178314209,-55.3069128005919,-37.42897868810328,130.7683258840971,-1.7650654098399952,1.8439324788502607,-0.4076185991288785,0.2839818539939667,-0.6297579953663912,-0.4237121369449915,2.584897640125869,0.810415202917762,0.0,nm
4.143317937850952,-58.785799999721206,-35.96415530000594,131.73107191805,-1.8743862141919545,1.63495521524317,-0.7637163928069443,0.15610054591725836,-0.6046421211590981,-0.2855113004626832,2.6018579831431494,0.6866412293238239,0.0,nm
4.163756847381592,-63.78265360146286,-33.50003715825653,133.24648669523577,-1.415511365527185,1.4006186723005705,-1.1937976636283576,0.08028487027659478,-0.3913165346720633,-0.12906377146232104,2.32175751378523,0.4197996519855156,0.0,nm
4.186808109283447,-64.87895102055671,-31.380300590154857,133.87461460081178,-1.0255550849167567,0.9387881600267968,-1.142943062949504,-0.1492290761310098,-0.17066682946854672,0.03366755367016527,1.7998347942934954,0.22919421461697978,0.0,nm
4.18863844871521,-64.26517616203692,-29.508877436217944,134.1691611105659,-0.7720505685154027,0.7227091557454081,-0.9890466522767464,-0.3380129184050654,-0.17592212174354932,0.12708083549611487,1.4479585230672307,0.40168503168260106,0.0,nm
4.197423219680786,-62.88449300736699,-26.59291858341341,134.7203875424752,-0.5431293987598381,0.4022795413734505,-0.9276859019084164,-0.5828719669593413,-0.22607872256487266,0.232877057305021,1.1477889639670216,0.6671454432750494,0.0,nm
4.220640659332275,-58.16186832111758,-18.035160930585096,137.0483418802988,0.20198676454947148,-0.5809298438046485,-0.9089313531647634,-0.9989436184050873,-0.3075417227062133,0.4382253029312835,1.0974672392568192,1.1333629957284512,0.0,nm
4.243093967437744,-49.797929805648366,-9.439984757292306,140.5391753847539,0.9627559763723611,-2.5585292146217906,-0.08211481837022205,-1.2188800910096729,0.005207530143811917,0.551463796051373,2.734906516777104,1.3378371025597016,0.0,nm
4.244738578796387,-44.80582111045823,-6.648640151209216,141.7465153202391,1.8280273618064715,-3.0230269568363983,0.7299273923590158,-1.1190015200553345,0.20237126912499856,0.44731077638077543,3.6073771656688045,1.2219678650110992,0.0,nm
4.268472194671631,-33.09003816212983,-5.539363705472221,140.86446244359558,2.100824809360714,-3.1379710948310873,2.230993610202069,-0.9129620900222497,0.7940668560132595,0.07936721411357088,4.3860756902250735,1.2125762261865134,0.0,nm
4.273776531219482,-27.78240065100203,-6.478190405877242,138.71289151972968,1.9650250946907566,-2.0533388640474235,2.334729794976177,-0.6791200691159283,0.8432889803507454,-0.20485041617341698,3.6781092056818383,1.1019546568091834,0.0,nm
4.297107458114624,-19.678795650508015,-9.95867723587243,133.55453104154984,1.079204435942526,0.30687587332589134,1.8089640190680385,-0.20396932433659046,0.7948591246305304,-0.3586429312256217,2.128662922698271,0.8955608663830975,0.0,nm
4.302728891372681,-17.538354888974464,-12.312610516804542,132.01623731817017,0.8186371560316836,1.2148125791603628,1.38345273178215,0.06450029102801064,0.642609734680098,-0.2189574905416979,2.014913858406207,0.6819457026132225,0.0,nm
4.324175119400024,-17.158989224585383,-18.133732813997145,132.8563718415218,0.4391396001315614,0.9144294543553179,0.9272873303112583,0.5399014515755541,0.36625327912589495,0.18247482353436317,1.3743677122051625,0.6774452768362609,0.0,nm
4.337578058242798,-19.1186570082411,-21.422893949538068,134.64881380001327,0.3603134812959319,0.3185022201839272,0.6977509673012486,0.7346843141434966,0.20293053634250047,0.21586318603450005,0.8474230829022259,0.7921734400456254,0.0,nm
4.343099117279053,-22.032011876594183,-24.416848948253666,136.3177922471331,0.33472583267077455,-0.29954587003248107,0.14169984312779516,0.806909412870736,0.06526001107395828,0.0848122119087232,0.47100738513647655,0.8139746807570978,0.0,nm
4.363529682159424,-28.794325383905914,-30.218547453102733,137.03797368184385,0.002754451750884399,-0.2581439519340726,-0.9016123401176128,0.8342990640167165,0.046487664640670716,-0.3940579044108458,0.9378436430327535,0.9238493725773591,0.0,nm
4.368463039398193,-31.786985598716658,-33.10303018447643,135.97342103861328,-0.37252283836762073,0.035803080238982966,-0.9174614340163948,0.7721827342123004,0.08203381865829004,-0.5736613786994539,0.9908534748223307,0.9654445089338919,0.0,nm
4.391430616378784,-37.815730403105285,-38.037544960364364,133.27639297339869,-0.8592869835887414,1.3474666313896255,-0.6322719044790706,0.6659155416291463,-0.021914147875895844,-0.6434902977393832,1.7186646572461812,0.9262847843644448,0.0,nm
4.3997156620025635,-40.722698152816676,-39.5403328286362,132.66776461957596,-1.3846899875691343,1.277875785315733,-0.2821664442992322,0.536064146964102,-0.11549169446399951,-0.5161848021546758,1.905242973129407,0.7530935208365412,0.0,nm
4.420235872268677,-47.70413796912395,-39.753614672850006,133.0046431857044,-1.6234204567433197,1.7477908937381688,-0.39422360146735985,0.32715458827111626,-0.4342560401803897,-0.432281123988958,2.4177839513820607,0.6946044940951309,0.0,nm
4.449631929397583,-53.566301007214264,-37.778181875301144,133.97630116158524,-1.7417441322833158,1.3808424420385144,-0.7286589809195276,0.14313071656666182,-0.4533073694789906,-0.2821114517986982,2.33909007576727,0.5527755823883842,0.0,nm
4.451374530792236,-55.66049821251185,-36.524895994979545,134.32360935590532,-1.5725135155785523,1.3068381963598328,-0.9081564540779735,0.06003934364588904,-0.4055994434711245,-0.24014887635597615,2.2372690882470345,0.4751706158260977,0.0,nm
4.456724643707275,-56.97704234877766,-35.11949840853279,134.5081261343232,-1.4289758362835676,1.1609584865832903,-1.0130646346499472,-0.04467145607803956,-0.3409256258394335,-0.16317627923591377,2.1014510468318113,0.3805946918276955,0.0,nm
4.481513977050781,-57.57128877984732,-31.045921494504263,134.80028579690364,-1.0732791117156744,0.8768208630719995,-0.999681663808829,-0.3346465088088043,-0.3152060508552432,0.03820884550017303,1.7088318543727765,0.46130581638229473,0.0,nm
4.490521669387817,-56.85295872102334,-27.901051908469977,135.34866673142764,-0.8203909140894542,0.5756059942490213,-1.0230822905550214,-0.5279725399612589,-0.34838800474740983,0.15763948191114388,1.432152535794719,0.6519044493345925,0.0,nm
4.511657238006592,-50.59652396297112,-15.206078049864697,139.6902567495781,0.5318929586191704,-1.2773154444903319,-0.7423530086825563,-1.0022370270104901,-0.29299033823432225,0.5202959030537961,1.5702015328174381,1.1666319999657362,0.0,nm
4.526993036270142,-46.60041821132883,-11.239254103455021,141.65663173830103,1.2217150565719046,-2.1862555958842913,-0.2393303860634931,-1.1038721279054804,-0.10697634570255278,0.5939546770408006,2.5158657046200164,1.2580778082793953,0.0,nm
4.549681663513184,-36.26472712599418,-6.777628775330549,144.95305988735316,2.7134030447325546,-3.268984960524965,1.262227936873023,-1.0257301294207462,0.38246708797683465,0.4415765979879713,4.4319339029282725,1.1804207994090967,0.0,nm
4.551976203918457,-30.233473655659186,-6.684787256748809,145.02042352317468,2.8158926507575885,-3.0165083812456395,1.902383712756085,-0.9903768967457109,0.6892405274368402,0.20500337174519126,4.543967212169935,1.223897579332509,0.0,nm
4.55963921546936,-24.1789680196545,-7.5620509601082935,143.45723138318397,2.430073329837804,-2.517792761217708,2.3974919815975424,-0.87046658628315,0.8614793571480454,-0.11641820488176433,4.241757251264362,1.2302080958340107,0.0,nm
4.586313724517822,-15.582686228963922,-11.236902997157653,137.8786930148403,1.2292928075004144,0.5157853221343044,1.7090735558185899,-0.3012052240009769,0.8012277413971503,-0.46073895037245877,2.1675164876650506,0.9720961171304885,0.0,nm
4.588475942611694,-13.052332942507972,-13.44823843068839,135.59507107272645,0.7468233288844047,1.3516803132950244,1.3549586614643165,-0.054051352820910926,0.6757787572394105,-0.3492988249519805,2.054433675783302,0.762632379715579,0.0,nm
4.610751390457153,-12.632800978072524,-19.603971651618405,135.44453281599343,0.2911512027047711,1.4021054818993293,0.9125575008929662,0.5555720068058265,0.41831766268583387,0.1135644563194761,1.6980665468834257,0.704660774699664,0.0,nm
4.617432117462158,-14.738763872257309,-23.07796150361355,137.3029740610752,0.23291821507710528,0.6166394039600396,0.8479017136079674,0.7668909398772179,0.24694878487279756,0.2095596824492461,1.0739796857344301,0.832478634274864,0.0,nm
4.6408610343933105,-21.917157177535955,-28.879731527403543,140.51536974349324,0.2745097021157438,-0.4323892009696698,-0.5555359212570952,0.8796559141159138,-0.004383511570329544,-0.13645366931980862,0.7556031746080963,0.890187253494247,0.0,nm
4.646062612533569,-25.558169868451984,-31.545030084693504,140.41641966574937,0.03535084420391464,-0.35376712841967817,-0.9900875926061627,0.828755220780958,0.025051029937932717,-0.4154738546286078,1.0519858860122133,0.9274056792755795,0.0,nm
4.669374227523804,-31.45937139279002,-36.52286525709942,136.8568502875078,-0.7453117460243078,0.5605929654840445,-0.9081248935602309,0.6706944833128057,0.06043446593049545,-0.7939347401204396,1.301708452002897,1.0410647367904868,0.0,nm
4.674596309661865,-34.16914688407779,-38.57998225471718,134.87545216230984,-1.0119315678859666,1.2265356935721459,-0.579577115335405,0.6012067760192638,0.008929511963157891,-0.7672397475882305,1.6924257556274558,0.9747749247875783,0.0,nm
4.698896408081055,-40.31302954816226,-40.39341809112283,133.42219506997435,-1.800203330221134,1.5048719951131155,-0.06823195145257531,0.430900254866984,-0.30923256045223374,-0.5365872572874169,2.3473447448157283,0.7544704704436807,0.0,nm
4.72181510925293,-47.390207029652686,-38.98625206970766,134.94824366914986,-1.786743507037693,1.5677256016870538,-0.5664351257291245,0.23491620996594828,-0.4878068282621205,-0.2783788633795461,2.4435762058479287,0.6087987508039118,0.0,nm
4.723777770996094,-49.911819891032756,-37.81179437762065,135.8356879429826,-1.870738816427128,1.1055493391360962,-0.8110648339527583,0.12348083532213565,-0.43527282454827376,-0.17547987089165093,2.319424330610129,0.4852866509293607,0.0,nm
4.745852708816528,-53.017353623323224,-35.502087619771565,136.3848009348942,-1.3041194539209815,0.9666545299702441,-1.2017695608280838,-0.01661683777354444,-0.274336825894661,-0.10970287956348138,2.019752115419137,0.29592488088038416,0.0,nm
4.74970555305481,-53.12397096786008,-34.2781353466331,136.27840457001818,-1.306921783161411,0.6506755208430465,-1.0718706591729859,-0.15100422241066033,-0.17971542554627895,-0.02920904502806412,1.8111681011772771,0.23654402904444616,0.0,nm
4.771832704544067,-51.495246818720815,-30.088267241040427,136.21725566762308,-0.778545498545778,0.5867576249349302,-0.8706148983119428,-0.47537077286696394,-0.21198882932810983,0.12748471750380214,1.3070531377445558,0.5358815061681652,0.0,nm
4.792227745056152,-47.82431910413465,-22.868726885025517,137.95134747272647,-0.29691674115675226,-0.10181021330359366,-0.7063374162697266,-0.8048295175772229,-0.32528816594109544,0.38997424433616884,0.772940758619095,0.9516526963711461,0.0,nm
4.795480728149414,-45.22838923381826,-18.495543728465577,139.51486775213922,0.22267880530322526,-0.7007635974457496,-0.6743098334530157,-0.9397070570010385,-0.3253792687742523,0.49024837331913906,0.9976719006405933,1.108722007117962,0.0,nm
4.820425987243652,-37.836205932757494,-10.672440218665551,143.4052334027643,1.3391101513870656,-2.6535677615553115,0.5048183901933313,-1.068596344864958,-0.07595248790497655,0.5732587723340099,3.0148763606143025,1.2150277975155959,0.0,nm
4.82448148727417,-33.597858826535195,-7.956588958607809,144.91162032665994,2.400699506511349,-2.8350667144126795,1.059081656099845,-0.9959971450167437,0.06456928676686621,0.45801650059821747,3.8629801125584025,1.0981614728696882,0.0,nm
4.849079608917236,-23.65476748871365,-6.102552336614194,144.88809019243863,2.563281540761535,-2.4153103533651366,1.9772392149025984,-0.8666305031071742,0.5236960601584559,0.06148152976356285,4.039011175180169,1.014438746718278,0.0,nm
4.856595754623413,-19.350668976901787,-6.4406392706037545,143.0764512778884,2.2496036841959732,-1.5005575271793783,1.9934599309611607,-0.6503626256214853,0.5744068112324431,-0.21436605476441986,3.35950474395713,0.8937938996383662,0.0,nm
4.8772358894348145,-13.455353090938337,-9.736213987254496,138.4666241190061,0.8890560876416681,0.6871227835257859,1.4121977222814075,-0.10705966995958502,0.6344394670534005,-0.36698305905795187,1.8046774929138252,0.7407103184932625,0.0,nm
4.886279344558716,-12.095276092894855,-12.128235084727184,136.9015277683363,0.5404056058333304,1.324188359763831,0.9635331739113187,0.12764655007848305,0.5482974415596459,-0.24866360885452804,1.7245025973241483,0.6154326255053024,0.0,nm
4.892732858657837,-11.689503957933642,-15.046000953376252,136.46589283911652,0.29829560123156895,1.3233510104866189,0.8217365441661897,0.3463052943135803,0.49325452434872397,-0.054837577014706755,1.5860293536653887,0.6051731508526673,0.0,nm
4.901299953460693,-12.48609065587006,-18.48428808668158,137.17226956832818,0.19565363524788293,0.8743629812126125,0.7033341180937195,0.5850543705484028,0.4117397933105038,0.09536835167430743,1.139065340345052,0.7217433036712143,0.0,nm
4.925844430923462,-17.17013206258323,-24.974962246479958,139.63654466771212,0.2175063972809177,-0.22869716886380362,-0.02696164756577535,0.7710861554534297,0.146875064416028,0.005775408711265805,0.3167623057497602,0.7849710179522206,0.0,nm
4.95085883140564,-23.027538795975644,-30.373331203814445,139.7818208257378,-0.09615629594523345,-0.15106719598039242,-0.8513476652705185,0.7259430689265641,0.10091743160064716,-0.38190823158975645,0.8699771135569306,0.8264572370542862,0.0,nm
4.95257568359375,-25.496653368940795,-32.76536612101582,138.6400548234181,-0.49586386763358337,0.03066898064308113,-0.7185533215426415,0.635390853096232,0.10170915771709246,-0.5204605431466249,0.8735790963033538,0.8276143219727156,0.0,nm
4.9750401973724365,-30.229778521025704,-36.48998499566068,136.1328589804511,-1.019565855725719,1.1387015373371578,-0.5918603691102213,0.5056838006661589,0.008863435525060234,-0.5195697307375176,1.6390407016968835,0.7250843894638298,0.0,nm
4.980384826660156,-32.47209996608831,-37.718424051562806,135.6433616023981,-1.465568378662348,1.0387482861599004,-0.24690126343175248,0.433615899244718,-0.06009633340531294,-0.3897723412623429,1.8132426501765586,0.5861371813660146,0.0,nm
5.004651308059692,-37.630133390736184,-38.28696923082112,136.18374171283276,-1.588986341762226,1.43534612085622,-0.533900807058015,0.28819751273330074,-0.2595727753181069,-0.23977707088035652,2.206840762887323,0.45599218825761584,0.0,nm
5.006369352340698,-39.70127912393088,-38.03392100327331,136.85144705478478,-1.7080786503095544,1.117067721209432,-0.5961117490350974,0.20754203904907023,-0.249568141334331,-0.1487305266166352,2.1261989997996484,0.3570416287905096,0.0,nm
5.029736757278442,-42.366555941520645,-36.828799222783495,137.35486343106936,-1.4456674276851245,0.9800380063566227,-0.8895445546350169,0.019490030063396484,-0.20142515394048452,-0.13604005127942972,1.9600301834548364,0.2438418533884818,0.0,nm
5.0368571281433105,-42.612684011570046,-35.806035551864525,137.173926500673,-1.3749536447099502,0.8130590814629908,-0.9099490284857372,-0.1042935533902991,-0.16641173082500776,-0.0885905303574977,1.8383606364075453,0.21544904618951724,0.0,nm
5.062171936035156,-41.798127259914,-31.965097825406627,137.1281649936871,-1.1219310602818042,0.68401142157398,-0.7857691587612722,-0.389192567705979,-0.2567138088796847,0.056602250982385825,1.5310238730108383,0.4696558838589817,0.0,nm
5.063883304595947,-40.81083063558834,-28.780673004993478,137.70945082463038,-0.94912552278168,0.48790481231466615,-0.795035192763817,-0.5518775724996103,-0.3432390805052806,0.17647340605162065,1.3307784645118084,0.673442487861906,0.0,nm
5.088315010070801,-37.739500730216584,-20.47508828742882,140.42261012315166,-0.283523619054289,-0.2449141549590507,-0.7894075548131348,-0.8215193671004173,-0.4467653807251354,0.41329551662798303,0.8738036813020417,1.0224023474153103,0.0,nm
5.097148180007935,-35.43699033073623,-15.845257323297774,142.11086779276144,0.3495596788128539,-0.910230560916337,-0.6662357708350359,-0.9189510908988417,-0.4364776507924644,0.4581442457474148,1.1809241065445186,1.1157419043026695,0.0,nm
5.11503005027771,-29.12955226299233,-7.667928435321826,145.79056222674967,1.80796348013389,-2.386921186333,0.6980468803094864,-1.011003819105888,-0.20849388914662484,0.44093870263773577,3.074637237524614,1.1225085137948958,0.0,nm
5.1217732429504395,-25.312754515712687,-4.633247589062399,147.07955745076208,2.410476249221507,-3.02370949656849,1.7590953878829538,-0.9685476251573032,-0.07156869956478375,0.3407188318442722,4.248250398854867,1.0292210177258194,0.0,nm
5.147684812545776,-18.00828374890881,-1.7718879492045156,147.64171052129765,2.6242317757455607,-1.9334080750520122,1.947452193218197,-0.7433448760480142,0.2667573825267812,0.02660198791039564,3.7970026655744387,0.7902080559195547,0.0,nm
5.149545669555664,-14.969585646886532,-1.9339000356471123,146.68001484898173,2.1175005710860892,-1.2750425761223334,1.945775683069837,-0.4926819847158927,0.37166738854681036,-0.1611557959816546,3.145724916183944,0.6378427520567099,0.0,nm
5.159260272979736,-12.863306127862241,-3.4120017650719667,145.08696759974845,1.5266103705391136,-0.029151428317106407,1.3765650042166258,-0.18168872557593427,0.4957490440304984,-0.2846248074269574,2.055801605224691,0.5998242981585464,0.0,nm
5.1835572719573975,-9.521861431832491,-8.74843135835663,141.89684220076498,0.2765293150841542,1.1558304249512954,0.9014471596041799,0.13845772137383042,0.6410825400407894,-0.24655187553379154,1.4916498968935195,0.7006748112230193,0.0,nm
5.19741678237915,-9.300376225390794,-16.117276579125225,140.97354927086414,0.1093221095491196,1.0052891279256908,0.5380885925190197,0.5513099607055141,0.5961958706720828,-0.02386458923687739,1.145467977623541,0.8123802727780897,0.0,nm
5.211350440979004,-10.57935995268879,-19.911797244824218,141.4239318411249,0.12077074684244452,0.5407538162496454,0.4044729231631483,0.6673836901065576,0.4536808250043847,0.01744757718376981,0.6860019013483702,0.8071751351141141,0.0,nm
5.220378875732422,-12.713524608284203,-23.073000362391202,141.97062297809316,0.16026899485089485,0.14753424153848194,-0.13824926562574635,0.7058984113329491,0.2641860420510621,-0.033755397384023764,0.25800264065103956,0.7544708468784862,0.0,nm
5.224243402481079,-15.362713087806398,-25.853445649104668,142.37264564139312,0.04211333566929968,-0.05206077473784507,-0.5523471280785981,0.7243882378378713,0.15780687654860487,-0.13767063805387514,0.5563912357363072,0.7540520764417031,0.0,nm
5.25164794921875,-21.056963204909948,-29.97202214376336,141.894017194509,-0.6276306398960682,0.1729544662753782,-0.6710671377810535,0.6073853426235352,-0.013334219010983325,-0.4032249018852096,0.9349676844418765,0.7291673863598667,0.0,nm
5.254138231277466,-23.88241374502484,-31.28049152007459,141.0808668423385,-0.8999170159465494,0.7866906884486441,-0.879555492098335,0.5471398801712472,-0.08363999171729776,-0.4863135442634236,1.4840319196574876,0.7367893593302832,0.0,nm
5.2786784172058105,-28.370752134282366,-33.30824522232794,139.9466944360404,-1.6568923698007694,0.9937545387442798,-0.3506137187990606,0.38804597569080307,-0.08104924626628662,-0.35874602559387814,1.9636115675430752,0.5346469587022487,0.0,nm
5.283222913742065,-30.585447204296447,-33.70388730539909,139.69428378251644,-1.7180733507447072,1.3413184176151036,-0.48978151206066783,0.3378130769892506,-0.1646415336508924,-0.32806853670549807,2.2340091910126656,0.4988521568199841,0.0,nm
5.30466628074646,-34.024666615431485,-33.66134799938552,140.02542382885687,-1.7484705211515776,0.9845675240668539,-0.5270422479288822,0.18700040012532396,-0.17448102558377587,-0.12990879878448403,2.0746797111566724,0.2868607221935849,0.0,nm
5.311315298080444,-35.37228582551094,-33.125825537835354,140.24503641331563,-1.577809124419116,0.906771777656541,-0.6503543055902574,0.1083523581034623,-0.21420556353830314,-0.11027451220279381,1.9325313484273436,0.2641679863248139,0.0,nm
5.337385892868042,-36.504355337477236,-30.565491976034984,140.61238347703036,-1.239506558669496,0.5604031396181121,-0.8353014402118608,-0.14547902177915348,-0.2580310284355081,-0.03234450339784944,1.596294673266356,0.2979770533335728,0.0,nm
5.361422061920166,-35.22476733172834,-21.970127829292785,141.8545680854407,-0.5847522753639924,0.1920315882917063,-0.7983735825126668,-0.5568803393791759,-0.4577856983930001,0.15587258601907994,1.0080732769493057,0.7375498092417274,0.0,nm
5.3841233253479,-32.425350536785615,-13.406296971692246,144.23664634793684,0.3092928849488109,-0.5979422558165273,-0.5962800842448277,-0.7808100615013059,-0.5173450691597296,0.3210320057782739,0.8993036021488708,0.9901372740481899,0.0,nm
5.385909795761108,-30.403394613314656,-8.973364864202066,145.74147344546066,1.0050773579221142,-1.1320730836726112,-0.23253549012009167,-0.8329639818749857,-0.48583237128141193,0.3549351378369234,1.5316144150369908,1.0275412595887656,0.0,nm
5.4126245975494385,-24.408880324329818,-1.6160774897037615,148.65382594171118,2.217532118110751,-2.527967838063047,1.544534155561837,-0.8976972203453809,-0.20759194626549188,0.28389103290287504,3.700493999837187,0.9641311291171858,0.0,nm
5.4170777797698975,-21.38825275260198,0.42931505327386,149.43352880553334,2.8300630480515907,-2.0279858934826738,1.6329669302302283,-0.7293913936160484,-0.025582496493629786,0.16171876350735906,3.845590284382531,0.7475421243504322,0.0,nm
5.4387428760528564,-15.240160349627152,0.6056346927789242,148.4180387771637,2.0168376281661713,-1.3036590845428142,1.9751711028938808,-0.4230720398595411,0.38233742625069334,-0.17834265473732636,3.1094150435097894,0.597476326662132,0.0,nm
5.453449964523315,-12.33562443799641,-3.693513081184755,144.83669325545046,0.9083342631087216,0.23336114467930327,1.133745799737667,0.10513658999336144,0.5894222692564799,-0.33872055569781495,1.4713626663083788,0.6878981966127888,0.0,nm
5.46684718132019,-11.774441817050448,-6.896330938179481,143.29535696756028,0.5258851878004895,0.7279838484618131,0.7964658083376123,0.2876351304017006,0.5988852301643549,-0.26950458250984755,1.2003639024146446,0.7169589996255176,0.0,nm
5.488746166229248,-12.021564778586542,-13.970026449648735,142.48031920303015,0.20987440453197226,0.6038459223421166,0.3788926909563137,0.5011364961202673,0.5471872227626802,0.025798587388510933,0.7431263922556971,0.742440039066911,0.0,nm
5.496426105499268,-13.223528378182603,-17.675234586490156,143.2189217639807,0.12092077820233242,0.39127214677583,0.19436944657224783,0.634031024809216,0.4654676989061818,0.09762089808932711,0.45331579412637524,0.7925814525267465,0.0,nm
5.519910097122192,-16.830326812712286,-23.661993878905637,144.58695759572328,-0.02412658218712525,-0.04682537105780244,-0.5161499437716683,0.6099748861694014,0.2547381588115616,-0.04155543175121004,0.5188308701284354,0.6623350702024678,0.0,nm
5.521799802780151,-18.779084344444737,-26.255441732975445,144.5602213016505,-0.23796427541949658,0.11014815510844374,-0.733348147601499,0.5905193583537185,0.23262813481333205,-0.18234354028348976,0.7788190534650972,0.6603621191288411,0.0,nm
5.530274152755737,-20.418216909326553,-28.68108725225214,143.92333659409044,-0.5873161719830159,0.3606908712018981,-0.6922374991288166,0.5217762226551756,0.23832156459461634,-0.29070399725648255,0.976847452594972,0.6430835161159291,0.0,nm
5.552585124969482,-23.320986148803808,-32.565156296772656,141.7589124696431,-1.0701710084358718,1.1194579690334554,-0.6467677496384694,0.42757468796137515,0.14173363372135164,-0.38703551622350185,1.6783207839091934,0.5938897435816838,0.0,nm
5.557672739028931,-24.569327289865747,-34.090722892846,141.04351877044272,-1.2742454524114974,1.258223400616769,-0.47124403925011654,0.3568703600375221,0.12203819354606808,-0.2861800719491277,1.8517285285321317,0.47344356383639447,0.0,nm
5.576455593109131,-27.379512034290947,-35.691879888955654,140.8027714745725,-1.4266010805822724,1.1689909535923393,-0.4334649039224781,0.27041491692141517,-0.06709376253274331,-0.16762260233865062,1.8946298624353404,0.3251509450688978,0.0,nm
5.592423677444458,-28.75715689888769,-35.749486102973336,141.03179151532174,-1.4050011802670455,0.999023049384491,-0.516974369412671,0.1846949106266575,-0.11922743983499912,-0.11003363473650504,1.799816065153022,0.24583489010782,0.0,nm
5.597305536270142,-29.888107093957924,-35.38427065266359,141.22336134910742,-1.4446560511454587,0.6787133439170822,-0.4887612504115677,0.10121394832838652,-0.15955559580758832,-0.10046796386012877,1.6693023899899553,0.21400014778484602,0.0,nm
5.618304014205933,-31.42797728495513,-33.31604015022398,140.86720140781497,-1.340715180786703,0.7214929187817988,-0.6354821450010987,-0.08324892315468221,-0.2393510209664489,-0.14227807976554982,1.6498202279216359,0.2906240637419204,0.0,nm
5.637567758560181,-31.632837020288015,-29.466310554610985,140.6150646264035,-1.2418446386012874,0.6921709462308142,-0.6281071497708012,-0.27065308431550683,-0.3243253261863766,-0.034717631146534554,1.5542835381043005,0.423845871948546,0.0,nm
5.659334182739258,-30.742089223353357,-23.62740040731981,142.00141587660855,-0.7662856748988376,0.1981941617643538,-0.658270052812411,-0.4722195171277768,-0.41598683079344256,0.21180956466501094,1.0294630268942622,0.6640027164353655,0.0,nm
5.662163972854614,-29.812316963367643,-20.05633392156478,143.42203818382532,-0.2807789693302429,-0.14845038526023083,-0.6831349004681344,-0.5677312166676035,-0.4514785987792111,0.3136888167882162,0.7533575769444895,0.7902862350519009,0.0,nm
5.6877148151397705,-26.304155675810552,-12.360197434428574,146.76629114261863,1.0629953206861489,-1.35655297460236,-0.18065787540353398,-0.7517313824134955,-0.4063417954066293,0.41309382159640196,1.732868227144949,0.949136571543162,0.0,nm
5.69291615486145,-23.925766504811374,-8.855445527011918,148.39113444951963,1.866762990699466,-1.7515543316446545,0.4066213625993545,-0.7708650069568355,-0.32759972931853365,0.3934094694168926,2.5919273856862817,0.9253785453677967,0.0,nm
5.713538646697998,-17.6670380515279,-3.9307248774030983,150.42253753963539,2.676498331297171,-2.199398917741917,1.6274923890984814,-0.7379018161717009,-0.03223432688304887,0.2112554487920384,3.827496622255118,0.7682232792511716,0.0,nm
5.71936821937561,-14.751214019514302,-2.9882037843290132,150.39459657229503,2.7656575423433067,-1.4440160520819958,1.327113292536561,-0.6003568444614371,0.13846011860140578,0.042855130231684344,3.3904680637661406,0.617605138678415,0.0,nm
5.748677968978882,-10.065334222707216,-4.629102885662182,147.9715932942188,1.4756225692073863,-0.40900884888504746,1.6043810610904456,-0.15763094217664103,0.4222427942627227,-0.26755138430039604,2.217834257650058,0.5241376102507296,0.0,nm
5.750723123550415,-9.230322084334246,-6.785801390681916,146.17997828028777,0.9922125699033791,0.4323499476175829,0.9355964894928687,0.09575956204596422,0.46711207806123156,-0.32224757897655576,1.4306477736433152,0.5755059420633019,0.0,nm
5.7574052810668945,-8.712887928764808,-9.710553159813914,144.746702279859,0.4492596421328377,0.7348259442643277,0.7902930746539308,0.24851072143248368,0.5546775015419292,-0.2545139022566184,1.1689168226436173,0.6589400851561407,0.0,nm
5.784687757492065,-9.609930909862747,-16.927732167357846,144.01540291890737,0.09864969152385891,0.7951053132444111,0.3476333508120322,0.5553626030435136,0.5396581711549238,-0.01144660165426368,0.8733688610112266,0.774460836481081,0.0,nm
5.786796808242798,-10.772786001104082,-20.667979885543847,144.516679716261,0.046559360032870395,0.33524132477472757,0.24091584320667803,0.6175870299966341,0.492746719293111,0.05775491697750768,0.415445499856924,0.7921797140985536,0.0,nm
5.815236806869507,-16.547232698370472,-29.80281960885062,145.18321911923712,-0.26776737018970825,0.10204786368722178,-0.7939248298766551,0.5686450486716677,0.25797980377479224,-0.24601080362133704,0.8440555470560653,0.6711423738916353,0.0,nm
5.8237645626068115,-18.189944597104564,-31.983749102953993,144.33513798642056,-0.6042431606098003,0.3357702990549343,-0.8250905922226504,0.4839304065588661,0.2083103404955719,-0.3577261815133885,1.076394897909445,0.6368279652227595,0.0,nm
5.846551418304443,-21.41901396352405,-35.39162613102648,142.21004478376818,-1.2076135381388937,1.2105131238599236,-0.5774330140973308,0.3934549873940599,0.10013188120311642,-0.3901284902867334,1.804744127654382,0.5630572436901427,0.0,nm
5.867843151092529,-24.370553580000625,-36.88858543664097,141.57959429271426,-1.7244751765805066,1.1836681559350621,-0.2557401265848259,0.2742849136267562,-0.07335267720133298,-0.2251334128445469,2.1071990770600446,0.3623504969982424,0.0,nm
5.873970985412598,-26.179508789812854,-36.96410903073591,141.98889501325908,-1.7433358098868494,1.3173143541477041,-0.4195974837380748,0.24023103866794973,-0.15377748521341877,-0.15375692737257923,2.2249941352814266,0.32403650969158054,0.0,nm
5.8813440799713135,-27.64071375043093,-36.66488507489331,142.63429226685736,-1.7728311193751831,0.9671171217652708,-0.39765610034112364,0.1521038355741602,-0.17730394966608942,-0.06477308595627809,2.0582458743248133,0.24242074999443783,0.0,nm
5.894217491149902,-28.883228248766436,-35.99085719900058,143.17657262551424,-1.6503750605901188,0.8142054636468641,-0.5965395819687755,0.08181843555002817,-0.2153563615291583,-0.05654049099941587,1.93456141037335,0.23721181667317223,0.0,nm
5.899461269378662,-29.72064723320502,-35.00497381015026,143.5157522634842,-1.4308989193954975,0.7444958320488789,-0.7713491942756161,-0.005011886933413269,-0.22678184230250684,-0.05127011876092485,1.787938852694632,0.23255912815134078,0.0,nm
5.923607349395752,-29.87681178358223,-31.86077110933179,143.69203827666408,-1.072431305152791,0.39082545140432684,-0.7554742687767138,-0.22507454890959228,-0.2729162171737772,-0.0022873585616811102,1.3687931942119032,0.35376128416276764,0.0,nm
5.932882308959961,-29.465544490635793,-29.3874613268741,143.75099404763847,-0.8334340351680304,0.29800358673996946,-0.7392628096657184,-0.3474989702957473,-0.3440181893848854,0.05065362861735189,1.1532250129273145,0.49159926675735,0.0,nm
5.954389810562134,-27.965355859910268,-22.513176570675842,145.02749064756418,-0.2522920833449719,-0.052584774534957746,-0.6410833453496567,-0.5582181084517315,-0.509762810601492,0.2161948592637135,0.6909445053809646,0.7862606418025886,0.0,nm
5.962430477142334,-26.772890463367794,-18.258917051715574,146.1931807664738,0.21553187587402992,-0.38589606372588536,-0.5907329088292784,-0.6639400693862482,-0.5632812716474135,0.28942681092113814,0.7377907095449301,0.9175347871363372,0.0,nm
5.983527660369873,-23.06463927538538,-9.665704186037587,149.0880827294544,1.4067505360138541,-1.1476931326111626,0.055364931413205525,-0.7958973797599607,-0.48235192358920803,0.3364186538841322,1.8163732746460675,0.9895926070763624,0.0,nm
5.985226392745972,-20.246753288258837,-6.020667574611893,150.34384901393815,1.8843457200011426,-1.9038359508833966,0.9714311213315352,-0.8505309397019755,-0.3352518966156473,0.288521070722495,2.849390907519387,0.9586663245496678,0.0,nm
6.012501955032349,-15.062668870060806,-1.9661622491982953,151.19166756362773,2.4001245515114276,-1.2612995489609249,1.4007941141862745,-0.6081135467830899,0.02321660248658946,0.05430692248929055,3.0518352782081597,0.6109749080300986,0.0,nm
6.0148186683654785,-12.50534471404657,-1.6087647843327795,150.6215447986684,1.962298732875179,-1.0999352971817031,1.7620673189043587,-0.48235943119321956,0.2012013097060773,-0.07206520961416252,2.8575085671578537,0.5275850474807074,0.0,nm
6.03978705406189,-9.861056856364572,-4.20663991558696,148.3954690315411,1.087712558913786,0.16599461080628647,1.101775968471679,0.0014519951369606743,0.44098572951549014,-0.19370356456082347,1.5571072879982333,0.4816550558747992,0.0,nm
6.046709775924683,-9.272140309486957,-6.730855553730417,147.4422531545599,0.6656417003122952,0.35591176151701165,0.9732666195171886,0.16949773515176353,0.5046919800431234,-0.15529953251632886,1.2316655259636042,0.5545822046741278,0.0,nm
6.070044040679932,-9.773541038007945,-12.76689910380527,146.80447125813544,0.2733525077852517,0.46877164691458467,0.4655844296586842,0.40220834102232633,0.4970992991247966,-0.006334881541700252,0.7150086094615228,0.6394680551070893,0.0,nm
6.0736916065216064,-10.665399954479389,-15.832234825326278,147.06670965419588,0.18123845067169925,0.17253576107124882,0.2056321557098018,0.4800784792221636,0.4341429804891117,0.020130256616866828,0.32388354128015395,0.6475806520825769,0.0,nm
6.095388412475586,-13.63405585856895,-21.371483091290067,147.46682401437718,-0.15114016158967244,0.0397142389748319,-0.24673580119794555,0.5226547866709182,0.3019201559427169,-0.0870098620218927,0.2920601390390247,0.6098315527123587,0.0,nm
6.119731187820435,-16.785346218011533,-25.856774363171176,146.59456011154057,-0.6535191134410746,0.3202231786248369,-0.517988856844445,0.47406154751516366,0.2238494659694876,-0.24452446692167723,0.8932763131172892,0.5784765761641754,0.0,nm
6.121570587158203,-18.263326975537012,-27.889093342833817,145.90340817403398,-0.9217239955609453,0.49249226993351797,-0.4388017208605425,0.44663804752409536,0.20588667645034425,-0.2697446163755472,1.1334331520505636,0.5609251528497327,0.0,nm
6.144967794418335,-20.744492844715193,-31.122437676956086,144.745211001604,-1.2451306801145452,0.8185335183357819,-0.46805071673682763,0.32059371363514344,0.14829092988304263,-0.18761482878764976,1.5618639520263993,0.39996231458597314,0.0,nm
6.152620553970337,-21.807261136627922,-32.31954207125474,144.4540934349486,-1.3518743598324467,0.7611453272420619,-0.41055175042789577,0.28845432957955514,0.10401943730810895,-0.13628024886954812,1.6048237391483908,0.3355566268501223,0.0,nm
6.169809579849243,-23.70879915822209,-33.36464619712324,144.45536002181322,-1.3101815598282218,0.7522213900721056,-0.5838611974106022,0.14120459569792726,-0.020447608657605813,-0.07903634264814118,1.6196625072025548,0.1631060575368802,0.0,nm
6.175992488861084,-24.267065069767323,-33.17098526674529,144.39038490448633,-1.278133397106226,0.6578707194234652,-0.6249672469837487,0.05567380010690157,-0.07224737382744534,-0.07021241545951694,1.5674829900434313,0.1151044670200322,0.0,nm
6.198913335800171,-24.60732902231524,-31.20933833703979,144.12154413983797,-1.159543175727315,0.5548456727489707,-0.570249133016834,-0.14688898992415317,-0.1935472642920356,-0.050617875082597075,1.4062639050514294,0.24819163594639215,0.0,nm
6.2199461460113525,-24.08975291599289,-27.01119544567013,144.3307525210843,-0.9391730886715649,0.42398625800890344,-0.5131414140282775,-0.32054884762860403,-0.3356831416534039,0.05031717233756449,1.1511405423562406,0.46686888216968736,0.0,nm
6.223224878311157,-23.594852733568842,-24.13090742920313,144.90639613307437,-0.7423006690275531,0.22273156338587535,-0.4406434704404581,-0.40466350734448375,-0.40500504299403217,0.12773117375018264,0.8915078802842294,0.5865977256813534,0.0,nm
6.237499952316284,-22.975161068761977,-20.78031088102191,145.86973423676778,-0.418210524761885,0.014293194674840151,-0.47138358984474615,-0.47325326561690245,-0.47389072885117905,0.1918290855844605,0.6303227960422692,0.6966630996287476,0.0,nm
6.243016719818115,-22.166984704541605,-17.126263544810175,147.15810977618108,0.03086652271710544,-0.27486116742778427,-0.45789196353710626,-0.5290870531209352,-0.5130771163718535,0.24221262140260402,0.5349452811795583,0.775788754166605,0.0,nm
6.269807815551758,-19.906135995380232,-9.662188200338775,149.74751974570896,1.1202558862177932,-1.0766129763884111,0.273611517102399,-0.5863938901898628,-0.499654310463144,0.2561121024226539,1.5776349431426153,0.8118532092833979,0.0,nm
6.2715981006622314,-18.280079981599517,-6.2438224974588525,150.84543444319755,1.7124799807736586,-1.2922182632573842,0.6635581702165031,-0.6192090462099537,-0.42115020286466515,0.23163365865580188,2.24560129357541,0.783863182005292,0.0,nm
6.2940051555633545,-14.26696254293671,-1.8791078027955126,152.24155238614716,2.068459392519813,-1.3617862836000412,1.2668288047258018,-0.48299636232482923,-0.10790050301953208,0.11240818603540817,2.7816975682463485,0.507507246114434,0.0,nm
6.317456245422363,-10.93076516842832,-1.8326471119993522,151.44040673782817,1.5092967756822797,-0.8293366186665249,1.374984521706697,-0.2300300179603657,0.26760122886808585,-0.10592556453652728,2.203714686405467,0.3684351395794623,0.0,nm
6.319107532501221,-10.253485850383143,-3.5002839671778743,150.2202234201744,1.0601260110507618,-0.23080683006963723,1.1056879443495304,0.044358603122258075,0.37177023978647006,-0.2092421136347608,1.5490915990970595,0.428909150030854,0.0,nm
6.346114635467529,-9.925788658227974,-8.582093698083737,147.58249669545333,0.3674933300178887,0.4758373503664726,0.5964552490009779,0.2794748132367836,0.4903975470160147,-0.21979115237784758,0.8468951503416705,0.6057260734165582,0.0,nm
6.34805965423584,-10.195720493961815,-11.583771218182111,146.73062787371651,0.15374294760351268,0.7131458692316429,0.3844237761430065,0.37166439978209137,0.4897815872238818,-0.13713937951004665,0.8246184356440379,0.6299425677483049,0.0,nm
6.3560614585876465,-10.777121061098596,-14.542335650160233,146.5348759654705,0.15672764986548934,0.4612547888897957,0.2773933767157098,0.42115014373891707,0.4463175145025609,-0.03955471643642197,0.5605948822027126,0.6149238513144696,0.0,nm
6.365464210510254,-11.9468580664036,-17.46896827064887,146.76010277688226,0.10203191429471356,0.33890307633150085,0.07718369348092322,0.5109389312740683,0.37934930759131275,0.016343768712560623,0.36224733155808886,0.6365780450480719,0.0,nm
6.388671636581421,-15.235357370398727,-22.161993235199258,147.55374827708332,-0.1027289711340557,-0.004671227883345845,-0.3115912390104654,0.5044391698308501,0.19362871324718853,-0.04309655156940272,0.32812217558140866,0.5420408355563014,0.0,nm
6.39776086807251,-17.067395233369478,-24.07377512108764,147.58006595945963,-0.30006291944056934,0.07877742175733937,-0.5077270176240756,0.4905055761052233,0.15630107394057666,-0.1289355635841731,0.5950045060563572,0.5307071937161423,0.0,nm
6.417047500610352,-20.258411189254677,-27.563945978466514,146.67202069916678,-0.869974045094603,0.3312139506667601,-0.4233101729875767,0.4136476626692244,0.14418078256382455,-0.2578075404417233,1.0226187084193803,0.5082885153149146,0.0,nm
6.432955980300903,-22.61142077409031,-30.66315699609595,145.47529001087173,-1.1960966132018411,0.8604520707444413,-0.5002444810185372,0.3022053705523989,0.1794037630761161,-0.19122257943245174,1.5560428705375753,0.40009982639509384,0.0,nm
6.4475321769714355,-23.29437878268774,-32.02084538681176,145.18721323249613,-1.3073243245397574,0.7439756744040321,-0.3869421926381935,0.2525838698549512,0.17097024547789982,-0.12499358355478984,1.5531648187111116,0.3296252904125296,0.0,nm
6.451351165771484,-24.010475635324916,-33.07267171162597,145.10018238026137,-1.238126219786167,0.9808092408477298,-0.5733914153596434,0.22157931333411232,0.11747380638944964,-0.09051129565662026,1.680393114203465,0.2666266714465804,0.0,nm
6.477597236633301,-24.39123484579719,-34.101114441593054,145.0938156066498,-1.0827361031312772,0.6425305136587276,-0.5353703570246489,0.05028800914675918,0.05823737225114269,0.012878492305141868,1.3681317002347222,0.07801494058650751,0.0,nm
6.4809324741363525,-24.36157144174834,-33.91174970038376,145.0376623133795,-0.966808060291068,0.6625443111199621,-0.5427404993825488,0.0,0.0,0.0,1.2916075407457255,0.0,0.0,nm
6.502790212631226,-23.882294545323944,-31.76445405221831,144.60762462606687,-0.8944490257434534,0.47268450302984244,-0.33067965274070604,-0.18386322214857792,-0.19003320645703353,-0.029899257551364192,1.0643395754150533,0.26610574893699995,0.0,nm
6.511210918426514,-23.770927228641668,-29.78295812175954,144.58851411322703,-0.891750681546478,0.5144133227007329,-0.27086572543316007,-0.24316669517545486,-0.29878003205973336,-0.016691920056536184,1.064522703292442,0.3855880825380132,0.0,nm
6.539865732192993,-23.61502324674593,-24.126931443108376,145.42100001588017,-0.7587526851842327,0.335674571112161,-0.2684079829348778,-0.35806916917406556,-0.4858767153456152,0.10575006072857265,0.8720240250525132,0.6127583436985141,0.0,nm
6.545229911804199,-23.41675113668923,-20.66032666456904,146.47508796969578,-0.4724984342452788,0.10887251984414931,-0.3445848305672035,-0.4170271599654205,-0.5411729942699711,0.18523046860501882,0.5948501503727499,0.7078772410351851,0.0,nm
6.54697060585022,-22.957818500605214,-16.928156286826393,147.7655780775765,0.0008851907641726094,-0.24868088566096072,-0.39005801815524044,-0.47715574820969486,-0.5669558384932069,0.24767069321632856,0.46258861203341645,0.7813176710719819,0.0,nm
6.5594329833984375,-22.149260941609935,-13.132840851178974,149.34652322615668,0.7017180380673201,-0.7205471553255594,-0.21127806979080843,-0.5280092434484832,-0.5541031872401085,0.2854540147316215,1.0277328596339297,0.8168892812389493,0.0,nm
6.5788915157318115,-18.889598071776415,-6.5087664347828555,152.11563113370156,2.1832983038977725,-1.6262787908866736,0.8104594707802193,-0.6369602498899968,-0.33538609307895617,0.28936951642653264,2.840496214267511,0.7758459308442746,0.0,nm
6.5839293003082275,-16.408134957672367,-4.333048032200168,153.02269350921358,2.3436987436681513,-2.024897366631686,1.5948840035221186,-0.6408008189668462,-0.14460659710372334,0.218457789173678,3.4837893350709868,0.6922864747813223,0.0,nm
6.597824811935425,-14.430911914640584,-3.108084818398242,153.17500970437172,2.3560574314236025,-1.3146666866200898,1.2367101092456094,-0.46448436727140324,-0.025652469899994822,0.0545457796190277,2.9679634450891266,0.4683791399344483,0.0,nm
6.618099212646484,-11.058702813524148,-4.310205781471736,150.99305192463336,1.3059009647067674,-0.601987042892119,1.2868938632896323,-0.12285199332455278,0.3746325642495353,-0.26914341694028254,1.9297309514034797,0.4773681486466068,0.0,nm
6.622298002243042,-10.652773666702537,-6.687078654054365,148.9865398706152,0.8457621726148886,0.2403313146855905,0.7211900471193795,0.16803955507890259,0.46677039429054956,-0.3744013675751886,1.1371841880314788,0.6215209385848897,0.0,nm
6.647262096405029,-10.44269887563937,-13.209687307767902,145.49578807980774,0.230412426730183,0.6396578466771347,0.5383974599017202,0.3906506809951339,0.5807945025067394,-0.2802467221558681,0.8672507549930095,0.7539684568886957,0.0,nm
6.6505467891693115,-11.124307191675351,-16.73366208486248,144.65566767311748,0.3612320200036617,0.6542807478615945,0.07694205871125837,0.513287000458902,0.516862096173461,-0.17570919855928618,0.7513267928784252,0.7493221561913591,0.0,nm
6.677051305770874,-13.439602253907095,-22.85533824960441,144.80673777322127,0.29163686363711705,0.017627738017042028,-0.1591284323560822,0.5266049307383611,0.3102521840188862,-0.03232735299350382,0.3326930347389258,0.6120573735508866,0.0,nm
6.685275077819824,-15.131722008832094,-24.79396016687105,145.05044489860555,0.1962064451121245,0.011717901264682314,-0.5681674848659499,0.47763450311861794,0.15378993968050086,-0.07932730834623213,0.6012059290895969,0.5080146513298207,0.0,nm
6.704890727996826,-18.11485457713294,-27.267302948097054,144.62020752484867,-0.5563588973256316,0.1697105297445756,-0.5295559742588309,0.33180052554023665,0.03426560091209985,-0.22406273407154112,0.7866170710153683,0.40183308593775435,0.0,nm
6.713548898696899,-19.510435960020107,-27.96022898257748,143.87044871226743,-0.9478459887932745,0.49853929340152514,-0.4398313685336315,0.2837092827481599,-0.01776039843177536,-0.2956439925829935,1.157758644227267,0.41013626908668277,0.0,nm
6.73470139503479,-21.45017040659944,-29.26931215486725,142.43200167412573,-1.5991074881929639,0.9297635976913156,-0.2106677977643139,0.1900376394416934,0.04653041507446943,-0.18925484590727928,1.8617158825668256,0.2722072383882572,0.0,nm
6.739206552505493,-22.26695976278362,-29.930241005606433,142.20160650560075,-1.7663957072641554,0.9315566632431865,-0.11656046723405326,0.19583622055679525,0.03164824389850868,-0.12352615203345732,2.0003844515482108,0.23369241934650353,0.0,nm
6.761883735656738,-23.601586760164057,-30.94251404734134,142.7832680825736,-1.605307248158852,0.7079533820364432,-0.3826424328056342,0.12660695614886547,0.036748772720912995,0.060366805805133227,1.7957239719710816,0.14499636162638263,0.0,nm
6.767521858215332,-23.91597504880213,-31.213946122674272,143.28920918742304,-1.4549814023807863,0.4737319420241579,-0.43367098798966164,0.07811131271487501,0.02465439008881566,0.10241262761675875,1.590428671771189,0.13113947697036688,0.0,nm
6.789294004440308,-23.328407504068505,-30.475027341979047,144.03603747737213,-1.0829597566477434,0.271727298419881,-0.6064372509300489,-0.14728746189399428,-0.025206343535728724,0.12966655255410584,1.2705918693824156,0.19784431009478815,0.0,nm
6.79320764541626,-22.50165696152823,-29.406077059401177,144.25047723892243,-0.9363277288006109,0.2930408153700753,-0.5515572825130526,-0.23976931058774806,-0.07552376812407924,0.12892743041356955,1.1255211997500767,0.28251627238874133,0.0,nm
6.8201329708099365,-20.213723948460345,-25.50336141958464,144.7839392566597,-0.6148536690497947,0.2697575385050035,-0.3623087193529524,-0.4394964576312968,-0.2253797658848199,0.17979122417472018,0.7629428366813921,0.5256215933834901,0.0,nm
6.824320077896118,-19.04986917282574,-22.794837384721397,145.47907157228985,-0.371148806931731,0.22438043814691863,-0.3229802967629874,-0.48315218786971137,-0.30964422984223877,0.21069901301492736,0.5407534465973916,0.6113179694752532,0.0,nm
6.847238302230835,-16.295930392978132,-16.385375279006375,147.3447401193018,0.3082833371543385,-0.38358358471967724,-0.11756127511567578,-0.6123164393720285,-0.38463178454437363,0.2688293977814719,0.5059601128945215,0.7714546498133104,0.0,nm
6.850618839263916,-15.13740115850519,-12.944631523703656,148.02987571339173,0.7897703870525927,-0.6984200505519902,0.1785455115154561,-0.5579745061311283,-0.4478328835003428,0.19567824199952624,1.0693017960148399,0.7417410703395986,0.0,nm
6.873902082443237,-13.091079456031359,-6.498344945669935,148.6280535308053,1.6974184390813511,-1.102846525164315,1.037997261435606,-0.522136442336445,-0.39033640997160707,0.03511093681427826,2.2748490345840957,0.6528566115536079,0.0,nm
6.883708715438843,-12.445512011392362,-4.032849950707975,148.45541973896448,1.8840561361318287,-1.1092996483003486,1.2925861603269948,-0.3671842411405683,-0.3399922419315635,-0.04770881257943635,2.539880354600223,0.5026878975202861,0.0,nm
6.90021824836731,-12.150202850827897,-2.151477903443426,147.77976908542033,1.6060424067944303,-0.8071657305885072,1.2495343210803584,-0.05660117701945302,-0.03915273186777783,-0.058856564386790405,2.1891150606161105,0.09055785346458896,0.0,nm
6.908219575881958,-12.430265867429592,-2.995924319822236,147.65088109854446,1.4209444643270026,-0.5546259694276571,0.8515296421734816,0.13782424910392607,0.1273258793427478,-0.03040717898915859,1.746938999554712,0.19008419115103645,0.0,nm
6.932147264480591,-12.986670854820394,-7.520693893128114,147.2844778420568,0.9313807740359652,-0.43665169437198037,0.5506584985880857,0.32839299459840593,0.41996379079740714,-0.02645916217877523,1.1667731701187853,0.533771141731585,0.0,nm
6.939944744110107,-13.291804356230589,-10.46336565218285,146.77171299323814,0.8478634300209326,-0.2802532382487828,0.08049100098118651,0.37236659648984904,0.4752531145649404,-0.07275113635009424,0.8966008447211854,0.6081242742444511,0.0,nm
6.959922790527344,-13.595308533918226,-16.912778549179368,145.18998630470847,0.32143711384681944,-0.009527073432089363,-0.0782098246757857,0.39167964458644666,0.5266145174398476,-0.13942297836526915,0.3309522019297813,0.6709504906161191,0.0,nm
6.965532302856445,-13.784511769106718,-19.77164804721473,144.36183727793252,0.05521382998101494,0.2063084289501594,-0.2095779908639392,0.36109683670288095,0.4607732433037064,-0.14237008632416753,0.29922344348600227,0.60247169950247,0.0,nm
6.991851806640625,-14.653548317740121,-24.739906853706948,143.63279493485,-0.558170475637524,0.5111438952475174,-0.1856850244924557,0.37037487100845246,0.3367449895521283,-0.055748440315319975,0.7792953803552211,0.5036691589333038,0.0,nm
7.000228643417358,-15.429240637057633,-26.82484920786239,143.8618467199035,-0.7823128306358571,0.5930158574453865,-0.20405578891719592,0.3610375956271198,0.26807149858441587,-0.007950749900467048,1.0026564402375289,0.44974847218582736,0.0,nm
7.003863096237183,-16.281368911490304,-28.64088214793635,144.3160797143713,-0.9258139890051591,0.5736917877836093,-0.2912514274496523,0.33692820025473585,0.22008228442174352,0.020872079420845163,1.1274223714293852,0.402979487992303,0.0,nm
7.023977756500244,-18.203381123718657,-31.992348101787933,145.1459464423285,-1.026651024229682,0.7002962978207266,-0.41912085988182757,0.3262375702525141,0.18391705752989046,-0.03542692975294773,1.311521835686068,0.37618014786327764,0.0,nm
7.033043622970581,-18.724455936912047,-33.41394967889702,145.1613520124269,-1.0762746466224955,0.7260206828959982,-0.47098753255211606,0.2361884865365474,0.19748616923975093,-0.0501505658885445,1.3810511948420594,0.31193086970089645,0.0,nm
7.052276849746704,-19.205507453440138,-35.212186580151545,144.44813545610563,-1.1542204646014773,0.82561969459702,-0.4291880377864138,0.11963696234602336,0.09876311365204707,-0.12760437000840738,1.4825906828218902,0.20087317049042042,0.0,nm
7.063246726989746,-19.291582698658523,-35.32737034101229,144.10323457346556,-1.1805979069184895,0.9143186391902122,-0.39347158886815264,0.026771010831773617,0.024425127517828778,-0.09536398561757965,1.5442182109525158,0.1020174672695175,0.0,nm
7.083705902099609,-19.69947832961618,-33.88829811652416,144.21975631416908,-1.2231279995187814,0.8565764030455204,-0.2727078528100644,-0.06566004679790677,-0.17841459660679115,0.006227361256788432,1.5179376833208582,0.19021511521456402,0.0,nm
7.092649936676025,-20.060193783737404,-32.42919966086332,144.90456938889875,-1.1886805128298996,0.706701299063464,-0.24202587790977062,-0.11822798310349192,-0.25925372408626934,0.07663877489114079,1.4039104719523734,0.29506584224225957,0.0,nm
7.098989009857178,-20.41524992391539,-30.57352500011001,145.7573828606127,-1.0711925701526528,0.4938060617019979,-0.3117784760047635,-0.1598294947595152,-0.3261982974152591,0.11533773039915611,1.2200425267275468,0.38112148809182106,0.0,nm
7.119686126708984,-20.73411832600219,-26.123424641784606,147.24129069726354,-0.5865565842161673,0.0858951632731174,-0.4393651437192872,-0.25061147213244556,-0.3810281727762877,0.11381758414167759,0.7378809762261954,0.4700457646585872,0.0,nm
7.131147623062134,-20.5575815680387,-23.532278266328085,147.73584397414564,-0.24939054210541825,-0.10125261711640009,-0.46006748942831144,-0.3046401551169553,-0.40653221000684175,0.07965387365058527,0.5330195397857608,0.5142166872732475,0.0,nm
7.152771711349487,-19.634065619943183,-17.588606654973635,148.41594203184732,0.5598096205037592,-0.5548281193422339,-0.2198183995871453,-0.41036387511662414,-0.45909507085927576,0.0596140315681116,0.8182549614994441,0.61864418436434,0.0,nm
7.155528545379639,-19.01786208157492,-14.279345254389767,148.90565857199817,0.9530069254228977,-0.7652461034968832,0.08007514690740807,-0.4449540374754225,-0.49072871634739584,0.08586351533148799,1.2248411439747646,0.6679605615444097,0.0,nm
7.192896366119385,-15.510346932920264,-5.560856374630964,151.40215218361968,1.7717139841950003,-1.25931846084197,1.0169642682213187,-0.45437810074818547,-0.2590860874944624,0.19956890305121916,2.3998061901846226,0.5598328377630087,0.0,nm
7.197505235671997,-14.11392065346453,-4.308662010879553,151.97255827415879,1.9102916270498422,-0.9184706427990731,0.8288403202827065,-0.36509482271573385,-0.07426264637478285,0.13669124702925886,2.2759127176996077,0.3968547180453233,0.0,nm
7.20653223991394,-12.470221025650341,-4.343384018468175,151.99022732643584,1.699188064587508,-0.9107654828314926,1.1147795082430683,-0.2874396129052986,0.17460261454704804,0.026468087516314638,2.226986123789859,0.3373546557120329,0.0,nm
7.230357646942139,-10.600718237807712,-7.525263823966408,149.67465528481023,1.1180902869777578,-0.03711945038508359,0.7240687281116067,0.06737828048086468,0.4269848541478586,-0.24664849912815665,1.3325836808471185,0.4976860259987198,0.0,nm
7.2320356369018555,-10.168956763786344,-9.928948929092964,148.05438340799626,0.8267020177631151,0.22140657253682963,0.5932859906983451,0.17602020717886968,0.4703166436839027,-0.2855492276893025,1.0413670646294846,0.5776843602654831,0.0,nm
7.266947031021118,-11.772286722098073,-17.636459825511455,145.9292362297947,0.07763397646358874,0.513315216799538,0.07421879009858294,0.4243970708166189,0.3072418539005748,-0.06049689655283321,0.5244310964304112,0.5274185292521609,0.0,nm
7.2816853523254395,-13.197992739729225,-19.709002873477054,146.15576897450427,-0.12455992539059592,0.3942530461721754,-0.17120643267029834,0.4566025536211255,0.20732429368856273,-0.03287378481271945,0.4475067396330916,0.5025434712089166,0.0,nm
7.283657073974609,-14.83751750998364,-21.535356616024067,146.3272146499422,-0.33265606534100156,0.2379132814889825,-0.2996880602596095,0.45918491546554585,0.14751816655581912,-0.07150885487208958,0.5070263511684376,0.48757144336005614,0.0,nm
7.28982949256897,-16.523498344038604,-23.13903162503552,146.11218819020425,-0.5817213632329209,0.20990685312126892,-0.395945739657288,0.43878058542996684,0.10762249444227362,-0.1699159898103383,0.7343253095063514,0.482682553085844,0.0,nm
7.313076734542847,-19.766726553413275,-25.74400236231119,144.10654824293226,-1.0426536478224522,0.4086687365507619,-0.4173552945636903,0.39141498878954006,0.042108739059932454,-0.38193202355674194,1.1951243481127003,0.5484987784603362,0.0,nm
7.317504644393921,-21.28958300293537,-26.84629283607188,142.83734334364703,-1.2278657173451477,0.9069724617197354,-0.5405873092953037,0.3530927010690646,0.028642731868991807,-0.3863233755405538,1.6194097397263634,0.5241570491047646,0.0,nm
7.347623586654663,-23.638500885066485,-28.0706278396064,141.46820544008253,-1.6789104416249827,0.871876168402088,-0.367263904849813,0.23708518015264782,-0.06457215366717314,-0.20252718533007066,1.9271198976271384,0.3184277099671938,0.0,nm
7.349370718002319,-24.887487816395655,-28.097225954548122,141.7149428331573,-1.674947095991628,1.0908184518189832,-0.5854704821027433,0.178843107484306,-0.11917821303612805,-0.06466941436173286,2.082812606696332,0.22443359087047834,0.0,nm
7.35509729385376,-25.58784858216067,-27.74812953432248,142.50356762091792,-1.7355644939079309,0.714458841511375,-0.5225839640962162,0.057335811720148656,-0.11752905667528632,0.09597510755845814,1.948263213289771,0.1622088029036914,0.0,nm
7.402740478515625,-25.11267846414707,-25.233972262839377,144.92328185167258,-1.1004154727089024,0.14160126373534504,-0.6385671234774136,-0.22897391817395404,-0.06246931285560555,0.21046955270312362,1.2801301112210517,0.3172205902327859,0.0,nm
7.4044764041900635,-23.941526831803646,-24.03837509735222,145.08474211573116,-0.7781589734213544,0.13753480934585893,-0.584989287995935,-0.3105072432044647,-0.059262519934062466,0.17340373045386956,0.9831885265644473,0.3605490924779731,0.0,nm
7.412903785705566,-20.58675060862481,-20.382997761994424,144.88362583437404,-0.13362063837941587,-0.09403598649426412,-0.2666941071951965,-0.5041775932713537,-0.13564106693058967,0.1607943612544846,0.3127666679323662,0.5463042844479631,0.0,nm
7.427697658538818,-18.96739111984131,-17.808924462753367,145.28219698847394,0.27185459007183566,-0.07600237422808968,-0.28703257901848933,-0.545321974765089,-0.23285068109725088,0.1871208391753556,0.4025779184821712,0.6217794659707244,0.0,nm
7.4488348960876465,-15.862527066730014,-11.45153953091411,147.37691502106532,1.0543693197164383,-0.9076400422957651,0.42486501326058607,-0.5826258167991379,-0.3977869699760361,0.27363222268762777,1.4546530130003104,0.7566782071505364,0.0,nm
7.456024408340454,-14.915162163172003,-8.227439772599713,148.6150319200997,1.6758505163920074,-0.8332574347200838,0.45798372075130456,-0.5003939624414784,-0.4344077692785769,0.25907228218001344,1.9267957842700565,0.7114932712622329,0.0,nm
7.475104331970215,-12.182536323983133,-3.6732187886338483,150.05319995911222,1.990632355596572,-1.203375313912852,1.187878698011074,-0.408505922944475,-0.18299785138755492,0.10384059178483256,2.6118547284394085,0.4595086192830372,0.0,nm
7.486481666564941,-11.377428678938351,-2.7056132092208247,149.69904043890486,1.8700444642893672,-0.8161076316066005,1.0229645618423098,-0.2368540691735169,-0.07254514594205333,-0.06426734961497653,2.282444842613085,0.2559158856154509,0.0,nm
7.491332292556763,-10.82253163826337,-2.64843108956868,148.66517776054437,1.4559978107846823,-0.585078510755253,1.1810109565635765,-0.1013358327927945,0.06126289938463559,-0.20425165933302336,1.9639331374261666,0.23609496858068496,0.0,nm
7.50981068611145,-10.84185323164966,-3.415095914335854,147.28663909230667,1.0499423741738865,-0.16598662897792538,0.9458287954174932,0.08485024280768962,0.14235911497330064,-0.27854430208396136,1.422857217125548,0.32411820304318983,0.0,nm
7.5212626457214355,-11.51751272965124,-6.542969276418138,145.32699958078072,0.4000017832489494,0.24533902201220723,0.5291158291010091,0.25648476835881256,0.25784284828737813,-0.14485046575635627,0.7072172388520334,0.39147034146005877,0.0,nm
7.526824951171875,-12.369278260372985,-8.739252859556961,145.21612144507506,0.1936908636742753,0.3815076420133561,0.17665859967614966,0.3904242621939783,0.2790015277616614,-0.016609336154441618,0.4628957684241841,0.4801550031505917,0.0,nm
7.548974990844727,-14.556083857446238,-13.244542121054044,146.2836639827138,-0.1527717216862745,0.0063394790810324606,0.009523033451123025,0.4366065777888317,0.24567353253810525,0.10933465144031032,0.15319946510389185,0.5127717370953676,0.0,nm
7.562767505645752,-15.838396508264056,-15.478445899070735,146.7776370848513,-0.23942151283833912,0.009022557496327343,-0.3231861338613623,0.4547992380417928,0.24992911398849688,0.05869473619127691,0.4023100104071833,0.5222566237004888,0.0,nm
7.588721752166748,-18.172685674714,-22.609260159858554,145.3154217077374,-0.7322606831229865,0.29483434931880087,-0.4586601239188123,0.3407746640761118,0.34774168411272977,-0.21712475721322677,0.9129633677531667,0.5330992503658648,0.0,nm
7.5998570919036865,-18.48952563509742,-24.885584438176792,144.19758501162315,-0.8460333946147891,0.6211499237238712,-0.4440429565648477,0.3120375133731671,0.35281397605677467,-0.23433911863908388,1.1396376089882458,0.5260797790997507,0.0,nm
7.6169209480285645,-18.612724685690804,-28.182396270773616,142.6526344943551,-1.016585543617684,0.7942781765068094,-0.28824790218552315,0.17284960776582917,0.22572835871082678,-0.10885408439792706,1.321896683663969,0.3044330641063741,0.0,nm
7.6278605461120605,-18.95470738427366,-28.938132382165495,142.53832739453924,-1.0424518252792596,0.9146318822297275,-0.3718307854207884,0.1416887346062111,0.09770579643908552,-0.045874736605618034,1.435797834308784,0.17811965537452673,0.0,nm
7.630851745605469,-19.44242699110979,-29.0652976956371,142.83535098885213,-1.08494777558548,0.8773495572963341,-0.3465938316353004,0.08530431027468988,-0.01746547351689615,0.014864128837408331,1.4376999706349003,0.0883335182289545,0.0,nm
7.661243438720703,-20.664282458381507,-27.42970744916361,143.39751024411817,-1.0756937511178277,0.7075309200632365,-0.40894161111986965,-0.03872099857100245,-0.22899616154071958,0.018088307911392498,1.3509072101165156,0.2329500903923762,0.0,nm
7.672864198684692,-21.71198686080897,-24.04081725976686,143.58235606801512,-1.0121228253055765,0.5532269334439411,-0.4225584522992994,-0.15360468421915938,-0.3419726681378474,-0.03390348829109868,1.2284169890562036,0.3764161942394225,0.0,nm
7.677339315414429,-22.10004978048312,-21.774248434510177,143.50974826724175,-0.9157033097347838,0.4207097813055502,-0.431872087759749,-0.2103749111939435,-0.3934433597099052,-0.04239245282360305,1.0963679910191493,0.44816559508297693,0.0,nm
7.700800180435181,-22.780819866899645,-16.237798283868216,143.9561993680967,-0.4798265794951274,0.13526593904738313,-0.49732609784617016,-0.3035827087127894,-0.49377506540678007,0.03707060655229017,0.704175878779771,0.5808188238315103,0.0,nm
7.724779844284058,-22.73866413615435,-9.316094998471387,145.90205028195874,0.434627898786676,-0.621390940637199,-0.3633843677780271,-0.42565475811557874,-0.5614283851294554,0.19136120277855784,0.8408782969343069,0.7300704860931965,0.0,nm
7.726455450057983,-22.12938426680754,-5.8017601128898955,147.40800270018974,1.0492256848803243,-1.127020777039627,0.15525708107392275,-0.48635164621383686,-0.5079355480568329,0.2704843988658487,1.5476288737663126,0.7534575334977572,0.0,nm
7.744527101516724,-18.44936978502278,-0.2533157624355968,150.39243667695052,2.130480115577681,-1.5390355408012413,0.742385567222586,-0.6400521172255176,-0.16432858471846667,0.28953556741215614,2.731064307031539,0.7214578583099093,0.0,nm
7.754596948623657,-15.425845464794401,0.8581704088233623,151.23021240704844,1.9861779615593573,-1.8514878256527032,1.588085551445297,-0.6375335241906516,0.1159411327745427,0.18504273763659598,3.145620095026348,0.6738932819727782,0.0,nm
7.779308557510376,-10.793392354836408,-0.7719367749420563,149.97669549845193,1.5998172405405178,-0.6362435190406003,1.4255891828370484,-0.2545884900061821,0.4796499072599727,-0.19282828621060466,2.2352909289114575,0.5762482804668897,0.0,nm
7.79599928855896,-8.418108650339686,-5.868321561005365,145.98627182485455,0.9060844977834147,0.4944292998995905,0.7548741476099141,0.2040881922181109,0.561497559254798,-0.3532532688676678,1.2787824007439328,0.6940600631196444,0.0,nm
7.806296110153198,-8.108705409416745,-9.140044656299182,144.50796409498162,0.6126693764513603,0.7804262145433584,0.6020250693768597,0.3245819892773169,0.5869673148174377,-0.2474275486737089,1.160544279786854,0.7149157210957763,0.0,nm
