timestamp,roll,pitch,yaw,acc_x,acc_y,acc_z,gyro_x,gyro_y,gyro_z,acc_mag,gyro_mag,motor_input,markers
0.036745548248291016,4.950304833843848,23.49576639736338,143.67558129628964,0.020951432478876448,0.050571790371156666,0.030079899069646292,0.0,0.0,0.0,0.06246013794654348,0.0,0.0,nm
0.05614471435546875,4.7683515048067155,23.4618700489781,143.67300316358248,-0.00895633604224601,0.010003113082912463,0.030278325844719324,0.0,0.0,0.0,0.03312182426452637,0.0,0.0,nm
0.05825328826904297,4.662684906702397,23.454073630730964,143.65467334056135,-0.008802658356897962,0.009750926086549074,0.029661850161385006,0.0,0.0,0.0,0.03244060277938843,0.0,0.0,nm
0.0641171932220459,4.568024749092588,23.464054407353725,143.63706351719316,0.013105946146316418,-0.006518666280669766,0.040658542786424584,0.0,0.0,0.0,0.04321314540720689,0.0,0.0,nm
0.10069942474365234,4.468107790808818,23.53100033931326,143.6346647791698,-0.013334849515616393,-0.04389432018764718,0.038939906847412394,0.0,0.0,0.0,0.06017346509571291,0.0,0.0,nm
0.1033163070678711,4.481617005474179,23.577820808193852,143.6537784222279,-0.03192551879498016,-0.04065483126780269,0.0037114976809549493,0.0,0.0,0.0,0.05182498693466186,0.0,0.0,nm
0.10596776008605957,4.535115253612627,23.61106886492883,143.6781620791173,-0.03216039921139751,-0.04095460947884709,0.0037826504847308833,0.0,0.0,0.0,0.052209958434104926,0.0,0.0,nm
0.13143610954284668,4.61280854504727,23.627068410221412,143.69932297756134,-0.02840135201177659,-0.03615296789040033,0.0033966617952326692,0.0,0.0,0.0,0.046100012958049774,0.0,0.0,nm
0.13376498222351074,4.774450630756441,23.610789552005187,143.53412737767763,0.0,0.0,0.0,0.0,0.0,0.0,0.0,0.0,0.0,nm
0.1504683494567871,4.831756046090204,23.57779179983338,143.48948381070062,0.0,0.0,0.0,0.0,0.0,0.0,0.0,0.0,0.0,nm
0.15798377990722656,4.867433749173112,23.541825529088232,143.43889887920986,-0.007063382828097006,0.008010877432541193,0.023974858294618727,0.0,0.0,0.0,0.02624613046646118,0.0,0.0,nm
0.16021347045898438,4.880205577610642,23.507694157052065,143.38010477264982,-0.007831970045509609,0.008915646984997142,0.026678118410247503,0.0,0.0,0.0,0.029198467731475827,0.0,0.0,nm
0.16403698921203613,4.874302751322627,23.478334174151303,143.3274067848668,0.0,0.0,0.0,0.0,0.0,0.0,0.0,0.0,0.0,nm
0.1903059482574463,4.859599873379595,23.442121163907093,143.24683813408865,0.0,0.0,0.0,0.0,0.0,0.0,0.0,0.0,0.0,nm
0.1964733600616455,4.863380824317253,23.430488658571768,143.18767548386927,0.0,0.0,0.0,0.0,0.0,0.0,0.0,0.0,0.0,nm
0.21177196502685547,4.9086218040964,23.407383834101296,143.02145572143226,0.0,0.0,0.0,0.0,0.0,0.0,0.0,0.0,0.0,nm
0.23748087882995605,4.953381736744372,23.398691002908276,142.9740492311892,0.0,0.0,0.0,0.0,0.0,0.0,0.0,0.0,0.0,nm
0.28713512420654297,5.118302614961033,23.411174933141503,142.79843082278165,0.019979945312070983,-0.015166466403325042,0.01086073612068643,0.0,0.0,0.0,0.027334511280059818,0.0,0.0,nm
0.28967761993408203,5.159065519125512,23.437383947106902,142.74755479870467,0.014354846876088827,-0.007849519343889609,0.036484821865799884,0.0,0.0,0.0,0.039985232390786524,0.0,0.0,nm
0.29201292991638184,5.184690709707116,23.46870451715954,142.70390456750684,0.012560472300622138,-0.0065650837178992255,0.03475865757108328,0.0,0.0,0.0,0.037537049228482874,0.0,0.0,nm
0.29444169998168945,5.20246620362175,23.499785979207267,142.66877987224936,-0.007018043483384023,0.008421449025271524,0.02457935655397281,0.0,0.0,0.0,0.026913166046142578,0.0,0.0,nm
0.31573033332824707,5.205110147347852,23.52944167293753,142.63597944474975,0.0,0.0,0.0,0.0,0.0,0.0,0.0,0.0,0.0,nm
0.31878113746643066,5.198507477337587,23.551604845778204,142.60344666282694,0.0,0.0,0.0,0.0,0.0,0.0,0.0,0.0,0.0,nm
0.3210735321044922,5.18725708136429,23.569814809740315,142.57208649185097,0.0,0.0,0.0,0.0,0.0,0.0,0.0,0.0,0.0,nm
0.3249702453613281,5.171409096493558,23.586068646796775,142.54110212067096,0.020865698064443716,-0.015987044719808594,0.011476536565714898,0.0,0.0,0.0,0.028682291507720947,0.0,0.0,nm
0.34009480476379395,5.162651279141117,23.615797438429347,142.5095968572557,0.028311500056114526,-0.021716644851664538,0.015600484810592789,0.0,0.0,0.0,0.03894263505935669,0.0,0.0,nm
0.35947728157043457,5.18915761088527,23.70029541857243,142.48094461725412,0.03811057318065438,-0.02926341404702872,0.021092591259827147,0.0,0.0,0.0,0.05247533321380616,0.0,0.0,nm
0.3701894283294678,5.2028870280461685,23.76409097150504,142.45466953088913,0.036276243108676616,-0.02788136720054879,0.020145231332719248,0.0,0.0,0.0,0.04999166727066041,0.0,0.0,nm
0.3905932903289795,5.18385805488126,23.934736196154685,142.53684055579893,-0.007823926081711749,0.009346846190962916,0.026799685599828843,0.0,0.0,0.0,0.029441475868225098,0.0,0.0,nm
0.4089663028717041,5.156204298607296,23.96720703050442,142.5631854192753,-0.009200858485706856,0.0109500705123956,0.03140775727783902,0.0,0.0,0.0,0.03451097011566162,0.0,0.0,nm
0.4180738925933838,5.116639566983158,23.991790021152386,142.59028080039195,-0.009720116284096747,0.011513956596329832,0.03306464440104684,0.0,0.0,0.0,0.03633624315261841,0.0,0.0,nm
0.4252943992614746,5.0684259377574765,24.01263888141485,142.6167740710647,-0.009448145761892414,0.011132425486460833,0.03202384952631403,0.0,0.0,0.0,0.03519552946090698,0.0,0.0,nm
0.46426820755004883,4.981341467605817,24.036038324927226,142.66434612703975,-0.009579420549317074,0.011182113962202136,0.032284505054095886,0.0,0.0,0.0,0.035483717918395996,0.0,0.0,nm
0.4673268795013428,4.9476287914917,24.044516441993846,142.6814194747453,-0.009801443416632838,0.011400665189457296,0.032962331527661905,0.0,0.0,0.0,0.03622925281524658,0.0,0.0,nm
0.4701242446899414,4.922452644280783,24.052953703718075,142.69319799219124,-0.008964967016809218,0.01040007199858406,0.03009848327992899,0.0,0.0,0.0,0.03308248519897461,0.0,0.0,nm
0.4780886173248291,4.912671236799042,24.063875866955136,142.70122293648458,-0.008330024510688858,0.009651182769324036,0.027934918858114412,0.0,0.0,0.0,0.03070658445358276,0.0,0.0,nm
0.5201473236083984,4.938792864467624,24.101632375586473,142.69097902907905,-0.00888012763862569,0.01030848657431285,0.02975522553842406,0.0,0.0,0.0,0.03271842002868652,0.0,0.0,nm
0.5224466323852539,4.963239932396538,24.1115994774721,142.67380817980353,-0.008172837425678392,0.009511023646028962,0.027406186209682885,0.0,0.0,0.0,0.03013890981674194,0.0,0.0,nm
0.525775671005249,5.017240886782024,24.13692751785499,142.6247530638554,-0.008225375723284124,0.009628057289773236,0.027630418360270092,0.0,0.0,0.0,0.030394017696380615,0.0,0.0,nm
0.5451197624206543,5.053277623139049,24.157705262547502,142.5735269430268,0.012226291584108952,-0.005801118092125689,0.04093278763148643,0.0,0.0,0.0,0.04311181137812247,0.0,0.0,nm
0.569650411605835,5.056379397349288,24.166753073574434,142.5426868814587,-0.006897882074329211,0.008120132836920414,0.023208225912855922,0.0,0.0,0.0,0.025537014007568356,0.0,0.0,nm
0.6109926700592041,5.044835669881097,24.164773261689643,142.53904437518682,0.0,0.0,0.0,0.0,0.0,0.0,0.0,0.0,0.0,nm
0.6140856742858887,5.001226338418304,24.141956421587892,142.57198634315606,0.0,0.0,0.0,0.0,0.0,0.0,0.0,0.0,0.0,nm
0.6320264339447021,5.004664750818156,24.16113759385317,142.62141551211175,0.0,0.0,0.0,0.0,0.0,0.0,0.0,0.0,0.0,nm
0.6606004238128662,5.010900704049835,24.19266700679047,142.6526632665944,0.0245700319372353,-0.01874944836599466,0.013885297843008652,0.0,0.0,0.0,0.033882588148117065,0.0,0.0,nm
0.6634707450866699,5.023567650667465,24.242979507650286,142.75056651014,0.025740063024754404,-0.014910419183380383,0.05959452092926021,0.0,0.0,0.0,0.06660614363202902,0.0,0.0,nm
0.7031078338623047,5.0389565984486175,24.270594893761643,142.82973503685238,0.01190385621618434,-0.002474180107558461,0.06989966980993416,0.0,0.0,0.0,0.07094918744818753,0.0,0.0,nm
0.7053868770599365,5.105652727829228,24.2741697467832,143.02054591843276,0.015285496014414836,0.048845380663755586,0.03807543047363802,0.0,0.0,0.0,0.06379072037801989,0.0,0.0,nm
0.7082700729370117,5.061208065172877,24.18977158446507,143.13447336518266,0.05746656325350082,0.0711075223395539,-0.0073813074286582315,0.0,0.0,0.0,0.09172333031892776,0.0,0.0,nm
0.7108922004699707,4.934815450020305,24.154962437982434,143.14928752707354,0.1021240857515421,0.07207588807402526,0.03838667997173963,0.0,0.0,0.0,0.1307585550987028,0.0,0.0,nm
0.7271738052368164,4.744154303732359,24.16523365841465,143.16445448096985,0.14898621345507737,0.0559104699606799,0.08768740677825199,0.0,0.0,0.0,0.18169191990399738,0.0,0.0,nm
0.7324728965759277,4.63500347195721,24.12943615927735,143.26940119612885,0.18191668048796045,0.039073933306906776,0.14090364965089444,0.0,0.0,0.0,0.2333972780234879,0.0,0.0,nm
0.7353377342224121,4.451131369832258,24.175802912225173,143.42256697054717,0.17925424394774145,0.023239196026537512,0.1736884829938864,0.0,0.0,0.0,0.2506787452696255,0.0,0.0,nm
0.786414384841919,3.2102869019571636,25.086688781874024,144.39178133752958,-0.07805494660112475,-0.012566209786731921,-0.10179931441078865,0.026945495578370372,-0.0784961191588343,0.06925754797968928,0.1288936954696202,0.10809397951375854,0.0,nm
0.7891993522644043,2.841327756777911,25.166224605605006,144.56270544083142,-0.1894905184190484,0.05065734394727733,0.05117532336924784,0.037618275976511954,-0.0799645496513291,0.05727907920274313,0.20271096859435003,0.10531076299552204,0.0,nm
0.7915441989898682,2.411034414470048,25.137890011197516,144.6190417852076,-0.21194468612205578,0.043112750955517434,0.005254927179991985,0.06045488412425023,-0.07517336778487622,0.039620253616347266,0.21634896239639384,0.10428610998220457,0.0,nm
0.8188114166259766,0.9844325552221345,25.288837881968046,144.2108356703578,-0.40048064961398416,0.11825721687587187,0.18603281258243742,0.1108022201443501,-0.08236606371499404,0.0040999909055857145,0.4571408179279094,0.13812353299219277,0.0,nm
0.851783037185669,-2.5275145862079844,25.413719785507922,142.45985947721152,-0.839728058845158,0.08766918411504883,0.17289661194071484,0.19844095133929784,-0.13865204268639064,-0.03988870079128313,0.8618134003807515,0.2453452843654648,0.0,nm
0.8543882369995117,-4.055967225898017,25.361666203618846,141.53304664570086,-0.9931431761442564,0.02553993936782591,0.11193030457374875,0.22775674326618392,-0.14988320571400293,-0.06122558148512625,0.999756995427782,0.2794399421817081,0.0,nm
0.8581607341766357,-5.732076635303583,25.188097648408707,140.41077657029615,-1.1048276323365318,-0.02700482296879805,0.07335481346330892,0.2613016753770326,-0.15183528597084509,-0.08793981255315346,1.1075894032971603,0.3147474070625145,0.0,nm
0.8838081359863281,-7.372312289293466,24.86444189315341,139.06886922795974,-1.086939892696353,-0.1254651018498508,-0.06092542019915916,0.2728573418622502,-0.13048013779057133,-0.13592774081008996,1.095852056138691,0.33159093185386473,0.0,nm
0.9007959365844727,-9.903486515094137,23.377744075497663,135.65669651723454,-0.7975050036613146,-0.5002448131350165,-0.32008935557698326,0.2821038621217286,0.0025412447427529392,-0.2792754789601943,0.9943421440766802,0.3969683112003825,0.0,nm
0.9031977653503418,-10.655612862427658,22.25757807767094,133.61008981219345,-0.6234297995237223,-0.5757343549506635,-0.3633389878829411,0.26192816657157447,0.07135833645590636,-0.3566981167810451,0.9231197010791424,0.4482543063267155,0.0,nm
0.9164986610412598,-10.60974976063032,20.00478475500693,129.07903009825458,-0.34699204364832065,-0.5736760860542194,-0.16773050303806106,0.14590358560912173,0.1956648666531687,-0.4865960395497755,0.6911159466508693,0.5443788221831626,0.0,nm
0.9384524822235107,-9.797825122349042,18.92511655351276,126.74319676623816,-0.25966856755744283,-0.3285656166956167,0.05552500396112568,0.08239000077830481,0.2659220929861465,-0.5270410800834645,0.42245254824274425,0.5960494709853593,0.0,nm
0.94370436668396,-8.26746315449233,18.089201699178194,124.41446664616701,-0.15223848472853427,-0.10557503888966331,0.24667757966476245,-0.02654148321578608,0.34558302940309565,-0.5689218637856139,0.30850036203910575,0.6661862859861432,0.0,nm
0.9652996063232422,-2.5940450298440973,17.201861882856065,119.92197983640449,0.4153839436966377,0.03165212276248795,-0.12976517926484063,-0.2708287892571756,0.6011357820780024,-0.6386960537867054,0.4363309286607807,0.9179570309702678,0.0,nm
0.9785861968994141,1.354909575978206,17.074989820067493,117.85939505116214,0.27448382820550055,-0.05850100557318731,0.31000825121384606,-0.33520196811763214,0.6844944992989728,-0.6380415210178658,0.41817323613556134,0.9939768918557801,0.0,nm
0.9808337688446045,8.000942713884273,16.964713432192816,114.37820152147428,1.2975486672272287,0.16106822567613563,-0.2597533963608034,-0.26833390213388153,0.6290381052568803,-0.5175926386443689,1.3330593925503051,0.8576678613999721,0.0,nm
0.997452974319458,11.798571516267032,16.966442388541164,113.31127984574621,1.4181666821167054,0.36583923271649393,0.4404218692916085,-0.28671886127543844,0.6740837679759477,-0.42971739997791303,1.5293810857372379,0.8492665515040099,0.0,nm
1.0103867053985596,15.009449215398856,17.09681074319303,112.82270072755361,1.8577386312997362,0.23227863172941177,-0.20694160251203966,-0.25751995938757066,0.5638671377181326,-0.2800187138970315,1.8836058536306781,0.6802008222679263,0.0,nm
1.027414321899414,21.572616424980076,16.963774151179773,113.44449678728903,2.0819861997025333,0.0843821532457945,-0.07680929134886948,-0.20135140698390103,0.584771370467892,-0.08597673191661385,2.0851106807015567,0.624413279202448,0.0,marker_1
1.037750005722046,23.953041909613017,16.648986234286955,114.29442429803527,2.3112191652697383,0.09756647042641814,-0.17219528525758485,-0.12121543095968593,0.4503602551355611,0.02576731656530423,2.3196776634538163,0.46709902024248207,0.0,nm
1.0500669479370117,25.76057814832028,16.37800948196513,115.57177201265736,2.2599865743440404,0.08309304651715785,-0.14109844111599207,-0.09180676634358767,0.34504920924030186,0.141622744509484,2.265910973688105,0.3841151401679219,0.0,nm
1.0668790340423584,26.12584247396621,16.255407761042445,119.38909620075415,1.8104621465878665,0.20325584566452393,-0.2506085646723778,0.041521033064275105,-0.06799257837312796,0.4266025341778341,1.8389917823936832,0.4339777748543129,0.0,nm
1.0692856311798096,25.07703679720345,16.406631714960163,121.84419461739431,1.4039096251153689,0.2792980157034791,-0.08150107704320005,0.08122728740453966,-0.18088187164942549,0.5278646372742327,1.433740577171016,0.563876936037604,0.0,nm
1.0979411602020264,20.373259422223402,17.059834469411385,127.20003497343035,0.47919383172385976,0.6787524487445898,0.6573594511797326,0.2564912722003094,-0.48194108038930955,0.6779120827794789,1.0594588538939542,0.8704135624288946,0.0,nm
1.1000628471374512,16.752093811277486,17.8573808049424,129.88982323370928,-0.2993102052511146,0.9706222301152608,1.5346948272179912,0.3110100596177197,-0.6310574220545068,0.7298719126667488,1.8403755935273232,1.0137424406688889,0.0,nm
1.1300456523895264,4.6719100751759015,21.436125383566928,134.55552085068135,-1.9679278046521091,0.7380340631157143,0.5268193797495897,0.5899107372603047,-1.228456523636273,0.8857364985297813,2.1667885871772774,1.6253089716196458,0.0,nm
1.1322808265686035,-1.9802542942271502,23.42429671434921,136.23067248213647,-2.326592413460865,0.030021802597595293,-0.01874376237626911,0.6028165135714497,-1.1361460759729505,0.8204442131082709,2.3268615978680125,1.5255636210286416,0.0,nm
1.1346113681793213,-8.799325653064798,24.272921770830962,137.46141699884953,-3.2267591805153413,-0.39391182115685436,0.29101858670170966,0.8001551157221041,-0.9652920105986512,0.7751251104008302,3.263714624426132,1.474060993214236,0.0,nm
1.150834321975708,-15.684619061462122,24.4606620895788,138.1854512825286,-2.9504669548430784,-0.42069013063770405,-0.5948978680081,0.9098111938089953,-0.8579037628300523,0.7018962905687577,3.0391016618398177,1.43402011051878,0.0,nm
1.1983277797698975,-24.841013726933713,23.52752171686085,138.1700889930643,-2.2231410801052345,-1.3495131732324244,-1.2022581760388644,0.6582005727629087,-0.3389106946507406,0.2895004954071341,2.865129454079102,0.7949207443355876,0.0,nm
1.2029051780700684,-28.808375419112124,19.61616321096196,136.70318639797603,-1.3232414179836796,-1.523207598194154,-1.1164138015997738,0.43797406900708963,0.19445619238562498,-0.11741497574123587,2.3059724659818297,0.4933769070478037,0.0,nm
1.2055785655975342,-28.530684063540406,17.629923859228345,135.01718827307656,-1.0567805272485282,-1.6670302509615607,-0.7837824267343605,0.24280583573709208,0.3360890965622233,-0.34973882724440986,2.1236972083727577,0.5424276928571166,0.0,nm
1.2076542377471924,-27.261461337746123,15.907583959844146,132.7984662376871,-0.5178812732808343,-1.2786333255682312,-0.7466331915623938,0.08392165243087889,0.4283689368668345,-0.5102757333860776,1.5686189203281016,0.6715088338226465,0.0,nm
1.2311391830444336,-24.550664771747105,14.604846213504016,130.30106336702553,-0.7712993465996878,-1.0084922564883732,-0.06056172357560429,-0.14711332033877925,0.5787143846970617,-0.6293953712739774,1.2710731827178812,0.867577778333163,0.0,nm
1.2337682247161865,-16.787912012481474,14.108922705754955,124.99587690011101,-0.2730897169726615,0.08621829394193067,0.17402950701902234,-0.4928227885108157,0.6642975581533553,-0.6904218452177809,0.3351087242071586,1.0774265037569903,0.0,nm
1.2699801921844482,-2.8216587869190577,15.42336988684838,121.11786507192578,-0.03955382443723696,0.4248876874817387,0.8206742147520918,-0.9456154264647701,1.2354734125017846,-0.7064504939359368,0.924986604638226,1.7086999116724044,0.0,nm
1.2721855640411377,5.189202106325934,16.41482380786492,119.57420162257456,0.7723398015278254,0.4768154097293596,0.5708680043240587,-0.9404400219812546,1.2443204452080237,-0.690921606138061,1.0722648844107279,1.7059113315571812,0.0,nm
1.2757203578948975,13.375682834251837,17.082189678542115,118.05669897537479,1.451261369612326,0.4729079805515349,0.21474888497956784,-0.8647658252302431,1.3222264604399023,-0.7398304549186313,1.5414015066160869,1.7445491816508598,0.0,nm
1.2954530715942383,29.18207138733799,18.182613392462663,115.00951823393534,2.9077861044883946,0.8720968829669985,0.43345938502388137,-0.7388758876479149,1.2299889727122275,-0.7394350036447335,3.0665387721667288,1.6141792264046337,0.0,nm
1.3020849227905273,36.14250563866025,19.034672104892636,114.151804746567,3.253491009046885,0.4306643536074756,-0.24616088200582215,-0.7006872511252199,1.1361710308151216,-0.6352234170904401,3.2910895933181377,1.478294972180102,0.0,nm
1.3214874267578125,45.917205156040716,19.673385829954494,114.2190195454627,3.1949508521059204,0.2671917550308445,-0.6587005744869465,-0.3072886460778503,0.6333954996517352,-0.21152244066362177,3.273070244916574,0.7350904120526434,0.0,nm
1.3274292945861816,47.286326537173885,19.516275554769145,115.6836562398591,2.928236658923422,-0.004552465235030557,-1.2737118375418492,-0.0786118631003469,0.2517787622830139,0.15045507778817613,3.1932636127787752,0.3036595142410661,0.0,nm
1.348895788192749,44.95374263115405,18.203761035616512,120.4328586315601,2.133914389498678,0.4801125469976327,-0.35168917017112555,0.33438041854777845,-0.2734993709736319,0.646096738774482,2.2153518799300764,0.7772085730910211,0.0,nm
1.3561830520629883,41.05715381828872,17.700640904510266,123.40412994654447,1.545316480127963,0.8153374076844323,0.26989161130329997,0.4804090660901818,-0.5712005238680541,0.8221474712980523,1.7679421919215965,1.1104005465644198,0.0,nm
1.3808505535125732,28.236158351217476,18.865093201179402,129.1014165312565,-0.48344859134859525,1.5424553049667864,2.3544499739880327,0.703572064618643,-1.2271982088810358,0.9890086328242693,2.8559281483099976,1.7260264105144778,0.0,nm
1.383005142211914,18.683913050505947,20.7606183111546,131.32647340165897,-1.9145172162168864,1.4335651086634251,2.484495513244475,0.8802758714841908,-1.6089734277454264,1.041204182360916,3.448652352339963,2.1089777738217115,0.0,nm
1.3914477825164795,8.231855122162168,23.039423350104595,132.72646795076216,-2.9350687028847626,0.8050893392969666,1.5627797887560764,0.9706990879474602,-1.7358747025210135,1.007384240489199,3.421268449427457,2.229426094352636,0.0,nm
1.4195997714996338,-12.88900430418816,25.731472556160075,133.30802708323753,-4.470368751259989,-0.6479843122297685,0.31693076774956996,1.207696383741165,-1.5137106086090508,0.8795700168478285,4.528192305179188,2.1268506709345534,0.0,nm
1.4232146739959717,-22.72027867066364,25.7796832000049,133.0219713213916,-3.8641433556881437,-1.0711496774862408,-0.8687477409734486,1.2122202909650703,-1.2854899196158487,0.769259294890389,4.102887780860473,1.9271020289638687,0.0,nm
1.4448120594024658,-36.338455970753785,23.62382190908844,132.22043079675265,-1.9324751584614444,-1.6539318438110528,-1.7651702255734534,0.9104204007403321,-0.5454875211342577,0.38729667174834365,3.0960905521792883,1.1297878799777985,0.0,nm
1.4475326538085938,-39.79620230649461,21.633774167784136,131.88112109735476,-1.345120757943957,-1.8387874813051415,-1.810803537821913,0.7274747797987526,-0.19372962182445608,0.1988422796948733,2.9102403178164837,0.7786456021899466,0.0,nm
1.466062307357788,-41.20374068804486,19.675421984909697,131.03121382646285,-0.7721699996524332,-1.8057295277621868,-1.7812034276646718,0.47210322638167845,0.07594748100204277,-0.06983138316157926,2.6513376409880096,0.4832451741143467,0.0,nm
1.472381830215454,-40.486954212800626,18.03071164596718,129.41540995747567,-0.7314682017603569,-1.9899657671194422,-1.3640280707405608,0.1677392432439406,0.330298058934967,-0.36884296150147466,2.5210279772866495,0.5227603578212823,0.0,nm
1.4956605434417725,-34.90194359925746,15.537640058853935,124.45528557460666,-1.0831815971452907,-0.8445703201075468,-0.4046667557428595,-0.20271362060734974,0.6593215966756503,-0.7053829005531588,1.431899640758471,0.9865915143642058,0.0,nm
1.5162858963012695,-23.70172952640705,15.648900841649265,118.87836544471071,-0.6297299819517304,0.49542458326323974,0.17310643871344988,-0.6748743015948467,1.0349127538043403,-0.8241574071432383,0.8197384991535622,1.485171762015788,0.0,nm
1.5184838771820068,-15.386361970180568,16.521490121294928,117.06069783089126,-0.2599981908641441,0.733786876273871,0.317799021624438,-0.8937024440948959,1.3452751119988096,-0.7747634864429113,0.8408557885808025,1.791292172000362,0.0,nm
1.535904884338379,-5.779205296117517,17.761450870488023,116.06801303256405,0.07783014109906737,0.6978641025551741,1.1290215049894705,-1.031586910494182,1.5473994038194139,-0.7058162894789958,1.3295718841895419,1.9891689479120436,0.0,nm
1.5386559963226318,3.871819823444395,18.78021438680064,115.67166161482392,1.181114924563494,0.42167221132559896,0.8643014035980093,-0.972713048050928,1.5745804329248194,-0.6384723015843238,1.523107624264398,1.957835818828694,0.0,nm
1.547342300415039,13.669270428570513,19.057547246536572,115.30446348132284,1.9047132195976457,0.5101600747316702,1.075500124406681,-0.8392316810157675,1.6615252706447134,-0.6821231477255334,2.2460846529815033,1.982490360146684,0.0,nm
1.5708143711090088,31.856065692006084,19.7418492111518,113.37430342506094,3.2571658973100335,0.5139364159756582,0.5577886786290673,-0.7591812787465874,1.4650905358254265,-0.7570418579090403,3.344306883686385,1.8154775864193176,0.0,nm
1.5730156898498535,39.600577233615184,20.452669353176017,112.42442649419125,3.3320594854629375,0.3083883162689786,-0.06552446706870228,-0.693066820096249,1.291988234231495,-0.7224245229146874,3.34694147305557,1.6344639506025993,0.0,nm
1.6022255420684814,49.598165294147314,21.320884133719197,112.32640985290696,3.4114402328322857,0.13422167441207417,-1.0914406991153072,-0.322436351092736,0.6503078363750112,-0.23211374700265475,3.5842966841144848,0.7620644815921805,0.0,nm
1.60438871383667,51.50490326150581,20.947968549000908,113.60800204367872,2.9980773908668383,-0.16102379159210195,-1.450960881383857,-0.06845601323581524,0.3606742778772177,0.10500652605242308,3.3346190460668557,0.38183573822259326,0.0,nm
1.6101391315460205,51.39222722961122,19.85784270998067,115.65978464549346,2.7539979870025206,0.09953516838392211,-1.0183595642648087,0.2088076168282361,0.07566183419673406,0.40482502992461283,2.9379360721923073,0.4617452098863238,0.0,nm
1.6319255828857422,45.408843229123185,17.56273868206253,121.57983449599595,1.7170052806147804,0.5816315992813421,0.10721731916940155,0.5227381004498172,-0.5120707516545784,0.8545337721830887,1.8160115650709623,1.1250331302514727,0.0,nm
1.6562223434448242,32.74195257027451,18.17209983318049,126.9930395752535,-0.041398942248159216,1.0316037477574012,1.4597490287063626,0.6913384804901573,-1.208803412714637,0.9074455140720159,1.787956205172697,1.6621106901185667,0.0,nm
1.658236026763916,23.72796071837069,19.62057561684216,128.66637422744174,-1.3442930253914347,1.4897881875682222,2.5782390563895596,0.8267061035642284,-1.5167457088832847,0.8540699832839275,3.267094919622996,1.9270174009159373,0.0,nm
1.6766221523284912,1.4030051967022459,23.142128053746283,129.47512304376582,-4.092774275043827,0.8060858942847118,1.771423445075355,1.1068944415712019,-1.8541522467586298,0.8309677827939798,4.531944037296571,2.3137854945916745,0.0,nm
1.6926450729370117,-10.030108774114678,24.03339551045547,129.20913241791945,-4.468593072986898,-0.307578954077592,0.5018988193167833,1.201692280713562,-1.721717073419521,0.8166743082854422,4.507197720288021,2.2528495165554996,0.0,nm
1.7329227924346924,-30.217662143937904,22.448740986365895,129.16125090568906,-3.1491725019478305,-1.1309378750492698,-1.2320870420387704,1.266102440727741,-1.1683508047412177,0.7230316288376429,3.565718217050411,1.8683772985282734,0.0,nm
1.735626459121704,-41.34617444917227,20.05191923876954,129.2742284239787,-1.4072223242400612,-1.9199213747866624,-1.7528481125037458,0.7199174627637414,-0.4710999034414683,0.32072951129469646,2.9561544717267823,0.9181958895737219,0.0,nm
1.737839937210083,-43.66529703922162,18.87878471788947,129.03926683371213,-0.9350869786228404,-1.9147490526179298,-1.828580104488714,0.4625570229577645,-0.17719273274180397,0.10065729830203021,2.80790968348756,0.5054583620096933,0.0,nm
1.7538607120513916,-44.03702275597721,18.118551466952113,127.90688246626323,-0.920342322876869,-1.9529872869359386,-1.6403325291832955,0.16712917079999334,0.05321061918878789,-0.20135103937227017,2.7114350703103063,0.26703140411390014,0.0,nm
1.757673978805542,-43.01089989617831,17.69255199606229,125.97218601702235,-0.8925582708192804,-1.715085525161586,-1.4182418365850953,-0.04480952407668377,0.22116615936285625,-0.44885843267209463,2.397829963209852,0.5023905413880168,0.0,nm
1.7862029075622559,-35.567028477213995,17.3474258177295,121.39425736182855,-0.41689794898535837,-0.2696727672578466,-0.8521892976727187,-0.5052320389324149,0.8301106346732696,-0.7376784102406879,0.9862828703453308,1.220046112200966,0.0,nm
1.7997722625732422,-17.99583496714296,18.16504006607434,118.07131444139067,-0.05874497847864588,0.06717632598085906,0.40567294523351694,-0.9838435175757211,1.617256942358632,-0.7783518767906423,0.4153723266699158,2.046777889461012,0.0,nm
1.8018722534179688,-6.583106543179442,19.057213683604985,117.36877617530797,0.1526336389694572,0.06623886700582235,1.7870841161046291,-1.1482704538640072,1.8513208457259038,-0.7606736738293808,1.7948131527489812,2.307496120710372,0.0,nm
1.819155216217041,15.947721645745764,20.204090351736582,116.57713128454782,2.533018609177459,0.6377574034109297,1.7952154204089823,-1.0016404601501876,1.889329888898262,-0.7797761749369125,3.169497781308414,2.276159467940118,0.0,nm
1.8279550075531006,27.22651660001797,20.51933677847129,116.19159897461013,3.1364014302664933,0.9707881845178036,1.6511648493974764,-0.988649299009479,1.8777901834555808,-0.8319835948613891,3.6750223116142937,2.279412229420681,0.0,nm
1.8383817672729492,37.28619356631151,21.217500784050866,116.02409571474317,3.127272241000553,0.49731253964029515,0.38326405483339343,-0.9488224644634884,1.6349443482210713,-0.7522585427021874,3.18967753341046,2.0345023976193812,0.0,nm
1.8460135459899902,45.50676589376565,21.96850590298332,116.1929571471168,3.3750747163362513,0.7373098950586188,-0.033479765873504784,-0.806403712952269,1.3123090243622488,-0.5975067324089123,3.4548337321680944,1.6521066003620282,0.0,nm
1.8580524921417236,51.25832396033812,22.532595460208125,117.02454354843279,3.238232627966861,0.6372524984306633,-0.9449121408651545,-0.5779386706346562,0.9051532175709834,-0.31687526333128696,3.432943380473913,1.1196987928926825,0.0,nm
1.8655750751495361,54.788339091218944,22.57050523649591,118.38888277663565,2.8655730774581354,0.46135488158484644,-1.3685109582921289,-0.30921551901875644,0.5774651513298394,-0.012157537931870974,3.2089218800059154,0.655154977032914,0.0,nm
1.8915774822235107,54.120478133726344,20.685233982707377,122.19480473202889,2.0490114164209365,0.3495332462091127,-1.4650306606063261,0.35407633201703,-0.11537516855578381,0.5045573676342094,2.543017127615428,0.6271041505586391,0.0,nm
1.8938539028167725,51.284348801807326,19.44400586973596,124.52020764934669,1.5872669183799129,0.5104882938292249,-0.6146220888628772,0.501875045301376,-0.3048399782630988,0.6465189923186441,1.7770129094742402,0.8733800895786552,0.0,nm
1.9113104343414307,46.51754468719223,18.743518711028088,126.9800668491768,1.0453106423078853,0.923940804766852,0.5647620764032647,0.6422730074908494,-0.6453420822056294,0.7909817745771232,1.505090413423283,1.2060817496878116,0.0,nm
1.9213874340057373,39.4467691427501,18.98567473348078,129.37597772066513,0.24373656951198433,1.3219152825175835,1.4197538794798081,0.792464546148526,-1.0775073619194393,0.92399298348468,1.955139025176721,1.6256645427091958,0.0,nm
1.931333065032959,30.342450924515855,20.219221472187687,131.65027202686892,-1.1789638936905051,1.7666933822539344,2.624283140409117,0.9348433866021982,-1.4571210437994662,1.0056134943655979,3.376095876979986,2.002096999100518,0.0,nm
1.9897403717041016,-28.117481442381678,22.902506077518726,130.82125653928628,-2.8184685531572384,-0.9534210072439804,-1.5522075096076493,1.564023546804226,-1.2149867917837118,0.5504841974954434,3.3559089312841555,2.0555766613919193,0.0,nm
1.9937717914581299,-35.44638760003955,20.547922268571597,129.68998393815215,-2.416070051284106,-1.9274180310466482,-1.3371434634731205,1.2448875316128527,-0.7225585874629301,0.3167889043719473,3.3675343206899337,1.473835502562869,0.0,nm
1.9969382286071777,-41.073060972913936,17.830159050600834,129.2842599393536,-1.303866689541616,-2.0477245034754294,-1.709424865303004,1.1005903417673801,-0.4617244188555073,0.2903134441525955,2.9690701164415265,1.2283201680404163,0.0,nm
2.0011425018310547,-44.50159695143592,15.708190175115398,129.1142894166571,-0.40495730356242926,-1.673038034069595,-1.7532867408384913,0.7486719742101149,-0.22685519050438724,0.15577371360615086,2.4570431572831737,0.7976455680796477,0.0,nm
2.0220534801483154,-44.34240780410575,15.445358887014018,126.60382137822302,-0.38553252270387534,-1.9916981376489233,-1.4502563352922568,-0.14037500106507914,0.06609714128247324,-0.3764810971778394,2.4937402101325494,0.40720018362221544,0.0,nm
2.05574369430542,-32.14011948140715,17.6107590860757,120.38356718402363,-0.2850889122468766,0.06753207481585205,-0.8133904221497074,-0.6532848164275099,0.8621803801282326,-0.7447696468911518,0.8645462670441185,1.3133232222812325,0.0,nm
2.0579447746276855,-23.8596907175484,17.96174012205575,118.49411581892745,-0.019381335931195,0.48531246939466766,-0.37615686467300774,-0.8268311527996219,1.3549888913982224,-0.8342539306733922,0.6143271245623585,1.7932161810268556,0.0,nm
2.0748729705810547,-12.931871851980866,18.238096767823286,117.02044131082229,-0.7298487136261365,0.35845829544692803,1.4170117329151617,-1.0036942126605146,1.8301236544207309,-0.9008390277222408,1.6337361309512846,2.2733819777736546,0.0,nm
2.079714775085449,-2.4960321465079853,18.56644706984668,115.8651244997873,0.8751295302678552,0.33938553583449416,1.5876719780618946,-0.9278761126567155,1.760123746733872,-0.8167662494454797,1.8443797186597648,2.1508363002536144,0.0,nm
2.1022133827209473,19.36581598951138,18.59847754958681,114.47672786967624,2.8152653518542503,0.5926960796078122,2.109961627613511,-0.8829536680569919,1.961558598161412,-0.8185819650599835,3.5677648064488445,2.3016072096423676,0.0,nm
2.105863332748413,29.522922274094814,18.970910634944822,114.10103120330115,3.1964328223367677,0.5274529970664158,1.1351746504330793,-0.85402435194429,1.731808561186788,-0.7310253886628152,3.4327847207204827,2.064683173076038,0.0,nm
2.135948657989502,37.9958595280484,19.73639111640181,114.13128441865292,3.256429939841764,0.5043526243575749,0.1722314417449084,-0.7907047492025572,1.4037158942060544,-0.582656175644928,3.299753201728841,1.7132193470409312,0.0,nm
2.138277292251587,48.53007438913286,20.960614942506755,115.54829979829458,2.725982297859269,0.7188740668816987,-1.0959356537481557,-0.3986164493481384,0.6464330746211647,-0.1460656372761547,3.024704013524882,0.7733731079162105,0.0,nm
2.155097723007202,49.152919802529645,20.135972017872536,118.52522467355024,2.163905015471888,0.5659849736542312,-1.2263076704511653,0.1989218285331478,-0.060054023674436914,0.32809634503180907,2.5508144599312073,0.3883601308704239,0.0,nm
2.159884452819824,46.36918719568967,19.10939604041347,120.26469233588261,1.888533601786965,0.6937032907348819,-0.376273965996915,0.4394629001721102,-0.351104868705202,0.4824544931862012,2.046793960842639,0.7410564131371737,0.0,nm
2.19120454788208,35.25746554156543,18.42061177310397,124.16715629154433,0.6769718350968267,0.6793350888623575,1.343391016598505,0.670427370476144,-1.0158894442246,0.7471518280204837,1.6506018453738494,1.4281946912395642,0.0,nm
2.193390130996704,26.81874623156586,19.26077752232195,125.9703669630889,-0.5233538818456751,1.1601190815798281,2.8333949195206305,0.7887595780343535,-1.3965899896743004,0.8459447471175722,3.106107264576335,1.8133471224162259,0.0,nm
2.2758400440216064,-41.33204596235717,18.700860179407485,127.6699989313065,-1.5747859134221946,-2.057847953291368,-1.8491608258207632,0.98971186638141,-0.3974225192422409,0.27363710717704415,3.183407707430604,1.10106834650772,0.0,nm
2.2802369594573975,-44.46286130182083,15.93108578726919,127.47208205502622,-0.3995424050774812,-1.6575150979491793,-2.0656217656773275,0.8088198179518992,-0.12235431714380969,0.14108832747981112,2.678392001224708,0.8300999897521513,0.0,nm
2.3003242015838623,-43.22543714136859,13.449935106763244,125.18029613372657,-0.7648788849564714,-1.932044869109602,-1.2488146182105075,-0.07186187915910269,0.3241797679975668,-0.3783567811831618,2.42432981163068,0.5033989526434444,0.0,nm
2.3372695446014404,-30.879372100279063,15.121536943482345,120.3065985752951,-0.73959614896467,0.04806839431651475,-0.40191060132605544,-0.683591570337414,0.8470947456566402,-0.5287905105555885,0.8431163416479422,1.210159637076489,0.0,nm
2.339589834213257,-13.582388027700004,15.71753055442989,118.7759979524374,-0.2728200950706051,0.44179964685413875,0.9297289438866347,-0.9344420166146608,1.7124160847099201,-0.5717187047702167,1.0649007659567782,2.0328337381527937,0.0,nm
2.3553686141967773,8.423750439593778,15.044905134965488,117.66443353645727,2.009338773731486,0.011910996361741458,1.5661694646020434,-0.8995699431089641,1.9117349919557323,-0.6100393366220096,2.5476402750990834,2.1991145386812554,0.0,nm
2.3655142784118652,19.399486246044386,14.56091911900987,116.68545048982632,2.8734457688565485,0.08851120834870617,1.722824072184586,-0.8723510335131974,1.9465365874153475,-0.68956650925458,3.351514225579481,2.241763364519921,0.0,nm
2.369389772415161,29.5583001190531,14.681882502546687,115.65092477196448,3.3948030028089877,0.35227459694493773,1.3398005073304369,-0.8817349155794018,1.765626015330387,-0.6851719244445558,3.666585635025662,2.0891032175099276,0.0,nm
2.378831386566162,38.096071052000624,15.731274359240592,115.23424203533489,3.4028068941014817,0.2584149876639775,0.2752260372502075,-0.8939283129620119,1.406800867098423,-0.5292386341140007,3.423685504828736,1.7487967406828149,0.0,nm
2.392042636871338,44.52991709936343,17.064449037931812,115.65329221652483,3.3797621164753413,0.48288983698893756,-0.3469713710904051,-0.7699892159075632,1.0064983679108135,-0.30558332870650506,3.431670685101564,1.3035733688613091,0.0,nm
2.4302642345428467,49.26237030258891,17.302683423113077,120.64465884154909,2.0638815849892875,0.7812004670007674,-1.219464755607068,0.19506961422149188,-0.06258848449981036,0.42986111004301797,2.5213043562148374,0.47618278708067585,0.0,nm
2.432468891143799,46.52550534974423,16.33002079857359,122.72387612472396,1.7398509503413744,0.6951786296126677,-0.6966205502667402,0.4427305980484945,-0.33883174899743673,0.5614330966078389,1.9989084139919633,0.7912170742240757,0.0,nm
2.450664758682251,35.516797830677184,16.75300844556973,126.98018664253941,0.017562865322415754,1.573810647643961,2.3724437651063086,0.6239405541427339,-1.1550685413134572,0.7962697074817463,2.8470472120194343,1.5354252170942764,0.0,nm
2.524125576019287,1.5915617182152941,23.353911006795787,130.09810391718543,-4.242725647830763,0.6379606093664301,2.102092717043362,1.1656403873597792,-1.8367996997048783,0.8390671028902417,4.777709540450413,2.331648398158009,0.0,nm
2.526489734649658,-10.715245476219492,24.019101668734063,129.71796172787282,-4.513469873769404,-0.2852045659679566,0.4548110935777317,1.3555591702448044,-1.8018771146894044,0.863852857560551,4.54528382795996,2.4146518506798706,0.0,nm
2.5285563468933105,-21.947293036520385,23.61603634281692,129.58204859684247,-3.7010111965003816,-0.9026195160161682,-0.8327897458732938,1.3825455596451857,-1.5184157071697815,0.8476074519211231,3.8994544013420844,2.221588818126961,0.0,nm
2.5305798053741455,-30.652984804669796,22.255058463663854,130.11946626788094,-2.887126325793826,-1.0861782806558538,-1.4306287466997558,1.2437079535266922,-1.043598143810471,0.7612982086113602,3.400291206550401,1.7931763777902827,0.0,nm
2.532461166381836,-36.849125396791244,20.792646566193255,130.9308865533684,-2.0330643154909214,-1.49406305045894,-1.74783509407372,0.9769477013509229,-0.6730500134837025,0.6068196569631498,3.069283699129967,1.3325363889598434,0.0,nm
2.538734197616577,-42.289084753653306,17.957469815538957,132.32171458504305,-0.5239098047551105,-2.0073078786500678,-1.8709422670494578,0.40598082569427224,-0.00360472047114322,0.204512890420705,2.793598283547822,0.4545975661937814,0.0,nm
2.5556812286376953,-40.61507416094261,16.190897562385594,130.47174315472319,-0.416158113563792,-1.8345584207177668,-1.2197142328909103,-0.07984075588181082,0.29708515179245265,-0.3795883780727728,2.241984608428011,0.4885913123288643,0.0,nm
2.575566053390503,-37.99321212983983,15.886233885100028,128.3969304251206,-0.6822502130800527,-1.4749678938414217,-0.7412273954997697,-0.26905852150176574,0.4422488782114448,-0.5594660330088499,1.7861729179869872,0.7622196536187302,0.0,nm
2.5783989429473877,-34.746878810341045,15.899378404330246,126.13486345369878,-1.1186135333538505,-0.8990198147034733,-0.23326170398657717,-0.3756103345602505,0.5095511007221194,-0.630515422333455,1.4539408126806863,0.8934624477144644,0.0,nm
2.5832037925720215,-31.115444824115933,16.40520710513748,123.76407569310199,-0.35767683791388727,-0.1148483176543811,-0.4084195687703061,-0.4773296800107906,0.5277668907701951,-0.6773181525855401,0.55491386773322,0.9824161003537818,0.0,nm
2.6121554374694824,-17.903951660916867,16.19644286166932,120.19282431859993,-0.15525241047092822,0.20764029554367008,0.5870268450945187,-0.6538318359078817,1.3446968735253035,-0.6951842049440652,0.641730722462405,1.6489350594001904,0.0,nm
2.6145944595336914,-8.444044792763302,15.501077603249524,118.90717755396321,0.4709910019780685,0.9120051944489509,1.869920698456453,-0.7661610901158844,1.6676554120891218,-0.717090510345105,2.133117300375683,1.9703543309528624,0.0,nm
2.6167097091674805,3.13597607209058,15.553947018008271,117.79210743381515,1.2787783724750212,0.3522170038419845,1.59489819076274,-1.05716401616516,1.975334842301187,-0.7785964970216217,2.0743748896001297,2.3718676188729093,0.0,nm
2.6474006175994873,25.647907981204003,14.38921929126014,115.55598361995668,3.183017698445814,0.974132656894092,1.1761501921406867,-0.7534316192468269,1.934981231032444,-0.7556356316730015,3.5304199999885855,2.2097051335376365,0.0,nm
2.6634204387664795,44.09342688934189,14.336568305351973,115.34669177997372,3.4702804924931896,0.21488871554878286,0.2896935038930793,-0.7208223985587482,1.4656398131708352,-0.38841224737513974,3.488974947294238,1.678853497517408,0.0,nm
2.6660406589508057,49.27289252467132,14.26275452829804,115.80052516461909,2.9056268076521117,0.054003299125160546,-1.2183265399463692,-0.42042408462395503,0.9178482956194671,-0.20965184033007617,3.151174869727273,1.0310944665050041,0.0,nm
2.6843132972717285,52.292553587147005,14.075835808737619,116.95373971974468,2.5234430061534607,0.32501950211489095,-1.410963322692428,-0.22734547911740408,0.5465648167283205,0.024755386467385617,2.9093332191488623,0.592479446832997,0.0,nm
2.6864912509918213,52.672638762909216,13.924090631023958,118.66395676433562,2.1774452536992195,0.3134861565280575,-1.071929832858328,-0.007176798689435044,0.08457545912273287,0.31044842391137983,2.4471565070022954,0.32184272344471226,0.0,nm
2.6927809715270996,50.07048329097631,13.69140199761031,120.41050477716533,1.756949297722241,0.5610313587445002,-0.8814939198480946,0.29071030936300984,-0.41191134160562454,0.4606065265044268,2.0441767416225374,0.6828922386231635,0.0,nm
2.7483530044555664,30.945298641794178,16.026022297231652,125.15109274832581,-0.5774124726192463,1.0947401254778895,1.438428755454937,0.6891390610454052,-1.5061237941410173,0.6871741096046114,1.89761386756823,1.7931898353624378,0.0,nm
2.750450849533081,10.572205825709837,18.63089300275162,125.65414117686976,-2.8425427110824426,0.8190163682889979,2.3947213935978957,0.9697217301162767,-1.7367963209714326,0.5423464043161043,3.8059857368109866,2.061785953166384,0.0,nm
2.7695629596710205,-22.797031134699495,20.040863533753644,122.9446067313709,-3.6851869049261134,-1.1407488730170294,-0.640529676614056,1.1301020933316537,-1.6296715961992914,0.5042537075607977,3.9105228272127293,2.0462727223906745,0.0,nm
2.7967424392700195,-39.162671872634704,18.734967053930752,121.34930367712066,-1.8273780156119692,-1.341006713248963,-1.8762815811675027,0.8358993749183046,-1.0429308384826133,0.3259890333817739,2.942455095451611,1.3757548287147832,0.0,nm
2.826066017150879,-45.62528420613316,17.268814951200167,120.06450711612207,-0.8875870413599865,-1.471290435288266,-2.1931424293230997,0.318353887759731,-0.2562315225255941,-0.05275492615198908,2.7861048107094137,0.41205202732278995,0.0,nm
2.828270673751831,-43.65600152843766,16.39267788708887,117.13079735744611,-0.8313823238537319,-1.110196564246265,-1.4448269196945753,-0.10488313058852433,0.38405479807361487,-0.44538701926594865,2.002812474385647,0.5973844289366949,0.0,nm
2.8456993103027344,-39.83813843689477,16.17398237008121,115.22778365323778,-0.842972703949075,-0.6660013433558576,-0.8384806230301086,-0.27698484586923144,0.6905339556618229,-0.5844392576919017,1.362795114517212,0.9461115128221553,0.0,nm
2.849017858505249,-34.06432390288955,16.216864499771535,113.29133192412776,-0.47738116012488346,-0.21603292140162136,-0.36609675863972274,-0.4548095168433362,1.0214974424783885,-0.6816441786271968,0.6392103189545755,1.309560043624386,0.0,nm
2.8753018379211426,-15.112300466789073,17.11562297345724,110.44269810241796,-0.17646954094420866,0.04259448892308727,1.2661453713702746,-0.827664642636881,1.8924090712268535,-0.7643315143814133,1.279093386274063,2.2023722476932694,0.0,nm
2.879396677017212,-3.473977545068667,17.860355217609026,110.00113901311343,0.8834633996207745,0.21421100268912496,2.0788594213015386,-0.8929791543181458,2.04696344785773,-0.7269478606093239,2.268931560377427,2.3486005022048406,0.0,nm
2.8858041763305664,8.861346721658325,18.38810351306362,110.0671430889143,2.200657997477162,0.31272893307367394,2.381173393059049,-0.8905072118998264,2.179996734070332,-0.7147316760118158,3.257404140608582,2.4609409224314134,0.0,nm
2.9197587966918945,43.86349401878556,19.57017685775682,110.73014621195941,3.5968750201558417,0.24281379660009766,0.6236646778066421,-0.8112310380280784,1.7987212993576116,-0.5842871402763663,3.658609856323041,2.057883760593679,0.0,nm
2.937624454498291,51.59940328389845,20.3891761726077,111.43727483397002,3.550379422395879,0.174308685483198,-0.30809602685999954,-0.6741283831097707,1.3035536942982413,-0.3911753072532724,3.567982724534116,1.5187888042244315,0.0,nm
2.9450623989105225,56.62166428502381,21.084703982964353,112.68100452608678,2.6142399844116873,-0.27045787422810796,-1.6772585306165249,-0.4822175718613739,0.8220177075982378,-0.14377169354626138,3.1177867689042995,0.963803505950306,0.0,nm
2.9755783081054688,59.48254316752161,21.027854270685683,116.13744108420683,1.9477806216305167,-0.046563012851464365,-1.551375295901828,0.0688309356473855,0.009882778799349949,0.3596897967909885,2.490538651155539,0.3663497194409107,0.0,nm
2.978182315826416,52.24827963831368,19.362237183484574,120.41793323689103,1.1429899096235203,1.291509682019932,0.2748896889744385,0.5702613330587173,-0.6779522695547211,0.7729817005123724,1.7464213504641064,1.1757201950733438,0.0,nm
2.9808051586151123,44.52384070887729,19.248584713871093,123.1358419223627,0.06913216903897834,1.653076215624362,1.3405457069689346,0.7903749486769726,-1.224452360085255,1.0414114654269728,2.1294372552230407,1.791232531509305,0.0,nm
2.9966604709625244,34.04374146517758,20.004512221992453,125.5367626540345,-1.1482599603866193,1.6664903797733004,1.8295824633550755,0.9940923382122705,-1.7116724045825251,1.1719559182370851,2.72819777742019,2.300330991790658,0.0,nm
2.999016523361206,22.236687797734554,21.22145996568715,126.8950835889932,-2.2612704971886277,1.199711913548714,1.9096592993716126,1.116646252518296,-1.9215583336594497,1.0925346956216724,3.1936580243731325,2.4764727626316376,0.0,nm
3.0299088954925537,-3.6013202277076406,22.216806080787684,125.40758718154541,-4.889887818753322,-0.27774552049194984,1.7114590994921515,1.4612849736963556,-2.0239401050440318,0.7363038558075812,5.188182504825746,2.6026583892692328,0.0,nm
3.0443811416625977,-28.85178021396311,19.10917748716447,121.61091421104105,-2.995473973294595,-1.3509636335030213,-1.3478806179193612,1.5628422544703238,-1.6234922740999447,0.46138869015487904,3.5517248237857157,2.3002353357478293,0.0,nm
3.0464980602264404,-37.956757049598934,16.090999815625263,120.78899987098205,-2.231554253670954,-1.5536013177128765,-1.6187461694286696,1.4226976765031143,-1.1613886147313044,0.387918279308825,3.1644668749279248,1.877064938827844,0.0,nm
3.0654406547546387,-44.5228869911446,13.35454101717374,120.63636156814738,-1.4021974323700575,-1.5592517228780316,-2.004405339059379,1.1261297513684267,-0.8009280138665286,0.3060680316819513,2.900873030295024,1.4153909496428754,0.0,nm
3.080662488937378,-50.37388556606427,11.43108509743903,120.28626665482373,-0.2945233794395549,-1.5875794157551724,-2.239294263687811,0.2143151207596621,-0.2119539329053277,0.00023496803393840155,2.760722952733788,0.3014224541573532,0.0,nm
3.109867572784424,-47.68832041767048,13.214341202952873,118.38039510345553,-0.1951009167612657,-0.9945647334466965,-1.9452429045448019,-0.39953170074632927,0.26678995404412426,-0.35448420105452166,2.193443259904136,0.5970439751621173,0.0,nm
3.112022638320923,-42.911231576970856,14.037187976714575,117.1458930709856,0.17711642418456414,-0.4824422102128998,-1.817397124734274,-0.572239363665725,0.7586759969505811,-0.4701876168535006,1.888664348925833,1.060246930068598,0.0,nm
3.129699945449829,-34.91286096175464,14.050389103037048,116.20856535179092,-0.4289225860962656,-0.06557607362302714,-0.7971248514311099,-0.6897933348121426,1.4011929282411577,-0.5292349626541091,0.9075697411573339,1.6490136787182157,0.0,nm
3.1324305534362793,-11.208559052182798,14.203650751378786,114.2589222401984,-0.4076846017107296,-0.1436251888415003,2.232751193956275,-1.0687632003715213,2.23089915436164,-0.7040223341474928,2.2742059764794753,2.5719279271352726,0.0,nm
3.1418235301971436,1.360686731311793,14.355694871868732,113.52128315265513,1.5672798251203914,-0.02497298550902003,2.4545082563428195,-0.9975638484059854,2.232979718228118,-0.6692048756238647,2.9123187464097584,2.5355802529644844,0.0,nm
3.1696367263793945,40.804113821260245,15.366982592157274,114.22941349902295,3.581623165567071,0.13640776738581467,0.9892979535242289,-1.132944131108863,2.126497812819709,-0.541161136618336,3.7182444809314377,2.469496047360083,0.0,nm
3.197345495223999,57.82986510110355,17.7198673547446,116.67713385999492,2.8723014800508677,0.4316799665831237,-1.502581100272466,-0.8086151544475897,1.1308701565956047,-0.15441897918250874,3.270200811685366,1.398774821124771,0.0,nm
3.2002036571502686,62.68373935368956,18.349287128751875,118.38290716440008,2.432006297819454,0.6373827311817042,-1.706279851647021,-0.5398406301254697,0.764360942706933,0.02623771923250005,3.0384703899789307,0.9361431378697486,0.0,nm
3.2152528762817383,64.21677971322472,18.24770905073505,119.9651423777726,2.0528584473328424,0.7373825219639113,-1.8111413491806712,-0.12561450467947272,0.26726289052074337,0.20623651616078975,2.8351708546744847,0.3601971085857184,0.0,nm
3.219975709915161,62.62495976464733,17.575176915782617,121.37371376472436,1.240928881564705,0.5111726339122615,-1.906180525714645,0.2694320129912468,-0.18903773468858534,0.3659687218364491,2.3312499109653575,0.49220115818973004,0.0,nm
3.240630626678467,51.89482178750552,16.70748873296143,124.52768851967745,0.8321821429908435,1.240737505150243,0.8633890766255577,0.7449778589742719,-1.0623884742981389,0.7008801397105018,1.725513654954841,1.4747522676449867,0.0,nm
3.2474560737609863,42.10738169858808,17.74207664180002,126.02811305144107,-0.15533327389599885,1.6462484956721901,2.3374018428645713,0.9145871827618534,-1.6422163932382032,0.8670043517229804,2.863164317762586,2.0700340439227425,0.0,nm
3.270399808883667,16.82346782361182,21.679968426656004,126.6220134604398,-2.6227721740917116,0.4515567634988979,1.9486216865709527,1.1611605373608334,-2.14371416111663,0.8458876599037284,3.29847902300833,2.580567792419622,0.0,nm
3.2734429836273193,3.4981593097358656,22.331105730619058,125.48351781529003,-4.640480503010916,0.24818289402796914,2.8114445306457814,1.3574239496730331,-2.066512538097575,0.764952199137932,5.431378682858582,2.588093065603781,0.0,nm
3.3010811805725098,-23.745043103186294,22.09926773610604,123.21366729978152,-4.162677101610832,-0.9554733855193819,-0.926477215052788,1.3997856813103584,-1.9785169108337919,0.787714977755608,4.370259726002907,2.548415979826942,0.0,nm
3.306184768676758,-34.727358521384325,21.021593024375925,122.71380061415054,-3.2252079390361326,-1.2586880104657028,-1.480762161119666,1.299620042258736,-1.5860998670765258,0.7079669542253701,3.7654904508597005,2.1693183839298276,0.0,nm
3.3290209770202637,-49.31638716749141,17.49679548119084,122.22973957125005,-1.148427857946077,-1.8650981160862699,-2.2030115457862487,0.9535359892014733,-0.7895728143755795,0.32677817865306424,3.106563599606917,1.2804062206765552,0.0,nm
3.335994243621826,-52.88394870909407,15.622267950622856,121.51073624306375,-0.22789128249474114,-1.9137047381239294,-2.2094208199784076,0.6849832538313007,-0.3702933365614045,0.06340567410312352,2.9318493517077466,0.7812422752511318,0.0,nm
3.3411319255828857,-53.51355125599296,14.04123359271774,120.29588490257484,-0.3072725495241407,-1.9732442393265777,-2.0902213344374516,0.33918472394614396,0.07096995461281458,-0.2068705235228414,2.8908708851597074,0.403581992807882,0.0,nm
3.360811948776245,-49.19294985133095,13.432847008779412,115.74922524248268,-0.18671673889820248,-1.19107057336082,-1.3439249718367507,-0.30296491895095007,0.5353026867532005,-0.6832002208737193,1.8054491355995779,0.9192927990374176,0.0,nm
3.3786141872406006,-43.80934001585908,14.202434501643506,113.32753986039071,-0.3613364442487076,-0.5405232325554045,-0.8467194136326722,-0.5671723096604594,0.9010564101986721,-0.726759446253005,1.0675500720326423,1.289095177216823,0.0,nm
3.381059408187866,-35.84657795417546,15.381049394160227,111.4735881148062,-0.1611400640290444,0.182023775466352,-0.3311530780741418,-0.7942589221311859,1.3494112326718364,-0.726395680714989,0.41080547244199184,1.7260963458646537,0.0,nm
3.4495151042938232,1.1945821827927243,18.17695610610426,109.88983566353699,1.4906382819835837,0.527961482972999,2.3844551383560435,-0.8478814846085493,2.280136844670351,-0.7575600062660879,2.8611836924690026,2.5479058470554086,0.0,nm
3.4521212577819824,14.645586155388164,17.780184417725074,109.73435887218405,2.6430390192181434,0.7439615340319125,2.8989592794099774,-0.7865905690816682,2.445440274912554,-0.8721983665866975,3.9928810306476623,2.7128643261706094,0.0,nm
3.4547665119171143,27.677940575468146,17.623593343621067,109.08220785797214,3.222859616693584,0.5667981768789037,2.2126309543223006,-0.7909432157370366,2.3622895805341466,-0.9352245948389589,3.9501670878904322,2.6609487547888504,0.0,nm
3.4575867652893066,54.003657114174466,20.076448579578148,109.05341643222945,3.204901585799745,-0.07823520068631673,-1.1638190367383576,-0.5607488324615615,1.0916414851210166,-0.3483071551324246,3.4105702853867044,1.2757108839626108,0.0,nm
3.473346471786499,57.88923277947513,20.34994937377953,110.65282217634157,2.966200114049319,0.1108342954397791,-1.355772776457414,-0.3006090214470822,0.6704622570920391,-0.02369547438013114,3.2632418204930618,0.7351509351598645,0.0,nm
3.499908685684204,57.054807144800044,18.800100672899408,115.08127616553755,1.9808079605974493,0.11039064720806299,-1.4416012613510834,0.31940429983885016,-0.18821014080206347,0.5791048068948066,2.4523459112625763,0.6876078397058529,0.0,nm
3.5415146350860596,47.653036227985424,17.459952908555337,120.62703319666515,0.7166892686368331,0.8561294169358667,0.6153021355566982,0.5955840278324938,-0.9571746178603694,0.9192905785483557,1.2748324612837483,1.4546472943958242,0.0,nm
3.5438177585601807,39.33142795810375,18.47386884470794,123.53406342071483,-0.12339444517363235,1.085898303736006,1.6134811870220518,0.676832666155365,-1.4436373619284466,1.0223631519134553,1.948774706329732,1.8940479680095537,0.0,nm
3.545952796936035,28.63893489782752,20.318830373735935,125.35723605967576,-1.3992611211347459,1.3252019482606197,2.3041999122363155,0.8483141615414258,-1.8649763245177535,0.9979051008355098,3.0039023160453886,2.2789445359545306,0.0,nm
3.5485239028930664,16.429236052085866,22.20904668730799,125.83349020317935,-2.6846663040311647,1.0079474162631819,1.8231964994712542,1.031335332707504,-2.061174194505227,0.9049924931334571,3.398151943871288,2.4761064276830025,0.0,nm
3.564697027206421,-9.08974847695397,22.79285290982168,124.5369716403396,-5.088130717697906,-0.00878695173586744,1.0931102651769278,1.4386690223635852,-1.8883100747906987,0.7932301148318841,5.204233033093059,2.502937775802837,0.0,nm
3.56724214553833,-21.55586859163072,21.427777177158838,123.80723442612333,-4.8137150668532716,-0.7320154186451965,-0.4375675555901741,1.5310761035227949,-1.7483163192018,0.7909922332474282,4.888677191602004,2.4548875126619607,0.0,nm
3.5728025436401367,-32.44875236797037,19.41527638814561,123.43649170787451,-3.140078558532346,-0.7673448361328123,-1.5151326191586214,1.4727959669131263,-1.4669246434082002,0.6864199535798181,3.569949342068138,2.1891021498016867,0.0,nm
3.6007730960845947,-45.914442530202805,14.512398360977926,123.64285160504355,-1.7213958981624797,-2.1899799227716463,-1.995296946644457,1.0529564992271678,-0.6425208167074091,0.35273995521066404,3.426430475822063,1.2829559092849256,0.0,nm
3.6028451919555664,-50.01552219077138,12.135978262904166,123.44201705399344,-0.3045763441677373,-1.822439565565385,-2.2661897317015622,0.8432209084530076,-0.3893184237760377,0.13069122484053824,2.923981638046712,0.93790752838118,0.0,nm
3.6062493324279785,-51.049581118346595,10.415761157777462,122.31003326111222,-0.34260533081216826,-2.1015421826751948,-2.1910656652560387,0.40441276672344684,0.02976772301289567,-0.2055878129620551,3.0552621340448067,0.4546450836210664,0.0,nm
3.6312592029571533,-48.06712377572477,9.383091959420186,117.14062171253256,-0.5674160853558508,-1.0931563498731929,-1.5389331214594006,-0.18462528681854204,0.40197846639837786,-0.680156321677816,1.971108056782635,0.811348140996895,0.0,nm
3.6681647300720215,-36.99043499050396,10.930940820287173,111.54621974846539,-0.42612167068102497,0.5004479031101726,-0.7136535232518864,-0.6773150637509215,1.1480434471086671,-0.7233182642350883,0.9702211774648022,1.5165581965124604,0.0,nm
3.670645236968994,-26.84293535610003,12.082915252061195,110.10023429784502,-0.3452415231370901,0.836651852638957,-0.003498367739226189,-0.9103706114578545,1.7928680060545066,-0.6476365557355005,0.9050913050068793,2.1124827681344414,0.0,nm
3.673251152038574,-0.9529729950279381,14.23829404236252,109.95250880733697,0.8094123854081642,0.15443803324603586,2.1558114839577165,-0.9839341675971641,2.2626967636352227,-0.5064030084772178,2.307926053869363,2.5188027110762787,0.0,nm
3.689540147781372,11.443542798014867,14.040850489336233,110.32163044977631,2.5676231536024496,0.18987466475549028,2.0314466540485396,-0.7842855293324731,2.2826111848237627,-0.5416781912313108,3.2795604210742035,2.4736274730562164,0.0,nm
3.7141852378845215,36.436252441651774,13.946366021546229,109.74757575742962,3.214529385589618,-0.06997980544301288,1.0334818924940268,-0.8627818312442823,2.149621087238167,-0.6531105066286462,3.377303830883749,2.4066193385936554,0.0,nm
3.7224912643432617,45.96768668170147,15.210357865923855,109.49694078900286,3.8931841833357135,0.15708294356765196,0.39451199536411047,-0.8550096116960048,1.6610060935285973,-0.5345350280467651,3.9162734647904016,1.9431187238665164,0.0,nm
3.725675106048584,52.983371448370896,16.7215938454223,109.92271414019447,3.34454189991112,0.034913819010323206,-1.2398413107639674,-0.7400482852698771,1.1732656686743927,-0.339963234965184,3.5671257296170373,1.4282152481152302,0.0,nm
3.8093373775482178,25.41681552795143,19.67070651815623,125.01154810656084,-1.20333233850093,0.8490580159234622,2.1260702038977715,0.8577179541152583,-1.8956177930120859,0.8441150324542238,2.5863261092112717,2.245345651344325,0.0,nm
3.8193724155426025,13.733162316007276,21.400881524383905,125.28615848208305,-2.53190099513699,0.9727475689394269,2.6866318702610834,0.9907155154191313,-1.9787618208040274,0.7989490630960797,3.817689260319102,2.352729304740766,0.0,nm
3.82397723197937,1.5321150352284691,22.653517283589128,125.13464745539173,-4.419905534783437,0.6618735085901006,2.5465039295231655,1.1138440233453109,-1.9815533413421873,0.8153386680645928,5.143765521566817,2.4149491291883978,0.0,nm
3.865459680557251,-22.829227668872218,23.4486864018179,124.45509253292423,-4.407251922058129,-0.9263568999366578,-0.6826485231027599,1.2264332308098225,-1.7587020784709388,0.8867045323374856,4.554998969993265,2.3202190409787735,0.0,nm
3.8688323497772217,-44.75738642391531,19.0360531458069,123.94100039823864,-1.2823897055566063,-2.1229505265399067,-1.9986312699709978,0.8352208146158276,-0.5165772316592974,0.24895349494521646,3.1852738105788503,1.0131257020141913,0.0,nm
3.8854236602783203,-47.251019034331684,16.82775238620814,123.32817825927789,-0.4998789149193279,-1.9826623871576978,-2.067533637840312,0.6363541571248081,-0.13662028808730753,0.009205279947104765,2.9078384436952445,0.6509196982623805,0.0,nm
3.90087628364563,-45.5247244435137,14.421930223772824,119.2647701709017,-0.875894401342681,-1.6955017318538093,-1.5512855579973983,-0.029490533707509408,0.35212891026195786,-0.6142097725819781,2.459350322234313,0.7086029253085488,0.0,nm
3.9170496463775635,-42.47230603708474,14.461889436448233,116.37906539871335,-0.09262153324155892,-0.9729930775353236,-1.667617716767572,-0.27701387000385785,0.5322417249504887,-0.7436653278745009,1.9329364000475462,0.9555396683735714,0.0,nm
3.9194319248199463,-37.22063265832011,14.59782562363929,114.2524476705567,-0.6095776988238093,-0.6553094168224445,-0.8518121153764867,-0.45234263038540984,0.9209907565491285,-0.6884024247072408,1.2355562644338252,1.2356114790886883,0.0,nm
3.9373536109924316,-19.372818386443637,15.830187309029187,112.09182163416352,-0.12104408416491276,0.13687777767650183,0.8168230558490513,-0.9604704013423482,1.8507626225878338,-0.6780239173677332,0.837010812892858,2.1926107975529114,0.0,nm
3.939527988433838,-5.874693890923958,16.748467962552688,111.66505602481318,-0.5440455810696383,-0.2669274891333407,2.479394446549607,-1.119023728302419,2.3542293771455967,-0.760264719204174,2.5523778521836187,2.715255514309066,0.0,nm
3.95556640625,6.264629066946056,16.43702791458088,111.12641838514604,1.364736576109982,0.4347973532973889,2.3554966662729067,-0.77689264352507,2.2037232390810986,-0.7344680183282493,2.756795096743606,2.4493675844953295,0.0,nm
3.958828926086426,18.168309485658135,15.823369225986584,110.2897145579313,2.696172246969568,0.927136786223695,2.0084524985225456,-0.6851237362234739,2.1946136949740467,-0.8050802221757639,3.48752187728186,2.435955247586258,0.0,nm
3.9842257499694824,39.453075103711456,16.25130370039486,108.39707366273397,3.170745840324637,0.4326114366669958,0.35094077984432975,-0.6560074705096026,1.6950416521007294,-0.743714848976415,3.2193075761767185,1.963828857184044,0.0,nm
3.9887237548828125,46.291225806298435,16.62537815527974,107.7922496895784,3.5231222738021217,0.41165084023153453,-0.6706553585111303,-0.47845237450664263,1.2293882096858373,-0.5633098840335766,3.6099342903055245,1.4344441676954578,0.0,nm
4.010122060775757,53.248580588603275,16.269149663242267,109.02490081545587,2.887448704523538,-0.05707801529057286,-1.2315065809897896,-0.0356983955448478,0.41892302277239124,0.047267363377133643,3.139622012297871,0.4230899172680198,0.0,nm
4.019653797149658,52.34652687635513,15.16535742991534,110.58620830386765,2.4835869273738695,-0.04223630517269621,-1.5466774847654032,0.26821181307303416,-0.08398667508342092,0.34795406601386253,2.9261235744884826,0.4472844400591996,0.0,nm
4.039819002151489,45.04009294080817,13.060683598494238,115.74641564159694,1.600426848267901,0.6327134845726772,0.4580662084525021,0.5239212647495335,-0.7528038875526589,0.7724618227597362,1.7808753750734152,1.199126537273044,0.0,nm
4.047872066497803,38.01468854686836,13.28257377268803,118.63475366485008,0.6508391836056108,0.9411455887972313,1.3411079529446643,0.5894520733239315,-1.2323240846384684,0.8857436298083248,1.7629285872321467,1.6280719191952016,0.0,nm
4.067032814025879,28.880104859646256,14.709415914731668,121.28673847477344,-0.511010646734537,1.2959646023575229,2.5870050271694214,0.6477213071509891,-1.6713440684754122,0.9040240890845844,2.9382394630525948,2.0075341692261532,0.0,nm
4.084187746047974,5.443796836113878,19.21677131459889,123.18678063250107,-3.297237918058983,0.7345619477316105,1.8668330751637798,0.8975312412907991,-2.1654629388350717,0.7462625801792618,3.8595886923176996,2.4600203062448567,0.0,nm
4.086289167404175,-6.867801025421651,20.50166234697087,122.60221242013351,-4.708033542396446,0.09712473569057059,1.5090257284870483,1.0571686283667034,-2.072331911810758,0.6493163134126754,4.9449137201622495,2.4153212491045153,0.0,nm
4.113584756851196,-31.167194886085383,19.81053849020671,121.06078176331992,-3.6349568323021906,-0.7847441162042815,-1.511249660658819,1.286167983393396,-1.77424591486417,0.6205210229968973,4.014051573841448,2.2775475819177844,0.0,nm
4.1157026290893555,-40.166569335953135,18.411190508872203,120.94543925517121,-2.6538437022022965,-0.9987184394599827,-1.8464546671098319,1.1254035025607652,-1.3005199057057275,0.525743247214793,3.383743452853342,1.7984134760129074,0.0,nm
4.1193437576293945,-46.4103866727721,16.811581793639874,121.3570616642401,-2.195429771264762,-1.6009245168404829,-2.0138865263230428,0.8971013858911178,-0.8400030747971674,0.4307155480772034,3.382101436988854,1.3022718401285907,0.0,nm
4.149550914764404,-52.680507640793394,14.31957426254783,121.56103539972243,-0.7029985181235219,-1.671621315833117,-2.149693059278351,0.36492322078037803,-0.17734315751411567,0.04037685115745962,2.8124197747030983,0.4077374678530201,0.0,nm
4.152040004730225,-52.19558698595394,13.698681695216463,120.41907749757605,-1.0210091872746203,-1.9338652721740146,-2.0624701221831043,0.06299780425425146,0.1577723913809289,-0.2641160127942384,3.0060069288539313,0.31403521942170803,0.0,nm
4.17188024520874,-46.88732547262402,12.858625334832675,115.8491167439176,0.1878251639535788,-0.5697096697771161,-1.7873256683509655,-0.269848679627905,0.7201836832504336,-0.676126526236279,1.8853064591195685,1.024026331203169,0.0,nm
4.188230276107788,-30.36522738572107,12.430720103670486,111.84116603701496,-0.33509434541115307,0.25148703396291,0.30117566413169566,-0.7136993038351427,1.7305896645066152,-0.7201076042487726,0.5159852025428239,2.0057074175683733,0.0,nm
4.20556902885437,-17.663700344377414,13.692266883002379,110.53539323812669,-0.730802342945799,-0.27129083586010516,1.5335501475261502,-1.1141600251326895,2.234232542527625,-0.7650298907119042,1.7203042861814362,2.6112101312180527,0.0,nm
4.209613800048828,-5.065931770611891,15.024438926324615,110.06333902637478,0.3905475079623526,-0.33656547758872224,2.4157063326863017,-1.0813393227981654,2.2137013623809256,-0.6528161132275863,2.470109463659623,2.548712877223783,0.0,nm
4.236246824264526,18.89881621741754,15.597973901174111,110.82707983196849,2.982917035988758,0.4392306326944585,2.14214266720909,-0.8777709367650399,2.2371242585771767,-0.528033090320635,3.6985798354188333,2.4604929811355727,0.0,nm
4.238582372665405,30.524345413999924,16.137065421202095,111.54838115269466,3.015596416567987,-0.06520867029374257,1.346948909075076,-0.9040417108583926,2.056203363967496,-0.4975155856002445,3.3033839138007712,2.300605452240382,0.0,nm
4.24238133430481,39.485658380260006,16.690657072750128,112.04614145263272,3.3772341579117477,0.1596324443948109,0.23272354983941487,-0.7400330794284155,1.562286532446389,-0.44538573299897705,3.3890047691496674,1.7851489067499948,0.0,nm
4.271099090576172,50.85822121170031,18.32146504058755,114.17005952906378,2.9510317242884425,0.2617081950751062,-0.9080159902450944,-0.5016065354130066,0.7376791481612187,-0.04968726575409986,3.098640420517855,0.8934475174172346,0.0,nm
4.273415565490723,52.175210506339475,18.672237142470795,115.95223903247582,2.8004406352719373,0.421713246369691,-1.2595319133043763,-0.16867718039948645,0.20061939757199346,0.22246241412265727,3.099472609086607,0.3437872300812686,0.0,nm
4.28282904624939,51.0570703982709,18.314279228355982,117.86518615936426,2.258089672220853,0.39377574063148657,-1.678967486575827,0.16129293514234366,-0.15262777698798044,0.4402620739999254,2.841295500767054,0.49309364530263494,0.0,nm
4.307300806045532,43.79952192228276,16.913830770807895,123.10228978525875,1.3275683014141273,0.9716266595165549,0.29233922103526483,0.5846354921005772,-0.6990251646944912,0.8298520817157481,1.6709153720516177,1.2325134145427405,0.0,nm
4.3103346824646,37.23019173366874,16.871648748461084,125.94706292571087,0.44523861332283365,1.079325288472727,1.0449630520670465,0.7230977451965661,-1.0260638209969333,0.9386283874499644,1.5668848972772862,1.5673865393048727,0.0,nm
4.318613290786743,28.894200182642933,17.74923656521613,128.4440095819671,-0.7409045008589175,1.3113609235135175,2.455761445379497,0.8273453411478519,-1.3683509381719414,0.9840715564174464,2.8808629310891596,1.8775732826350462,0.0,nm
4.348284482955933,6.895280447751602,21.618599000807365,131.06204329067194,-3.1999571089089143,0.5116454035963459,1.8583694607068644,1.0839677918354884,-1.8695993893786222,0.8838815248040816,3.735645000581009,2.334873572678317,0.0,nm
4.350411415100098,-4.598645261151369,23.045201200482097,130.66822139222631,-4.49020420020747,-0.25305034434339796,1.467700616631371,1.18707017840159,-1.7826509361826972,0.7420090921557497,4.730762447681475,2.26661806698112,0.0,nm
4.356732368469238,-16.49347932365403,23.291295889904845,129.65103791992547,-4.791426405342119,-0.8410993683255832,0.2317162947938311,1.3833577801545411,-1.6903770205318984,0.6896432385633329,4.870206113346783,2.2905591055357033,0.0,nm
4.370909690856934,-27.484730153234345,22.453327727962925,128.37455115574204,-3.7819474451832633,-1.0415664218598073,-1.2642302411811408,1.4119013274264305,-1.4572432859456157,0.5986441730150361,4.121439698939071,2.1155136961756944,0.0,nm
4.392585039138794,-35.92716439059302,20.80572665033213,127.38151471808978,-2.5564963265043463,-0.9327034094055268,-1.8845230160341255,1.229864712638419,-1.0247786750101844,0.42449954863364886,3.310141404126003,1.6561818773730685,0.0,nm
4.395514249801636,-45.07832292981754,16.902320077032464,126.47621514189906,-1.2213994568273552,-1.6373426558896251,-2.0607137162969185,0.7386143045851644,-0.3143504294069886,0.16237446261396674,2.9015941526113034,0.8189827528802781,0.0,nm
4.41371750831604,-46.29577243860807,15.394933372648744,125.87981005318426,-0.8738511462624494,-1.7248389295237496,-2.015497466765705,0.3862918911851068,0.002895555903325148,-0.06140611463735242,2.793011850523339,0.39115280946736325,0.0,nm
4.415898323059082,-45.468858271386644,14.653671823691528,124.32292848711722,-1.3811743047612501,-2.2008531018165987,-1.601306778977693,0.03415981559509888,0.22960900750913013,-0.36174181808320055,3.052143547788731,0.42981895291036004,0.0,nm
4.442005634307861,-40.19362411340839,14.219670324448106,119.18646530041637,-0.6864190754303858,-1.2411784606705867,-1.214981555290066,-0.3197590596055577,0.6446048012482147,-0.7131962334501509,1.8675854192090868,1.0131189828443465,0.0,nm
4.457144260406494,-28.154215059852174,14.165678792269016,114.57920058216604,-0.18836478446987345,0.29588975160285236,0.005238765653142185,-0.6029448154055801,1.175778116937225,-0.7498918474757559,0.35079834919444547,1.5193203788548082,0.0,nm
4.461038589477539,-17.648824507137487,15.232582010349102,112.80332513764415,-0.39292864420729307,0.09646914125671148,0.992463087302668,-0.999686646472256,1.7920176608475644,-0.8319016854510742,1.0717659232834995,2.2142179436949876,0.0,nm
4.477134466171265,-5.427606400501509,16.289639983288467,111.70924854217371,-0.5765400337129757,0.10349968533099671,2.3471807256924677,-1.0707777355813848,2.1146076508755702,-0.8015318599698757,2.419166789289154,2.502115864364611,0.0,nm
4.481931924819946,5.200338339686068,16.946707897909935,110.99721083354133,1.3971895176558693,0.4890817086914291,1.6309443930172816,-0.8501727647897594,1.8639448816154496,-0.6776816221372953,2.202571015685641,2.15785463659472,0.0,nm
4.507880687713623,27.287649027916665,17.61059050446012,109.97750380930682,3.2811625952726007,0.5446894431850081,2.020491796966888,-0.7685645667751924,1.9937222996018455,-0.7660999917437468,3.8916708067029138,2.269918346236661,0.0,nm
4.510408163070679,36.7582906473222,17.676681598176124,109.17836158531736,3.361906938569948,0.19197753116032085,0.29534750265857695,-0.6133494282924273,1.7044382052363511,-0.7430568292358777,3.380311196236499,1.9579174058499091,0.0,nm
4.522846221923828,44.862279702700235,17.990683707742647,108.87528500379136,3.511619063693819,0.10344314228378765,-0.29625706979825445,-0.5614028294666084,1.4443679692217617,-0.5943866446339021,3.525611604188534,1.6597190879079684,0.0,nm
4.529876947402954,50.99290967860403,18.4253579867519,109.49895003094726,3.797787442884985,-0.06452380517226985,-0.5151659508810593,-0.4652806067335538,1.0762406694107884,-0.31055127842843155,3.833112148074456,1.212939453571224,0.0,nm
4.602470397949219,54.62929097063355,16.51629064304567,114.90184685393267,2.6906968215076263,0.3053961175210273,-1.0881321294018926,0.2811916525603017,-0.10691892176623119,0.5455653158789988,2.9184152728672554,0.6230103652359233,0.0,nm
4.604854106903076,51.359169017245335,15.378309413231394,117.68700650393144,2.226959109690497,0.36369144803218056,-0.7669089037372565,0.484149821490487,-0.4588135461992349,0.7238267387248072,2.383226303194205,0.9842947056233606,0.0,nm
4.608937740325928,34.45369008929629,15.972399613811247,125.29498777100912,0.22739250998712393,0.45658430938790867,0.6122635686333631,0.5609954864036372,-1.2039264020279228,0.7487208565566615,0.7968960174659794,1.5247090339825806,0.0,nm
4.622352838516235,26.613265018730516,17.346892846337706,126.53607347631103,-0.7911662630261284,1.4042966782782649,3.0378652222884686,0.6665293543331046,-1.3703400250456916,0.6402797169265717,3.43898507196002,1.6528917932936513,0.0,nm
4.637068033218384,2.571976394559293,22.153559219443157,127.68634747980772,-3.399453942346734,0.8463096790912209,0.9212316530414175,1.0530227915317907,-2.2349488516861094,0.9457107464425809,3.622318999981318,2.6454153142891284,0.0,nm
4.6530985832214355,-20.22246343822001,23.695171456328616,128.31313480688374,-5.600947372871876,-1.078199367048969,0.5608740470167911,1.3025858935223567,-1.631249464479315,0.9427824619750039,5.731291743176416,2.2905334741005507,0.0,nm
4.655337333679199,-31.515061410034743,23.263437425347945,128.2813719704957,-3.672099880712204,-1.106956617785952,-1.3414519166178682,1.3602383473278303,-1.559491244582186,0.8652098871098072,4.06314702320559,2.24295551721879,0.0,nm
4.679719686508179,-45.272506986779554,20.7102647061316,127.72821874003668,-1.918566200369265,-2.312941910130198,-1.973425998972347,0.9157617446663529,-0.5938235054185321,0.34523689641724536,3.595136536803031,1.1447420858995827,0.0,nm
4.684117794036865,-49.40123749397292,18.429108474990628,127.18964721657451,-0.9398703525113603,-1.8655936781839138,-2.1208407330298016,0.8402373603117387,-0.32642095439314306,0.1562463789492363,2.9768710866424835,0.9148564871417361,0.0,nm
4.749064683914185,-50.74923316567168,16.505677347926444,125.5950720398722,-0.805103507013492,-1.9593909344575884,-2.1188448199583902,0.46674104795007326,0.03496093226131132,-0.2450035816369281,2.996148838443195,0.5282955873760782,0.0,nm
4.751565456390381,-48.960518804091414,14.30701056756737,120.20077301998278,-0.5883597974655652,-0.964289867108226,-1.7797153648170274,0.004063173317113645,0.33566356547904724,-0.666354463523822,2.1079395102438605,0.7461332385208638,0.0,nm
4.756044864654541,-24.260468603561712,14.994912594993387,111.35680516315232,-0.6278163034656646,0.49602886586796674,0.6226026297954893,-0.7248121166410016,1.7290075428290514,-0.678416346450089,1.01382048770964,1.9937573640541244,0.0,nm
4.770973205566406,-1.0632019834739896,15.504748514262607,109.60425609075288,0.9398785765412692,0.0062394358031515485,1.8062533378273262,-0.7632422035664297,2.0479746078576846,-0.7248163958854646,2.0361634977606147,2.3026283815412274,0.0,nm
4.7858476638793945,10.29837103957526,15.352641743836264,108.45776309576576,2.1294870762354807,0.06797319154708964,1.7711257210512528,-0.674625811725,2.093377172279446,-0.7995307302062061,2.7705995528752174,2.340213101367133,0.0,nm
4.802325487136841,31.79358920482024,16.501133073613723,106.16279922847093,3.6924563381357163,0.026850300530936518,1.0006259779458322,-0.7295813146810077,1.815325235876863,-0.7751783307889767,3.8257296160885805,2.104422973469887,0.0,nm
4.819738388061523,47.772218403112156,18.546395257724697,106.5658127318426,3.8428519397640413,0.14556578015645288,-0.3583446509028334,-0.5509375644130112,1.2506745985614587,-0.3379808489143562,3.8622676391119617,1.4078175327793996,0.0,nm
4.829668760299683,52.25613487948584,18.81388327323828,108.38943804260545,3.390341829903746,-0.0823114622888157,-1.3455737364029723,-0.30607130609215966,0.7986397914862664,0.027008787927840953,3.648528687089723,0.8557070968406881,0.0,nm
4.836630821228027,54.38129260651948,18.152214239736505,110.81686778124299,3.0862321435113627,0.06260324668090923,-1.4549689294553565,-0.010184308961649785,0.42853453397612246,0.30007824324791216,3.4125771193949883,0.5232518695904602,0.0,nm
4.8605804443359375,51.471481862506174,15.874658459412213,116.44301921987604,2.3922893643920458,0.5012975402682358,-0.7087520525012639,0.3992922311114693,-0.3558155469915251,0.6917732557290778,2.544931649138545,0.8744079292005884,0.0,nm
4.866423606872559,47.554017258909425,15.737790685407765,119.3625784091198,1.819482638697268,0.5363572493963008,-0.043494732954220724,0.3789461196248208,-0.649166696844987,0.7845916851727016,1.8973897763231198,1.0865549568767703,0.0,nm
4.893402338027954,42.16116511603268,16.714242407733536,121.84754849099289,0.8961812301683715,0.7304463268684771,0.7247599303894481,0.36199993132851516,-0.9864236046359957,0.7858430810331158,1.3645400655311897,1.3121070177666687,0.0,nm
4.895748853683472,34.53949001065445,18.561190511209876,123.5128566093843,-0.15817242863863906,1.2351383856262448,1.6221740091775536,0.4780018661076748,-1.4175304627325773,0.7829624480593997,2.045002167451181,1.6884633818500248,0.0,nm
4.91200590133667,11.19708674736243,22.829820914115473,125.12346034019828,-2.612612651988815,1.2762020992379388,1.5469899598937873,1.036975719714942,-2.1650084957288622,0.9895860706783667,3.293571709169778,2.596509391690529,0.0,nm
4.914268255233765,-0.599526322330827,23.8360514816384,125.43324255757177,-3.9157971118355146,0.6542894978166925,1.3254163901859695,1.0991445172273533,-1.8746187811633892,0.9473209889039981,4.1854856797492666,2.370597245518418,0.0,nm
4.920682191848755,-12.42694725958532,24.10414955395448,125.82734656693468,-5.263671304417497,-0.48200331019817605,1.3735088430785085,1.2263216644070267,-1.7773420413662884,1.007081506516865,5.461235147290863,2.382650355669162,0.0,nm
4.944464445114136,-34.0743585404649,23.282065635578384,126.93994667484193,-3.168719407707895,-1.5502436406373246,-1.324754419753206,1.1605511024913087,-1.344135704310508,0.8714433174927372,3.7681576801902534,1.9781286886092233,0.0,nm
4.9467668533325195,-41.387041849420974,22.268992702777197,127.24586020667806,-2.6259624368111343,-2.233766766810274,-1.625725769972816,0.9812185360555522,-0.9404903736920134,0.6120190841905175,3.8116108100385593,1.4905969669631505,0.0,nm
4.970341920852661,-50.51550422040624,18.48040085448231,126.1533339385674,-0.6803927174304323,-1.8794149162459,-2.3731381673475225,0.7236719325724436,-0.24194279696926002,0.03369043406708976,3.102727741626956,0.7637882090907614,0.0,nm
4.976096153259277,-51.518076447318364,16.23211826124365,124.45515685798618,-0.9677871554868129,-2.0284405154280942,-2.3088907669983745,0.4822440903627907,0.11746184567105077,-0.28798014530642974,3.222135856366983,0.5738372695886854,0.0,nm
5.003300189971924,-49.12153308933863,13.066519154210729,119.33112990401702,-1.1992848952809518,-0.8840779929048663,-1.6173010516084598,-0.001486375050377876,0.48329205712380113,-0.6600914179544587,2.1989863230865194,0.8181039676268987,0.0,nm
5.005373001098633,-45.45881402630924,13.028712608789863,116.3873176280544,-1.793224106108492,-0.5452815718049164,-0.9973040631843337,-0.3207677168452494,0.6479017105085199,-0.7519394644517946,2.123110944280261,1.043111457539429,0.0,nm
5.043106317520142,-33.78823667179305,14.332919843698939,112.42803020579971,0.15054663964597173,0.005584516487749678,-0.9358699398065581,-0.6422235404035488,1.2434872955233378,-0.6110444614609633,0.9479177294294198,1.527117239722783,0.0,nm
5.045288324356079,-10.760727441984335,13.68344930905397,111.71967449797951,-0.45911167143998827,0.1550057420405051,3.2667714865163022,-0.8324626340703005,2.2945960679843385,-0.5674534283283075,3.302515140318645,2.506026445521675,0.0,nm
5.061816930770874,14.628675076382534,13.765557855293697,109.84959980325836,2.2538227674353695,-0.11293052793942306,1.9649937247148996,-0.7892826602889322,2.2944615530251276,-0.775488877976174,2.9922684888424764,2.5473327101122853,0.0,nm
5.070632696151733,26.354234856464597,14.027383901969383,108.48943989675548,3.454158278540969,0.9110947482999955,2.056986177408172,-0.7884536909038888,2.144869924164104,-0.8083594417504832,4.122195432975155,2.4239577556861107,0.0,nm
5.101186990737915,51.53352560065451,18.18985803418162,108.99280393320024,3.5307404881153945,0.555946131896524,-1.0943343776096832,-0.5284058457982203,1.0416510422141323,-0.2703515204164205,3.7380171516469014,1.1988909776168102,0.0,nm
5.1086812019348145,55.39719999497392,18.361643963147156,110.76936120999417,2.870426889534407,0.16426931739962466,-1.5222528627877694,-0.282204141849916,0.6825527970788708,0.0668828001149653,3.2532427998946942,0.741613651053334,0.0,nm
5.133811712265015,54.66269407760405,17.239738112033763,115.42566763317049,2.4390442156561956,-0.15341817961656876,-1.4056264220812504,0.2660707466840845,-0.24211615572049863,0.5374698666338891,2.8192657665100938,0.6467516777259642,0.0,nm
5.1394431591033936,51.95688457830703,17.090575809473393,117.95968756328962,2.2937024184353185,0.4866857752585851,-0.2587384657561145,0.2602031823422658,-0.44476418029709164,0.6534256004866932,2.3589996655016523,0.8321573694607179,0.0,nm
5.168680191040039,47.65278670394972,18.179333101997834,120.82883121081741,1.4257674937363392,0.49004424371240324,0.30604364342363916,0.21487510263439263,-0.8180956269396811,0.8216727048456018,1.5383819482400587,1.1792361080115628,0.0,nm
5.170877456665039,33.71171638363005,22.092386131114775,124.75783428241859,-0.4602100557998991,1.3690320620949534,1.2051335614826924,0.48030421254430844,-1.416897431463759,0.82568904006908,1.881060600702504,1.7088162156202185,0.0,nm
5.187740802764893,23.874163774766238,23.804773425431076,125.74386551523969,-1.721066861453463,1.6734144441444778,1.925392518951542,0.7758038969406229,-1.6706593464811044,0.9133918191403929,3.07725907188511,2.0560299009901395,0.0,nm
5.189992189407349,12.278850657417832,24.98103993286647,126.45388476966859,-3.361974413580064,1.6770253242938165,2.8152219972802763,1.0657628059738813,-1.8367832146309093,1.0502573908107233,4.694758863867296,2.36910605990946,0.0,nm
5.198225975036621,-0.3597156208207548,25.834414930942764,127.04060905544063,-4.8541254203842525,0.8131342184556025,2.0978494696583523,1.2410091135971049,-1.921892102208912,1.1609440781533156,5.350204972838875,2.565455909806932,0.0,nm
5.218480587005615,-25.50227522341494,26.06735449180777,127.18356619885787,-4.616165859552788,-1.9318683117966615,-0.4336554795079462,1.418405296461737,-1.7136994071433147,1.044499134166445,5.022863674432353,2.457563363241833,0.0,nm
5.223517656326294,-37.00953545375769,24.316917362611424,126.62410158251915,-3.0547735122194215,-2.226735595103843,-1.5362035917318693,1.537997058402026,-1.442757017604559,0.8468638350243904,4.080430626381208,2.2724790688965,0.0,nm
5.247071743011475,-52.439056132878676,18.404235046902286,124.18709138351717,-1.1004857129730046,-2.5862803559933227,-2.080702599785219,1.2157239098269668,-0.5902692715140035,0.14287082025332437,3.497032769793217,1.3589755366078144,0.0,nm
5.253074884414673,-56.50430222256235,15.259871010121675,122.61918835537129,-0.3422664005270978,-2.0861579626407623,-2.1702080900804313,0.9587881234418246,-0.2899223578614118,-0.0970433778741617,3.0296871931388867,1.0063533457142393,0.0,nm
5.2790772914886475,-57.029794533300326,12.759933284610472,117.43863548344635,-0.9280910122353669,-1.4866973625540334,-1.8505762699974249,0.007512641155523234,0.18686494873431972,-0.6564868479560855,2.5487750991201183,0.6826052522372854,0.0,nm
5.282672166824341,-54.698227101932076,13.669323408937114,114.23644496231485,-0.4397014812591114,-0.8754698001892859,-1.7770890063547808,-0.3564572519197202,0.34173530547056613,-0.7657053054814386,2.0292437261630125,0.9111253515810233,0.0,nm
5.3046815395355225,-50.07793334839445,15.08369356011614,111.78179342518318,-0.40284142269505024,-0.3678844041754292,-1.597921025206201,-0.6040278508598922,0.7265398266491366,-0.7173897813591886,1.6884820844387185,1.186321146536789,0.0,nm
5.307389736175537,-42.935403757484835,16.336501463835294,110.24746570595173,-0.12262802511864627,0.0482580687691838,-1.30139382855446,-0.7182027558998416,1.2083968784065313,-0.663056459079565,1.3080490704654262,1.5542464676658936,0.0,nm
5.334041357040405,-18.881021675209414,17.412980304371658,108.66063765142202,-1.3732974218112695,0.04560779138418574,1.7712548884357633,-0.8823065675753397,2.459422660631493,-0.8758603736944937,2.2417336503688414,2.755785930913816,0.0,nm
5.336387634277344,-5.548894206916391,17.116315306724193,107.6601125021124,0.1233136928031972,0.28826832435782374,2.8790713554064853,-0.7209695969716039,2.4532668141676153,-0.9209211947850275,2.8960933623042897,2.717795258708389,0.0,nm
5.338719844818115,7.2488275085673015,16.499792199622217,106.3134641751016,2.229575951407134,0.6352063298961882,2.6651759081060655,-0.5850972334209473,2.3923851885684773,-0.965047257847087,3.5323729454549677,2.645214901084004,0.0,nm
5.366089344024658,33.71355956822938,16.7930288261315,104.4199030727605,3.5651213235447434,0.3793897985674752,1.5326477752599443,-0.7148032699074104,2.365956660680851,-0.8492125451446528,3.8991070610922893,2.6133994301907753,0.0,nm
5.3697731494903564,44.34386474246528,17.519556676065665,104.90691595311681,4.171291319178043,0.2693530004070313,0.44847064036493745,-0.6522712056581208,1.9356947935630262,-0.5494062572232699,4.203968152061538,2.115235044867068,0.0,nm
5.375676870346069,52.64114505678161,17.886993307996086,106.61477097147679,3.7410826684273553,-0.10429793661215962,-0.9423236999780544,-0.5002602400305947,1.5069251594653987,-0.1981373295496021,3.8593459999240056,1.6001069168484752,0.0,nm
5.404707431793213,61.150789890733066,16.55244951419838,112.38019557290312,3.1201729050207403,0.15960118108153562,-1.3612252223710029,0.007854833424945697,0.5181062225510409,0.4589228301162603,3.4079151398248126,0.6921747758017192,0.0,nm
5.407409429550171,60.653043379353065,15.485828338988965,115.73508005892127,2.3103829690311173,-0.02980726017769068,-1.799285036716796,0.23339877126610636,0.0034255588130032463,0.685253007908628,2.928512349248557,0.7239187839319626,0.0,nm
5.426985502243042,53.310780298028774,15.462586103182387,122.47963019863394,1.4818929131030203,0.9439501455689041,0.15651461938240385,0.3979917931497382,-0.8798692573539931,0.9127413706020143,1.763957286700823,1.3287829721439295,0.0,nm
5.4435343742370605,45.863791956053234,17.299917609429084,125.31985712852727,0.5605040644752065,1.4685758090574172,1.285411610083865,0.4945137339384733,-1.3876876015546415,0.9749754824674024,2.0305572438570323,1.7665780209135369,0.0,nm
5.453641891479492,35.588354250204006,20.047673523958085,127.19392611386849,-0.8292071699603948,2.117580302444577,3.0406597925043273,0.7136377673168728,-1.8908809023811304,1.020441642545229,3.7970176246321867,2.2640694767986016,0.0,nm
5.469942569732666,8.17225166684316,25.169467420743572,127.92277648022045,-4.046960200511146,1.0630536210710613,2.1208408908753507,1.232635591523999,-2.2747090508979158,1.1012202350672795,4.691048491563742,2.811828190670662,0.0,nm
5.473186731338501,-5.84834140768296,26.168620823525934,127.79238213445858,-6.193915438162274,-0.045045862770379363,2.3073668395073152,1.4055976297596329,-2.107272590576395,1.148836600067517,6.60988345713566,2.7813895810251283,0.0,nm
5.488811254501343,-35.20846562371459,25.48076247951628,127.76841702666515,-4.000657844851907,-1.5258354464405104,-1.754740958855988,1.7071027903991243,-1.9479477563830532,1.2633106214084122,4.627369969418509,2.881779680119484,0.0,nm
5.513867616653442,-53.89057866280318,21.866559186584247,128.1378878492588,-2.5635377123242837,-3.203521369340705,-2.25891142522158,1.2618462918868854,-0.9081750863141053,0.6686560437424441,4.68369038188136,1.6923767182821952,0.0,nm
5.517038106918335,-61.30623417204577,19.212147197764583,127.89691756178492,-0.2835073206406216,-2.2138518165573875,-2.216466252360769,1.276783028257459,-0.7551206137355831,0.4773454966065232,3.1455109146822973,1.5582813499702868,0.0,nm
5.541372776031494,-65.36229519675828,14.685153537106764,124.91472460965886,-0.5081171892268516,-2.394522176534322,-2.3934473619207406,0.393796505443239,0.14088996581594487,-0.40922451073430555,3.423523010903799,0.5851413251109999,0.0,nm
5.554495096206665,-62.425362990641865,13.558581756154226,118.13729457048804,0.9308865847415415,-0.39037530293245637,-2.170731322816018,-0.2728458998863069,0.5046424069057441,-0.858212759442225,2.3939542991974507,1.0322974302020855,0.0,nm
5.5724732875823975,-56.284529162686994,14.380407076848911,115.41259848068118,0.7888455362479516,0.18020466878769945,-1.761488279963015,-0.679239896198959,1.0038436612006931,-0.8419060714037044,1.9384509184290077,1.4757624354168946,0.0,nm
5.574824094772339,-45.81353806526058,16.057637259773564,113.56809145458134,-0.5974287907377376,0.09219519248367633,-0.4811213292302158,-1.1346647413319426,1.7165335286554082,-0.8882966745633415,0.7725922902538617,2.241210033053654,0.0,nm
5.603545427322388,-19.28129201658202,18.85361409738057,112.45866384249376,-0.3703616557675681,-0.5841781898050872,1.9337206337768398,-1.034163314772317,2.166663355133356,-0.7632075026244507,2.0537057732307096,2.5192081192630447,0.0,nm
5.6056907176971436,-6.966862412953755,18.305664817834383,112.40139221178941,1.3933178714321899,0.24277406365941764,2.2331550932963244,-0.7782933344784084,2.214116069701398,-0.7620371147039811,2.6433417500492347,2.467539472590024,0.0,nm
5.615653038024902,7.13119575081913,17.95880260792123,111.8810425266125,1.7027910522586875,0.35568069326797,2.8936438589314353,-0.9394460500281988,2.520506343137872,-0.9908496615933746,3.3762673036279933,2.8665823132419446,0.0,nm
5.625603914260864,20.37687312859353,18.12837103489006,110.61245465696956,2.6970747654939684,0.7544288499680663,2.34433873693034,-0.9389698607230604,2.346378950993908,-1.0852091162382391,3.652300548120407,2.750424950254076,0.0,nm
5.631902694702148,32.215514812630985,18.687944567033327,109.2357419624286,3.4015366158027316,1.1518983114978427,0.9594984566161425,-0.8664539850572909,2.0832128412545208,-1.0356194279910518,3.7172514519369066,2.4825442291773787,0.0,nm
5.656003952026367,50.70174896983401,19.775451487825222,109.9583012277395,3.4085330777468186,0.5309811848548139,-0.7942666118210661,-0.5423427158264826,1.3802533499707186,-0.340665549801192,3.539900875931096,1.5216070282227223,0.0,nm
5.660743236541748,55.52178239929446,18.824070199853434,111.83737906544573,3.240840092773595,0.2991324987489392,-1.5699554858008093,-0.14697955682209143,0.9224996487781026,0.022646225518953664,3.613486541573471,0.9344096765603385,0.0,nm
5.673863887786865,57.81040815269406,16.976167662307837,114.24354429492453,2.9552904568856615,0.2932484667853686,-1.3944007807179608,0.16993760130241242,0.5500317501555125,0.32688418644522,3.2808672458815353,0.6620173606964603,0.0,nm
5.684680700302124,57.181514993169,15.132447303303667,117.11930252159245,2.306737994256492,0.08936902741488016,-1.1343530487868665,0.38507862542198407,0.05522672307118369,0.5967732124260502,2.57211660631854,0.712371957454372,0.0,nm
5.707462310791016,49.00688257336643,14.751541894772618,123.04771108656502,1.309214908199882,0.5429095108391265,-0.3516568953826549,0.399910447584825,-0.8520625914476413,0.8063347923810202,1.4602934584810592,1.2394009937208006,0.0,nm
5.719384670257568,42.60700958947474,16.576261937503528,125.06693449850135,0.4917313009722056,0.7989100204071936,0.7938050008350345,0.39050913301972084,-1.2211940753198913,0.7367392969041965,1.2288951429693054,1.4787146932965494,0.0,nm
5.735215902328491,20.830617034011716,20.52490271400318,125.03827045040775,-1.87125937203082,1.705295600014124,3.5026402344603973,1.0776662154434067,-2.1124444381793293,0.7162952340431245,4.321820603970218,2.477269633813766,0.0,nm
5.737640619277954,6.539457069522482,21.789705126203973,124.72550995721755,-3.669534172208669,1.3088295914178774,3.4323410934035925,1.3313353112419657,-2.320976441779165,0.9100475049541717,5.19225204721855,2.8262292574253296,0.0,nm
5.768871545791626,-21.95422808450767,23.159378580793273,125.93238933867792,-6.345565532247503,-1.2530590536760282,0.8269551595799977,1.4401879626841305,-2.182580162689913,1.2575101882209196,6.520752544914043,2.9015736089072783,0.0,nm
5.771109580993652,-35.88111389716941,23.60908262620503,126.7115938128693,-5.129217162779382,-1.9566010229961142,-1.2591593027472248,1.4495403138380674,-2.10260279832425,1.2618241775761885,5.632285363494546,2.8485620765710116,0.0,nm
5.787286281585693,-56.86615109162277,22.531260824623025,126.67996652088257,-1.9853728396143109,-2.7196868102814555,-2.3989097867840012,1.1605676118649426,-1.1707033874192758,0.6601292281507776,4.134388687995503,1.7757348340571022,0.0,nm
5.803236246109009,-63.63429686159615,20.21578005956984,126.15919087584827,-0.6819347505788486,-2.4218723529092707,-2.6651555481189426,1.1240728576450663,-0.7271915854876715,0.39452208135841643,3.6651814134504317,1.3957059375018062,0.0,nm
5.825718879699707,-68.50143796106791,14.944223396623759,123.04644363993519,-0.3406713014327429,-1.7964157418517679,-2.429084460968845,0.48073864837755453,0.17248102734514764,-0.38213829690652384,3.0403318522347225,0.6378785392224244,0.0,nm
5.828012704849243,-67.63684669892338,13.577611536338477,120.08362259543439,-0.6582574642476164,-1.2472009562420934,-2.1372226563507937,0.14800224475113416,0.2988772656304742,-0.65628092205552,2.560572943172687,0.7361636591249036,0.0,nm
5.845503568649292,-59.24595327581131,14.730360357589507,114.43637842861162,0.8413458479114877,-1.1141862911363574,-1.675159575970087,-0.6754649862731407,0.941663194142697,-0.7180299025661885,2.1806956532534234,1.3632862721612107,0.0,nm
5.861889839172363,-51.372401605890296,16.167883018884964,114.09968401341608,-0.06938254435861792,-0.6077092353502276,-0.5955962279447916,-0.8788008658461511,1.2808342668203818,-0.4577047560195668,0.853732580456959,1.619358213785999,0.0,nm
5.864233732223511,-40.29709626728031,18.52658508889531,113.58272344520773,0.8607721236464095,-0.7991424586862093,-0.3340432218883812,-1.2734879019738519,1.7625337228676543,-0.6919069586958532,1.2211233321050579,2.281892153501392,0.0,nm
5.873543739318848,-25.278351511995144,20.293891543122356,113.08953574046282,-1.6014935700693882,-1.9777907157089374,2.284082198957204,-1.4274919717615056,2.483301686463428,-0.9996575573521793,3.419571502646383,3.033782429147974,0.0,nm
5.902195692062378,0.4166056023354989,18.60605333195716,110.99328958508183,1.8066098532503876,1.6095344507387708,2.240457764678134,-0.7284733635703137,2.281245120358061,-1.1057898699848492,3.297588710752583,2.6377118828920683,0.0,nm
5.904385805130005,14.748319243859875,19.4243738650083,109.45259092058235,1.9002394469269743,1.141525163642531,2.3770658476375846,-1.0836724018249388,2.498203424097324,-1.2520330712671888,3.2502971708586017,2.997157492390978,0.0,nm
5.926075220108032,36.68099044845929,19.77482413291497,107.58366847719812,4.459297348688385,1.6565819564402962,0.4462899249832641,-0.5163247559347153,1.7214837617809053,-0.7613419171658056,4.777946349590417,1.9518552995803977,0.0,nm
5.941030025482178,45.417380496027235,19.338945269267644,109.20008260195836,3.386209951043391,-0.12777605047329177,-0.7396149780986955,-0.4344448540421556,1.596219034782249,-0.27604618462671343,3.468396584511029,1.6771580230413143,0.0,nm
5.943231582641602,51.53448846155454,18.00607601333873,111.76350776978713,3.666399547860178,-0.3098246379720676,0.07155710420037051,-0.15469930130149218,1.184644977203847,0.10683080061898322,3.6801626825461646,1.1994700562324871,0.0,nm
5.947549819946289,53.411128666957936,16.41250019360919,114.85794435302518,2.902967871962179,-0.3806829206854064,-1.3893642803846027,0.15135897880753385,0.46054815351763767,0.4703927195490364,3.240752236033298,0.6754875667093388,0.0,nm
5.977648973464966,51.787720425141686,16.131183734357435,123.2019217841945,1.8579933004381373,0.4317439381465088,0.025124276030390507,0.1132082994105676,-0.3628267438599145,0.9490089565485315,1.907661700052006,1.0222902546364967,0.0,nm
5.979756116867065,46.58974617842339,17.679451153279782,126.54684339562867,0.8062526705760745,0.9755139758225314,-0.13868916201001602,0.3165005234213123,-0.9894865399964897,0.9583539593258352,1.2731478977303363,1.4133996269688536,0.0,nm
5.99004340171814,39.426381339106086,20.139539126377045,128.89934631766727,-0.2096026649509202,1.9347529989370038,1.4077870538873363,0.44363786666418337,-1.3691497358900724,0.9221837212385993,2.4018881808158854,1.7093298019234535,0.0,nm
6.010197639465332,15.541192303748366,24.969987276934717,130.29119510190998,-2.8529583201086552,1.2778973612483007,1.591907401258718,1.284335969494816,-2.1284143693838597,1.1148295133749884,3.508070982227249,2.724428647300163,0.0,nm
6.019131422042847,2.415580967333614,25.686127206894273,130.36788848771528,-4.567127738234124,0.8249650236972464,2.198690056552687,1.4347271964367814,-1.8935091237351482,1.1318239532517538,5.1355098123219465,2.631509907071988,0.0,nm
6.047406196594238,-24.633666241473843,25.413083321177513,132.17057148006256,-5.450655993821956,-1.9926469877329456,-0.5353922217150479,1.7074442725021952,-1.8252579335994592,1.4196292008798321,5.82811612888602,2.8744181212654203,0.0,nm
6.0526416301727295,-46.253872797872134,22.984510930690277,134.20199308700094,-2.890382824776133,-2.610175204405212,-1.7788737428921604,1.3519414810664268,-0.9591059841049988,0.8922340043329512,4.281555706119425,1.8824748538724534,0.0,nm
6.0585854053497314,-53.874951715932774,20.83971494483121,134.34261685838527,-1.5739793446609842,-3.1558443331429684,-2.4214721310004554,1.29700193949703,-0.7004466691669838,0.6006841430594857,4.277884022932587,1.5917477837676697,0.0,nm
6.154739856719971,-62.189792483071045,14.911625318696524,132.9771789875231,-0.11903385122723836,-1.8673258125824304,-2.326122329327587,0.6923070096204513,0.1467033638465121,-0.09866847023495627,2.9852838791429903,0.7145252546635424,0.0,nm
6.161142826080322,-40.45186100766644,14.354738599475354,121.29725000215784,0.34658861414705366,-0.0852096852226324,-0.3655081420444946,-1.2998504574651006,1.4280711127242285,-0.6002512881029851,0.510862564505302,2.022201751467677,0.0,nm
6.1637468338012695,-13.000613061573201,17.383209283054292,120.94216801667375,-0.4732963135144597,-0.9999166210252771,2.680145697651383,-1.42162715860941,2.140270085669797,-0.7252324612470936,2.899486783903007,2.6697831261275478,0.0,nm
6.166760206222534,-1.484031321919479,17.10928642788932,120.30705630219384,1.5082264929524274,0.7229157356478533,2.035535329776776,-1.0655126172939353,1.935831227183317,-0.7856471956240361,2.6345319116800052,2.345208134418468,0.0,nm
6.181689977645874,23.055271197718618,18.88185025547059,117.26490245637467,2.43178476361965,1.2548520136034862,2.0001017203308122,-1.2383753099070058,1.8710318732849858,-1.1097584920155579,3.3894892836956534,2.503177498627742,0.0,nm
6.196924448013306,32.3011526233014,19.853624593614782,115.48541366252091,3.0544077153937295,1.562010692055251,0.11550834331743937,-0.9471103907591236,1.4843196716741716,-1.0066024044704796,3.4325830028314837,2.028169465475844,0.0,nm
6.2124247550964355,46.44874502668456,21.20104772483621,115.31308236361897,3.0432410145294693,0.2927092631943739,-0.6675474911264265,-0.5329739312488843,0.981018026440371,-0.38298818743896235,3.1293152986209836,1.1803124718944693,0.0,nm
6.214671850204468,48.94909930572571,20.520274244150603,115.87902255859336,3.237309224311295,0.2297788516548627,-1.059525962149486,-0.0771430684923792,0.48496717345950996,-0.07871642132304602,3.4140246921994604,0.4973333764545002,0.0,nm
6.221787214279175,49.26871595395679,19.63134273459163,117.15614918593408,2.758668519921255,-0.14090567847264154,-1.2300534489299453,0.13426063837793514,0.13752765988313795,0.22003710777228472,3.0237622096082255,0.2921576715531783,0.0,nm
6.234814405441284,47.72300511775231,19.375990212040755,119.10577108526064,2.4224106315169656,-0.10875118847206751,-0.21490077550953815,0.1845401546412131,-0.22872673344594682,0.4800464396674915,2.4343546233026756,0.5628637237425154,0.0,nm
6.257377624511719,38.622370136208424,21.888899846211743,122.35258028227868,0.9795175604989989,0.25541140202620005,-0.28226625235847386,0.19899199401311765,-0.9800878248670466,0.6225365182096084,1.0508871836840512,1.1780159908246057,0.0,nm
6.2767322063446045,25.15043006841935,26.046573097127034,122.70423637758391,-0.45262089490819796,0.9852112703699283,1.0284558797210905,0.4437387255732249,-1.3483845743550356,0.5042649295805081,1.4943990157599503,1.5064289349772844,0.0,nm
6.307751417160034,-13.218027176512583,28.325239755946534,121.49075523177265,-4.07764647024472,0.0034702256100494835,0.7311263355309627,1.1773849524564255,-2.1050163778618316,1.3298051129779185,4.142675282624978,2.754216933329613,0.0,nm
6.30984354019165,-25.253158458965522,28.24635329033733,122.6786802860937,-6.393828169434486,-1.567128024428691,1.1089953070527259,1.1488110579662243,-1.7776415415978601,1.3655010918459622,6.675836988443374,2.518803193810983,0.0,nm
6.325171709060669,-38.289855169733855,28.22441755724749,123.43992823849662,-4.616850486609078,-2.331052559314219,-1.1479113716346483,1.2648013767071116,-1.9122388598560183,1.3811893675930502,5.297812281226657,2.6765769274982065,0.0,nm
6.33427619934082,-49.486202896403995,28.050601671048884,123.14687772603277,-1.685026316084621,-2.252916503572862,-2.081775523294576,1.1193806429764368,-1.6195677830624278,0.9917023875209261,3.4998193935340556,2.204424290652504,0.0,nm
6.336405277252197,-56.941261084477205,26.785019144026634,122.44051290735995,-1.4958994514106574,-3.000887643012175,-2.1065341393113712,0.9346016796631414,-0.9627122426899638,0.5371460830255291,3.95986463086785,1.4452754326992394,0.0,nm
6.349204063415527,-62.60512708814964,24.41910913436416,121.27982694125272,-0.7590533256829383,-2.5682346138962533,-2.3538104429425277,0.9454657637244369,-0.6047532132698997,0.2483790864325038,3.5654473189980616,1.14948863844422,0.0,nm
6.357009410858154,-66.1164907214944,21.81227602213473,119.14691718536737,0.09000127760761548,-1.7042679510439447,-2.248249232903619,0.7797801677333427,-0.28241657324580793,-0.16434055438951767,2.8226324755763437,0.8454726776491355,0.0,nm
6.363381385803223,-66.59994926025242,19.770183957726996,116.26797997256023,-0.6833056247544554,-1.7887245411443822,-2.16102894339468,0.40776349040473037,0.12328655394612284,-0.5596286968634897,2.88729772540048,0.7033170812969685,0.0,nm
6.373655557632446,-65.57635057426795,18.766355131814393,113.11508935341678,0.04713864684459641,-0.9544649855329402,-2.2299918340626532,0.10610137926102677,0.272458784976248,-0.7169405553819764,2.42612634473575,0.7742706581959841,0.0,nm
6.383389472961426,-62.94426084325699,19.12026683662625,110.02617521669309,-0.049976736418639166,-0.6303976016749183,-1.659084743074806,-0.2440359254495101,0.44972857246276593,-0.803269604599443,1.7755171063901756,0.9523924503442588,0.0,nm
6.406030654907227,-57.889368922705536,20.645521804412105,107.57193958272532,0.09659024923184596,-0.7135140473738977,-1.4194472673232341,-0.5895981808175886,0.8146239152318501,-0.846070229311715,1.5916226050034434,1.314181483288612,0.0,nm
6.422447681427002,-38.03402779704001,24.317227566517403,105.56330949682597,-0.7776795675826943,-0.7133207973104299,0.09694596173744102,-0.931304936260408,2.0591780007911007,-1.043068584417335,1.0597219395711268,2.489083163545047,0.0,nm
6.427247047424316,-24.416295902815314,25.162520093782316,104.94124391390505,-1.6040445646495307,-0.6320619371494473,1.3793315816176432,-0.7967084040144616,2.357870727033048,-1.1972707274625178,2.2079440368412064,2.761839213507052,0.0,nm
6.433250188827515,-13.022403360435883,24.775567357672234,103.6649187285452,0.41420040427926613,0.575535636318425,2.2811387289051983,-0.42099897473695364,2.033564370484261,-1.1686815828121495,2.3888066359772164,2.382947928016247,0.0,nm
6.447015762329102,-1.0106743140422767,24.01561676556831,101.76714771968385,1.61950842614208,1.306254358284843,2.386923494152414,-0.32145541537850103,2.1788109602630725,-1.3505376428569877,3.166466762468874,2.583505894983088,0.0,nm
6.46768593788147,23.136945992665346,23.714240120532743,98.59010845278581,2.8801715268392414,1.03950223031723,0.9584041154451716,-0.32494561757689405,2.053044785901745,-1.1737940319223503,3.2085029779247867,2.387126929318443,0.0,nm
6.4816460609436035,41.36378508216205,22.159977678863918,99.88137515098629,3.4337382445964892,-0.007042517045130733,-0.23053504848022824,-0.008149072332574246,1.5665453890963232,-0.3946315923383243,3.441475604741183,1.615507646886982,0.0,nm
6.497604608535767,46.92246084593359,20.140548764191056,102.18104236456462,3.4319525531628305,-0.31411379892322494,-0.28092021012205004,0.201278612609071,1.1000337207281754,0.04484253436648947,3.4577278623815766,1.119195299990719,0.0,nm
6.4997382164001465,49.17165648836165,17.935528404591707,105.23505035745524,3.0156439567288578,-0.5345314026101251,-0.900449781298013,0.3302845961221355,0.5226785443453172,0.4376151139250111,3.192278512719601,0.7574877973209222,0.0,nm
6.5067832469940186,49.20321231848316,16.34911862391462,108.85605392047017,2.5136169786727507,-0.3811761726905198,-0.8368593045398536,0.3040334029033752,0.10373959206135529,0.6935670037096486,2.676546111258659,0.7643516217532623,0.0,nm
6.526035308837891,47.03580043499558,15.883670740438365,112.50942305628949,2.0263944931311513,-0.02172534516991651,-0.32112418566543544,0.23696475098687356,-0.35203575492221467,0.8174883096659901,2.05179613388716,0.9210692712247447,0.0,nm
6.531631231307983,42.6665369257035,16.608943946914632,115.55969867622169,1.331668004764134,0.4093215246663246,-0.12729395100911012,0.21338924818338406,-0.8207972265375627,0.8114438467483024,1.3989594473862221,1.1737479178928103,0.0,nm
6.548882007598877,27.61111844795518,20.531254658397952,118.90720127746496,-0.8311297561991167,1.8027282853265758,2.627685583779766,0.4205593528847505,-1.698242334683472,0.777391851806637,3.293225997340618,1.9144804224293759,0.0,nm
6.555280447006226,14.946611339430188,22.526408426595157,119.04469523258754,-2.2303393343587725,1.6021124501783244,2.4289954062581964,0.8054167149723697,-2.2476741975533177,0.908855660662267,3.6662237429032816,2.554751258933378,0.0,nm
6.570905447006226,1.5229434295846251,23.653484392174306,118.73976999809555,-3.215779910916261,1.0153246396992541,1.5939370439620097,1.0086003880148415,-2.263209687470926,0.9575750372122126,3.7299812143692312,2.656377756279763,0.0,nm
6.572884798049927,-11.264282814553486,23.885545431935498,118.73565336837486,-4.9776508274993585,0.037249310462875065,1.614457790929456,1.0961606332438671,-2.065683207755208,1.0050469235392618,5.233055439256097,2.5453358456579314,0.0,nm
6.611223936080933,-45.917684356532654,22.52547349287627,121.29119637939031,-2.743771535843707,-1.9407153555467982,-1.8852518249525443,0.972107683601454,-1.4394202692143414,0.930800253865337,3.8534183234691985,1.9706123851579354,0.0,nm
6.6134655475616455,-53.09210850977665,21.87647503602711,122.02328059861284,-1.5433934694410114,-2.1595066232958784,-2.3210218349575236,0.8131318738088056,-1.0507759375352983,0.6920822122476837,3.5259998037324847,1.4980958926639685,0.0,nm
6.628683567047119,-58.089179448706815,20.845629123989113,122.21321422153272,-0.5398140147384618,-1.8848892472958854,-2.4066118963501895,0.6739652374163859,-0.6662073485558092,0.40628689744561486,3.1041886967022414,1.031082157517756,0.0,nm
6.632562637329102,-60.13240356675211,19.606773508388198,121.57805959164024,-0.3496914412324764,-1.8367073774231062,-2.4488636649234152,0.41705891438869963,-0.18159724796655,0.0186393288019521,3.0810243984320946,0.4552615985543835,0.0,nm
6.6646459102630615,-57.84438518482352,17.58680249501026,117.98788441017592,-0.8557795881859251,-1.0879229921069324,-2.00028202491555,-0.03722571848535734,0.4203968770878075,-0.5528908844655629,2.432501453136426,0.6955628070182049,0.0,nm
6.666962146759033,-53.81529454496745,17.58283072571901,115.47856233078825,-0.35264444342446916,-0.5790274189645691,-1.927236088612953,-0.33982120833513435,0.699993368796391,-0.7487259396463573,2.0430050897252015,1.0798424434576517,0.0,nm
6.669377088546753,-47.98896060715528,18.228463343389194,113.39221640589167,-0.8571819482713244,-0.552951826263955,-1.1211005973772674,-0.5699806502963847,0.9700556039465205,-0.7694342587311935,1.515712098008897,1.3630535187473598,0.0,nm
6.6944663524627686,-29.84916316695709,20.474049830023993,111.78247061209943,-0.31501393764127134,-0.3910923652792626,0.7236622122846734,-0.9765840734514778,1.7881765908545406,-0.761331829980754,0.8808371112621984,2.175067384689746,0.0,nm
6.702778100967407,-16.546131703327738,21.742004152587043,111.80765921524483,-0.90642294267759,-0.8247663735415095,2.371400987782201,-1.1432954305675707,2.2272043745707717,-0.9047463865381904,2.66934163545836,2.6619785483015788,0.0,nm
6.709011554718018,-4.306473612213205,22.40929321667954,111.61285994225724,0.8717756283463892,-0.44893803811002575,2.2267724550792445,-0.9513253376202605,2.0723729559075013,-0.9245614812785075,2.4331160422266067,2.4606022634792084,0.0,nm
6.732879638671875,19.858888262434455,23.971030414703897,109.7917051826268,2.550814957268117,0.8562673225883235,2.269019840350905,-0.9769587435452762,2.036441461522689,-1.1984559458328186,3.5197019348037655,2.5569198006390943,0.0,nm
6.734952449798584,30.396149023319566,25.53174079447337,108.75937216480884,3.013771366479704,0.9453458592720518,1.0325582752029498,-0.9219251687683299,1.7106212059912853,-1.1148951834257597,3.323051795375126,2.240348677599438,0.0,nm
6.754666090011597,38.97242584261675,26.97016646586158,108.24585166066377,3.658779777638082,1.0270067319633527,0.13075224240054972,-0.7576235744244436,1.3725895587308363,-0.8898202052865475,3.802434540875647,1.8027133923607424,0.0,nm
6.7702796459198,50.16423081705259,27.51265831928941,109.9149844592694,3.4705326049001015,0.11717856230239401,-0.6831794643051464,-0.20710786869210573,0.7370005595931995,-0.19658970340414936,3.5390763706913995,0.7903866178013182,0.0,nm
6.774824857711792,51.68487459418149,26.59928426780525,111.75892779988767,3.039284087495212,-0.4151010358778197,-1.2524377231950734,0.07645430183493902,0.32084591080840197,0.18855540551427427,3.3133301804937134,0.37992170206529846,0.0,nm
6.80208683013916,48.90292803942125,25.62030409707219,117.40966963029305,2.223645972058145,0.09872609764726842,-0.19960599263116408,0.2242137742541676,-0.39854350687058465,0.8069568198373119,2.2347686241983404,0.9275171440550036,0.0,nm
6.804239749908447,44.47539886387936,26.391695196644793,120.34059861230163,1.5096774190399003,0.3687081120847724,-0.15416021866418173,0.2527792308943357,-0.7691811915446006,0.9616006749632053,1.5616776090136786,1.257065194445855,0.0,nm
6.813230037689209,38.740210031338535,27.797903427287256,122.80028807484513,0.497966436652107,1.0169912111683659,0.4333302364591875,0.30041618800867664,-1.0144614839605006,0.9847024363986503,1.2124424891331844,1.4453445529376183,0.0,nm
6.820340394973755,30.896987148063186,29.417441458211094,124.4928953541357,-0.6000177723152297,1.4208767164216387,1.0939037841490367,0.5007328670609222,-1.3222227849292678,1.0592796656386587,1.890909162106644,1.766657835342404,0.0,nm
6.8464295864105225,6.348927773730313,31.285326282381718,125.77058935563116,-3.979118228830116,1.63385363131475,3.2760947698852623,1.2814037723011944,-1.9959162569835054,1.486489711759357,5.407000694362641,2.7991657678181894,0.0,nm
6.850817441940308,-7.75564283900621,31.67364109658733,126.29026831537125,-4.762692457913056,0.1520016674309176,1.5738061217526835,1.3617429007997024,-1.9835345227770798,1.572103284974279,5.018287523092904,2.874067095520528,0.0,nm
6.877195119857788,-34.099819338198984,31.06182161648934,128.22025522965964,-4.773805369359997,-2.60345244065205,-0.6442048493018941,1.4742094178499785,-1.6745914452745765,1.57978621746316,5.4755987985910295,2.7337290299426034,0.0,nm
6.879880905151367,-45.552025609082825,29.987253468330547,129.11527481957418,-2.3183776219498267,-2.3272383389892473,-2.0219725436038605,1.4057203761830568,-1.3947915306903398,1.3438382169247214,3.8573677620246465,2.393197514491679,0.0,nm
6.897893905639648,-53.87197535337783,28.460516509627936,129.572737831416,-1.3582839449126738,-2.692391280512373,-2.013024015884787,1.160369446437861,-0.9169505481634191,0.906713372304709,3.625764991131597,1.7347578215762225,0.0,nm
6.914116621017456,-63.17149737733988,23.585730594670753,129.82885653041376,0.36281839159010815,-1.7901398528944183,-2.293419724664852,0.8198676106673107,-0.15550270654797443,0.2891455660296764,2.93189561745958,0.8831586205884493,0.0,nm
6.921474933624268,-63.70425220635911,21.523925854501968,128.57053991701324,0.19361536682416036,-1.6622017103454525,-2.261259430973761,0.38357013679318264,0.198248992503129,-0.20646171501574304,2.813129156351265,0.4785970670985024,0.0,nm
6.926316022872925,-61.99756517836526,20.373603852777617,126.31659971656477,-0.6372922084358472,-1.6918716828274791,-1.929309965818212,-0.009344149404558256,0.407013935797001,-0.5822722453610754,2.644013633529902,0.7104847815251839,0.0,nm
6.945485591888428,-58.4766478713025,20.154676555689683,123.68698224014092,-0.6593129364051751,-1.0507453328681218,-1.6482082832825415,-0.34076412356755936,0.5802925217517053,-0.7799264316648638,2.062849933401976,1.030118846309108,0.0,nm
6.9629902839660645,-36.69757796942832,21.83780750959017,118.82820337986014,-1.0386049254134546,-0.07370922822145184,-0.16302936791668418,-0.877021244308546,1.3823547116277743,-0.8045212800232017,1.0539031341738212,1.8240957490598426,0.0,nm
6.987417936325073,-17.498727805988516,20.67045385108777,117.37220386623525,-0.14392598749568208,-0.10314588308807816,1.2789879410781864,-0.6310154299419011,1.6572041355894944,-0.7981790767302522,1.2911870184051748,1.9446325767017387,0.0,nm
7.0109028816223145,1.566082540062311,17.806398423248645,113.8590870224129,1.625646565951578,0.18101954368721093,1.8754272835906431,-0.5209976245357004,1.8150039832207046,-1.0190875722044825,2.488518098914103,2.145744034991241,0.0,nm
7.013692617416382,11.128297908886456,17.063697398157906,111.58803627355876,2.5664808080093646,0.5393892288051653,1.7614833111512334,-0.5607126375018442,1.7518152027156924,-1.0268460399089163,3.1592068519639143,2.1065773083361363,0.0,nm
7.040265083312988,28.954428661417104,17.136991285341292,109.23229304996882,3.250877775410269,0.9797397449418843,0.5349770502172597,-0.5706178255973448,1.5501382688228917,-0.6411429457581127,3.4371931459745415,1.771890976401783,0.0,nm
7.042627334594727,35.69923248048296,16.899311668466407,109.9509402465569,3.52003257220795,1.110181843355722,0.043197269292159376,-0.38444572873376426,1.2384799454983872,-0.27610137481938796,3.6912056348564386,1.3258442830590926,0.0,nm
7.07168984413147,42.51465927255267,12.561386315421924,115.82404571052592,2.5947187375290137,0.4042510439735085,-0.7622951259363835,0.29692226324160226,0.12137533587345713,0.4072774149990395,2.7344246364572196,0.5184300293532481,0.0,nm
7.081438779830933,40.41351141246592,11.930775056759474,118.05641546486162,2.1982207900172153,0.15252242498826848,-0.5909110241390989,0.30163692125542296,-0.30224273851099526,0.49651637448143243,2.2813622181138467,0.6548770994432941,0.0,nm
7.1057257652282715,31.02202561567623,13.7702788333899,121.09167332339177,0.8931725556394581,0.2917091346074179,0.2659792430072901,0.33347018802246914,-1.0743993820745332,0.4401701908164693,0.9765226014136389,1.2080091867967258,0.0,nm
7.108478784561157,23.438998854738838,15.39710755085829,121.75912858731364,-0.41474697768142993,0.5119081270276694,1.177102787460985,0.4961685722500615,-1.414562209231022,0.46044260834498685,1.3489388267305815,1.5681762947617686,0.0,nm
7.144863128662109,-2.99728423931221,17.194049593854057,122.92503083159511,-3.5035368310128345,0.9205762296787341,3.4033300787663165,1.4556510078627447,-2.444450464448487,0.9773729529113437,4.970401044779838,3.008241316602923,0.0,nm
7.1535961627960205,-29.824723258098242,18.66138088849453,125.88567469930275,-6.554752116741484,-1.851249619884855,0.36084985228167554,1.3176554309836683,-2.199387549947053,1.1217713608268884,6.820712065682181,2.7985518425847085,0.0,nm
7.156195640563965,-43.728304679499495,18.939123084524322,127.1029690372549,-3.8253899116789243,-2.0679650436679857,-2.0399943394991444,1.5287522315084492,-2.1379627775975676,1.1314452223927787,4.803297232463985,2.8614920085525686,0.0,nm
7.173205137252808,-54.33679835212675,17.89531254666647,128.1358790723771,-1.7083381855653417,-1.7762141391300748,-2.6761081223418253,1.3998883053765996,-1.4545995449956632,0.8612961788499023,3.6379816803785814,2.194852662830287,0.0,nm
7.175368070602417,-61.5821004942143,15.722403149034339,128.54448543764482,-1.5611685726966578,-2.8970910531814327,-2.616893993335322,1.2048669059863215,-0.8060813845420834,0.49790332784978414,4.204582982312766,1.532768470294918,0.0,nm
7.193743944168091,-68.71659759199757,9.917466398934897,128.2051223389925,0.2668714466459159,-1.2987453658560089,-2.3256239225133797,0.6605930459023316,0.07535019057049312,-0.017767000372149077,2.677029421454658,0.6651138923641225,0.0,nm
7.209989786148071,-67.38430546875782,8.621707697685576,126.31171659451165,-1.0069366123558954,-1.7684951244663443,-2.0766503626017876,0.04909167312069929,0.37892275199237363,-0.4211188018992545,2.9075716801238336,0.5686242077684761,0.0,nm
7.215860605239868,-64.78177351674181,9.271743313624773,123.1901909852724,-0.8593346267978159,-1.1623221669680635,-1.6661567788789122,-0.39768036315510613,0.3609305794541666,-0.7094043440019433,2.205794014055535,0.889761247590119,0.0,nm
7.2206480503082275,-60.29314769118484,11.505696622451879,120.35706734766785,-0.7969596690999942,-0.5700500974025255,-1.461409956183897,-0.8420504284612192,0.5284894335855065,-0.7313751871839723,1.7594944977902092,1.2342040633183975,0.0,nm
7.2368855476379395,-53.91184539385461,14.477228239636647,118.61969012079247,-1.31365677214809,-0.28354645702183967,-1.1465282177102114,-1.1251634805355633,0.8046816692613259,-0.6207676199707413,1.7665275719065159,1.5161984978162442,0.0,nm
7.268509387969971,-26.82141377411073,18.787732612057862,117.52407992501625,-0.5735699734091675,-0.6337785558529607,0.8495076032802203,-0.8697802903667463,1.7785012098859923,-0.636038584323143,1.2051227905431718,2.0794541081313116,0.0,nm
7.270676612854004,-16.166312095582526,17.579908764091638,116.28447484674909,0.4849107867207087,-0.4246044406375965,1.6232705523805453,-0.6893201218889482,1.9305708257075642,-0.8577332304745406,1.7465493661254192,2.222154863679503,0.0,nm
7.287437915802002,-4.432289004840729,16.670692618066074,113.79146492926901,1.2469536450331822,-0.14687590008927723,2.4498409968458943,-0.7753367695174462,2.1235368924285396,-1.1660778104684122,2.7528506738861553,2.5436771610677353,0.0,nm
7.292885065078735,7.752846760801708,16.810391461519743,110.57526355752287,2.093071041473788,0.5062032969442337,2.8387795725724105,-0.899108018139652,2.1637673387687832,-1.3376792350977589,3.5631246994945007,2.69808637011814,0.0,nm
7.298726320266724,19.419192318114348,18.104477195821065,107.76544900380296,2.968163906628166,1.0721951314249891,1.5747680920671925,-0.968993531244163,2.028369168523601,-1.2721073465014479,3.5269666741060326,2.5829221917109915,0.0,nm
7.319859743118286,40.180882604891075,21.39976371348126,107.1849469884314,3.8395110852437173,1.1967520488856676,0.0976978191508057,-0.7712716111675897,1.6341068795435068,-0.5819469649964564,4.022885246199332,1.8983749529618887,0.0,nm
7.33180046081543,47.50715213008491,21.093859922936115,108.87252730638085,3.2478986287578095,0.466649072695495,-1.3859311857990093,-0.3632497078283822,1.3226730981397916,-0.22570933432523665,3.5619393750462227,1.3900932265073667,0.0,nm
7.348094701766968,54.960738156396296,17.32383969080576,113.50476226242272,3.0323123930571088,-0.12357438596209155,-0.9437614482853539,0.23303726048571852,0.51204408109561,0.32195073058930035,3.178187337024567,0.6481880735455725,0.0,nm
7.354247570037842,54.289572303374115,16.020443840929303,115.79544791820065,2.5732611822733547,-0.5850036624664703,-1.1416768772097303,0.2915377067487792,-0.0037493704359115136,0.4834358943321272,2.8752962437372274,0.5645516417155356,0.0,nm
7.363379955291748,51.89092205025056,16.235673191956508,118.05786139779975,2.536768096889532,-0.013671242344950976,-0.0339400228707586,0.17138729115155998,-0.42635110430459955,0.5726377258534415,2.537031967756074,0.7342089844047281,0.0,nm
7.3757123947143555,47.12777172924212,18.137342965903052,120.13482179160351,1.7037558730928002,0.11181702626447923,0.0015936845333833593,0.11226617256146415,-0.9767207755060578,0.683841937034636,1.707421934464716,1.197592151633451,0.0,nm
7.406035423278809,32.837814456483414,22.92186537212782,122.5164444168653,-0.4493093086260763,1.0730715452576263,0.8773844173058034,0.4208634019875954,-1.46873089692313,0.7338571261951479,1.457108373385685,1.6949462328866352,0.0,nm
