timestamp,roll,pitch,yaw,acc_x,acc_y,acc_z,gyro_x,gyro_y,gyro_z,acc_mag,gyro_mag,motor_input,markers
0.005947113037109375,25.08428857095205,5.604771223312766,-8.360547827646414,0.07576252878224089,-0.14114684530948013,0.18247322365764093,0.1532593556259973,-0.008941572395348263,-0.018590886831993957,0.24281447662837083,0.1546415302465582,0.0,nm
0.008960485458374023,25.8927016198182,5.624754951399846,-8.095948082282908,0.0739197719788782,-0.08932334384270889,0.06962213498832744,0.16531536019404905,-0.02777508285402377,0.005100397964336566,0.13524065263442436,0.16770998063034492,0.0,nm
0.042026519775390625,28.112364909756472,5.351935314983673,-7.219217487606582,-0.07977179687617951,0.11590801434487581,-0.26881309326917724,0.13636850863838856,-0.044215754155164516,-0.007813338508829312,0.3034117441352094,0.14357037062855887,0.0,nm
0.04750633239746094,28.679720948188205,5.326485666686053,-7.121097169133419,-0.10211483103711368,0.16450632542993804,-0.3871224047542756,0.1171160901103186,-0.027316792198916345,-0.03042039236570403,0.4328435353415044,0.1240475149708789,0.0,nm
0.06314611434936523,29.517572454908667,5.431290014821513,-7.104110241695583,-0.06240518699698642,0.2174108121158153,-0.54755191004263,0.07835172796535209,-0.0040708859216844985,-0.04544349315485612,0.5924313992187784,0.09066794614117693,0.0,nm
0.07873845100402832,29.773415719584126,5.4648419892362865,-7.026039597311916,-0.029178275275556106,0.24334375087111268,-0.6138310363479993,0.05692120143905937,-0.007620181693651968,-0.027888640916184215,0.6609509013687304,0.06384251431814153,0.0,nm
0.08543634414672852,29.926408094808256,5.417331990691959,-6.826671984320303,-0.028993556804259604,0.2830855962134547,-0.6583919080515518,0.0,0.0,0.0,0.7172572660541349,0.0,0.0,nm
0.11585783958435059,29.671610416141114,4.739016621556233,-5.738043842572282,-0.04757869617459852,0.3744839725555275,-0.6408403815720659,-0.04458821871785317,-0.06164197195077215,0.03910166633019061,0.7437596202295974,0.08553819184556366,0.0,nm
0.15101957321166992,28.654734754624457,4.182880522605618,-5.388154606514038,-0.057995567173616064,0.20156156425343816,-0.3526027022420936,-0.11856339424812484,-0.04807908909659429,-0.008801338492555093,0.41026724902739775,0.12824328763430493,0.0,nm
0.15444183349609375,27.91982778275344,3.97797392257329,-5.462404941634535,-0.07819919407105211,0.06345681620011516,-0.19827403995743065,-0.14405247695713078,-0.03539888470921176,-0.03742523958710875,0.2223836243896076,0.15298642330054407,0.0,nm
0.15751242637634277,27.104470027100593,3.781174199674518,-5.655065979079346,-0.0929972326127625,-0.08744669236690375,0.016359392676145845,-0.15999588276472307,-0.03205164205866518,-0.060182017073592865,0.12869747086977465,0.1739191347706342,0.0,nm
0.15991449356079102,26.260453754246953,3.5862987080770474,-5.892616299156207,-0.09851923859761483,-0.25560209532521966,0.27321714319625906,-0.1657932355186141,-0.030614336064995473,-0.06572622329365485,0.38689285189160777,0.18095461017857076,0.0,nm
0.17515087127685547,25.460296708330663,3.4304619501729205,-6.042076006170612,-0.10645588823539844,-0.40045638087744123,0.5791729333161683,-0.15637310370675034,-0.02331695077421442,-0.050536546650340367,0.7121372450669187,0.16598243974478524,0.0,nm
0.18338775634765625,24.740673691501076,3.330698290174368,-6.0773329948629575,-0.10911782790844282,-0.4744246477616223,0.8415150093706656,-0.13922583183896062,-0.013673514801899636,-0.02641403785276224,0.9721794884522649,0.14236747751496992,0.0,nm
0.2059192657470703,23.7497170236516,3.3308065547504175,-5.951356295935991,-0.021551109851843008,-0.41047535458175693,0.9332882834605328,-0.0713124441470671,0.0069926454251444435,0.002518612011878017,1.0197948259819585,0.07169871119299659,0.0,nm
0.2084343433380127,23.72127236386235,3.4477565051837376,-5.885354232298662,0.04487151738923791,-0.40081051882891844,0.8933337645687878,0.0,0.0,0.0,0.9801569976260751,0.0,0.0,nm
0.23579645156860352,24.704222347212323,3.7280301035767445,-5.879088323138389,0.1487236986112409,-0.3756401290692,0.7686384182205127,0.13491585937109168,0.0033501768723764648,-0.029473080096329384,0.8683485838419179,0.13813824685901094,0.0,nm
0.23792338371276855,25.52313412389347,3.77704781500453,-5.937673620775868,0.12930737988293517,-0.35829526382764637,0.6462301094837599,0.1697042525674006,-0.01572702683789212,-0.04377460657534341,0.7501394863469758,0.17596331689714756,0.0,nm
0.2473752498626709,26.40847426947135,3.7399748239428234,-6.001435599663158,0.06770631784886526,-0.31031074147296955,0.47746483081997676,0.18112470090911686,-0.03424652520805325,-0.0511373603485399,0.5734540665302712,0.19129561257817518,0.0,nm
0.26110076904296875,28.301749468784415,3.5998627145356408,-6.088121225123189,-0.07772816103448113,-0.11462471811183034,0.144459851587013,0.19456273434145008,-0.04098810192812735,-0.042860444592722355,0.20012281664158293,0.20340034366927226,0.0,nm
0.27700281143188477,29.231591157353872,3.5615724985688986,-6.119869154570191,-0.09833506741925549,-0.01496501659725554,-0.008234467268787682,0.1899522996147339,-0.03541472998023152,-0.04041865384441139,0.09980753306893418,0.1974075652225433,0.0,nm
0.2880127429962158,30.1323732380918,3.5480865531201435,-6.144087993604762,-0.07237584285591299,0.09691003810417768,-0.14784447230346576,0.18470995822311684,-0.029753628049845347,-0.0438387368192873,0.1910178161982469,0.19215848119410409,0.0,nm
0.31303977966308594,31.77322906100885,3.5788951940088776,-6.25465625172046,-0.03561024939893895,0.2533539351136077,-0.3971879965424338,0.16426263636580277,-0.021296428576286698,-0.058554170926486876,0.47245593540265446,0.17568250484563644,0.0,nm
0.3152134418487549,32.52974954104032,3.5672111343434953,-6.381948453021069,-0.04652467514834079,0.3254040418652061,-0.49475852307417273,0.15600727251405108,-0.026397066796658843,-0.06762126075044213,0.5940019629718476,0.1720689080520358,0.0,nm
0.32184696197509766,33.25112877177652,3.520268296592065,-6.542917500271701,-0.0708620979309454,0.3971025950319433,-0.5833958376442148,0.14818778846362424,-0.032911472366489995,-0.0715492824228116,0.7092690683265931,0.16781562942196218,0.0,nm
0.35132479667663574,34.6045780610281,3.3216177170738836,-6.760211603798259,-0.15399912247429226,0.4818146863465523,-0.7087416876336261,0.13342028559656186,-0.04622940714968017,-0.0630908220606973,0.8707329679596604,0.15465633683226046,0.0,nm
0.355196475982666,35.18386738872417,3.166401106791152,-6.8392837549018335,-0.1889193803213695,0.44168384418509044,-0.6814540805116344,0.1173776132015634,-0.05162400564714139,-0.05433303436775926,0.8337594463159542,0.13926457074058723,0.0,nm
0.36252713203430176,35.639388336572374,3.02009102639082,-6.860628786592806,-0.21654072308652306,0.37418009196283575,-0.6243571091823442,0.09301812944672264,-0.046946203135031804,-0.0398483579950706,0.7594224290621684,0.11155361952651391,0.0,nm
0.3896908760070801,35.92047291590981,2.824234323734766,-6.675263850292831,-0.21545012263739546,0.2982779439844897,-0.628281044868504,0.0,0.0,0.0,0.7280972177897278,0.0,0.0,nm
0.3918616771697998,35.64305029439699,2.735491103552365,-6.486564973101504,-0.14770618486289747,0.19566775221997,-0.587658345947261,-0.05101675543038983,-0.018379522249156264,0.004278726709828263,0.6367458817040269,0.05439507031899893,0.0,nm
0.3961052894592285,35.108935240274164,2.6549685040236493,-6.244437357343249,-0.06602754938974716,0.03048153914051096,-0.4698103808610913,-0.10180108067576975,-0.011371720528797435,0.02165671759323699,0.47540567463129174,0.1046985648013041,0.0,nm
0.415022611618042,34.3892566880603,2.5373055293770097,-5.952206841096864,0.029312165695728226,-0.1594411030762744,-0.27796743321389805,-0.13944432251350952,-0.015443359399263265,0.03622802171042161,0.3217865167086338,0.14489888194129466,0.0,nm
0.43398451805114746,32.44809176536813,1.993460391728651,-5.342684126046218,0.14489549339974817,-0.5739340044095829,0.43608926980120255,-0.2105175858492773,-0.053104216318289765,0.04142539768637049,0.7352338380820904,0.2210289015401866,0.0,nm
0.4361441135406494,31.27821026757323,1.5766027404029634,-5.139577413189811,0.12225309071698039,-0.6846080186287179,0.8361843908676837,-0.23433938536555185,-0.06954151039361241,0.027037760481162486,1.0875836946604855,0.2459309043068118,0.0,nm
0.44589710235595703,30.095051799577043,1.19381883760833,-5.025507358320219,0.07416245553007607,-0.6953396574276456,1.181389286582073,-0.23618798238334332,-0.06338531062984092,0.007018693564767528,1.3728357350581843,0.2446461172496143,0.0,nm
0.47449493408203125,28.121656018598745,1.1563169894029615,-5.224249275438992,0.036569056034309495,-0.31478598728025076,0.9664666756054705,-0.03137775282158229,0.026113701653886028,-0.04179519190737302,1.0170965287046911,0.05842368400550092,0.0,nm
0.4981813430786133,29.26011747863837,1.6561111666907466,-5.278111801878767,0.11810062763597469,-0.2155401055481544,0.6206015548341983,0.1683886257539294,0.026111697342962592,-0.009328999334749767,0.6674965057663936,0.1706563220335395,0.0,nm
0.5029327869415283,30.413908270104013,1.7653057744108365,-5.12200181130132,0.11228882900692941,-0.1934391572488726,0.4165773843406089,0.23842567667059134,-0.00698721063878008,0.014059186072717356,0.47282576687503497,0.2389420120476249,0.0,nm
0.5134313106536865,31.829364189211233,1.7476750373811747,-4.854499788761299,0.05169037410146029,-0.16387933628076218,0.25413850785034076,0.2884428054660875,-0.035702911505029744,0.03440780377756419,0.30678121325623864,0.2926736183462366,0.0,nm
0.5369718074798584,34.78366523927586,1.5772182035680589,-4.298175922694275,-0.11512924737906674,-0.019689793584652702,-0.10755194018062415,0.29092817644140306,-0.04646251356504637,0.01836359873325254,0.15877610465713388,0.29518670493898974,0.0,nm
0.5783815383911133,36.9769068259183,1.7705350374251376,-4.339229006152175,-0.1334307211266833,0.13337039806246268,-0.4582388528120549,0.20742095587944614,0.01422574403215549,-0.053597319160604805,0.4955545042134463,0.21470560624356153,0.0,nm
0.5810644626617432,37.65695925938342,2.0679853302618163,-4.606723716553284,-0.10517325993941251,0.20887574066233763,-0.6086634638742867,0.1468305579922181,0.04240411657692206,-0.08399036419292864,0.6520442484210474,0.17438951556855736,0.0,nm
0.5841007232666016,38.230437790965944,2.7729536087570628,-5.092521159485366,-0.09594624228491998,0.3600974869313765,-0.7585341971531108,0.045386141383875374,0.06132188338127195,-0.07130654741588252,0.8451331313784851,0.10442652400380348,0.0,nm
0.6028444766998291,38.15032158781033,3.0682899443361578,-5.123782124352004,-0.14976171620508608,0.4607888601807031,-0.8401628130782292,-0.004472118141049906,0.05393475784331817,-0.03356859474942301,0.9698600403083157,0.06368522982400134,0.0,nm
0.626488447189331,37.90344300013155,3.2903053088207352,-4.9482507349994265,-0.20576804137759117,0.5215384104687351,-0.821138127641075,-0.039070756849317496,0.04217831640866082,0.00941862947524161,0.9942890048233034,0.058260149304987935,0.0,nm
0.6292519569396973,37.49209968960444,3.4956018120513312,-4.598906978155464,-0.2584596933218297,0.5885108659484323,-0.8359211353087953,-0.0723212548321482,0.0413290873050482,0.05048363645241079,1.0544717145885578,0.09740151388671531,0.0,nm
0.6319458484649658,36.930662212459765,3.7096381008777337,-4.150997219944384,-0.2823598033523414,0.5968892444535613,-0.8210565725008232,-0.10240505176016021,0.04476199109678269,0.07562995667162677,1.053630734147555,0.13494562171149416,0.0,nm
0.6341204643249512,36.24173495056959,3.9134358863558436,-3.7071796745270884,-0.232521543774399,0.5122333392603485,-0.736369733825976,-0.12831729167673633,0.04354227186774389,0.08014906579254004,0.9266550852738983,0.15743293661135224,0.0,nm
0.6524419784545898,34.56302938743708,4.155999012730696,-3.010376907413268,0.021517788546683857,0.1194441258701511,-0.41722846980868816,-0.1677188351296426,0.017362754339031516,0.05397777191563691,0.4345221633561673,0.1770442677876308,0.0,nm
0.6631484031677246,33.66678356611259,4.05470196996788,-2.7979616290678475,0.1631382496167403,-0.16491868792571798,-0.11679689348366151,-0.17350672253298885,-0.018260843187794657,0.030495177303879767,0.25971864862305905,0.17711012674848345,0.0,nm
0.6653199195861816,32.76967696294368,3.758422139780717,-2.6843053687008784,0.2427452698555554,-0.4779285543100412,0.3254331040130569,-0.17545782266097565,-0.05795010115282848,0.007436504999804681,0.6270946294218326,0.18492961732282245,0.0,nm
0.6914904117584229,30.968366463881512,2.7951702672247114,-2.831400765215348,0.1275249407555331,-0.7967370374465615,1.053558458371868,-0.17571644900760153,-0.10221298012951428,-0.03785093134596465,1.3270410478055052,0.20677634478478055,0.0,nm
0.705228328704834,29.651429576159714,2.105454981176408,-3.362489119656615,0.003987674818717768,-0.6921479327085254,1.212535091210428,-0.10276823369048838,-0.05091624897569852,-0.07290851478751648,1.396182656288147,0.13590226559605129,0.0,nm
0.7236101627349854,29.502527697303062,2.0639559351726,-3.687793662339404,0.004178856413670166,-0.5958994402001623,1.1792494490793233,-0.02369952007000367,-0.01431268634213164,-0.07951283881001918,1.3212656314404307,0.08419508167051588,0.0,nm
0.7258803844451904,29.79118254517516,2.149096576400545,-4.004078713125158,0.056063327590976104,-0.4990167419728756,1.0346402432849986,0.06528363124706206,0.005313090259377488,-0.07574677144615152,1.1500614064016919,0.1001386779492429,0.0,nm
0.7506415843963623,32.54471283063213,2.3324050832504324,-4.295027786658963,0.09415957227935134,-0.20956000525946045,0.38322568984725175,0.2345504325811268,-0.026357344798342282,-0.01675649965345777,0.44681467099355354,0.23662078380702048,0.0,nm
0.7701501846313477,33.792062001828214,2.2782968807792043,-4.2351715677536985,-0.0020248739149744954,-0.13880539592057078,0.2069005838883138,0.2545884370024052,-0.03649258546789214,-0.00883436190464778,0.2491563558578491,0.2573422371079442,0.0,nm
0.7723076343536377,35.02576238659133,2.244633090951647,-4.216480396443647,-0.0720195886308183,-0.045629776568857,0.012647273013361379,0.25221441239486264,-0.0318110755556664,-0.01691657958642926,0.08619078356153054,0.2547748516094125,0.0,nm
0.7745530605316162,36.167455187958716,2.2942326386676446,-4.303947308348113,-0.118176420986392,0.028677570895081616,-0.1493811651538619,0.23506491893244616,-0.01376138552097138,-0.03761683956944262,0.1926208764706483,0.23845317876549155,0.0,nm
0.8054563999176025,37.930069825350444,2.762748932210455,-4.791644993911505,-0.1054897834720636,0.20305107386579377,-0.4827606881996461,0.1677002950839958,0.038681534713859954,-0.07564042087968899,0.5342431235739313,0.18799234923244965,0.0,nm
0.808032751083374,38.51897300294308,3.0917932832954738,-5.106333024902355,-0.09048585150935666,0.30922077481893,-0.6269588359821233,0.12929883928657784,0.04915921920148963,-0.08044643825978239,0.7048989707178269,0.16002014905017858,0.0,nm
0.8129048347473145,38.92587539760014,3.3864267025077868,-5.317303292762279,-0.10732694109444695,0.4189730465520403,-0.7362014145202368,0.09254415341549088,0.0451533581900715,-0.07203141646071415,0.8538442532238455,0.1256653136094748,0.0,nm
0.8220152854919434,39.178630804080306,3.604232290846087,-5.4160466005534715,-0.16340366985116905,0.5326973416850462,-0.8141710833446886,0.06049035125841602,0.03252169099541409,-0.0527505599926664,0.9865808482399243,0.08659887158680331,0.0,nm
0.8337011337280273,39.30159169363817,3.743071126881715,-5.407248421246061,-0.2354740430025878,0.642612330938961,-0.8746233491193384,0.0,0.0,0.0,1.110569509588444,0.0,0.0,nm
0.8604884147644043,39.008395594761765,4.002409929704011,-4.920193731682889,-0.32762582462533696,0.7384376241416071,-0.9459870766515311,0.0,0.0,0.0,1.2439937117610536,0.0,0.0,nm
0.8882970809936523,37.98947343175639,4.068239628684269,-4.462989265798459,-0.18916831560363245,0.2965139582598501,-0.6574596487063485,-0.11573297627869641,0.0056341655374627445,0.03168361465878488,0.7456261588412217,0.1201237572567359,0.0,nm
0.8920717239379883,37.15922691175896,4.017222200454484,-4.161624728657404,-0.08250386283340795,0.0051588720033362975,-0.42196953032977275,-0.15998316229035553,-0.004258601725997604,0.04874135114932572,0.42999044857939533,0.16729754097698143,0.0,nm
0.9207854270935059,34.85110592112265,3.5950876896030652,-3.439373842359421,0.1569057228415966,-0.5861800677193032,0.30507720165267427,-0.2474325670771561,-0.04475633479722157,0.0636154600672579,0.6791896470206811,0.2593702595025907,0.0,nm
0.9231324195861816,33.4637539151054,3.2381178607944205,-3.2011096575462585,0.21976068046823616,-0.7928392040083786,0.7662947989671238,-0.274595913657166,-0.06241668489453067,0.04852418888256376,1.1243204521027652,0.28575051226051656,0.0,nm
0.9281678199768066,32.047435983074344,2.8579889736027075,-3.14368688589328,0.223268101158386,-0.8775224935459668,1.2091494238536,-0.28053452914175436,-0.06764606530488883,0.01595782396820474,1.5106080566710531,0.2890160278216752,0.0,nm
1.0221917629241943,29.712872437146984,2.4147968989713307,-3.668587978850827,0.10776242147854781,-0.6513848181060924,1.455181333046671,-0.1978915751750787,-0.024303128439125323,-0.07684806452461841,1.5979573313419584,0.21367578851704833,0.0,nm
1.0252091884613037,30.56174065342488,2.7619813771593225,-5.4015135928473965,0.21566597267404855,-0.48088684783401453,1.0870795631626886,0.20946201535886355,0.009883230261726966,-0.12885844781969716,1.208100140234724,0.24612296457889646,0.0,nm
1.0274107456207275,33.687792099807695,2.8312315332243934,-6.004909640359641,0.18022883717357638,-0.4199288435780883,0.5879011681483611,0.33688350676716033,-0.04714324583025906,-0.07123482834994183,0.7446142967523371,0.3475447935578913,0.0,nm
1.0296604633331299,35.48351953019835,2.7178191808774392,-6.115781032877199,0.07090079913224252,-0.302173296376832,0.4064683782880253,0.36098944608394884,-0.06752725927086799,-0.0506274886723009,0.5114217114172301,0.3707242284203923,0.0,nm
1.0316276550292969,37.22926021204224,2.611180195684419,-6.233457037575396,-0.05689837668177943,-0.22174282665613584,0.17259878662159836,0.35113530778905455,-0.06550200926388626,-0.05100953454558459,0.2867013212137726,0.36081642175527084,0.0,nm
1.0338633060455322,40.27992081859704,2.8232484496874912,-6.790018722809793,-0.160304942607889,-0.00873506906903734,-0.23923525451609173,0.2961437654312475,0.0011290533724556513,-0.09329244072622055,0.28811019256447457,0.3104929694243832,0.0,nm
1.0514402389526367,41.439768188119544,3.211742985383135,-7.219080745241531,-0.13853372468731198,0.09446303099297693,-0.4470176959059465,0.24577706742723723,0.04293944755900686,-0.10985098704418299,0.4774302855424877,0.2726121831180453,0.0,nm
1.058448314666748,42.343938112724125,3.696780428919878,-7.566540491582628,-0.10052553015203257,0.1852632714675425,-0.5966405929039859,0.19763482563365453,0.06737700832256611,-0.1095831472336003,0.6327778907863512,0.23581274713502046,0.0,nm
1.0606451034545898,42.9987899128563,4.165292421188179,-7.81988606391505,-0.08957008392540311,0.29051546925203076,-0.6989605673081605,0.14800141151154417,0.0698566784444731,-0.08901234142352288,0.7622125113515763,0.186299678632041,0.0,nm
1.086977243423462,43.720269274526665,4.74926105726477,-7.830400176232059,-0.19122990198623238,0.5748551992634692,-0.86664028957072,0.06911342761886026,0.03153551351313274,-0.016076797400312908,1.0573990576131267,0.07765061432091264,0.0,nm
1.0892000198364258,43.877798359266464,4.914926556683873,-7.564587930971333,-0.30166970604321147,0.736759486971653,-0.9351843191440138,0.0412992229313529,0.023217771142826103,0.02067771425234207,1.2281648358261132,0.05169389304623656,0.0,nm
1.0996944904327393,43.9212946134558,5.125958872933447,-7.188739546508344,-0.4314654791549946,0.818385098356191,-0.9277609869075489,0.019722360422790748,0.03538906833787833,0.04797695293464803,1.3102126078395027,0.06279447166242356,0.0,nm
1.1136486530303955,43.8268966540468,5.4578199050838885,-6.769488542153069,-0.5140145508216132,0.8337239704535128,-0.9012857699030629,-0.0049543421316353324,0.0628684065572349,0.06285321075419026,1.3310231614794956,0.08903655513952531,0.0,nm
1.1290764808654785,43.135743253894375,6.455172952699235,-5.78582132189283,-0.36105064434350603,0.6778626759107447,-0.918151702396493,-0.06721673477169966,0.11034114197071582,0.08684077964053998,1.1970204358269387,0.1556745902623402,0.0,nm
1.205308198928833,41.77299429626775,7.266034100941767,-4.438369441336943,-0.045292184405932766,0.35022845091580335,-0.859055593359842,-0.14188350755208268,0.06939053356207565,0.13146160324591574,0.9288099171961799,0.20549483933008636,0.0,nm
1.2076549530029297,40.8155480423585,7.293865145714777,-3.7126754027290074,0.08276230652827408,0.12623945420902352,-0.6937798644882708,-0.18377236847939626,0.01332014216969514,0.14299517452314672,0.710011619306498,0.23323235097398706,0.0,nm
1.2105557918548584,38.326638909286046,6.625427220238261,-2.524076937178948,0.1973815962142757,-0.370394125017037,-0.08005702677492534,-0.263659765112411,-0.07821704819344336,0.1222192067595968,0.4272709092686664,0.30095167862660654,0.0,nm
1.2134318351745605,35.11706993950736,5.7155902607039355,-2.029375208311256,0.19656480753623498,-0.8070218750284434,0.7946226699838626,-0.33181486941411753,-0.07882886623302546,0.039150894011760626,1.14949868115995,0.3432898050012732,0.0,nm
1.2159039974212646,33.44591650444121,5.429422438386493,-2.1340502971125828,0.18630644067471103,-0.8800951884621513,1.1227706565931959,-0.3288105207838527,-0.05226606662996224,-0.010771021301891287,1.438711777215237,0.3331127664905713,0.0,nm
1.2186524868011475,31.979138477071857,5.254959593440937,-2.4507461988018844,0.2155033360316968,-0.8396700210140808,1.2461089473278022,-0.28750036299777126,-0.030577483330773505,-0.05687421868320847,1.517983840704828,0.2946627189882008,0.0,marker_1
1.237868309020996,30.960863908459377,5.1386291722953645,-2.8610609150220547,0.26003726167223934,-0.7826887252485611,1.2596714641165045,-0.1978433083058418,-0.021437010952631418,-0.08650117372273981,1.5056537502356353,0.21698841705352664,0.0,nm
1.2412192821502686,30.544324238435568,5.011608604514575,-3.2524776474937713,0.29512100179925127,-0.672942676970773,1.197356950024365,-0.07824326590122756,-0.0285973384465839,-0.09296427252413442,1.4048529880251646,0.12482857201402328,0.0,nm
1.2526462078094482,31.584923236219733,4.485751801116378,-3.6694307275148645,0.18391357363773347,-0.4027182887958216,0.8347106751669339,0.1641280273122949,-0.08088811668652722,-0.055620200933492736,0.9448534986634042,0.19124461697627143,0.0,nm
1.2724900245666504,32.75208377537734,4.133549820898817,-3.6931066632540204,0.0292941952131541,-0.2837635734837439,0.6574173753719431,0.23428625790396648,-0.09255041360741129,-0.03714223914468447,0.7166432312876365,0.2546275233163684,0.0,nm
1.2919201850891113,34.0905790377407,3.8303497765656003,-3.7065052880958254,-0.12840233093598058,-0.16619159471734787,0.409431770720885,0.2692193229165978,-0.08475851392081746,-0.03989766088344989,0.4601534305208727,0.28505240370449,0.0,nm
1.295001745223999,36.780706997543554,3.7835682470448293,-4.069497980383336,-0.20917302588761313,-0.03139916766431999,-0.02093566065099106,0.26671563929212005,-0.004975064434238518,-0.08450709974892627,0.21255014555602075,0.27982750654126926,0.0,nm
1.313539743423462,37.919177626044714,4.06278037234751,-4.420088534872564,-0.15969678121314315,0.01918541830072623,-0.2218506503741148,0.23712029751420646,0.0326259779858846,-0.10307477121148755,0.2740234538805576,0.2606048702404883,0.0,nm
1.3166186809539795,38.799122533457634,4.397934440236605,-4.79975684057773,-0.08483325766769156,0.08414414489501644,-0.4218893178456633,0.1866054653049015,0.04658909960664221,-0.10525535415602259,0.43848319835417365,0.2192506179291775,0.0,nm
1.324571132659912,39.40452709207835,4.67831629253446,-5.054467405413131,-0.03381781321347684,0.17821277243025674,-0.6035065982818119,0.1311849664203727,0.039491684028348156,-0.08246509358265189,0.6301774757300552,0.15990490981112723,0.0,nm
1.4055678844451904,39.54666726312731,4.568586084153866,-4.445054277627551,-0.44994767095742216,0.7521877118208898,-0.8282469741199873,-0.0472677068285823,-0.021204524196651423,0.04132702757207348,1.205915548682108,0.06627059048463431,0.0,nm
1.407785415649414,39.11010582778774,4.565112181921324,-4.150925000207575,-0.48082035377415033,0.789290580346057,-0.8856079493104032,-0.08088087507900216,-0.0002706739520107175,0.04450725026871307,1.2800270593656575,0.09231838681657793,0.0,nm
1.4105808734893799,37.69773973118098,4.837886153267014,-3.680615721331275,-0.2123476910940481,0.7203703982077707,-0.893978235356204,-0.15195732679446475,0.03740834169158432,0.0393265155395496,1.1675710418717946,0.16135980918158188,0.0,nm
1.4134368896484375,35.64952466959092,4.7884601351221985,-3.3121009537418775,0.2570969817637762,0.2646566775440661,-0.5917169773287261,-0.21000233446590558,-0.0209843929401094,0.03346656909468233,0.6973313389341909,0.21368513395920674,0.0,nm
1.4160816669464111,34.494316981839944,4.396950802932734,-3.1805089083361406,0.4361543020293459,-0.0496757109490221,-0.2722341743225564,-0.2284652530125726,-0.07212026513344459,0.029235123383323475,0.5165362495566799,0.2413553333080819,0.0,nm
1.4321069717407227,33.32020902367001,3.756736392765964,-3.1142814872872395,0.4975527428050706,-0.35172105224111594,0.13887172020788663,-0.2348771791975612,-0.12226179131310558,0.014650780915865734,0.6249414253639649,0.2651978135361175,0.0,nm
1.4341614246368408,32.15369997592196,2.870627898713891,-3.215035146128391,0.4585120300662216,-0.6759981777862147,0.75858764989733,-0.23615436043354177,-0.17167606193662574,-0.02215586941998291,1.1147475232816104,0.29280101561230737,0.0,nm
1.5010044574737549,29.968870407643333,0.9278310600451389,-4.010081943529104,0.19087633300322296,-0.8988522073159104,1.754825364548719,-0.21442323569503713,-0.17659949808805864,-0.10344173217676558,1.9808536354715829,0.2964201388006783,0.0,nm
1.5038025379180908,28.87350699091232,-0.2734852910292042,-5.43260534059821,-0.06888164390739276,-0.6401239735791666,1.6694285009901864,-0.05834253860113878,-0.10398885557212349,-0.1664074516552679,1.7892721711177724,0.20471681381856657,0.0,nm
1.5077919960021973,32.50472615895249,-0.3649101137137886,-7.18838811237062,0.015336761169625296,-0.47874721553387867,0.9200485654156352,0.3669134864788433,-0.03515053753546214,-0.08935877632061494,1.0372673114236197,0.3792704282627502,0.0,nm
1.5099596977233887,34.47074965409721,-0.35031334700948846,-7.393492288508397,0.022273758315384924,-0.453356845424415,0.6511988150675655,0.397494257878062,-0.05448538418078283,-0.04913961350631097,0.7937811073262392,0.4042091584203757,0.0,nm
1.5262048244476318,36.41941012569154,-0.3515189787999859,-7.373309646598736,-0.020708909672033173,-0.38388324860108924,0.36248307779228567,0.39361280719354497,-0.05743702866795097,-0.0043042653097009565,0.5283835625585814,0.39780470201952384,0.0,nm
1.5286986827850342,38.2136958793926,-0.3462017557465617,-7.236439819026269,-0.06031823894432822,-0.22114913726758265,0.05229314564817525,0.3632413524402952,-0.051321238364354115,0.018674293666909404,0.23511657522455207,0.3673239426907312,0.0,nm
1.6424164772033691,42.21126460362193,0.09039499362965875,-7.444259563826134,-0.12215050343025358,0.22926778119747812,-0.5573273881338103,0.22874105007095985,0.01862693447188099,-0.060327177069912814,0.614896965797957,0.23729475124538624,0.0,nm
1.6465420722961426,44.32095771233524,1.2417026055729723,-8.558592999987297,-0.3547460095708941,0.6646909583588693,-0.9064679747384287,0.12447280673034043,0.05745316988109734,-0.076975171989137,1.178703945296228,0.1572244365468426,0.0,nm
1.6497790813446045,43.95089426996363,3.338347376691427,-5.568211833008471,-0.20687457171971482,0.41566708983035383,-0.8680585253408447,-0.10993770889908312,0.06023532914315609,0.07396515934151882,0.9844296934820551,0.1455521882741038,0.0,nm
1.6672675609588623,43.04327897095936,3.515766969168562,-5.319758288989469,-0.11919709168160986,0.19123204823829326,-0.7218931138305114,-0.17103472679337114,0.047144684061187485,0.04876622701029268,0.7562455360097531,0.1839935974465734,0.0,nm
1.670018196105957,41.813425822933816,3.5504252454566907,-5.179841932377898,0.006899896868003698,-0.10405456154109634,-0.46236971439115004,-0.23795636290036715,0.023729869666394614,0.0314498507766626,0.47398387434643025,0.24119583427793617,0.0,nm
1.678452491760254,40.32002550333773,3.4244066391451007,-5.094722974276106,0.11419877624246134,-0.3813670136027823,-0.13067463056397732,-0.2933645647143918,-0.004369505135457928,0.023648328339034463,0.4189964422672494,0.29434860937063073,0.0,nm
1.7128064632415771,36.837130325270664,2.737536204393538,-5.138795486610327,0.20991931876743897,-0.8369256496144688,0.8886939683835857,-0.36055794356542253,-0.05352162051893202,-0.006591477089625221,1.2386636479754107,0.3645682955240651,0.0,nm
1.714893102645874,35.08161869000751,2.344201037863521,-5.33752963948464,0.19433703311036848,-0.876211537278888,1.3029835211358094,-0.35061629207171396,-0.05339467865727701,-0.03512769276221684,1.5821755897656382,0.35639406669279444,0.0,nm
1.7349677085876465,32.58925097884728,1.8609602636820914,-6.217362169922711,0.18269722564669827,-0.6932188251198871,1.5805205855693205,-0.19686929542164705,-0.021181797194910815,-0.106571318053462,1.7355045194893572,0.22486358941339132,0.0,nm
1.7517452239990234,32.374713569378315,1.8540215932184005,-6.768802413769971,0.16941674538077348,-0.6191415921349636,1.4812654786607893,-0.03661589406273867,-0.004214285869218635,-0.1196079798873987,1.6143685338233673,0.12515811102819333,0.0,nm
1.7538738250732422,33.0295851445214,2.023983251188857,-7.220617948867732,0.12213535120252322,-0.651035208894164,1.496669399190787,0.14037845017616635,0.010211571512591153,-0.1055898033231538,1.636698865921078,0.17595338028137306,0.0,nm
1.7564630508422852,34.364854530385976,2.332692128242476,-7.486834586118958,0.09075836688577149,-0.5700435863614903,1.2275730248406336,0.27900522495581537,0.019730456589448893,-0.07434068302447207,1.3565110772964684,0.2894127564956636,0.0,nm
1.7794392108917236,38.218813589471345,3.0728090294870345,-7.4911982229360055,0.07301617547862058,-0.4079670455470689,0.6789968808042518,0.42645711026188365,0.014455543025051271,-0.01771775611652725,0.7954905632852173,0.4270697232289714,0.0,nm
1.7852771282196045,40.2881085438152,3.538146879726995,-7.340130629006201,0.10152251182403942,-0.29338620687941647,0.49895468189517267,0.4282556080437986,0.03280891057273707,-0.005269731023537737,0.5876547127176527,0.4295428505969969,0.0,nm
1.8062546253204346,43.876318492274,4.720629265506644,-7.336902979256038,0.16817719390537067,0.08973320281237604,-0.24879504879952744,0.37064885035897366,0.06913147091799732,-0.058571055822463323,0.31342398208179745,0.3815629687533538,0.0,nm
1.8117027282714844,45.562533561942544,5.253574987867444,-7.67183851670146,0.17812779747504676,0.21802185227945955,-0.4575874320986656,0.3531482681195929,0.05671595908386997,-0.10870912853752157,0.537260922010273,0.3738289367050904,0.0,nm
1.836211919784546,48.4904497421208,6.001255305090256,-8.588740039558362,-0.10092705466168189,0.38853739770808615,-0.8632458471191055,0.2975831950657816,0.015585955150072304,-0.1413766956571059,0.9520194180524028,0.3298273033853035,0.0,nm
1.8404321670532227,49.77378384661881,6.201781816035171,-8.905361346121293,-0.34035955262640744,0.4738019120078689,-0.957141513370025,0.26414874548011164,-0.003458319174201003,-0.11313434115960982,1.1209160332079395,0.28737762414608137,0.0,nm
1.849804162979126,50.78384839004068,6.342504995080414,-8.938510096373065,-0.5698071539609848,0.572052024923777,-1.0750745859504005,0.2084654097936984,-0.007379652146543312,-0.05694921081138981,1.344510720403871,0.2162301989970381,0.0,nm
1.875312089920044,51.724867142526875,6.655769011266169,-8.104872102878456,-0.7102994923011414,0.6895671815077378,-1.1567892496313978,0.05851255444854654,0.02429333007996991,0.08314246621605233,1.5225602236491524,0.10453016121175694,0.0,nm
1.8803331851959229,51.50548532533394,6.876109553640644,-7.341645871073435,-0.559540705114182,0.6644682106750807,-1.1726087613529392,-0.03184309535174512,0.04577410702020591,0.14029543530331745,1.4593200851352295,0.15097039697246917,0.0,nm
1.9134902954101562,48.47662777857483,7.221834065412809,-4.662595089881198,0.1101022777012829,0.3621423022100878,-0.9683366032117444,-0.25604868393679375,0.00781569761085813,0.17803724647323735,1.0396852099191813,0.3119603737763512,0.0,nm
1.928035020828247,47.05685787041373,6.9347609022795,-4.001870706936053,0.27547141203894204,0.054969668839283725,-0.6620798272731968,-0.28003629342722514,-0.04061996598007464,0.13981372790507712,0.7192050201612439,0.3156234873760131,0.0,nm
1.940412998199463,44.12155058485559,6.03350112371165,-3.3163932802514005,0.2691407102799277,-0.6793477791713157,0.30488402601106684,-0.2951479060219659,-0.08638744812659156,0.05191519891083678,0.7917729449227852,0.311881813353917,0.0,nm
1.9448285102844238,42.57399454506366,5.47123445883252,-3.3884882557085008,0.22745544656506345,-1.1522541254102794,1.0576180208725179,-0.308380329791354,-0.09987544511584841,-0.008307786092508816,1.5805003725945217,0.3242569222839691,0.0,nm
1.9819285869598389,40.95319634587899,5.000156357390277,-3.6009946195009572,0.15814195324421154,-1.215168403753863,1.3707986162373933,-0.32227452033380716,-0.08037747714830941,-0.04157943167400773,1.8386766907577738,0.3347390841049876,0.0,nm
1.9844944477081299,38.28500086463242,4.6078248848676395,-4.19488757290601,0.12735099634426628,-1.0832780707367848,1.6893472152064528,-0.2321836079700719,-0.01140805591792066,-0.05171363476950976,2.010871370410073,0.23814632386602297,0.0,nm
1.986572027206421,37.574568556774445,4.655349617771158,-4.337316482724148,0.26543955147980963,-0.8993020973034912,1.5430037770491267,-0.13467941351644466,0.013640498622502453,-0.028508220186333488,1.805564475085875,0.13833772531741464,0.0,nm
2.0021142959594727,37.4731889626937,4.783117785926644,-4.246587352146066,0.3943578089793933,-0.5898773725793122,1.2340076053657738,0.0,0.0,0.0,1.4234634404454058,0.0,0.0,nm
2.048543930053711,40.06233944700823,4.3363053107424685,-3.6653253201512515,0.30662668513842284,0.15476001024442487,0.44562564400763693,0.2541159206197042,-0.08118805591982131,-0.010881444349797485,0.562630251059302,0.2669921485129808,0.0,nm
2.0521657466888428,45.25893556628702,3.852685070454544,-4.685132660982219,-0.2148091890377288,0.455580371264848,-0.30893070995374083,0.3790544531693708,-0.03562594341599862,-0.16663177050960665,0.5908761680160961,0.41559311021114975,0.0,nm
2.068319797515869,47.20360459316104,4.041923359407842,-5.289481208992497,-0.3646873907282368,0.5217319014584328,-0.5821156252380625,0.3965118028690153,-0.00043238728960103457,-0.17319339558420543,0.8625889351840202,0.43268666381943427,0.0,nm
2.122436761856079,49.14970470672867,4.330268336537779,-5.78456495252518,-0.4829526152694877,0.5854747830047866,-0.7830615233165377,0.39853609126411677,0.01587902413458516,-0.15068070374874637,1.0905087342286426,0.4263658451726224,0.0,nm
2.1292293071746826,55.00940102474036,5.001518760876616,-4.279249782443784,-0.360156187607343,0.9031928345948232,-1.34034214204516,0.024798206107333475,-0.0036194564023874156,0.06712262634295156,1.6558945720297218,0.07164843653539182,0.0,nm
2.1441562175750732,54.71571552081262,4.917601053089761,-3.9795625843341735,-0.24087351484136646,0.7084677475811935,-1.3246797075378898,-0.053491115311545004,-0.015440174859451813,0.04035469520623684,1.52142135093388,0.06876190691183402,0.0,nm
2.1889967918395996,46.485025054101094,2.049550827634583,-2.143822153626673,-0.1343650015724709,-1.4642086198476771,0.8308155054232188,-0.5431506807489666,-0.10914405092102482,0.13907814964337123,1.688850271674623,0.5711985797931758,0.0,nm
2.1934914588928223,43.098359269003524,1.8552453420425725,-1.3813440159064296,0.011949895870255023,-1.6353770398855234,1.5859090393362216,-0.6718035402106434,-0.02301202709269025,0.16412647289037538,2.2780931376140843,0.6919443974293769,0.0,nm
2.20764422416687,39.3430813549065,2.1442610760656895,-0.9221173551573753,0.23462411953050524,-1.389812644420238,1.8454312560507367,-0.7433367166829576,0.06789086514976302,0.1251149918615667,2.322120622376202,0.7568437124851489,0.0,nm
2.213064670562744,35.873780849586765,2.7329317141345935,-1.0075076994239252,0.5343653192394582,-1.0221157199259923,1.8232600129823107,-0.6851316975232584,0.12413606541364382,0.03312084883209457,2.1574392029130216,0.6970740249893411,0.0,nm
2.2250301837921143,33.141309239766606,3.4741584620347297,-1.5185712131771762,0.7714773623278034,-0.7768720333265287,1.8024937454732743,-0.5362149500359209,0.15430687942624577,-0.049519256427140494,2.108954996964002,0.5601689409788693,0.0,nm
2.2443079948425293,30.72313633558643,4.569437794119784,-2.788491336445076,0.7269290095860502,-0.2809069646402833,1.413286587574257,-0.12262909086943716,0.07738833094326177,-0.09462039810938672,1.6139124779177034,0.17314695328543125,0.0,nm
2.2563178539276123,30.88305417589259,4.621685523263074,-3.020827797882161,0.5419625475015712,-0.10301585745347842,1.1709823487551205,0.03859734462376769,0.0013384213035280614,-0.059804784509474095,1.2944247103935118,0.07119100107328355,0.0,nm
2.259657859802246,31.85925435476796,4.474740676650283,-3.0155790249340546,0.28065797669060305,0.02547915310828446,0.9063439674152173,0.19925488215770687,-0.047094654279663827,-0.009439201562780199,0.94914565499355,0.2049622234743405,0.0,nm
2.2677066326141357,33.543574907264336,4.265051065681962,-2.8322443700849935,0.05840921675298484,0.09266106069797664,0.720856642964941,0.33999795608691946,-0.0662933259930087,0.014835518109153298,0.7291309954171854,0.346718196540166,0.0,nm
2.2964425086975098,37.91306757886805,4.189596994346008,-2.850533112419593,-0.11632345815284041,0.059754763484449885,0.19526181834435702,0.4661593479582433,-0.0158442037404777,-0.06363669666842865,0.23500841767660757,0.47074962097052603,0.0,nm
2.298748016357422,40.07618420194377,4.515161862537029,-3.2524432630171014,-0.08588702812314791,0.03409971648786147,-0.027855817361775666,0.44100750098209357,0.03629505436138734,-0.12507756838181913,0.0965158993392878,0.4598362154135709,0.0,nm
2.3075673580169678,41.91323752070671,5.0226295603274975,-3.876614991835389,-0.033766464713598475,-0.0058679791610324415,-0.3788115560309009,0.37827555004354624,0.0731128072419732,-0.1675357459549251,0.3803587810229197,0.42012629115091404,0.0,nm
2.3452796936035156,44.72604712921891,5.9810547817368445,-5.033204135081101,-0.06856796203567471,0.09313229205555525,-0.7299264147211301,0.2552715586474233,0.0581288204869893,-0.13789051622819581,0.7390316367713159,0.2958991769018154,0.0,nm
2.3480637073516846,46.16089524721884,6.122255108901208,-5.29732773444099,-0.3400571165423149,0.47393749802652674,-0.9685711706539872,0.12252254123361346,-0.023153229761549276,-0.02445287557262795,1.1306572014402743,0.12706607841003054,0.0,nm
2.366793155670166,46.46024934939252,6.021624883616538,-5.009985522895738,-0.5060692664944567,0.6919308636495266,-1.0026914845211756,0.06332908625945304,-0.030073392888820525,0.027314480201726127,1.3191909019138572,0.07524003558607008,0.0,nm
2.37178897857666,46.51543998828318,6.011518820027058,-4.63105825951304,-0.6320979305972999,0.8916387549654606,-1.0570206211126756,0.01657161551337627,-0.007556356395763194,0.05451019299480828,1.5204802059478353,0.05747241166885387,0.0,nm
2.3740901947021484,46.39729183046944,6.185779498693566,-4.299150628213178,-0.6596311415798647,1.013068057127024,-1.0581651574276985,-0.01496271172542892,0.03202023167311876,0.05656792159928567,1.6065906858024122,0.06670163215875168,0.0,nm
2.408155679702759,44.93162601071349,7.296221048751411,-3.59671113947673,-0.29028214726233065,0.8623030606072063,-1.1206686531057946,-0.12212610458738539,0.063310597364566,0.04615541850807332,1.4435125643394104,0.14509769060189273,0.0,nm
2.426236391067505,44.07550944126447,7.283865716645048,-3.2941052339501806,-0.14059595880203077,0.6003871300997606,-1.0404991648044346,-0.16429481419441874,0.0027864956977626675,0.07001228947429193,1.2094918112908475,0.17861206904037666,0.0,nm
2.428225517272949,43.100756390752416,6.887308243341581,-2.8121712566700565,-0.054118305730902594,0.2638746874669568,-0.8204809487731013,-0.19193948516541087,-0.07410019450918015,0.10839117322755537,0.863566806333231,0.2325516098106122,0.0,nm
2.431781768798828,42.004461853548854,6.140655411352805,-2.1690153800568623,-0.0024674777271556907,-0.13490582036996304,-0.4739757082261893,-0.21847481292060478,-0.14517922069837866,0.1416950999128632,0.49280690011864126,0.29813713512844736,0.0,nm
2.453535556793213,39.491348815022604,4.3506920831637705,-0.7824157080987939,0.10178631230740033,-1.054268861184829,0.7550089398772093,-0.25948708676734483,-0.1728810160815207,0.14369162191045917,1.3007235618422552,0.3433200782471671,0.0,nm
2.460728645324707,37.87864896370728,3.773702125682295,-0.35565652892649935,0.1914064508129626,-1.2928589795000762,1.3113741803680725,-0.31666291630944327,-0.11823498609107416,0.09697218631692225,1.8514380927330052,0.35165113311440055,0.0,nm
2.4688382148742676,36.050034794369296,3.5343598737272908,-0.39680502874956247,0.31516023465951964,-1.3009199076325606,1.5051084349682236,-0.3591156810739073,-0.051591941896591706,0.016071532963054327,2.014216964628649,0.3631584985011643,0.0,nm
2.494783401489258,33.26965614137415,3.5817923798490416,-1.738939378974754,0.5258632330172622,-1.1170138212743517,1.5954626747819418,-0.22444442632938053,0.011824291613522693,-0.14980728312707975,2.017362923070523,0.27010615776098734,0.0,nm
2.5193145275115967,32.59391153330322,3.6344094465190584,-3.2926665484388233,0.3777129248643654,-0.7096895222358539,1.374848569201522,-0.014217562172862774,-0.00838032624846409,-0.12971624836069987,1.5926502628689139,0.13076189823853387,0.0,nm
2.5215842723846436,32.815298195481304,3.5007606860701777,-3.6619917417229724,0.2312918824015165,-0.41735545613453157,1.0186607382206267,0.04884508866630034,-0.036660030320314486,-0.07477526249183136,1.1248783095172084,0.0965460532110319,0.0,nm
2.5374648571014404,33.51085318888302,3.31409854057901,-3.74150670877552,0.100631086766054,-0.1592389451110463,0.7443926497554282,0.14267427666734817,-0.05345009739111076,-0.025482589147723663,0.7678568058392811,0.15447402527072931,0.0,nm
2.542553663253784,34.63855379093827,3.2062499236968405,-3.695424296323682,-0.002703145493644253,0.06136442521048783,0.5561257916373847,0.22996712158487712,-0.04315778170754631,-0.005632608714541731,0.5595076369463434,0.23404956187286702,0.0,nm
2.548125743865967,35.97024587674811,3.246621890346719,-3.739398578979213,-0.052013629690440495,0.20547229546965445,0.2912764595373432,0.27260905870624774,-0.015907507043223114,-0.029933520294443513,0.3602308395456347,0.27470850606825864,0.0,nm
2.566934823989868,38.8825577572639,3.8643682628902245,-4.559044504861356,0.01255953574068333,0.2905842419527726,-0.15659433993343555,0.3021332259208057,0.05228855155920637,-0.1338423563576779,0.33033124422082355,0.33456293157618056,0.0,nm
2.5749850273132324,40.280765339872204,4.362904584030841,-5.1956562033412945,0.00038128921926923925,0.32943678038112756,-0.3860446470763434,0.2927988522610776,0.0697405254502245,-0.159307826091729,0.5075029134750366,0.3405493976349838,0.0,nm
2.609281063079834,42.823287713490075,5.093941378301029,-6.179760829594654,-0.16594272727622522,0.3798225165934597,-0.7128335425233814,0.25105381927479065,0.02709187751413833,-0.11074820273538621,0.8245809797671142,0.2757302203401334,0.0,nm
2.611903429031372,43.90854403583927,5.219788578597152,-6.261817974969301,-0.3132612187033166,0.48215213901581433,-0.8328259544976306,0.2237011522254247,-0.003747370786771818,-0.04809190016209794,1.0120288270528177,0.22884291371156193,0.0,nm
2.628162145614624,45.56421578729094,5.259406124239493,-5.680078502289803,-0.5513481805009227,0.7455958828139133,-0.9982781338115084,0.14945399868088477,-0.015215884563044695,0.05059833550788312,1.3625187224610622,0.15851880778289407,0.0,nm
2.6303067207336426,46.04949993778216,5.410832806549561,-5.236191871010139,-0.5895573072762317,0.8494170065528032,-1.064254141573503,0.10507342997309281,0.01620486577813516,0.06755535554999566,1.4838207261796417,0.1259632860189196,0.0,nm
2.660390853881836,46.13754634100492,6.205104945958608,-4.515627986628726,-0.4755135925094562,0.8742026574088292,-1.1647243852763358,-0.009192336124036457,0.08931318639658992,0.053190839476273157,1.5319681316983216,0.1043580840755518,0.0,nm
2.662743330001831,45.70482928437822,6.672022528891104,-4.259461558470111,-0.3564676012599623,0.7562106961638927,-1.1424341078037956,-0.07303667834252071,0.09508974952279604,0.048586628353774024,1.4156551339977421,0.12937185668608409,0.0,nm
2.6677846908569336,44.94521349078635,6.979656630514201,-3.9919127611339724,-0.23434101995440665,0.5779274657778717,-1.083972320067608,-0.14060201947036935,0.06745851087485077,0.05926235667708235,1.2505646164858724,0.16682807164119656,0.0,nm
2.6911258697509766,42.572788018786724,6.677927606524132,-3.110842856842539,0.005884591668356573,0.0476940020838628,-0.680605393454537,-0.2600469485788336,-0.0530392676617097,0.12340296086932456,0.6822998225511157,0.292687324854646,0.0,nm
2.697437047958374,41.02495626913235,6.079372729135777,-2.4464272119829715,0.093526018474507,-0.3053627284932868,-0.27478756525445996,-0.3075706798393182,-0.11028164471501362,0.15556752243658387,0.4213095276670499,0.3618881295302816,0.0,nm
2.719774007797241,37.3421065584654,4.588566844232841,-1.14725772961797,0.23047564445734073,-0.9751848654977548,0.9154285895714473,-0.38505226058092484,-0.14181411685932382,0.14152386859429095,1.3572450210587144,0.4340570152652351,0.0,nm
2.726552963256836,35.245558017870415,4.085227341696498,-0.8942283482503914,0.28186798191858836,-1.082770862265891,1.3636176394906436,-0.4139312871718267,-0.09953677706821956,0.0842283382705915,1.763886437992229,0.43398282622320306,0.0,nm
2.751481533050537,31.691062355416936,3.711983863033962,-1.7498052826192634,0.4817695564156169,-1.021477640262036,1.600053402356113,-0.3012267937466401,-0.02399236225652919,-0.11040608849441637,1.9584916046375003,0.32171838476246006,0.0,nm
2.769148826599121,30.431516316057476,3.375935669867739,-3.7728057401874127,0.5033501972519374,-0.7496832192588986,1.385029494448793,-0.06826618696302236,-0.04671755055038491,-0.19990917128711108,1.6533883545026646,0.21634804962512977,0.0,nm
2.771315813064575,30.447973958876393,2.9718968201118474,-4.673593596599589,0.331996506283363,-0.5341979301298825,1.1477670816178391,0.003533737252968217,-0.0887365502554435,-0.17578452748010726,1.3088003600186475,0.19694380607578002,0.0,nm
2.799440860748291,31.475702761827982,1.9818320259545457,-5.651901901287352,-0.08355324189357777,-0.11963171714351177,0.6485089586424424,0.13682260315109507,-0.11317827019802099,-0.0733397371521919,0.6647230712237518,0.19211575318960933,0.0,nm
2.8015713691711426,32.3694250633575,1.7082889964622856,-5.849041080960658,-0.2123603948846754,0.059623596266268473,0.43771558646857234,0.17883344800668471,-0.0800933734503216,-0.04499252458897974,0.49014981912148503,0.20104894395520267,0.0,nm
2.8195862770080566,33.33580998537409,1.6457636880194275,-6.056816253586995,-0.18735555228394737,0.19580410977403412,0.164542319145512,0.19746626221590063,-0.04000197235836415,-0.051411961037843824,0.31704183819459614,0.2079333360571001,0.0,nm
2.8238275051116943,34.31339692991197,1.8075188206123556,-6.366878054692873,-0.072755589275091,0.26351850833156054,-0.00937556366035531,0.20435917316620633,0.003700584845138393,-0.07362103618963065,0.27353844555748624,0.21724737732595642,0.0,nm
2.878204822540283,36.93247996495491,2.494717855289746,-7.7187406214638115,0.024599958048055048,0.3733353526132487,-0.5913831671639568,0.17757846112368814,-0.00801215722317699,-0.1083546295151387,0.6997988952918526,0.20818028306203518,0.0,nm
2.880702495574951,37.70965092232434,2.4322127231238526,-8.015355137140132,-0.11474514251786826,0.4645524764621916,-0.7789303144704988,0.15837139590864657,-0.040501677824953876,-0.07731585587362602,0.9141706000083961,0.1808303805176579,0.0,nm
2.883563280105591,38.41709750893235,2.2257734251725974,-8.052778498344178,-0.2835325155622204,0.5700926810035132,-0.8856633852103963,0.14052824769900993,-0.06733870812511589,-0.036601886491377626,1.0907776969745728,0.1600699475480689,0.0,nm
2.886315107345581,39.39263716536264,1.7746926918216273,-7.58944033311823,-0.5059772455980784,0.7325981515789592,-1.0387915661382492,0.08306404742281318,-0.05499972605960316,0.03095527619368528,1.368137764495916,0.10432082709180408,0.0,nm
2.9020190238952637,39.6458316165974,1.7314255986892317,-7.2461749013428625,-0.5244559040683257,0.7563404847392281,-1.0493717790149033,0.0554645022277383,-0.021469875307615443,0.04456175792937478,1.3958101786276667,0.07431700224613165,0.0,nm
2.91076922416687,39.701969053147444,1.8283258253834156,-6.937018732052843,-0.46028530226253517,0.7399757341278347,-1.0672462217258287,0.0,0.0,0.0,1.37783930280893,0.0,0.0,nm
2.9337973594665527,39.135991786761835,2.1638869742401696,-6.395862423087548,-0.21913453701800273,0.5686766083479357,-1.0217165156187513,-0.07140179926680874,0.03395088706789427,0.047370206760428094,1.1896712438671146,0.09216732696438727,0.0,nm
2.943188428878784,38.48795235591102,2.1633224535742537,-6.070116573501016,-0.11144477444804121,0.36884640930301227,-0.9007581281823956,-0.12259391886660076,0.007529749873409498,0.05887244123477942,0.9797105781271085,0.13620547130409028,0.0,nm
2.9454867839813232,37.645741568821535,1.9402354913621016,-5.668510841246181,-0.014296655097889048,0.08518590993522841,-0.66833455824435,-0.16582919192582424,-0.03376462003868362,0.07532628050900232,0.673893252186243,0.18523881611705856,0.0,nm
2.9539599418640137,36.65626369618137,1.5327846151274975,-5.180185241635951,-0.03389514656138134,-0.3060105240505949,-0.22899542935220238,-0.19836250730808166,-0.06920646562182152,0.09282116759345245,0.38370591402053833,0.2296801870924545,0.0,nm
2.979543685913086,35.536363004522585,1.0517784202888925,-4.643516275783072,-0.0549169377533238,-0.7673395020013292,0.4022004098167584,-0.22497638039311418,-0.08362817839205772,0.10173942861862599,0.8680961646272946,0.260689384692982,0.0,nm
2.996549129486084,32.85595055624073,0.4404739457454793,-3.8682076313362614,0.015465394314036795,-1.3994109872577978,1.6701196330191759,-0.2810420377435205,-0.027874858538117973,0.061546405125665775,2.178965322871211,0.28904946756817085,0.0,nm
2.998774766921997,31.300366341093273,0.5095097253705612,-3.8837785556044997,0.1562852092627215,-1.3791499091110173,1.7941656536659811,-0.3030271020607085,0.02761444092680397,0.012435014833133005,2.2683716475105875,0.30453671621811257,0.0,nm
3.002197265625,29.976957671811512,0.8079085449716028,-4.161687554790376,0.315757571782049,-1.2426024180752084,1.787279432877133,-0.25338470975651073,0.07065353015779764,-0.03892510356015148,2.199575273713009,0.2659152048103277,0.0,nm
3.035667657852173,28.9791876951932,1.9641474029522872,-5.743964021486442,0.3987859265655624,-0.409739113705618,1.1437393255698325,0.05298885976568969,0.049896783312761435,-0.09705960393948986,1.2786930833401557,0.12131807351388016,0.0,nm
3.037801504135132,29.57749494471871,2.1018393634156936,-6.219357859739017,0.27310624860366417,-0.13870392800350462,0.7526593516288489,0.12818040153016147,0.00674929507637279,-0.0933621343664813,0.8126019334608594,0.15872068691234387,0.0,nm
3.0557868480682373,30.70675396908016,2.1450246607774015,-6.592054951898301,0.119156822562942,0.0822216163036609,0.4607125897897668,0.23170840970707593,-0.024674034240828143,-0.08300302693759128,0.48292321640368135,0.24736025868255843,0.0,nm
3.0644752979278564,32.22562681110311,2.2187387865111434,-6.857723194621765,-0.03769613381535803,0.2252645043517569,0.3142084874794558,0.3097374306223677,-0.028641560467126178,-0.07537318922800272,0.38844828359718026,0.3200605139171941,0.0,nm
3.082789659500122,35.54756533297211,2.741365946187237,-7.437714597455143,-0.15730621333890188,0.32202892560448954,-0.13403146693859397,0.35082048800087506,0.016878209159978168,-0.08733983396264422,0.38263861254546355,0.36192283064521136,0.0,nm
3.097912311553955,38.72498681922247,3.771559674701913,-8.000033572732601,-0.10861600159327744,0.3188691243465646,-0.5639070743323725,0.3273731674917641,0.05819513075265127,-0.08235900011224691,0.6568608244870078,0.34255345413000565,0.0,nm
3.1148486137390137,40.17604749615442,4.230352835180973,-8.173521965881983,-0.1037183283860696,0.3286114486793713,-0.6912694142363763,0.30566637871383545,0.04388550810278644,-0.06671866269018557,0.7723965166318777,0.31592602432948824,0.0,nm
3.1170856952667236,41.41755681194682,4.541795221725818,-8.218690095326327,-0.1548560963834349,0.3943627637756384,-0.8446843940518111,0.2599535025697015,0.020342649810937082,-0.03990224503466882,0.9449836641945462,0.2637836917976412,0.0,nm
3.1257505416870117,42.42050732932933,4.7023468019734125,-8.126242841916328,-0.262065101569502,0.5050012586033034,-0.9594082711883788,0.2084267071707894,-0.0024669769396770433,-0.009611641547639212,1.1154230674843637,0.2086627946964173,0.0,nm
3.153538942337036,43.50211377003798,4.865983659634169,-7.599310786666048,-0.4543926125389287,0.7518054859018701,-1.0931206861890588,0.0816119097303946,0.0034914323853404206,0.033826967523719415,1.4023540813705142,0.08841356028231331,0.0,nm
3.1579298973083496,43.56121465503566,5.08609505320611,-7.2435590671836545,-0.487152889214826,0.857135634737683,-1.1323914070136465,0.02307599932997369,0.036701457633218575,0.044404617072313274,1.501435890235034,0.062058591305464386,0.0,nm
3.1852123737335205,42.73944152613718,5.8200268557393295,-6.693720047373887,-0.3617789391381316,0.9041599123026884,-1.1776901770659196,-0.09691882012935803,0.08508342149613665,0.03833901514340768,1.528183006376093,0.13454488615671184,0.0,nm
3.1957874298095703,40.83375034872346,6.250386412092004,-6.179847670259005,-0.13216884176520854,0.5753034320173745,-0.9995205638235766,-0.20383854236549379,0.04102935858408908,0.06120794854009455,1.1608117845416315,0.21674863917450055,0.0,nm
3.2134482860565186,39.5317574325322,6.098376080522244,-5.727975848611104,-0.05547011091997156,0.294095142166075,-0.7913242953398867,-0.25539238670807024,-0.009627180246384934,0.09609640632479038,0.846027792833265,0.2730429876346948,0.0,nm
3.21581768989563,38.030998570246076,5.690132508795418,-5.112916998380628,0.04212985945315142,-0.0720433262709146,-0.4532381959289967,-0.29960712654079336,-0.059554262234897556,0.1382035870243543,0.46085792622747784,0.335278051609067,0.0,nm
3.2180724143981934,36.408422510791056,5.1316275504900695,-4.346930978087185,0.10073053148625306,-0.5588020359643268,0.16144838104521947,-0.3257046254161564,-0.09137388214450244,0.17266920798869387,0.5903151150982855,0.37979908470542556,0.0,nm
3.244098663330078,32.92786797583059,4.204274316289937,-2.8753030031947606,0.1539543557154722,-1.2808420995081737,1.5626583418033293,-0.3533530474487923,-0.06250478346248269,0.1485798630757858,2.0263660875379363,0.388382800608703,0.0,nm
3.2536518573760986,31.00448731428025,4.132040222536658,-2.5425191850635422,0.2518078887617415,-1.2887546757051649,1.7730286937301976,-0.37810634951492417,-0.003697742880350801,0.08398370827003071,2.2063378199598493,0.3873388027304995,0.0,nm
3.2712504863739014,27.92287817458492,4.62927930280738,-3.2325391729412414,0.5178865224729534,-0.9698456996048533,1.7314428033516513,-0.25719431099298057,0.0653792219126427,-0.07702043928019432,2.0510244543835605,0.27632499766031066,0.0,nm
3.2792210578918457,26.9399007987859,4.864035847236359,-3.907638400291059,0.5208288663337326,-0.7688870173934155,1.5633178853362941,-0.18686576548665268,0.05086134448614861,-0.12914241103408633,1.818354411036244,0.23277339410153441,0.0,nm
3.285247325897217,26.59803766591898,4.926366788528467,-4.634556420178175,0.41347577554960846,-0.5406322660605576,1.1879368915031394,-0.061196097794273034,0.009115136052710537,-0.14992719141246302,1.3691017209346665,0.1621918950358956,0.0,nm
3.299316883087158,27.06821635741574,4.856350226734373,-5.200810786490443,0.26754911769406775,-0.33957500748846586,0.9992615920975759,0.09810946940517674,-0.030404539083882087,-0.13167238046984803,1.0887687750532928,0.16699556809228513,0.0,nm
3.3039565086364746,28.17267887840765,4.7493368206381374,-5.5163355796654,0.08889780406641053,-0.1109482908894092,0.6852236475631294,0.22325836480698225,-0.05020570410964158,-0.08635675175120712,0.6998169689274694,0.2445861785842611,0.0,nm
3.313422918319702,29.70662135076609,4.629651518312996,-5.577601624739532,-0.028689418171167574,0.05795730880731866,0.521275632091517,0.30826607784192334,-0.06141759416889922,-0.04793828212061132,0.5252717553529769,0.3179593912974008,0.0,nm
3.3458449840545654,33.405060251656245,4.580800212938747,-5.646492446073,-0.07461841795479222,0.23490478453243918,0.011597151282034443,0.39383013195905237,-0.040370823560635545,-0.05843990703957862,0.24674411849559075,0.4001839564108526,0.0,nm
3.347961902618408,35.311194409200034,4.7349024122965,-5.876124079866073,-0.026043454274683287,0.25149251560951713,-0.21989448906390976,0.38748744799950524,-0.014286700150439653,-0.09979826896603196,0.3350825767461488,0.40038772039983234,0.0,nm
3.3514492511749268,37.04758938112915,4.999342530418452,-6.273761511709855,-0.012866348154927664,0.2677585773873456,-0.4806939592828978,0.35588658777935706,0.00953792054776533,-0.13713454113471774,0.5503879369775533,0.3815129324961856,0.0,nm
3.365870475769043,38.5943155244296,5.309820074025995,-6.752452874740265,-0.06339669630328769,0.3036154148258441,-0.7145072011491448,0.3191981490496317,0.020545345355484433,-0.15125686813067665,0.7789236173823625,0.35381945922912145,0.0,nm
3.3885204792022705,41.06597831572998,5.671065725682775,-7.435989997600229,-0.3656562808191542,0.4658611023492188,-1.0116991522164298,0.22967536748625117,-0.01207971077030077,-0.10152711594517932,1.172291029130552,0.2514049504571947,0.0,nm
3.4058916568756104,42.32046292856442,5.614360465796826,-7.214559113998624,-0.5307303034542055,0.7328019866483172,-1.1747029972971452,0.0965573756080023,-0.027845042384825217,0.015891827141688672,1.4827678639959831,0.10174096195544283,0.0,nm
3.4228909015655518,42.380960089127846,5.614357887716725,-6.246605939460636,-0.38702747503756263,0.9513789319085827,-1.2358153699571637,-0.01589646276910832,0.0027417694647614353,0.073176884442172,1.6069075166716436,0.0749337790654558,0.0,nm
3.4309380054473877,42.01622658444178,5.673843898626721,-5.847487617886667,-0.25814493123217336,0.9657304207210949,-1.2386740623788075,-0.06533970691229711,0.013802570854683395,0.059315634503558146,1.5917246884549552,0.08932039385349318,0.0,nm
3.45648455619812,40.59859545917633,5.52758540374551,-5.607763211369039,-0.10679699959079732,0.5845324853272206,-1.0322037250397489,-0.15791483111132348,-0.020476909250495497,0.003925010331258224,1.1910198804009728,0.1592852893504963,0.0,nm
3.4765233993530273,39.62411611924748,5.14301937885139,-5.593070348856143,-0.11842304290237424,0.18020562439184182,-0.7574784591216522,-0.19505811274545334,-0.06391814170564027,-0.002453616093382535,0.787573298294212,0.20527838760778983,0.0,nm
3.478712558746338,37.32102211596089,3.8890600915928553,-5.01562562897878,-0.13887842600617803,-0.7780612091664603,0.15969528466998362,-0.24540497796147023,-0.11771229034481955,0.07935264155769818,0.806330606119695,0.28350772163854254,0.0,nm
3.4949376583099365,35.9161053994225,3.310696251145905,-4.331855107235035,-0.0382224607538832,-1.219190301069223,0.9330827307719706,-0.28300638659843586,-0.0993406325996963,0.13762339673363666,1.5357504124017751,0.3300020840378362,0.0,nm
3.4977352619171143,34.049350408283765,2.9978652806898616,-3.527546831988359,0.15802418286765788,-1.4108931158555738,1.4528765286343497,-0.370284798744429,-0.043876652800762195,0.17076737078584245,2.0313643775049908,0.41011887028922517,0.0,nm
3.5050108432769775,31.96314471292761,2.9606537938835125,-2.828291416497316,0.4292333865998587,-1.4445225055561344,1.6470124233387877,-0.41050708954659954,0.008428018589217719,0.15110975454364184,2.232383589767328,0.4375171539306771,0.0,nm
3.5296525955200195,28.944328730077174,3.002893055814427,-2.768253667093865,0.7810822788125785,-1.04537010486592,1.7787370419395239,-0.2513427370974974,0.0024934198162861816,-0.02448839972600599,2.206081060793144,0.2525451847792442,0.0,nm
3.5441033840179443,27.904210154420696,2.4501015611666164,-4.265002340821449,0.281304517311259,-0.4748912582995156,1.3869324987256568,-0.04780864765068491,-0.079446614903152,-0.18453917007307,1.492727602307404,0.2065239373559746,0.0,nm
3.560854434967041,29.486178818406522,1.7730898105048665,-6.012653053813582,-0.43613161953965424,0.0612178258037857,0.7818056624412307,0.2368183839973414,-0.08375906730521969,-0.1778564296092142,0.897317394004817,0.30778472656759615,0.0,nm
3.5897724628448486,33.39666840880988,2.0192124425380706,-6.927645434587856,-0.5076416404962381,0.33402381908726464,0.23202363701653295,0.4461802778201101,-0.0072703933440089324,-0.09460567695508568,0.6504666901677082,0.4561577940221314,0.0,nm
3.591890573501587,35.94673378169909,2.4667986275359874,-7.1513331191357326,-0.32228883896681865,0.3738832267655144,0.03740115015833409,0.5235665904203873,0.01936167659935127,-0.0758390901250855,0.4950329373004783,0.5293849419053854,0.0,nm
3.6009202003479004,38.62073084869039,2.919661429686441,-7.418929083501414,-0.10516983680848777,0.4096273129629245,-0.2211955843649586,0.5481575240414842,0.015553725113882436,-0.09014060225340834,0.4772658762598738,0.5557372739908811,0.0,nm
3.624645471572876,43.42283128245368,3.472107295869817,-8.469669172277131,0.03540426914550563,0.4932400223645907,-0.620185281829331,0.45314841923228083,-0.024727178751050873,-0.16227734997393414,0.7932017181862858,0.4819635479331026,0.0,nm
3.6386306285858154,47.1268810899054,3.7855675331148047,-10.072245354177863,-0.34271912585629655,0.7383680319308776,-0.9596902338211418,0.3479272066321641,-0.030899631057641253,-0.22587351329956534,1.2584312037997387,0.41596510950396776,0.0,nm
3.65608811378479,48.34967774010011,4.097049858551874,-10.867874590169032,-0.5154818416335695,0.7371780458454186,-1.1697919698910524,0.25726904073001927,0.012177519829092381,-0.20824430077697284,1.4756579051907646,0.3312119262850035,0.0,nm
3.660266160964966,49.252412329449506,4.592476464019252,-11.381659371970768,-0.6313936414068825,0.6541276737809972,-1.11917658000418,0.2015754521929911,0.05789351971922207,-0.1447964734852399,1.4419074731913397,0.254853568321204,0.0,nm
3.7026238441467285,48.942251248859236,6.227855451464367,-10.487742764287141,-0.3719888426174843,0.42839408873986057,-1.074397872124773,-0.07411824469456335,0.10923689986981999,0.13613479254315455,1.2150012271291708,0.18962831073059733,0.0,nm
3.7055273056030273,47.95364654877131,6.5414077849844565,-9.586744237104257,-0.26979769042718277,0.38759100558612336,-1.0346388091239533,-0.1775068161488861,0.09136928225312006,0.1898905391101541,1.1373192369412102,0.2755275528187875,0.0,nm
3.72152042388916,45.26721878641343,6.804747048998433,-7.6141587970883355,-0.09004295324290809,0.016082964953640783,-0.4914225301217126,-0.2772262264265628,0.057752410345702825,0.2227005767593326,0.49986247938971184,0.3602572253382154,0.0,nm
3.748702049255371,41.52147921190442,6.9756995596934965,-5.769471270905277,0.015591969417552042,-0.5220379157014243,0.29670681690035955,-0.3882860327249649,0.052556590560471156,0.2144544342421261,0.600667653644966,0.4466754333817161,0.0,nm
3.75075626373291,39.10222851429401,7.173374026779322,-4.885102267271091,0.1875879408727879,-0.7180205982807274,0.6286070415966573,-0.4695509778612313,0.07828353390195834,0.2393271712140858,0.9725685723182751,0.5328075894466537,0.0,nm
3.7528529167175293,36.47770304079321,7.533310398713388,-3.8954025962134367,0.4051026280067454,-0.8602870633837028,0.8544346889404292,-0.5086933469450402,0.10563059531926333,0.26846882572961206,1.2783820275285689,0.5848095880560491,0.0,nm
3.7618980407714844,34.01134454318178,7.935930674657304,-2.9537031730609526,0.7627740533919491,-1.0173534718811448,1.2562284222930373,-0.4781430215422453,0.10331465694023788,0.26411208293453803,1.7874401227043821,0.5559225303405569,0.0,nm
3.784205198287964,30.330919990709212,8.489742886564365,-1.4362902261958375,1.2768413449484726,-0.9089781291350069,1.3950670987955949,-0.2971500425045977,0.03734230168146073,0.15689224274891803,2.0982795975650053,0.3380943227712333,0.0,nm
3.7935497760772705,29.436659789423985,8.16924890083071,-1.3016369165156727,1.1573497874413154,-0.7109838598916051,1.2996056154067286,-0.17294438662997305,-0.06746904308039285,0.04201728345899609,1.879875350951101,0.1903346651303307,0.0,nm
3.8000757694244385,29.231702733530213,7.279779335727421,-1.6801395030373023,0.8092673049681093,-0.5355456004688437,1.116563518271464,-0.039423600486033286,-0.18465727529584133,-0.08104704451666336,1.4793365916540533,0.20547786503624302,0.0,nm
3.824810743331909,31.10155040219089,5.035465796062067,-3.254948042272097,-0.33971827410546496,-0.19793904503402296,0.7988393143004213,0.248085843291111,-0.2403007110798462,-0.20961816230320596,0.8903553343368837,0.40401830571685066,0.0,nm
3.8285670280456543,32.997415034551665,4.143049459218894,-4.166246868768131,-0.7003994365808396,-0.08301249626581948,0.5742614881337512,0.3722558047416976,-0.21011294980007506,-0.22375161898775078,0.9095200393903538,0.48247966054251173,0.0,nm
3.859165906906128,39.79139192831986,3.958100016686389,-5.724144169318453,-0.30461730720202995,0.15817574925291578,-0.18289221580154194,0.4100789728087875,0.009725345662810077,-0.10030296261584275,0.3889226582490855,0.42227956450399845,0.0,nm
3.8695592880249023,41.4317858653249,4.264456179451448,-5.8352542036452375,0.021982598043845888,0.3351272227655399,-0.6160123562538949,0.33816618096963724,0.022349900315300923,-0.06622281295745287,0.7016157873884942,0.3453134010600966,0.0,nm
3.8884146213531494,43.73435201608176,4.290956660019403,-6.006248789082912,0.0428288230389371,0.652579463613276,-1.0687986064762591,0.19279463153900286,-0.04811492920858896,-0.05204396963694174,1.2530062751711522,0.2054102994948849,0.0,nm
3.908107042312622,44.54059451324648,3.961851727829064,-6.1957299019516645,-0.24608454544942196,0.7116724498279788,-0.97663804900889,0.15919087030508045,-0.08790470320834608,-0.06157756754629422,1.2332303751226275,0.1919915801788057,0.0,nm
3.9107353687286377,44.9949099235731,3.6093542735413244,-6.303407200263847,-0.5744201130961483,0.8417269862292851,-1.0054189046309423,0.08877224059612743,-0.08516228567092733,-0.061370539302536255,1.4315480989003866,0.13747533849908322,0.0,nm
3.9134299755096436,45.11024840712602,3.449300071838082,-6.341153069850037,-0.8148350879492808,0.9234512425321204,-1.0623606730388997,0.02558507317018392,-0.03954016338804902,-0.04377088629610556,1.626446623011986,0.06429549733086974,0.0,nm
3.9469268321990967,44.58498455004435,4.190304624187442,-6.013867255060361,-0.7808836694291463,0.9148066518726222,-1.0536800467692882,-0.0637154386216856,0.11315789698286542,0.0399771410580217,1.5990285039520886,0.13587692436728,0.0,nm
3.951166868209839,43.98268489911571,4.930863847523239,-5.593127023738886,-0.5486221687698891,0.8259077747407897,-1.034818213619747,-0.098716952852094,0.1544726645295241,0.08173027587485204,1.4331638677004888,0.20071541759873074,0.0,nm
3.9538421630859375,43.17417282723885,5.620382888771532,-5.033733333072525,-0.27792106593340044,0.6736980237145089,-0.9736074119016789,-0.14194692597247666,0.1471043286841203,0.1147894159208627,1.2161498832612196,0.23444663213212144,0.0,nm
3.9774045944213867,41.094047454254834,6.110666110361164,-3.62278949383663,0.024887526790919004,0.1986391797594919,-0.6861573548844163,-0.20961571939982782,0.021013732628091513,0.15999564723894785,0.7147648762965841,0.26453531695008536,0.0,nm
3.979743480682373,39.881408900847795,5.828372304163764,-2.8310435567866232,0.04154838303089122,-0.22031871208063952,-0.2709511942591431,-0.23838232029986667,-0.04859445352764728,0.17200983410731943,0.3516833130755699,0.2979512285170619,0.0,nm
4.0268354415893555,33.043260999005156,5.209155744225468,-0.049719859657357944,0.6777967701490822,-1.352895396166662,1.5155982804645298,-0.3708957542336663,0.03155400762254291,0.1033725180566332,2.1416751766644064,0.3863226545194737,0.0,nm
4.031813621520996,31.30540754747255,5.470866058900937,-0.0620869891317497,0.9313785758605867,-1.2234930972549118,1.4722860746932003,-0.34008941372370377,0.045667745425257165,0.019053122295232885,2.128855959509244,0.3436704435478206,0.0,nm
4.048153400421143,29.975809786001953,5.514379742927438,-0.5001060185812202,0.9736961844900909,-1.0109196608561872,1.3710488348835674,-0.25866684042950655,0.002634085459079097,-0.07292848384515455,1.9620952392867521,0.2687639047564656,0.0,nm
4.072863817214966,28.819264221638992,4.22125463928635,-2.1895113751488045,0.34731944951361216,-0.5154811190017047,1.1312285022099346,-0.06490351108708116,-0.17983001351089725,-0.18832330006786713,1.2907476547605348,0.2683597675867459,0.0,nm
4.0750744342803955,29.153389598944848,3.1451418310487846,-3.029651157628855,-0.15973762254913546,-0.24422686437440613,0.8944480519924676,0.06335098054170848,-0.22618062889045043,-0.18283530401315842,0.9408507783133968,0.29765713835629687,0.0,nm
4.077688694000244,30.151910050826903,2.1303102539557908,-3.6865609488572995,-0.5576731938892329,-0.006140257930263931,0.7284694926646292,0.19407071635288956,-0.22234307300173606,-0.15104715436687643,0.9174447643826468,0.33153450484061237,0.0,nm
4.094391822814941,31.656314676015672,1.3983415115395916,-4.161723175619459,-0.6931114567723021,0.16983428480971852,0.46161446926663935,0.2970451347087503,-0.17439105512675246,-0.11482468480988828,0.849902990959658,0.3630878136264722,0.0,nm
4.0966103076934814,33.60420094373874,1.0645537408940526,-4.512447767983608,-0.5855194387979985,0.26379152055999283,0.27540143500900166,0.39051640938351984,-0.1033708746442741,-0.08921298499662014,0.6987595651829702,0.41369984338228394,0.0,nm
4.146564245223999,39.690379958802595,1.2214704235880525,-5.912787272873071,0.28348467723889825,0.5781356526091529,-0.6643840905076698,0.36005652849823383,-0.018963855541002234,-0.1302227630583447,0.9252084169346694,0.3833514047838214,0.0,nm
4.194798231124878,43.11774796586553,0.7664266557303484,-7.802095759849637,-0.2900772432885035,0.8947683434255852,-1.228341850953127,0.16906656115219892,-0.08704950846430963,-0.14143784378654517,1.5471195487981455,0.23699321230511072,0.0,nm
4.19928240776062,43.38507785053617,1.0722937861726314,-8.151657355135416,-0.8099939564312786,0.5439806810253724,-1.0341704062751915,-0.07536339341361861,0.09599004440952157,0.07128970419908948,1.4217994302993016,0.14133630679111242,0.0,nm
4.227171182632446,39.60863256911389,2.617678044609212,-5.366840942221721,0.02932780649107709,-0.22986179644917415,-0.24402551103807155,-0.30485040657001883,0.10663806071388417,0.23481216633811952,0.3365189678722607,0.39930214103999556,0.0,nm
4.229292869567871,37.58165830860698,2.9625154981735986,-4.263724894584088,0.24682961998940237,-0.4998761342898934,0.2439538917128529,-0.3917535814575148,0.09692634184718044,0.2542751435358308,0.6085347255650795,0.4769920680145882,0.0,nm
4.2453532218933105,35.256349118245694,3.3596120856482203,-3.227531841506731,0.41607783346515304,-0.8074229726862512,0.7508546898105246,-0.45227312606235925,0.10360294418546492,0.24975392538900532,1.1784886022075127,0.5269360244368685,0.0,nm
4.251352548599243,32.99213730164986,3.901807748125808,-2.228111730188369,0.6281847720750572,-1.1215362551989636,1.3408291865566622,-0.4404657303959052,0.1230070197816844,0.21795916347477687,1.857493630437237,0.5066033788985171,0.0,nm
4.255625486373901,30.97725726122694,4.639966861166066,-1.5055243565794407,0.829581559316882,-1.254501873339371,1.7573018096733175,-0.3910146201557782,0.15358117185254602,0.16401341508983894,2.313026191821385,0.45097672872621775,0.0,nm
4.27872633934021,27.805864935363672,5.825509524326019,-1.4207446192986384,0.9174443208401832,-0.9519171479157207,1.67449636599509,-0.27408114383853927,0.09041242236535432,-0.023193219178592364,2.133492071245794,0.28953895237373417,0.0,nm
4.303211450576782,26.757849622497446,5.7663331529102555,-2.656080697723725,0.2958261714909363,-0.470792129999729,1.0783307225146117,-0.02339245804034679,-0.04571597266253203,-0.14676964612315846,1.2132417321076419,0.15549432874792546,0.0,nm
4.305311918258667,27.40178146703092,5.3597448710360505,-3.338142919055194,-0.06914348086882878,-0.2805321597528982,0.9613934012098886,0.129938668324321,-0.09617121956045603,-0.15943033020394554,1.0038707015807373,0.22704843356998183,0.0,nm
4.456208229064941,28.653363780574843,4.993480898345742,-3.846693276579355,-0.33602060840394643,-0.15275244509420186,0.6928770508999619,0.2505604021462953,-0.09682940395204347,-0.13491628612352946,0.7850616322418539,0.3005974930946486,0.0,nm
4.467118501663208,45.060367689725965,4.417507924968708,-9.884722682374543,-0.4231306334857841,0.3316568423506271,-0.8196708843757671,-0.23156935896957093,0.05129646615477316,0.157215102434998,0.9802531064808833,0.2845562930022682,0.0,nm
4.4842164516448975,43.58431640833097,4.399172711154005,-9.002785617329573,-0.21367979503875173,0.011932001289576439,-0.5010130064030079,-0.28565199345875336,0.039073274360990604,0.18735143989767342,0.544807727595303,0.34383767124615716,0.0,nm
4.486812114715576,41.80403656692946,4.435055654333526,-7.978330448438159,-0.019296352337814366,-0.28817491674172674,-0.13466073190685732,-0.34477864666280816,0.05368592367785379,0.2207727550154467,0.3186701187283438,0.41291052657069943,0.0,nm
4.494669675827026,39.68168340025382,4.545200513889227,-6.982162731757217,0.13391976711264186,-0.6078593416451343,0.37891480775650016,-0.41143312639012886,0.07107109367316604,0.23501564434187017,0.7287001542376026,0.47912490118181095,0.0,nm
4.5242228507995605,34.6710458197145,5.137299809596057,-5.4110382206025465,0.5089851443036456,-1.085642843497127,1.3683456472185944,-0.4941553568485903,0.1266383985479115,0.20247727927385775,1.8193559495108163,0.5488386368606725,0.0,nm
4.578999042510986,28.495139662932722,6.998815501122736,-5.155268198287894,1.0254849513242636,-0.8428467330299547,1.470099181919304,-0.10766152222561949,0.026951183819141147,-0.05779314278042084,1.9807073497747218,0.12512960093290798,0.0,nm
4.581528186798096,29.368640475839385,6.152109667489119,-5.923096283830904,0.2879878611624857,-0.4466690747891286,1.053405918038189,0.14381574705890712,-0.13801076235224047,-0.1047042098986531,1.179878933919832,0.2251508631954569,0.0,nm
4.58430290222168,30.757442517752065,5.545369708436023,-6.234724475194193,-0.12769930869920815,-0.25488123714779476,0.8405987740148446,0.26785372535431523,-0.15796986434876,-0.10152545676811638,0.887624840440772,0.3271200308763211,0.0,nm
4.60211968421936,32.564417664324054,5.095276167972017,-6.508287191221317,-0.4340501471391882,-0.09114061325983436,0.5731486214505113,0.35374984604710663,-0.1371192000280661,-0.09928751354036876,0.7247106207911893,0.392171695740166,0.0,nm
4.604740381240845,34.591061088984944,4.864809059896163,-6.829630617151435,-0.5346734670570596,-0.037021187865087894,0.36080117483684576,0.40192549447100023,-0.10001797305120244,-0.11074976606886501,0.6460834098546463,0.42873442679978174,0.0,nm
4.612928628921509,36.694437146595526,4.916892142606076,-7.193272845940828,-0.4487181297403035,-0.005441704851321197,0.12118534570820481,0.4234918926131795,-0.047743280591057466,-0.12014728686402049,0.4648262687539742,0.4427868273689659,0.0,nm
4.620183229446411,38.72275603405605,5.1872332307144235,-7.559302375300832,-0.32096164503025476,0.0586628716536981,-0.15600188691722455,0.4138151428186409,-0.004763177919200898,-0.12073034651177962,0.3616549444054651,0.431093350515589,0.0,nm
4.6468188762664795,42.23446122043102,5.490799918424034,-8.283525125378095,-0.11980652938791955,0.31881883881264295,-0.6434496955886324,0.32903549166504115,-0.0394378324596256,-0.11260280063676255,0.7280292351402684,0.3499986973055919,0.0,nm
4.64892840385437,43.47040465840341,5.397250561758624,-8.525945324713541,-0.195208906406672,0.4839257050731699,-0.8613563030579192,0.24653947125968165,-0.060211408163272834,-0.08412978312551082,1.0070875264785377,0.26736668635182115,0.0,nm
4.6561150550842285,44.455577157667946,5.187876095628085,-8.69563538709473,-0.3484116605319805,0.7288041202719617,-1.0231358669755282,0.19353494608599212,-0.07635939546632711,-0.06433117307732183,1.303592395349024,0.21777289193560145,0.0,nm
4.6854612827301025,45.6431472195104,4.9818648055955554,-9.011511148472836,-0.6238341681199705,1.0263779889846942,-1.1351593542090885,0.09585829263798457,-0.019313626835158106,-0.04979561772553932,1.6526365616900152,0.10973345886130297,0.0,nm
4.6878087520599365,45.88753338365507,5.2738966943565115,-9.130846220803571,-0.6953506594185018,1.0936014561605434,-1.1145053245726624,0.06290510039881636,0.04483866913496473,-0.040566501176339025,1.7092684993794924,0.08725364705082488,0.0,nm
4.694768190383911,45.83584274386203,5.794892414464271,-9.227818022193768,-0.6410554097257567,1.1043979269692614,-1.1577597886632223,0.01190205606766523,0.09942016862749946,-0.03077965597550481,1.723674722120786,0.10475407433856071,0.0,nm
4.730280876159668,45.02238936073387,7.045615540411816,-8.99091136702811,-0.3057473454247834,0.826564120500371,-1.089305235133529,-0.0775106624006323,0.13157249301510926,0.04403965099293163,1.4011693615770247,0.158929904560391,0.0,nm
4.732353687286377,44.29239711513308,7.42391149664019,-8.564307926715895,-0.1186336543057625,0.5720326347196224,-0.9983591926376193,-0.12668213402445638,0.09157777062876592,0.0867559821060382,1.1567265695237796,0.17877765963763037,0.0,nm
4.734629154205322,43.42413317345176,7.466041007805146,-8.026239911580701,0.05131950450466247,0.22650407508813256,-0.7600100553210571,-0.16427336997449263,0.02765972567732464,0.11247259879591437,0.7947031343610335,0.20099971638593947,0.0,nm
4.742887735366821,42.41726696529211,7.250687627238414,-7.4389054305560425,0.1317195388929043,-0.1717613495269424,-0.41374676020171774,-0.19874055547419758,-0.02159147645948122,0.12192518514139555,0.46694579952591236,0.23415753461645544,0.0,nm
4.771369934082031,39.89316759868989,6.73725059546283,-6.721840982340441,0.1906297341747094,-1.2033867329293546,0.9044487271729579,-0.27352591388035336,-0.017047630343554304,0.05797417423606916,1.5174013393386372,0.28012149532438074,0.0,nm
4.773892402648926,38.2630453315105,6.687193930021284,-6.898830123002428,0.3167640992971724,-1.4961938709951341,1.3832858864602275,-0.3177922995629251,0.02193304492507226,-0.014333668880747998,2.0621385593327646,0.31887059786810085,0.0,nm
4.795098543167114,34.83109022809514,6.892038947383896,-8.334536111268877,0.5455120378563825,-1.493326118551847,1.6853838628921793,-0.32189208553066545,0.059058419580061514,-0.14104865295768082,2.316921458550702,0.35636657271937294,0.0,nm
4.7994091510772705,33.52924098605248,6.881718559321286,-9.168025730480784,0.5579005278053073,-1.3124134112575765,1.6954879510245062,-0.25118380836439913,0.029744948538932923,-0.14693480602881698,2.2154821942510545,0.2925199220066097,0.0,nm
4.821333169937134,32.549411952041254,6.401565926575011,-10.04683706906207,0.1722748432911796,-0.49446453434533566,1.2104145291556303,-0.041237228266194394,-0.06464001306871824,-0.06543217283161984,1.318816564101087,0.10079786469002831,0.0,nm
4.826275110244751,33.08470799800009,6.033086794105347,-10.11892812603984,-0.07175527574555893,-0.1144519149366628,0.9545186267537115,0.09699919583245706,-0.09907479109836906,-0.03716269144634301,0.9640300147037858,0.14354693956634856,0.0,nm
4.851531028747559,36.31506892224179,5.712625019310948,-10.105564316024848,-0.31713109235798786,0.38987686318852655,0.3695192305294649,0.38761394564771995,-0.08923300530770856,-0.06303342693406246,0.6237952868698059,0.40271616929034637,0.0,nm
4.881533145904541,40.81345916594272,6.192669368995698,-10.619694578566754,-0.10853238526992928,0.5006578832219964,-0.15792073831001135,0.4390005738973799,-0.013934827464040156,-0.13603847927682625,0.5360751386448449,0.4598066453876379,0.0,nm
4.884935617446899,43.00848221071094,6.683925519120434,-11.016328889303411,-0.021366662589071998,0.6900909705440634,-0.7553640013015782,0.4525058571022657,0.0089559522834693,-0.1540828660600675,1.0233556841875522,0.4781038479310165,0.0,nm
4.900768756866455,45.32007722097055,7.113227156204187,-11.397062141782275,-0.03135263281608821,0.574748397320781,-0.7321192251516644,0.4724625392561691,-0.010194298669758413,-0.158690597248069,0.9312986994750826,0.49850524609145713,0.0,nm
4.903147459030151,47.326702722688104,7.374803765532663,-11.624770188820118,-0.17692757698911174,0.6204701089946394,-1.027951750217508,0.40602147891930357,-0.03300545737286785,-0.12684058735001896,1.213660300261278,0.42665130511872157,0.0,nm
4.905415296554565,49.13520964949442,7.43817263090124,-11.562635816435,-0.4380635236027076,0.6804982963023356,-1.114206735578714,0.35940315043041515,-0.06410469413602934,-0.06974002179088792,1.3771108276353707,0.37167688519596565,0.0,nm
4.9130003452301025,50.568791817454354,7.397997974803661,-11.198311517405775,-0.6784997271370505,0.7577586183705215,-1.104913731895822,0.28261429787368575,-0.06817809554788484,0.0021484991567196085,1.5017970430027507,0.2907296168672867,0.0,nm
4.934246778488159,51.40828079280032,7.42934081577386,-10.644632265266084,-0.8052858974929945,0.873358654853571,-1.23045167021091,0.1699957638267587,-0.029550013739767633,0.07633717822250356,1.7103368175402045,0.18867731132819826,0.0,nm
4.962414026260376,50.7337294876739,9.04906294862783,-7.987530906412926,-0.410153854103663,0.6590115247595874,-1.1191235450678556,-0.13005030682248087,0.17650655739270746,0.1970127663831666,1.3619691196672887,0.29475697994312994,0.0,nm
4.964561700820923,49.488778230080015,9.874154422950573,-7.14842852680389,-0.12066408709555261,0.41266512178967596,-0.9828519655779164,-0.21724914174128424,0.19207584685539136,0.19600328531312627,1.0727769157176459,0.35001086895420713,0.0,nm
4.98103666305542,45.81948468356346,10.844795374707214,-5.608476331991586,0.27231642628638275,-0.21728890010338528,-0.4591038641557871,-0.38060386186780065,0.09970558594012312,0.20599250519992482,0.5763220108726556,0.44410968885500374,0.0,nm
5.000886917114258,41.139250326291325,10.567932622767385,-4.049669036898978,0.4081631812969312,-0.9040445227165637,0.6354618245131584,-0.47926636959179025,-0.016302227596320686,0.23034748124061746,1.1780090882645358,0.531998099395283,0.0,nm
5.01854944229126,38.59122116431105,10.33261666222329,-3.3842424745516517,0.4430187099320073,-1.122202555612024,1.1737941964765257,-0.49886678690099234,-0.020702837257418987,0.20412454608161323,1.6832697255205271,0.5394103343990101,0.0,nm
5.035583019256592,34.082969981760506,10.335711309940422,-3.3601860107776504,0.61369135298933,-1.0915872604963148,1.5428419801147213,-0.4013412205929573,0.033356265209676925,0.01572289906498195,1.987093656478234,0.40303179196037464,0.0,nm
5.037760972976685,32.66457756378611,10.482805959796273,-4.013481907444816,0.6749700317142396,-0.996784438172752,1.519026383396714,-0.27200496902649457,0.04014599047139255,-0.09105175448046997,1.938196304132012,0.28963567756753517,0.0,nm
5.058568239212036,32.15113440493875,10.273965267517436,-5.7029900982846735,0.4427295369150548,-0.6787001760538773,1.2453424715692516,0.029282096328292262,-0.056896660845240324,-0.18230822898244167,1.4857729447418253,0.19321221890820486,0.0,nm
5.085162401199341,36.9860940134691,8.710727596351346,-6.513520395899443,-0.33633665473062674,0.014137817328137596,0.5073112523396236,0.4355446807704408,-0.1588600253712337,-0.10713185171308293,0.6088406441299643,0.4758286564088466,0.0,nm
5.106300354003906,41.76182851209257,8.351339802264775,-6.784175736237231,-0.297929575629465,0.23925380642499305,-0.046499990237325796,0.4610297407595308,-0.06261396427644675,-0.14710276213197687,0.3849242328246853,0.48796327014855256,0.0,nm
5.115377426147461,44.04920093077435,8.618172941725662,-7.240253331996255,-0.15642610537016174,0.35996448350337096,-0.32235547584828844,0.46118514375369185,-0.0071758540595231205,-0.19393432467776792,0.5078942888382405,0.5003536269368084,0.0,nm
5.137468338012695,47.5962324814108,9.398087994569853,-8.801024311192608,0.004991236753763853,0.5123068878216558,-0.9345824605425674,0.325030541179821,0.025292871963022417,-0.236729207193717,1.0657990595359157,0.4028961399794629,0.0,nm
5.160208225250244,49.82244683554009,9.63454034901198,-10.06414321489798,-0.29587685657079893,0.7694877232775149,-1.1205262597730887,0.18312520013696146,-0.034041761998029246,-0.14864537911115272,1.3911267265673886,0.23830469826722045,0.0,nm
5.162342548370361,50.387670003239116,9.487386502170594,-10.315588455324233,-0.48495160860579306,0.9050728550846929,-1.099189691008901,0.10929828535663894,-0.05302456856422334,-0.08215599902687758,1.5041784842633361,0.14665376991208787,0.0,nm
5.179528474807739,50.59997594650196,9.397594878315708,-10.264060904650023,-0.6253461411022517,1.0916180700648495,-1.1056996207853114,0.04273357287271436,-0.029395798458758286,-0.009656494842264612,1.6748908795764472,0.05275906661545679,0.0,nm
5.18266224861145,50.48433469455905,9.530711296139541,-9.989860286341619,-0.6657206275592187,1.2041953296148509,-1.1008773432389147,-0.013130892894585832,0.026068944559149078,0.04570607336376362,1.7621581287389707,0.05423149786766742,0.0,nm
5.187967300415039,50.0774494838296,9.936173631806387,-9.627770373316443,-0.5603338181486058,1.2149418898364577,-1.0829490500754935,-0.06070791747644692,0.08947489132780957,0.07324693689188644,1.7212891763151803,0.13059985140303346,0.0,nm
5.212393522262573,48.449106514684985,11.199930300587203,-8.916842504559897,-0.13778548945531613,0.9287699105209598,-1.1033613224479477,-0.15575502157652824,0.15207808525673439,0.09089219578551724,1.448794186786942,0.23589989829665495,0.0,nm
5.225262880325317,45.98008642033088,11.64307906463904,-8.13624713926599,0.17801664692180608,0.1706795435877627,-0.8209076417053263,-0.2528980482745842,0.03734011898769869,0.11205219002015994,0.8571527223259635,0.27911897211659303,0.0,nm
5.241347074508667,44.50501590820949,11.261880306301743,-7.55210146368577,0.22780252491848685,-0.3198359678143557,-0.41604984968382663,-0.29284813922361697,-0.04145427177118179,0.148779443439326,0.5720896031994622,0.3310797669519077,0.0,nm
5.24500036239624,42.7609679799122,10.600109133894097,-6.779099689499566,0.18591887262185275,-0.777439699166705,0.08654972938018639,-0.3521682124511401,-0.09443195150881523,0.19209376701496148,0.8040330644278137,0.4121163168970538,0.0,nm
5.2553417682647705,40.72942606196225,9.901219823284254,-5.88778155282754,0.1142144817124364,-1.2546668351533612,0.7156878909651084,-0.4084934299957829,-0.10108653696663375,0.21944856189519313,1.4489454690707573,0.47459776824537914,0.0,nm
5.2933385372161865,31.81550132367511,10.294198258589745,-4.4901582483051605,0.6091485277723268,-1.3879092291028083,1.7399175525136605,-0.3729950962820479,0.11320562186814115,0.028675553976505255,2.3075240078190022,0.3908492574751373,0.0,nm
5.31115198135376,30.347501335598267,10.576849240961156,-4.8722900048194715,0.6629738921412069,-1.1150711038950234,1.5078582805572778,-0.2787540825098458,0.07232245981640983,-0.03454983508951971,1.989108982094163,0.2900483887466282,0.0,nm
5.3423004150390625,29.885568459816593,10.140857250664789,-5.805447691946011,0.3521380150574963,-0.4553918767058968,1.0869740275871422,0.033887828142892235,-0.08272272879497508,-0.10524278133532443,1.2299981624650362,0.1380850382145876,0.0,nm
5.345419406890869,32.60157459272664,9.134519533425413,-6.352189185115721,-0.33352330257519597,0.1250491128659562,0.6960827418324457,0.33836150421126365,-0.1495035164335275,-0.11864050933522115,0.7819247134259177,0.3884782869265922,0.0,nm
5.354199409484863,34.83413596891033,8.768493139558263,-6.653210229949123,-0.48469643859077244,0.27450826593534466,0.507677531182235,0.43545961822556956,-0.1299141854071161,-0.1414531317174865,0.7536722771315776,0.47593251953174825,0.0,nm
5.368220329284668,40.236267005464256,8.910796745109772,-7.634858272433214,-0.30648075929194785,0.3683713028653396,-0.01119222109069311,0.5616275693741671,-0.03868256218711816,-0.21353001709969213,0.4793257122289807,0.6020937929434997,0.0,nm
5.385889291763306,42.94526391057442,9.207982504481052,-8.371293390673138,-0.04726510220883215,0.43638601962932816,-0.33277127414812774,0.5435568089290377,-0.021314507835273156,-0.2453581021836166,0.5508207230242051,0.5967486163239294,0.0,nm
5.403116703033447,47.44824721010529,9.61951809738483,-9.974582301354886,0.06903649632040361,0.6747354586078999,-0.9704153467331949,0.4276376269712473,-0.052531665916726845,-0.2470734736995659,1.1839509796027523,0.49666771319621367,0.0,nm
5.422001838684082,49.16879995462297,9.507922205902139,-10.812087810120966,-0.06411904617583015,0.6845293003611386,-0.9022760137803977,0.33474719432987343,-0.0878710738104754,-0.23790021402534114,1.1343692609458582,0.41996847686181304,0.0,nm
5.441067934036255,51.12177685284413,9.35776022284017,-12.082720297421064,-0.6555134499994563,1.1188711838436884,-1.0965940779755767,0.16339281045051102,-0.039872828315227565,-0.14989117370721475,1.6982606340067687,0.2252874095463363,0.0,nm
5.443888425827026,51.526635046942346,9.53578409273335,-12.543938314022299,-0.8424918692801858,1.2005038934062349,-1.0440337172634704,0.09025489210172724,0.01355759288963315,-0.11876255420771296,1.8002801311656278,0.14978083373781645,0.0,nm
5.446006536483765,51.477965571670474,9.991150906754488,-12.836118515835041,-0.8834833329032643,1.1265477916146478,-1.0382823753782404,0.015053010707879755,0.08686339975591269,-0.07000228151338592,1.768525662050393,0.11257070118643824,0.0,nm
5.463091135025024,51.11724095698572,10.724675352397625,-12.808508265421956,-0.8340666955156447,1.038096653039589,-0.9960679430008396,-0.032472825931790975,0.15478127795847998,0.0053196984042257825,1.6629682079625898,0.15824041083607107,0.0,nm
5.472503185272217,50.349064247994924,11.5439231439264,-12.481173664599284,-0.7046207874665459,0.7767333092604308,-0.9425093831295859,-0.10733454888133828,0.18882715432440744,0.08203356384582022,1.4100102925624152,0.23217645270582513,0.0,nm
5.485196828842163,48.21179643387418,12.741275335522383,-10.915506657514992,-0.2800138320621184,-0.058271490581182465,-0.4936163189858269,-0.19321693416778787,0.13736144506777836,0.22692107417773405,0.5704913523707285,0.3281678292372429,0.0,nm
5.502577304840088,44.88792702672059,13.208774052867575,-8.210716890661073,0.04323708741515999,-0.8232413538553806,0.3780663478215699,-0.34609102679835707,0.08283293607234732,0.359481639494646,0.9069343613409553,0.50583331569052,0.0,nm
5.533018589019775,39.78531869876497,13.942281459142052,-5.292283874517101,0.4572812040376135,-1.0959526663486943,1.15993550434241,-0.5170104266548284,0.15080846594974834,0.40282796493006595,1.660020698870042,0.6725424477322027,0.0,nm
5.536372184753418,37.04142221877365,14.732294540419842,-4.208207477567874,0.7044789109924585,-1.0142446393920737,1.274369242581507,-0.5134129670737648,0.19587238667312976,0.3582745092208017,1.774542107419951,0.6559874164783354,0.0,nm
5.5624098777771,32.703310284251586,16.203194913850123,-3.246907174984979,1.1034842965059755,-0.6860705475891331,0.9354280491803681,-0.34352060987317656,0.13657628384511253,0.1357209301764787,1.6010609058052507,0.3938015510438583,0.0,nm
5.578360080718994,31.8057611150585,16.3437085340219,-3.435777246311563,1.114928185610032,-0.575483778491134,0.8608724124504561,-0.16682044666827556,0.03091855595673164,0.0006148053720986154,1.521626678555676,0.16966259609795578,0.0,nm
5.580514192581177,32.812210330634166,14.916844116367905,-4.636848854718228,0.517916135128448,-0.36958982099494037,0.6714209420549647,0.17490304588352623,-0.2157387931374136,-0.2008805688653525,0.9250080217162645,0.34276421235506815,0.0,nm
5.597556829452515,34.53869758060489,13.717434166174463,-5.304602653435079,0.0646150351478603,-0.2925208347426034,0.5789356142108529,0.31704832920358333,-0.2752626268256713,-0.23121539234171132,0.6518511999892048,0.4793221405625699,0.0,nm
5.59966516494751,36.897825183018995,12.54536368169897,-5.867701344268071,-0.3379051909691122,-0.1841398470238434,0.4336942563722921,0.4393372177935816,-0.2849365188261794,-0.23223521592081073,0.5798086834087189,0.5728343619347326,0.0,nm
5.61637020111084,42.34575272749743,10.699123975132279,-6.909224349351515,-0.4802252709475325,0.0018944050378015456,-0.0577247167734825,0.522328441900972,-0.22984891078394634,-0.22371650629081782,0.48368589244845356,0.612949099187064,0.0,nm
5.6411683559417725,44.99051179552594,10.090905014137846,-7.4953260337387375,-0.3281375677676128,0.15578663449447874,-0.3885754988759708,0.5062334910761805,-0.19129362258052507,-0.22560056148314764,0.5319160245699227,0.5863115305609035,0.0,nm
5.646238565444946,49.28668705788335,8.984409727892869,-9.174806129414529,-0.012627392812101275,0.5060534899694576,-0.8176856187588464,0.35754091895362683,-0.17321444072101772,-0.26231591265953086,0.9616960834299663,0.47607603303978824,0.0,nm
5.661563396453857,50.64219086887838,8.419341737020787,-10.243004947902078,-0.15925406457106328,0.853036697293703,-1.2008773568457591,0.2503100047999128,-0.16110185199653515,-0.26788679585363595,1.4816004489055103,0.4004650304488189,0.0,nm
5.667525768280029,51.78827348621393,7.826884732704273,-11.418691070834235,-0.3709788503254692,1.014878648197269,-1.0920950074337477,0.20585540782188794,-0.163435782437572,-0.28078029727007475,1.5363188091074196,0.38461055529661264,0.0,nm
5.673753261566162,52.34507681819108,7.330626295945039,-12.575952603407226,-0.644319279813737,0.9255382763271572,-0.8997281474703163,0.09248466036476341,-0.1244019497537491,-0.2593551682466852,1.4426639160375174,0.3021495669392666,0.0,nm
5.683833599090576,52.38160882442054,7.084464101517752,-13.490208007058165,-0.8409506986754594,1.0851610185921912,-0.9971809589952726,0.0009674056312123448,-0.053944324921270534,-0.19688982748344194,1.6968035769815895,0.20414830450269833,0.0,nm
5.693896770477295,52.06490751383247,7.132126011895223,-14.051345628246812,-0.8761820713643461,0.9761898473984658,-0.8850784026758399,-0.05390451609863331,0.019886275185928746,-0.11740530250181315,1.5824049479281124,0.13071023621790512,0.0,nm
5.7020134925842285,51.334801093394994,7.450660100479238,-14.202190824177945,-0.8233896943063909,0.8588886728977597,-0.8763700516804026,-0.12023348867350347,0.0927752016727658,-0.024531095204519796,1.477729612819733,0.153834666041036,0.0,nm
5.72868537902832,48.81270598216043,8.451279610797302,-13.250648322694724,-0.5587911182385418,0.1317342314422924,-0.4381174244101741,-0.24660426332297403,0.16349055253109157,0.1646964216698435,0.7221830094427423,0.3386262464234561,0.0,nm
5.73587703704834,47.18610851573259,8.930189484308006,-12.280813078771054,-0.35809791436513383,-0.3072784992305779,-0.027410365537492803,-0.28822024756850356,0.1598761935292516,0.24775930129408882,0.47265793180793436,0.41232994039189935,0.0,nm
5.75377631187439,43.1065779902432,9.83505543121321,-9.685895797967872,0.047964279162551006,-0.9870933820813721,0.8846065181949194,-0.40361730344772173,0.16265116383567227,0.3472832322403896,1.3263418145626575,0.5567476736681002,0.0,nm
5.756958484649658,40.707031065778516,10.452931672892037,-8.465276960748742,0.34532315190793156,-1.240741191245985,1.2937021031154878,-0.4429839401516617,0.1913676344403656,0.34363127108940184,1.825473065948542,0.5924008720571825,0.0,nm
5.783162832260132,36.09451188456309,12.833490615748648,-6.424531023943888,0.9479048365782557,-1.1122291560741915,1.5013396640158354,-0.39293304310257016,0.317951520431335,0.25139339538491773,2.0951367644087435,0.564524742548634,0.0,nm
5.791768789291382,34.39277958886887,14.211998594514393,-6.081017390208913,1.1491525737589126,-0.8806776149060921,1.1339086191329912,-0.29546413801894933,0.30357708269239886,0.13637304937757405,1.8389925110553067,0.44503450494073665,0.0,nm
5.813425540924072,33.34429207855791,15.714959412028861,-6.550766798376316,1.0895874711413667,-0.49744477060827186,0.753124625799067,-0.017275280008223294,0.08941174388985294,-0.07806514720833291,1.4148670817637745,0.11994608144264597,0.0,nm
5.8194873332977295,33.92984183621206,15.474519359163802,-7.102910106493265,0.6813776526690017,-0.23961359687345146,0.528420151602059,0.10992454181803114,-0.06835218397320864,-0.1542029053350985,0.8949402426880214,0.20133047946497518,0.0,nm
5.859461784362793,40.21182063286895,13.205479595093637,-8.764368474722215,-0.5986135355790456,0.22743055368833134,0.3862186826792025,0.5030264292047575,-0.2160054005143177,-0.25933372443247815,0.7478152797181165,0.6057622488715025,0.0,nm
5.861854791641235,42.79164455308309,12.873271735042954,-9.36163756634983,-0.5957957153627556,0.1677589168094315,0.2057378195154447,0.49056458698914,-0.1501067658955026,-0.27306914728650167,0.6522604073471431,0.5811647050322394,0.0,nm
5.864161252975464,45.25949489481381,12.970608095171404,-9.983052081653717,-0.4493357006752813,0.3889970630753044,-0.3890714498821418,0.48201130360379085,-0.06631780285881965,-0.27586598579330657,0.7103505332552024,0.5593165381924263,0.0,nm
5.880890130996704,47.67550512355839,13.280626280832355,-10.796649756143607,-0.22936691101332968,0.4349050859120405,-0.570856038187286,0.47837894500623107,-0.028645420772899454,-0.2859805156509182,0.7534110630690528,0.5580786956052849,0.0,nm
5.909294605255127,51.0843759176392,13.485002034078624,-12.558558281461082,-0.16092302831293093,0.6662530977733218,-1.0394194004446655,0.2843580890459009,-0.06830225047562158,-0.2546921329740241,1.245063091314934,0.38780510933293416,0.0,nm
5.911648988723755,52.15235051288813,13.201084367333307,-13.25346986349243,-0.4107329136378422,0.9025414007128129,-1.1112516046057845,0.19380577016732775,-0.10587567676349038,-0.20193354567443975,1.489349735651438,0.2992448702132239,0.0,nm
5.9378297328948975,53.125531842755144,12.211534806207245,-14.068591754619687,-0.8695548219247858,1.2140240353179128,-1.0715554861777932,0.03799941360484985,-0.1149040526177382,-0.08484318896979089,1.8379910518334852,0.14780143252640024,0.0,nm
5.939912557601929,53.05857940648631,11.936322745128997,-14.052869956653465,-0.9423484786191277,1.2419708330661408,-1.0542781057130273,-0.022182712409540475,-0.05414771393797879,-0.007389267339012442,1.8820240512620017,0.05898007228175428,0.0,nm
5.956759929656982,51.88158881889579,12.191363405094506,-13.264173728659863,-0.6787565370137283,0.8694212077464293,-0.9640873125887788,-0.12960098818401142,0.07658976830388667,0.11774311224356908,1.464946421993918,0.1911173702935372,0.0,nm
5.962347984313965,50.80493752880987,12.484281592363528,-12.556992649888853,-0.4283212720852628,0.6127803033625893,-0.9416537568163529,-0.18841397856217093,0.10001539045677095,0.1663626336193026,1.202360432664114,0.2705169708365759,0.0,nm
5.984658479690552,47.79037448192626,12.626456602075843,-10.76484076631833,-0.07689369379232043,-0.10500495011955178,-0.5412027520720678,-0.31259594723749806,0.050148691903998587,0.25669569223298033,0.5566319237566391,0.40758287002762983,0.0,nm
5.989138841629028,45.8714146915307,12.387912629124108,-9.594191426014886,0.03389348424190481,-0.4741119891709549,-0.08351840799583697,-0.3737771985655439,0.014332406449336293,0.3047169332826857,0.4826036375990705,0.4824595542336577,0.0,nm
6.039033651351929,38.109465066380025,12.148436519983514,-6.040006087295757,0.2649893515928044,-1.1327246712732861,1.3502601823035816,-0.5232935261849362,0.09962259330798669,0.315690177924579,1.7822702088300895,0.6192100322851086,0.0,nm
6.041177749633789,35.531083001132835,12.877113231946124,-5.492232424212244,0.4718550170977484,-1.0981473128356014,1.4603059928449154,-0.48244150750077,0.1897805496476677,0.24049512065119322,1.887079296316703,0.5714931042814237,0.0,nm
6.043529272079468,33.39380333233654,13.893801991705553,-5.294050471413971,0.7252851981780495,-0.9376140021318893,1.3067004841340637,-0.39139732760333257,0.23474976466132885,0.126821344843377,1.7642632430921832,0.4736907995427634,0.0,nm
6.066546201705933,31.753155829341775,14.9362663564523,-5.503709825737805,0.9823496487689884,-0.9406560163324031,1.3865267212780301,-0.2933571797665564,0.2303915088331943,0.027958198682237492,1.942241211157076,0.37405927757051954,0.0,nm
6.069178819656372,30.647168197273757,15.776908908999447,-5.877437021651524,0.9399663960279676,-0.8084233044647594,1.159914916799114,-0.1922226878015105,0.18109967096104845,-0.02796614184454489,1.6977890561187579,0.2655725091524087,0.0,nm
6.078914165496826,30.82215985375574,16.243539933312928,-6.290701355903494,0.5357278604549655,-0.5730890933915104,1.0341657675058493,0.10008229339786827,-0.008594109018047668,-0.05732320826122835,1.2980501855139965,0.11565584449975382,0.0,nm
6.09724497795105,32.12455354854422,16.05430830946729,-6.120009788011769,0.1461666661653178,-0.20422843692514514,0.6823503091040274,0.24849153013485561,-0.07209860333127831,-0.050294759087569356,0.7271010198597807,0.263582647271704,0.0,nm
6.10334324836731,33.90385844991806,15.679009166322922,-5.905347762772287,-0.07384046259829165,-0.055399506852131374,0.5586288751621641,0.33660600459123685,-0.11765904288623673,-0.06653388415313102,0.5662046798121098,0.3627313199053582,0.0,nm
6.105692148208618,35.9813629953626,15.426045051694803,-5.7428617064586875,-0.1871320363900956,0.0030486639688602725,0.3363671954757398,0.3972678827983435,-0.09768629226131655,-0.09132532878469123,0.3849293228473425,0.41917144234367126,0.0,nm
6.129456043243408,40.58158089808146,15.58389193267493,-6.127464354675499,-0.1357824970231982,0.10046796728835514,-0.1414116274055625,0.4391038325117003,-0.025513292194022093,-0.21067403235311497,0.22029059742621443,0.4876952447102209,0.0,nm
6.132650136947632,42.703457888987366,15.724232786158812,-6.809799209073035,0.029713894144911806,0.08861573956086145,-0.4223725427127165,0.4131944392033914,-0.023570771245490514,-0.2642896284918705,0.4325901404803154,0.49105420635005587,0.0,nm
6.138640642166138,44.57856334441784,15.844553286284771,-7.530523935869779,0.03926304660051982,0.17985765781760507,-0.5986029131489192,0.3649061755558413,-0.02625939992645221,-0.2596246366906248,0.6262713561503207,0.4486101035643611,0.0,nm
6.1602795124053955,47.10088232380488,15.23572510341517,-8.950529901933564,-0.18560235271823589,0.38512211143590014,-0.8931448991036851,0.20510067521379743,-0.13444519611126915,-0.21459625293812784,0.9901894186701462,0.3258732107824118,0.0,nm
6.178421497344971,47.847774680067964,14.533998939656826,-9.535093369733817,-0.33533196008561034,0.4576231598756666,-0.7919709046982937,0.12362533149169987,-0.1664977827163308,-0.16872688470254182,0.974209625182425,0.2673452746118996,0.0,nm
6.180778741836548,48.13294654806708,13.77045075909202,-10.021465150162303,-0.5085685372730403,0.7227557440612156,-0.9123333660936441,0.0322569772405422,-0.1646669334744619,-0.12455967336050461,1.2701850233589123,0.20897565357776804,0.0,nm
6.187013149261475,48.08987198945868,13.034538911682223,-10.504019186192243,-0.5296085417595033,0.7984066918949594,-0.7637659456551197,-0.03073213907764082,-0.14816500223704435,-0.1077738955281663,1.2252660416863512,0.18577552265437694,0.0,nm
6.21072244644165,46.8506136237823,12.17898678876593,-11.343405804784371,-0.39432186706726857,1.0392679664277065,-0.8612549887275979,-0.15418776678069956,-0.03790619091442524,-0.05838376710342803,1.4061748811930797,0.16917272533020083,0.0,nm
6.216413974761963,45.9028107356031,11.925149893464809,-11.722633959769853,-0.2945744192152432,0.9877359575788743,-0.7952286886851679,-0.18816966058430998,-0.017892399030900816,-0.04923090472070274,1.301839113584388,0.19532445081738822,0.0,nm
6.241577863693237,43.8336908112248,11.102577443709519,-12.033645073073016,-0.2609119294078316,0.5672863485662742,-0.45787928989130133,-0.20843564151137636,-0.05880184341615991,0.011653894746919463,0.7743011560680613,0.2168845008389716,0.0,nm
6.243896961212158,42.89694702338186,10.450376300946973,-11.727928947567566,-0.36197174801371595,0.28289948214293653,-0.24727450702420306,-0.20307556781491926,-0.09582079149784752,0.07206159581981167,0.5217282292352114,0.2358265971401948,0.0,nm
6.267832040786743,41.20852966973398,8.97399211852634,-9.983249200747807,-0.42260558754501487,-0.44604887479535693,0.4906156324464378,-0.18381188968908663,-0.11424999795769972,0.2226857139894907,0.7862943342866521,0.31052986980227293,0.0,nm
6.2849204540252686,40.18574975015126,8.511642203731187,-8.669705684237412,-0.3427095769011397,-0.7614055047903516,0.8163326819361003,-0.20999934978669654,-0.0647189029940225,0.2820946439697379,1.1677273844617135,0.3575830693307475,0.0,nm
6.2871253490448,39.029883084891495,8.409946460642281,-7.308341570591871,-0.08405216091964783,-1.1289580701936675,1.2222774035716815,-0.22463878355070716,0.005391247762514496,0.29469968541603386,1.6660051444376163,0.37059351480009417,0.0,nm
6.296618223190308,37.831337857190455,8.756803370139894,-6.158794684486983,0.3014439774890493,-1.3420766737294727,1.4537467161095947,-0.22251333072989224,0.09058044811633027,0.26934609832328216,2.0013539877624384,0.36092148815973923,0.0,nm
6.322550535202026,35.97607406569045,10.176578967509112,-4.772045198394874,0.989147387046057,-1.167731061231555,1.1514766773293623,-0.1324360044363028,0.15200312079457284,0.12938263543069614,1.9151780395301332,0.2395498076670786,0.0,nm
6.327679872512817,35.6265197509867,10.665902599622015,-4.50664645649653,1.0903832106493458,-0.9996990880303864,0.9816029387031129,-0.05591096034718293,0.09657908943166058,0.05391479711071254,1.7753529626373874,0.12393692488472614,0.0,nm
6.330583572387695,35.84615710284958,10.782133760936976,-4.421684385609145,0.9223159152071995,-0.7668401433745983,0.7907333085762929,0.049674577877723086,0.013213931468408803,-0.0030902272010181198,1.4366522259152628,0.051494865533717946,0.0,nm
6.35657000541687,38.10406715441328,9.999136217885743,-4.523673731825578,0.19228069933741612,-0.24498184610851725,0.4704514798236894,0.27522653160883365,-0.13018001655302644,-0.08827259484407259,0.5641919594683376,0.31699926090084235,0.0,nm
6.3626039028167725,40.07968829323376,9.49031580338279,-4.699234469037957,-0.13483672056692758,-0.05335995713046316,0.31148739337575576,0.38554447634797134,-0.13868085254268459,-0.12144277627331126,0.3435878671755325,0.4273467795752845,0.0,nm
6.3812620639801025,45.04565270462431,9.10498649114371,-5.417747736170569,-0.2830103288979395,0.22118001167943144,-0.14712753908611637,0.5131577638802093,-0.06438141265577368,-0.19687583584420695,0.3881519761471916,0.5533858976026085,0.0,nm
6.3880743980407715,47.522242415096414,9.251498132312983,-6.0127561434373025,-0.12181604445577876,0.17821826335465699,-0.2893777271687466,0.49511596215604226,-0.02366461820864087,-0.23116144170243022,0.3610268231881832,0.5469327584508084,0.0,nm
6.419506549835205,51.861103401247206,9.622631433483948,-7.868392421270417,0.010922413103013605,0.3548445090067386,-0.7179902586324064,0.4172445416665938,-0.029841383893656096,-0.28308349040253183,0.8009643788404426,0.5050938311657892,0.0,nm
6.436878442764282,54.50524745206432,9.474030485695357,-9.981591895255741,-0.4426012131277352,0.6198245588012543,-0.8527240254981646,0.20928234184830774,-0.06253780516438676,-0.2548112780627483,1.1433357255054646,0.3356171376915398,0.0,nm
6.459524154663086,55.51270229646029,9.406890963417819,-11.547149508542132,-0.9238495650282359,0.993618723936217,-0.7494512337901058,0.06394819679494504,-0.004564143566736486,-0.15756308665451862,1.5499849480524024,0.17010681807594352,0.0,nm
6.461645603179932,55.45221890236598,9.765468301644361,-11.911598705808984,-0.9730964222505518,1.0733675382839076,-0.6773884199574444,0.007555096823240831,0.06940764905187215,-0.08427272805705376,1.5993403611273378,0.1094367119804617,0.0,nm
6.465684413909912,55.12913672654781,10.429736560103002,-11.975899472803153,-0.8678131691195835,1.1984788929963643,-0.6796580688158831,-0.030303925331810973,0.13998327713803949,-0.014896499967999837,1.6283078468034542,0.14399844263087627,0.0,nm
6.482344627380371,54.565484218582505,11.246323109518903,-11.836238760975192,-0.6514358976435546,1.1832756372504682,-0.6618928298671161,-0.07045166894322308,0.17948482312597702,0.035776443770600984,1.504198152065965,0.19610760647746361,0.0,nm
6.484837770462036,53.83920002222938,11.996282245302718,-11.59184857926501,-0.3977745831035395,1.1884694628212595,-0.7625609669092294,-0.10489918995655038,0.1724898267885561,0.06479854680331806,1.4670322120783126,0.21202696070761456,0.0,nm
6.490673542022705,53.06199872108618,12.492177126201007,-11.292507200060497,-0.19439108929776805,1.0207086628721247,-0.7121571952888454,-0.12539415222238973,0.12389322031890027,0.07952514975912829,1.2596832700572982,0.19338426227790925,0.0,nm
6.51292872428894,51.27197209631455,12.480418607351655,-10.487023695858007,-0.09555386355285538,0.5113974747592813,-0.5435607078895208,-0.179853995362291,-0.005342627500063642,0.11473427912242162,0.7524069119774249,0.21340093280518993,0.0,nm
6.531636714935303,49.13321022660902,11.510999755176677,-9.205743292231201,-0.125258692009037,-0.4379050547872506,0.05215764743751962,-0.2334783486262633,-0.07099596320365378,0.16789115418492112,0.458444104682628,0.29620939506032967,0.0,nm
6.558512449264526,45.794048003822695,10.818985168365442,-7.367584509788122,0.08763894729030385,-1.3481583298579491,0.8777682685045576,-0.37532561688749105,-0.006514454113288908,0.23989136677950731,1.6111140867862264,0.44548807465487783,0.0,nm
6.562945127487183,43.62902943287828,10.767010485682977,-6.490274800676947,0.4148566577884982,-1.6484362826163583,1.1453188667557548,-0.41949001906289124,0.03594227424637843,0.251543312807678,2.0496837636338365,0.49044649187209816,0.0,nm
6.585717439651489,39.471272019180454,11.437473953455386,-4.521517609065395,0.9487397850652349,-1.4885788041729955,1.2804471760065579,-0.38237806671922053,0.1109606758297783,0.26764949517419273,2.1807152511370904,0.47975150834106817,0.0,nm
6.591753959655762,37.97236977624695,11.696410913394564,-3.703897286544904,1.098880261113498,-1.231669013242859,1.1964605439349345,-0.28497950572108743,0.06669611991238522,0.2117088612780122,2.038642739579593,0.36122338384445046,0.0,nm
6.614011764526367,37.341853537628154,11.55563923332753,-2.72749081351005,0.810479110833703,-0.546859122656946,0.7915508282681725,0.027433757941358185,-0.04241715142588985,0.056766785971422824,1.257968204233694,0.07598877416695989,0.0,nm
6.618850946426392,38.203100843328855,11.149463304176585,-2.7200699187702653,0.4682356940698615,-0.27837077302402224,0.6107422834946198,0.16991944471348017,-0.09533271025354878,-0.0446420481234964,0.8183771070376413,0.1998846062023914,0.0,nm
6.646338701248169,41.85251748862115,10.330740204990848,-3.452467923486096,-0.11416362998676184,0.0488925844309979,0.17749933513364932,0.421079080668486,-0.0945087891251947,-0.19118760465959253,0.2166329457792237,0.4720086901466969,0.0,nm
6.648728370666504,44.29546281092974,10.182827952630625,-3.967836379914247,-0.31642393729607127,0.12212285825085219,-0.045844871295546964,0.48350212336118503,-0.06517879211466117,-0.2278631656569105,0.3422569982124705,0.5384646696854766,0.0,nm
6.657926321029663,46.87478844595458,10.125006708808801,-4.603574399026292,-0.356776865735484,0.216434893221419,-0.28674544106148214,0.5111307197556939,-0.05350604753024563,-0.25675297367126637,0.5063168404243993,0.5744907303771929,0.0,nm
6.6686341762542725,49.2970830577034,10.144232116408844,-5.279966326923079,-0.3767283451720256,0.25287423078689725,-0.3800615750453404,0.480986903451096,-0.0408769151659268,-0.2583706742747515,0.5918753445431417,0.547516875365633,0.0,nm
6.6870198249816895,53.223467265520284,10.184677076895749,-6.918455708868899,-0.5819844242219857,0.5931280480665764,-0.7253278419959189,0.36932975018195413,-0.04610769502048939,-0.26328141884468603,1.1029991975585114,0.4559029385937736,0.0,nm
6.689024209976196,54.69542321056065,10.208130006042879,-7.879993473020951,-0.7340590363270105,0.6782641233191402,-0.7482926711712009,0.2930652552248779,-0.03588736376406861,-0.2580386826367359,1.2485298600849528,0.3921212930138575,0.0,nm
6.715676307678223,56.4615916763383,10.868006830743234,-9.533687256681299,-0.9247949004512147,0.895883604334173,-0.5693714694891983,0.13811958228878882,0.07248371773375957,-0.1882842216420148,1.4078483265904926,0.2445032851874923,0.0,nm
6.71825385093689,56.44568613168958,11.75142245442116,-10.061866342837092,-0.9154905438308311,1.1973560962072747,-0.8472881326240864,0.03130986931727215,0.17198826611684684,-0.12512103328146898,1.7290696159073546,0.21497800949856813,0.0,nm
6.745568037033081,55.551845193590545,14.241755771663646,-10.84639818791359,-0.5886518867658463,1.1716679424754066,-0.7538027562758508,-0.0783916809217652,0.2784985347114354,-0.05544514902588723,1.5124600512365982,0.29458590262376655,0.0,nm
6.747711896896362,54.64794483453078,15.455019612453743,-11.16768691941707,-0.4141943418758723,1.1619567075134896,-0.8979148218679152,-0.12200451186672936,0.2687498729246252,-0.031732339580624706,1.5257625537113126,0.29684766545839836,0.0,nm
6.7803795337677,52.87026989633704,17.002424579719754,-11.545458386850543,-0.1767654231936999,0.7019669132749458,-0.7803847232720642,-0.14544032200486712,0.14965812992770647,0.011937990725845683,1.0644265491268148,0.2090286074701453,0.0,nm
6.782507419586182,52.00466497255592,17.266093568558276,-11.539688405356705,-0.14162101446107284,0.23499651431141955,-0.4964410607027731,-0.1489070484263912,0.08123212534082905,0.03851686220054524,0.5672156558375263,0.1739411277766807,0.0,nm
6.811350345611572,49.6271278667638,17.157178505035752,-11.020113477069112,-0.10013369979721386,-0.7172502938172514,0.12573234758113166,-0.25229186475727283,0.022075641992418283,0.13762871087923204,0.7350397030394171,0.2882363284708552,0.0,nm
6.813444375991821,47.988444367035896,17.067958798904318,-10.365946342132261,0.07214589519880413,-1.1239333611866518,0.5246237516005999,-0.30865293293108176,0.03623233590047549,0.214132402844955,1.2424416732087866,0.3774017767842619,0.0,nm
6.830444812774658,45.90861404823044,17.096410854511536,-9.556627006999413,0.3041491549302278,-1.436076633980764,0.90435657828991,-0.3882101261145208,0.07007931619655226,0.29282565986545855,1.7241472175561248,0.4912892016440721,0.0,nm
6.834943532943726,43.514902434973266,17.254779348503515,-8.655206627122014,0.6545394553666738,-1.6183507920246936,1.2476879284994016,-0.44417535483075243,0.09924170888176363,0.34198315770515103,2.1457414456550405,0.5692917905387217,0.0,nm
6.8410115242004395,41.0210009677202,17.58803339681505,-7.5180300028766265,0.9924945466013206,-1.5640744576005463,1.462189064045374,-0.4595048472972453,0.1274804522690607,0.364291930013306,2.3599515234355324,0.6000871442325759,0.0,nm
6.866962671279907,36.75753511616936,18.233610669111165,-5.787985660822376,1.197988884754749,-0.8685039020821596,1.2100058275192727,-0.3526322835835461,0.08001591425187768,0.24671997015430855,1.9114367628981253,0.43774743589409315,0.0,nm
6.869158983230591,35.60293492549935,18.2219115946219,-5.422310118583358,1.0899737118552095,-0.5449368963332466,1.005482616814814,-0.2157374947126829,0.012522956873958815,0.13309442672215388,1.579871579033404,0.2537983796210502,0.0,nm
6.872351884841919,35.39650099315502,17.947136771575217,-5.333920602117264,0.801419188209734,-0.23261465220573013,0.7927739632436583,-0.04113317767578568,-0.057758343513842784,0.018115717608102076,1.1510312108924758,0.07318568012683437,0.0,nm
6.899133682250977,37.57668233700714,16.652538141936315,-5.790715938987228,0.24112152386003563,0.04383348396801174,0.509773612118022,0.2723036671034986,-0.17898284291263059,-0.1580781532364864,0.5656236374102617,0.3621779227199781,0.0,nm
6.905343294143677,39.77442923340054,15.963587213931078,-6.046161043975949,0.009287025293948453,0.09925080551710623,0.34924703838497095,0.4094306868975174,-0.18670475964012836,-0.18744941563545392,0.36319480317768627,0.48747249980662927,0.0,nm
6.930331230163574,45.22452224796757,14.645785354194732,-6.461418429817291,-0.1515254928295483,0.1527853553201014,-0.0943610212084638,0.5325743422452567,-0.19817988808018366,-0.2166377044505264,0.23496242699851244,0.6081468515474167,0.0,nm
6.932535171508789,48.03396560824683,13.952745507359088,-6.845206586838415,-0.17864144616995545,0.19361072684388092,-0.3013486253380696,0.5293192075238626,-0.20536933936400487,-0.22901421408437214,0.4002610071339116,0.6122114824610695,0.0,nm
6.95723819732666,52.393123593426374,12.466113494890548,-8.195011064723927,-0.45694957375516954,0.42303791108697714,-0.6049763421545711,0.35049861809057103,-0.20096712241695616,-0.25401434990419197,0.8681937351412926,0.47724244942502875,0.0,nm
6.967024564743042,53.91363106219018,11.832710445972051,-9.11148344805443,-0.717270071628764,0.7836421530041893,-0.8309413989660595,0.2795021475410476,-0.1735881753790252,-0.2609824706035112,1.348716051708085,0.41995970648835984,0.0,nm
6.984147071838379,55.732635273560525,11.177707905342896,-10.831018095824055,-1.2332640933329404,1.1082348982299655,-0.8322462920663053,0.1251260376842393,-0.06758150013797959,-0.19488087607510302,1.8551977803504442,0.24125161207183066,0.0,nm
6.986279487609863,56.05920277552086,11.234119993934685,-11.161340079383896,-1.3358586101984684,1.0568578708455314,-0.6731182134907341,0.06950488626608511,-0.004227027209256127,-0.0922983890635215,1.831544407035355,0.11561915757178999,0.0,nm
6.999925136566162,55.96604391047025,11.517286787278138,-10.859207522138387,-1.2748424041663504,1.212908549287628,-0.7223653926288812,-0.0027967984762032453,0.056134442756463884,0.05072657305751636,1.9021519563020026,0.07571052079767222,0.0,nm
7.018144369125366,54.80938860685075,12.1208283983653,-8.606724825281978,-0.5811135935509041,0.9842801559120858,-0.7383271879565592,-0.11686242155797977,0.06982460793237093,0.2876818781374268,1.3607451893752207,0.31826587070243895,0.0,nm
7.025920391082764,54.01024458444475,12.184017584306723,-6.997235765632327,-0.1819322633215164,0.7383816361473662,-0.6485908989279516,-0.1489697145435929,0.030725532526352444,0.3426137869081413,0.9994883407069436,0.3748602955499085,0.0,nm
7.059913158416748,51.86988544894853,11.547416847167987,-4.1442526937336694,0.20881640462489726,0.1624048890842632,-0.2517318928947695,-0.2312872789338815,-0.06923959938205619,0.2944428002580862,0.3651692549206797,0.3807682893086687,0.0,nm
7.062660217285156,50.36742138280493,11.110297623756539,-3.1819318111998514,0.10286992144346957,-0.21851875742593083,0.15678449897822305,-0.29525410835358096,-0.0720953029309997,0.23871016617374613,0.28794799392357434,0.3864650885126342,0.0,nm
7.0833728313446045,48.591972398164636,10.853934033341206,-2.62722808391587,-0.09935083735086186,-0.5722534048964709,0.5313930177507433,-0.34633403740146285,-0.037515099327027256,0.16582111596715984,0.7872249282207491,0.385812507107933,0.0,nm
7.087515592575073,46.72508527479875,10.957886943664738,-2.4569000829372976,-0.11954132964603331,-1.070442999980856,1.0047836812685766,-0.3609659936582532,0.032765898770977304,0.0919390373641861,1.4729998614545723,0.3739289227800027,0.0,nm
7.089557409286499,44.970789100641795,11.597714758924074,-2.4509695094182415,0.10569786213013982,-1.4837275548662876,1.3295786692843958,-0.3340037252882823,0.1380995520197399,0.05703361908866581,1.995093715328791,0.36589999792409705,0.0,nm
7.110621690750122,42.147338400481786,13.873743261634484,-2.29096485544318,0.9912736282690554,-1.554390880128456,1.1357233899048351,-0.2373177819485016,0.2405955032437268,0.07279823505594518,2.1653226163103603,0.34569568819601926,0.0,nm
7.120592355728149,41.328687306026694,14.795303211970126,-1.890345914296788,1.4020698968766947,-1.4316619753302233,0.915202725281714,-0.14790323496493402,0.18493446633296737,0.10799557427835531,2.2029643745865113,0.26026749281203687,0.0,nm
7.137749195098877,41.838548531331874,15.156839053065465,-0.3192911070792122,1.1604035331038083,-0.6113463021481678,0.4766769837608943,0.12316864931145585,-0.03018134210582965,0.11950171852658531,1.3955291496910496,0.1742472103516287,0.0,nm
7.150437116622925,44.57139575242748,13.910965781812738,0.40859744392214054,0.2343763707157206,-0.030214452996416414,0.3104289984095259,0.31811061849610994,-0.13258907591475774,-0.057810780248490165,0.3901427423050274,0.3494514486518066,0.0,nm
7.169003963470459,49.11214965309345,13.458094255688057,-0.3057768010203686,-0.2966921543014438,0.2894183626647714,-0.02920341619509502,0.4731067691947248,-0.015740747497465554,-0.2632896451367131,0.4155021812085381,0.5416633857165037,0.0,nm
