timestamp,roll,pitch,yaw,acc_x,acc_y,acc_z,gyro_x,gyro_y,gyro_z,markers,motor_input
45.0070743560791,-39.76524247325789,8.15200176971831,30.845722158421065,-1.6361469909968893,1.8138362916615904,-1.7260755136004935,-0.7470771043759825,-0.4139513691121132,0.17520660011409303,nm,0.0
45.01368045806885,-42.56937793130298,8.52926158881428,31.470518830491148,-1.5820945915619786,1.3682247865491837,-1.990569200693188,-0.501604832049879,-0.22871941139871785,0.20936564887301048,nm,0.0
45.028488874435425,-43.87675246334265,8.732096022561786,32.085606017430834,-1.7173024927536236,1.12725220947593,-1.892785899527402,-0.2284634503195943,-0.10743753558095603,0.16550804872060682,nm,0.0
45.031977891922,-44.040187310799254,8.339045990128836,32.327585031979496,-1.6369499496763287,0.7499007110581503,-1.6948109279377437,0.02751345357320658,-0.08944277742396717,0.056449892178419954,nm,0.0
45.05765986442566,-41.22463629959404,5.352179905072405,30.850326889642172,-0.7949433978441784,0.24628920242202773,-1.1765723054060673,0.5236517673537421,-0.11627915674330469,-0.2585640888447358,nm,0.0
45.06426239013672,-38.35916977934737,3.408644253230352,29.191321824776317,-0.028109155905106945,-0.060991970641333305,-0.911425349385186,0.702540724280159,-0.05742392314412277,-0.3733136725320098,nm,0.0
45.08640646934509,-27.920281854817834,1.066578500084821,26.065601262724233,1.3211393182835036,-0.11174407893279219,0.438699459549439,1.1640004096207515,0.3954964056915036,-0.3015568041828193,nm,0.0
45.093177795410156,-20.240867563287466,1.1095291065951993,25.589533593040322,2.029979286415799,-0.6203267567266985,1.2333373823664104,1.392160117739022,0.6695800291465435,-0.12532519977527418,nm,0.0
45.112351179122925,0.7402828054712491,1.8137866569465013,28.099645957075868,2.6268594865846002,-1.3403035777537033,3.0943223076164137,1.9540131820845346,1.0525121112854159,0.2826909609497335,nm,0.0
45.11851143836975,11.661953867878797,1.6519516641744703,30.291547774214173,2.519819871414167,-2.2475195342914427,2.7433841402527017,1.9354270930426896,1.033076340455582,0.3640149747917748,nm,0.0
45.14141607284546,29.36846749194675,0.08119417495548541,32.65136968331492,1.5373247090422884,-2.772959393911806,1.297920985140151,1.3937098160890078,0.6836278511537536,0.10037451466872822,nm,0.0
45.14648747444153,33.962498022247374,0.25114043687253107,32.23159431490312,1.0219182773980473,-2.5081246371787564,-0.027763188374669977,0.767849212874091,0.5205200498315508,-0.09722251473874621,nm,0.0
45.1709201335907,36.097294368848125,4.004306844754561,29.736706000468928,0.32034043041159344,-1.7048927308121649,-0.5358620416378908,-0.22286578663545475,0.3876916140134626,-0.30165597191524685,nm,0.0
45.17690587043762,33.93312800902849,6.212867887751628,28.202258894887017,0.3236015652492607,-1.1642569155477263,-0.5667817045912277,-0.5832124746108841,0.17490991158622643,-0.2798722793081661,nm,0.0
45.20006489753723,25.222060682369815,8.475248675050652,27.14941043836501,0.17547060486477659,0.037756015930809,0.07391853121279683,-0.9353317292165818,-0.3293907281336346,0.1243239377152493,nm,0.0
45.20422911643982,18.957731857575993,8.547426915418283,28.146221749452213,-0.21545579002044565,0.5519241846651881,-0.04101416564469688,-1.096021413276066,-0.5680426092348276,0.3756111705103474,nm,0.0
45.22677230834961,5.630560723432897,8.716793619268625,31.512843662049562,-1.5888097721448997,1.7008659630527148,0.8471456711781301,-1.1726417759128789,-0.65493958907708,0.5304420636752137,nm,0.0
45.251965284347534,-10.322957177234278,9.653332639694082,32.171711871661486,-2.4713931418536714,2.198992212285857,0.1037559272641589,-1.390426645761009,-0.7862195155697854,0.22061710154381456,nm,0.0
45.253655433654785,-18.33566135899463,9.65807683448587,31.569293138604284,-2.6206923531652304,2.5626503329300805,-0.1257590063131725,-1.3282705340745051,-0.8459328241826874,0.06448637826895821,nm,0.0
45.26245975494385,-26.32650543338736,9.08768972270802,30.712634833803982,-2.3038904422480373,2.336009388688232,-0.8342759360345047,-1.276941391668029,-0.9245751904434399,0.023229578374069148,nm,0.0
45.27149224281311,-33.265456192908694,8.250474501431981,30.04173819894826,-1.8448415187980984,1.9730298014371501,-1.3267286296754501,-1.087611230451346,-0.8458338317296156,0.07617047938699226,nm,0.0
45.29252314567566,-42.44333871646312,7.515249504248725,30.93150961100982,-1.6233132749448391,1.5032338621810801,-1.8773580224495647,-0.642348301743443,-0.42204524292929096,0.2583430482286908,nm,0.0
45.31554555892944,-45.66956980932692,7.96749093890543,32.8498324041466,-1.7754425578731028,0.855547175687121,-1.8032768341886165,-0.14819064983409744,-0.05918596799366447,0.20468807315897344,nm,0.0
45.319061040878296,-45.48427475277619,7.6216236150361905,33.223157738736695,-1.5475659463629736,0.3921259580562801,-1.6810953211952646,0.08154945776232836,-0.043324806082731544,0.0732506528081677,nm,0.0
45.34247803688049,-41.7946857002925,4.601324478038586,31.602826562594704,-0.4449692761433747,0.03400303432027989,-1.2446860589178341,0.6184830273255613,-0.06415847004512776,-0.2898590539348964,nm,0.0
45.348570346832275,-38.13039324383406,2.4621840203697127,29.720317733123437,0.5196661302993343,-0.24794113681057686,-0.9967156011072945,0.8608950063498315,-0.0015297034362196384,-0.41929885478475426,nm,0.0
45.37010407447815,-25.038810554558353,-0.4396993635234506,25.889163414979347,2.022994297170547,-0.06274205392273638,1.1177032693961695,1.4370721898199086,0.4759555401074761,-0.35214285222891206,nm,0.0
45.37425994873047,-15.546232365284357,-0.6175751372476562,25.137748263339894,2.682335886665092,-0.3783025411125215,2.1724204184193736,1.7426336550257677,0.778672087604338,-0.13431121147633415,nm,0.0
45.398215770721436,6.736181197301569,-0.5488587351854362,27.83260598397869,2.8149690320390506,-1.9080713499071091,3.2085649816534096,2.034701493064403,0.9879031916242835,0.4115036057552575,nm,0.0
45.40301990509033,17.34422848113902,-1.4032415662513387,30.357079384324543,2.086385647916588,-2.4935905502963895,2.508616444594968,1.9503014346528462,0.8795837094101632,0.5322389403551321,nm,0.0
45.42772889137268,31.346991497411274,-3.6766404308052407,33.08431841953201,0.6885490959465866,-2.8573659268290648,0.26222898993703053,1.0413700694044696,0.43991335114261654,0.20524780425927555,nm,0.0
45.43127083778381,34.54959292392769,-3.11852091871363,32.89459350708472,0.2888220885838854,-2.4545978263606574,-0.3232843100408669,0.48633290140786933,0.4411556697975599,-0.010141651239534913,nm,0.0
45.4556782245636,33.95077686574608,2.2079153577136514,31.119766454573362,0.22903929987818966,-1.447015745678797,-0.5613574825842739,-0.5588175978138065,0.36183965244492344,-0.22293084304273494,nm,0.0
45.46455454826355,30.886897427287643,4.6838373004473075,29.975867219683384,0.5626745775447253,-0.743199444735997,-0.3333415765584057,-0.7701190942113174,0.11266107809024141,-0.20283144900933744,nm,0.0
45.483659982681274,20.440329529492843,6.658606991739303,30.208850692551856,0.5027511140897323,0.5755494393707044,0.04878468566446473,-1.0584210494826714,-0.49320676151295195,0.26182138277283207,nm,0.0
45.490240812301636,13.998706745263211,6.6755745707101495,31.949509680130024,-0.09949190593988833,0.960635449179413,-0.052236729182766097,-1.0884314347112676,-0.6633768052958524,0.4895076151010914,nm,0.0
45.51664710044861,0.2904133294141069,7.03903807903457,35.60116114164661,-1.908700617853786,1.8591955720039293,0.5066941954892309,-1.2177921956648228,-0.769192068593372,0.4755998288234419,nm,0.0
45.518322706222534,-7.488543607015177,7.5720120835612335,35.91038951214662,-2.5128803214415547,1.8333638292630592,0.022018563178248657,-1.3035562080976981,-0.8219553192725126,0.25544781718073317,nm,0.0
45.53885293006897,-22.635357993639072,7.1712722736197305,33.220809952781636,-2.7139651964108817,2.099610582373473,-0.7297622992493422,-1.169730714760825,-0.9320905969846622,-0.1528894662374198,nm,0.0
45.54550313949585,-29.60303742342705,6.236782568371724,31.47992766133669,-2.146227945089177,1.7284520464806383,-1.338771860408567,-1.057780400293109,-0.905960458305839,-0.18488081103720017,nm,0.0
45.56939196586609,-39.39228446691656,5.113043418414513,30.085297273595234,-1.5687706504205106,1.5883028598128959,-1.6927045698754581,-0.691372891354709,-0.48158828266383363,0.02079067502654663,nm,0.0
45.57526135444641,-42.42385346392276,5.5519189815762084,30.345876280717995,-1.3642159800309486,1.1781193990770775,-1.9268746496092313,-0.5538705558080923,-0.23448687923686032,0.11179065122978224,nm,0.0
45.59960913658142,-44.654164632103466,6.911738347665438,31.16713751402407,-1.4365820064771013,0.8041089540729182,-1.689607211608423,-0.14702831436444774,0.024411124086096615,0.08605307230022068,nm,0.0
45.60416889190674,-44.43544681156957,6.623294079398747,31.044824423579428,-1.1205271323344421,0.4696152718494113,-1.5593460838511954,0.07980409026854592,-0.03288628344122087,-0.026196026817870918,nm,0.0
45.6266725063324,-41.69337564928807,3.373317090733805,28.881327808229276,-0.055507593048005385,0.22298848880209207,-0.9927135605575629,0.5059485196799094,-0.18406119012236594,-0.2981560037595249,nm,0.0
45.63250970840454,-39.04634658248549,1.183633006681191,27.31151361088043,0.656836957115691,-0.06628450291351703,-0.719702283783964,0.6858439854807453,-0.14448138422024157,-0.3322763292063509,nm,0.0
45.65192985534668,-30.68348815143051,-1.6775459252831157,25.566936119010727,1.5482522750076966,-0.4620063187739107,0.48582983467375396,0.931943914381712,0.20632949510723197,-0.07900263597002057,nm,0.0
45.66137957572937,-24.719432752188577,-1.9067506920364512,26.15764697044882,1.4995320258759486,-0.5236438630091661,1.144107950083696,1.1062365037043216,0.47154845753261954,0.15594086412667454,nm,0.0
45.68211221694946,-11.724875270061515,-1.6347740700372781,29.57584552997855,1.2331587177906134,-1.073847673509179,1.7514979668408968,1.1216846483502005,0.6243521818661657,0.4661435932027519,nm,0.0
45.70049548149109,-0.8537006336536511,-1.965388367694492,32.74507130075661,0.6132987063393084,-1.5852244506440551,1.7050849792137481,0.8705057295487235,0.46611950979281885,0.2621369721691767,nm,0.0
45.70771527290344,2.098038523159913,-2.2469288354741916,32.76315772796855,0.5468865305360991,-1.7480643102897373,1.2323924899410228,0.539685899737563,0.2669160996678909,0.02019505963392116,nm,0.0
45.71686816215515,3.329397530601815,-2.126594600363645,31.799502152303116,0.4218126889344815,-1.6911361590827871,0.758568907965933,0.20772589946667394,0.14660178913415156,-0.18894892148848813,nm,0.0
45.74103760719299,0.830350314590513,-1.321936266060603,28.987712866852345,0.1634313136939258,-0.930391309489417,0.8050128856782744,-0.40099171524052485,-0.15709045670370175,-0.2873158824834677,nm,0.0
45.760437965393066,-7.472228355504492,-1.0366364884709829,28.733658505233503,-0.015338742250069693,0.18213658708182745,0.6900292576129708,-0.8153038147088745,-0.4278154189174564,0.05518825856376698,nm,0.0
45.77582597732544,-12.841248645954431,-0.8102091210707087,29.914088611767745,-0.4238616463457654,0.7200549577335466,0.5869333686462557,-0.9469074779366935,-0.49381479966370534,0.21659054902348648,nm,0.0
45.77963662147522,-18.67773589265732,-0.4626821706688729,31.292017493226055,-0.6558725532388308,0.7893514810978741,-0.012740638423206897,-1.0285261931138676,-0.5418211816120267,0.2616234594967015,nm,0.0
45.796069383621216,-28.580474489091593,-0.16351699836865613,32.37049691318288,-1.4470901162576029,1.1383110329004822,-0.5415795202125363,-0.7757456038323961,-0.5115744299322411,0.022859019200627148,nm,0.0
45.80183529853821,-32.79881701370587,-0.7970410329601094,31.671858995099903,-1.1866565549120798,0.7865412919334527,-1.0478310029190567,-0.6361978054853948,-0.5619256848398196,-0.1449029015387512,nm,0.0
45.82902407646179,-37.431448395326825,-2.942806841353525,29.341912099192307,-0.656877337652561,0.854522577152695,-1.0153488639185906,-0.17778104705445988,-0.36227905235310365,-0.24821533322544098,nm,0.0
45.83314919471741,-38.10014688744418,-3.5386138712879593,28.522657726987028,-0.2873433663635584,0.6524617600719882,-0.9554882603682153,-0.04721536676349291,-0.17620714080335925,-0.16813305793531255,nm,0.0
45.85663032531738,-36.1436025073935,-2.7210810267794456,28.858563508558102,-0.19043415568480757,0.5221284325926322,-0.5625877951881292,0.19625777062194197,0.25389588664004326,0.11952601175601958,nm,0.0
45.86564350128174,-33.77509070266687,-1.831365129594259,29.843617650068396,-0.3152752652723891,0.37384901098945583,-0.41133464689138866,0.33821202669988265,0.3805949483364907,0.2184230770359873,nm,0.0
45.868908643722534,-30.585710060612787,-1.204467234544287,30.901113904157175,-0.4496984792209489,0.26459658940028163,-0.2423414010724041,0.500020802128691,0.4242800690997031,0.230216416338847,nm,0.0
45.89558386802673,-23.179537182491963,-1.3617470756159997,31.141237808902364,-0.5018576419203571,0.17933809143158755,0.44662180137164303,0.6572137882198256,0.3142886693263873,-0.0024222688363800494,nm,0.0
45.897337675094604,-19.90758527360838,-1.8618876817792889,30.147167731434973,-0.05639421759508459,-0.3071494171027592,0.3638536171742552,0.6276442516587701,0.2394602963660261,-0.13434215137936564,nm,0.0
45.92294263839722,-14.246308838277487,-2.6012420130536187,27.903745096929214,0.3105971756128642,-0.5105434004098829,0.7010348479023956,0.45793136008734636,0.16927666215206488,-0.15076885803646184,nm,0.0
45.928364992141724,-12.826948067251331,-2.701353325103724,27.44524390627154,0.5093165797301368,-0.7709687940160317,0.45111706236156934,0.27319333864545303,0.1063763776075089,-0.046093409152084014,nm,0.0
45.96152949333191,-12.233324065669953,-2.642608613473413,28.398602638490985,0.23048662654744773,-0.5272694433852607,0.4319130090487555,-0.02508288163841155,-0.014207472306225506,0.16788185233301767,nm,0.0
45.963310956954956,-13.053514659683911,-2.537220269777696,29.16850842942197,0.010601480905046394,-0.39008634174295725,0.27594049536380516,-0.1415407405025932,-0.06729653431975502,0.17359561366348805,nm,0.0
45.976420879364014,-15.90525615456876,-2.5121637159709085,29.481074682360777,-0.33427083530345464,-0.028029562249198555,0.0793252171474254,-0.2695638318953336,-0.17787315735920936,-0.01515906443250384,nm,0.0
45.983083724975586,-17.586562359912325,-2.7081390499192572,28.874599540357313,-0.32857553301833664,0.09158873781735803,-0.014640890302161317,-0.2621981828251308,-0.2051755974798198,-0.11778390774472747,nm,0.0
