timestamp,roll,pitch,yaw,acc_x,acc_y,acc_z,gyro_x,gyro_y,gyro_z,markers,motor_input
40.511144399642944,-33.73088965338324,18.834893224637298,43.99923905772231,-2.2137825722748543,1.6899640685269892,-1.4056338577157907,-0.8263085358150171,-0.6852168415082575,0.437909725344228,nm,0.0
40.51684331893921,-37.96130326523837,19.027331288902708,43.996428739146516,-2.10584593308523,1.3153017743872073,-1.743551960163204,-0.5899742340574301,-0.5309699196318527,0.31404225268683894,nm,0.0
40.53356742858887,-42.02866095483482,18.307514567927434,43.056028578151704,-1.7445036042976785,0.640381724952001,-1.681841264605523,-0.0846780077170999,-0.24789781185205334,0.0004680149060335735,nm,0.0
40.5478880405426,-42.061316645782036,17.522511892398523,42.074531415858694,-1.4372620557680944,0.48015479669094846,-1.3866762707859592,0.11552764771336772,-0.12339873854324668,-0.15004160798721006,nm,0.0
40.55664086341858,-40.99318924754199,16.73277440865225,40.70661525307761,-0.9674431053094672,0.200902345718317,-1.1748361160237235,0.27184577764470375,0.012271574986390437,-0.2842323879007019,nm,0.0
40.57879948616028,-35.46521995994496,15.591659332158018,37.723600925143,0.05480485148243652,-0.21035324852717077,-0.860289953493674,0.5764716604146195,0.319039166716111,-0.43287528814085696,nm,0.0
40.581846714019775,-30.365850739952805,15.36781222355816,36.39715572290661,0.47739593524959556,-0.2896379959350701,-0.5679841986706983,0.8268156646757397,0.5502303759986161,-0.4918688720848596,nm,0.0
40.62372922897339,-14.611516831657653,15.231932518150101,34.77399235666888,1.625176568604805,-0.42468117059895255,1.451718878615549,1.3998313281111132,0.9513790253152231,-0.5685732937810689,nm,0.0
40.62553787231445,-3.730922233726658,15.05418740687997,34.42527227669285,2.1718250095134506,-0.7469851375527036,2.781775016979966,1.7650772325392143,1.1555835339704859,-0.6021744262539888,nm,0.0
40.627190351486206,7.799373239827663,14.680894941844969,34.38572587867379,2.676305695638349,-1.6282296730017993,3.300167637438743,1.8959652779144216,1.190436194596465,-0.566736342263985,nm,0.0
40.63654184341431,18.61040404574714,14.29044604159546,34.627493551232114,2.4005923429787592,-2.558598245770728,2.0472190943852753,1.7824972674946968,1.1157875477992623,-0.46793381691063957,nm,0.0
40.65488862991333,34.992694747942814,13.83078824868958,35.83162125518448,1.4676793774090986,-3.0309653811094686,0.6117466872511751,1.104800174566818,0.7511923086176225,-0.21847714594523024,nm,0.0
40.65856075286865,38.91872899277396,14.2073998924804,36.568009489403764,1.0402585944147784,-2.648499442056979,-0.43712425542072936,0.5779225103459196,0.5094240550977275,-0.055566160599550926,nm,0.0
40.68667125701904,40.09419615855463,16.306964890026777,38.650716558314144,0.9407407752995425,-1.4644533001163595,-0.6151611389765497,-0.20899205336321752,0.12657972568866366,0.2300093947966692,nm,0.0
40.68845748901367,37.82649603925125,17.310480782442244,39.61366016172727,0.9108434519436444,-0.6926415437651505,-0.5421635190085694,-0.45733156906948064,-0.12056291579857571,0.3114502407686446,nm,0.0
40.69641423225403,34.12628907832117,18.00430001695552,40.45268829373,0.8216903462251404,0.022400379061402246,-0.23858381685473412,-0.6228121573986923,-0.35033839688227,0.3803831852552687,nm,0.0
40.721585512161255,22.91485862182346,18.592027172515195,42.847621103045626,-0.11641838209919843,0.840548383966862,-0.17141142627491995,-0.8801348930493863,-0.7750850633870353,0.5000459152273325,nm,0.0
40.72368049621582,16.422941425884716,18.51653604372344,43.66104056613632,-0.5797413962613569,1.1647770530593646,0.3791343766450042,-0.8742917762081425,-0.8625624742509057,0.48081117821449615,nm,0.0
40.75153112411499,1.33811996781271,18.331077200845826,44.30085021305671,-1.7451158321448133,1.7495804418956917,0.6026770090688376,-1.0679326840513779,-1.0733012929598782,0.49627161188890356,nm,0.0
40.75489687919617,-6.5967175421636215,18.26222389699348,44.27668197790063,-2.165250498437632,1.9293161633652636,0.38857228064910154,-1.0578015512827905,-1.0676383821580646,0.4881559772050478,nm,0.0
40.788601875305176,-22.107747112755607,18.485039949400182,44.98483511866527,-2.4471482523582595,1.980730647217284,-0.5962281358260684,-1.059468116090383,-1.0069023086648294,0.5066810440321708,nm,0.0
40.79027700424194,-28.77885811485617,18.915539231064013,45.32312309002869,-2.3443277916134533,1.7158313033362418,-1.0281472208285283,-0.9383111705804572,-0.8411326151142238,0.46431026381340057,nm,0.0
40.81699562072754,-38.03399643435444,19.70195085875509,45.41019402133118,-2.0906067105091766,1.1228309161852825,-1.7655724965639077,-0.5649078995853201,-0.4929740846357215,0.26826871212274295,nm,0.0
40.81890106201172,-40.5977243738504,19.810235092311572,44.890250364393424,-1.847312629226626,0.7661041398379594,-1.8464806917543752,-0.34241315755247587,-0.3293492858879523,0.1044075064411981,nm,0.0
40.820648431777954,-41.78547801872323,19.544686592787446,43.961448770792146,-1.6399125674717085,0.701851304483556,-1.6276337187020231,-0.10897790773924507,-0.19723584461420718,-0.0574648823504274,nm,0.0
40.83635330200195,-41.91716674163769,18.977898237520137,42.896103758101,-1.1945984094969722,0.4858853894112599,-1.432278880719847,0.07402007213320516,-0.10254547136625747,-0.2034240136157708,nm,0.0
40.841628551483154,-40.98663498499188,18.306769893253403,41.47905702004556,-0.7486295145236181,0.2320899634052324,-1.2306132187384335,0.23505105664140355,0.015550006088791528,-0.34218988167109465,nm,0.0
40.86217164993286,-35.90909524645447,16.99586850384993,38.19399550664457,0.18404577462962998,-0.44480754243501514,-1.057777298014215,0.5572983367179846,0.2723850802757221,-0.5201507431155128,nm,0.0
40.86828112602234,-31.005270520409926,16.510027655081505,36.47760484377772,0.3627358422682928,-0.3033676258962644,-0.5842249585307268,0.8200301738805997,0.48761484105651803,-0.6271859105123265,nm,0.0
40.89691972732544,-16.646408601284683,16.06566682480916,32.53725349442293,1.4230968565605646,-0.5668903833658281,0.6443211125543793,1.3070680928798406,0.8114524950090198,-0.8282915039976515,nm,0.0
40.89862775802612,-7.109027945828419,16.095404557077398,30.50039390780286,1.92920373253175,-0.448947096408184,1.2223329268134402,1.5743187900204836,0.9550363304729778,-0.9059411030164564,nm,0.0
40.90498447418213,2.272831006895772,16.516271960035002,28.73701643652999,2.217284350285529,-1.0721880419084262,1.390803557104395,1.5377759651654908,0.955089133134291,-0.854160471452488,nm,0.0
40.93853807449341,17.665480642007765,18.504605088090933,27.573944927659603,2.6274531362194598,-2.745221764622564,2.5962133173912303,1.0827750894219053,0.8435555691054241,-0.4454955328743761,nm,0.0
40.940295696258545,22.26446984009878,20.616910261341747,28.714123989965902,1.1725847014438535,-2.565781449867707,1.145424371490569,0.5732154978607186,0.7763811111901185,-0.09117024275169312,nm,0.0
40.944618225097656,23.926334799635857,22.606694241412722,30.303527151519297,1.1585846911959061,-2.7535532816904706,1.4949495253730196,0.08004769724824014,0.4936256864389275,0.18428803488918924,nm,0.0
40.96989321708679,20.743061130759124,22.417781020258438,31.985435919798288,0.8738525700361637,-0.6924981367748305,0.009717965045588325,-0.2995955461971385,-0.3716540811024479,0.29621510004396007,nm,0.0
40.97186803817749,17.29765857023445,23.055716806161055,33.278880811406744,0.6571036964935022,-0.024879288001442356,-0.10413937255238759,-0.5966522818526305,-0.241411355906041,0.515161158126157,nm,0.0
40.99600601196289,6.5125672836667325,24.88825100209796,35.50612570072639,-0.3101183544156011,1.0863406079528066,0.6447554144191799,-0.9708472525905455,-0.6340009256619367,0.6707751534194476,nm,0.0
41.00017523765564,-1.2653597994231989,24.786949837465265,35.98416681031276,-0.18156645675270341,1.531833515828344,0.3426635553496376,-1.12239730271383,-0.8518975650895174,0.6766712126207751,nm,0.0
41.02983617782593,-18.02685197135248,25.4169505089647,35.985552161678775,-1.8003338319000335,2.219572424791031,0.07100397988515325,-1.2797115438282174,-0.9458928815220919,0.6789610689933872,nm,0.0
41.031906604766846,-27.185165724413217,24.531248103353068,36.16854279984174,-1.916542757094111,2.4291092565947956,-0.1501395670998225,-1.223770277942661,-1.1307645046479056,0.7545625001706008,nm,0.0
41.0381178855896,-35.71866800800147,24.02840513317728,36.129196220200136,-2.267057848611549,2.38470362626898,-0.6615794855518341,-1.1838630740022524,-1.0065381372925086,0.6680044950046341,nm,0.0
41.06735897064209,-50.36532189448056,23.871970822021087,35.855605143498146,-2.1295333909458587,0.7313363321432224,-1.8551404031113234,-0.9695783355375366,-0.7395604789931652,0.5474811164590468,nm,0.0
41.06950235366821,-55.08207600371903,23.950282508647717,35.64179917359516,-1.6913906446245914,0.09650471355013254,-2.2033197199350263,-0.6960687164502357,-0.49485999478621134,0.3428769667162793,nm,0.0
41.093040227890015,-58.888575301197605,24.01382369333027,33.69331185405025,-0.8550895109412324,-0.8108974368562895,-2.0286814524343133,-0.10795018245626373,-0.11912587523009809,-0.1351689899439109,nm,0.0
41.09747910499573,-57.16299081759159,23.39777434251142,32.851058722666025,-0.36711086447708474,-0.6305011280694633,-1.666477356322828,0.34579626336937674,0.06689010409606776,-0.30427878965000205,nm,0.0
41.120466232299805,-46.18167800649771,21.89604311077847,31.18607809010507,0.4854628682693838,-0.14192301972177315,-0.5677602107104613,1.1550180284944285,0.5323335774797044,-0.6469310947897741,nm,0.0
41.12424063682556,-36.60166740551229,21.444337018368213,30.84443382873179,0.2520462223946863,1.548592791396622,1.27851596471425,1.5888028324379033,0.832168982470225,-0.7370690153005413,nm,0.0
41.14919352531433,-16.303437502065115,21.427302644388185,32.82283056847514,1.6904530988942787,-0.7448052412740028,1.9656345711906178,1.6416611211032712,1.0704248604005906,-0.4230616656608436,nm,0.0
41.15212392807007,-3.994989562910287,21.713680631895777,35.40098933830556,1.1706860636012821,-1.6858489994442263,2.5644584713103824,1.8794599601712207,1.3216175591313322,-0.3448191779929743,nm,0.0
41.17853665351868,19.23224015876742,19.618029301747804,39.90689364958875,0.789904134750789,-2.5300314709152,2.420721305879303,1.7059922851290148,1.0443052154149344,-0.3290072858632412,nm,0.0
41.18204092979431,26.43722342700024,19.84893509887344,41.02648509621387,1.3603249860643918,-2.762671514411624,1.7704374658574,1.0111289291325372,0.9129251447385534,-0.27471867526372934,nm,0.0
41.20531153678894,33.006744239310386,23.884443289971685,41.65957261580524,1.5012685453628691,-1.3995509882429051,-0.5536148944117428,0.03485088795466818,0.5891253005270107,-0.18321833605563245,nm,0.0
41.211933851242065,32.363100603264336,25.18943488250742,41.44061080890426,2.0074664302177356,-0.7242318581226996,-0.8881187905530407,-0.25477872160140985,0.11416634777139772,-0.0028227883696816396,nm,0.0
41.23613452911377,27.43428396782929,24.168509376186677,43.00445731681055,1.3334017820031001,0.28803930620600393,-0.384709139730813,-0.19895013319817045,-0.497444700697386,0.45698670346072284,nm,0.0
41.261858224868774,17.951120287531815,20.39872421402036,46.585765912860175,-0.37514592800194696,0.5357314996156699,0.35316434279912345,-0.442594035565999,-0.9846072100207579,0.7508922071836038,nm,0.0
41.26357364654541,12.007794335024089,19.402353044241128,47.837383959271946,-1.2332895794619239,0.5914381087127658,0.5545084689980959,-0.6034364225991374,-0.9600990496025013,0.6461945417837187,nm,0.0
41.266791343688965,5.322863827863397,18.997472460604943,48.10104742724771,-1.9995883367546299,1.0850315598892202,1.0610660953089497,-0.7729514512554494,-0.9982014952413027,0.4414935394711574,nm,0.0
41.2905170917511,-11.151601133166425,18.181545518121194,45.49606294764789,-2.298678052002553,1.6943452311610634,-0.022397277289438633,-1.0112174421420856,-1.229389901149286,0.14299735189095983,nm,0.0
41.296679973602295,-19.547151498394403,17.474044027430875,43.97121936866352,-2.394500625023043,2.3450026136143722,-0.14531559048113615,-1.0216389986893588,-1.2328255203021108,0.1654688903445029,nm,0.0
41.31867742538452,-35.490205963595876,16.63582501742473,43.42616479198791,-1.8922410126256486,2.1393490563682236,-1.3270560811900078,-1.00426526629478,-1.009514967890388,0.4593649343711688,nm,0.0
41.34156847000122,-46.51365719325584,18.089825609258913,44.533621061659396,-2.0326111840846863,1.0266748853248793,-2.2313806790062425,-0.7913496433612027,-0.5330794218224278,0.44101926818030845,nm,0.0
41.34504985809326,-50.018574355619954,18.728682935099126,44.632581865922596,-1.9163134918862066,0.24475264511798786,-2.382116799814488,-0.550311606109201,-0.3776120705700278,0.26451112729746096,nm,0.0
41.366682052612305,-53.04726104023693,17.48163219366642,42.2319668737713,-1.4669396268702362,-0.22776606128386426,-1.96780120984975,0.02118384708159359,-0.2964889642349139,-0.23212227506120528,nm,0.0
41.371264934539795,-52.69447039124389,15.709003356910104,39.89123595296017,-0.733286567392758,-0.3616779645101377,-1.696619511186468,0.2976941186212518,-0.2261348974993377,-0.4637994742747434,nm,0.0
41.396045446395874,-46.81464049849528,12.434386773205256,34.34175851835189,0.8396432738595553,-0.5665825808923911,-1.1083998006071378,0.7855803064211192,0.2062253785146903,-0.7146171547280336,nm,0.0
41.40112638473511,-40.04229220704081,11.845329465190003,31.88458044054335,0.9492480278268333,0.04096501988591541,-0.15997319853046096,1.1887755435528669,0.6183866308275825,-0.7474079118377255,nm,0.0
41.422707080841064,-19.607997837837193,11.05694219399153,29.556850622081942,1.8889283025760206,0.3912972096980091,3.120035632531001,1.9587928537782155,0.9696094285163697,-0.5301321437714787,nm,0.0
41.43108248710632,-7.38201641635951,9.88275439951653,29.631956500478307,2.5048949350857894,-0.40687286795137234,4.087534468535113,2.222485803876283,0.9742781920001531,-0.39388695558473424,nm,0.0
41.4571213722229,15.026669385565757,6.278450086014135,30.677301866800658,1.6864676068880773,-2.5107513127908865,2.4210121886933313,2.020895342003964,0.6878981124387352,-0.1561650412113167,nm,0.0
41.45894193649292,23.262014334547416,3.6826597295869687,30.807303452956024,1.1708380156277807,-2.948038376058413,1.6278862913903274,1.6875140535024034,0.3901201739455977,-0.12673674130788962,nm,0.0
41.46767210960388,28.61414474635265,1.534015883124111,30.539707566685408,0.683324026177567,-3.0016770845866216,0.5705810768131753,1.150195232148437,0.17353737345525058,-0.11233271116199639,nm,0.0
41.49069285392761,31.363140729926666,0.3259299552639791,29.591730420224355,0.24088469006482266,-2.1783211521960797,-0.6590102092936211,0.05913263929495661,-0.012732970992805832,-0.1231043038854136,nm,0.0
41.49335074424744,29.50572940875565,0.5607025587258139,28.821979978620313,0.584758004048266,-1.5400563149146727,-0.5038351970028522,-0.33760031822234166,-0.1434139113546629,-0.16128412910544154,nm,0.0
