timestamp,roll,pitch,yaw,acc_x,acc_y,acc_z,gyro_x,gyro_y,gyro_z,markers,motor_input
19.017120599746704,-10.561628811373602,9.81408031602425,145.45140486341595,-0.7560644014126471,0.7566774661330382,-0.18166263271698416,-0.121843555056195,0.2307280472913943,-0.007069391460450307,nm,0.0
19.01876664161682,-9.672979652782685,9.151011639730763,145.59656020486642,-0.8862711564696433,1.0646920722044113,-0.27776650708969136,-0.06826404759331711,0.2226190686437973,0.007079411031095068,nm,0.0
19.043869733810425,-8.857702427744826,7.979557229966608,145.9819567140031,-0.7016927493169373,0.9834748992375352,-0.30641557499524325,0.04512662026023195,0.12932535954280294,0.033370333936180836,nm,0.0
19.045809030532837,-9.17928534931588,7.366151641638676,146.22761240991343,-0.5780731898311717,0.9135544400799741,-0.2060471860302868,0.12237131374310996,0.08019934402211584,0.053691946211190875,nm,0.0
19.05200219154358,-9.824432133976789,7.124248176840898,146.53355254419796,-0.5185428033371757,0.7211335082117813,-0.2832864171774296,0.13435422840700578,-0.016732674270800357,0.07362121044549691,nm,0.0
19.075133562088013,-12.152995301928096,8.072081763236836,147.4492957672785,-0.38103287488781856,0.34084599459278203,-0.6709785631690124,0.14467075048832298,-0.23565684341632362,0.13522731365401833,nm,0.0
19.082003116607666,-13.563110214095245,9.104902040885824,148.07906896219933,-0.4855925572837319,0.19814806270347077,-0.619455501637356,0.126402922606323,-0.3098137654133467,0.16486750027022615,nm,0.0
19.103453397750854,-16.40078454274479,12.580834961473384,149.91871155634715,-0.4118048679004829,0.08431839931582694,-0.8193241528661054,0.04319166472428253,-0.45740713391352233,0.22002997527812843,nm,0.0
19.108872890472412,-17.02485961465085,14.609493090459912,151.14637702467422,-0.3438744132206408,-0.024531306408189974,-0.9261164164737266,-0.09349112706593757,-0.39949351023684393,0.23955751931951258,nm,0.0
19.13569402694702,-16.82696807164833,18.424900846124437,153.93962559480758,0.020772165733556364,-0.5155318855970606,-0.5764350692399924,-0.19894597230203875,-0.29670163078211603,0.2569111855461774,nm,0.0
19.137733459472656,-15.888505320029186,19.947383760630313,155.25273084515536,0.17125818572627627,-0.8241192430256647,-0.19497025862830208,-0.2918138896170503,-0.18531244429552093,0.20521127441521422,nm,0.0
19.16022491455078,-13.636205815491152,22.43578745988011,156.98104666540436,1.2812185936374787,-0.9760042914965064,0.12398539739536077,-0.29684614249989066,-0.10898914382316306,0.052976868423806715,nm,0.0
19.166961193084717,-11.921275585361283,23.07941676086342,157.35204457815863,0.9596364891012517,-1.1735404150779385,1.2251312755671524,-0.3425414384753112,0.01761907661079006,-0.05889637475489341,nm,0.0
19.189939975738525,-8.687597967247726,24.38158985132814,156.6621528764098,0.9929021515366963,-0.4688490391152511,1.000378964083797,-0.35502006957794136,0.019501235672291322,-0.2474489392569556,nm,0.0
19.198127269744873,-6.587787836662194,24.432310840120145,156.01984330601226,0.6712549497520242,-0.37096080653507024,0.9760593401253076,-0.3547122944777681,0.15740367259055205,-0.3018495591331653,nm,0.0
19.217549562454224,-4.239748292029459,23.068515367032052,154.44178452087226,0.8244159098766167,0.19850052300956342,0.8527794315956609,-0.0602270905074239,0.2108049471203802,-0.22841079775739814,nm,0.0
19.223706483840942,-3.2769558925727313,22.16324728670433,153.61770985222958,0.6639820108034418,0.12906714518730975,0.9641734422136763,-0.08006451202694112,0.25364761860846835,-0.23907778070971739,nm,0.0
19.24597716331482,-3.5312459860766543,20.352421505040414,152.10294547044987,0.4483302973176886,0.5175287925567867,0.30754061318340276,0.16271323373194924,0.13334858049480217,-0.11335749188613856,nm,0.0
19.252103805541992,-3.968878761362643,19.334300172498697,151.62639305962884,0.12599603586833827,0.38443469228094135,0.20472366620250443,0.16944802715347945,0.15383010938990047,-0.07210741971353839,nm,0.0
19.274535179138184,-6.106646289626969,16.654149973431664,151.05629054870917,-0.08369082261909473,0.2894981486104882,-0.0400514446646899,0.3359089422150125,0.15401060615317433,0.043317647389447156,nm,0.0
19.27926802635193,-7.270078721133678,15.257031550442342,150.88214194690744,-0.24944537824693133,0.0655682094569539,0.09010541941772456,0.33212290479459333,0.14893892057510746,0.049502043427476154,nm,0.0
19.30331778526306,-9.711727979164896,12.690250733273155,150.4410753847685,-0.40785312047042765,-0.005433062912111945,-0.15294065637483592,0.31303337953156846,0.1265014619507852,0.005537122836867417,nm,0.0
19.309335470199585,-10.704210068298133,11.578509572113136,150.1277231011289,-0.6520645026234682,0.021671195560185104,-0.14973629774950886,0.27930929212383476,0.1108297283858284,-0.025227420206659582,nm,0.0
19.331854581832886,-11.781665316768454,9.78848833687891,149.5062370971888,-0.8862803098470092,0.38334310845212105,-0.4461991562625788,0.11245005934278592,0.14734030671437115,-0.049903339217877415,nm,0.0
19.337443828582764,-11.665122040004112,9.009174281474985,149.40345033641125,-1.094865838130386,0.41569451784169087,-0.3344343454379803,0.059706384766735815,0.1600476785534283,-0.02815697372683653,nm,0.0
19.345456838607788,-11.463209470990662,8.402190198657335,149.38042740820006,-0.987535462032715,0.6804147214106101,-0.588248514671414,0.027775882318201744,0.13889847102749941,0.0016567637754557167,nm,0.0
19.374295473098755,-9.792345506510822,7.564439408634031,149.86496446413622,-0.852883973448872,0.5784684096612245,-0.557954778829004,-0.12580673527159833,0.17326574906217498,0.04023828551874686,nm,0.0
19.37673544883728,-8.666246577463337,7.381420051972218,150.23889778759178,-0.73631771366365,0.4203801163475783,-0.3371473532231968,-0.1755002105310938,0.15719707728472396,0.04133824069202473,nm,0.0
19.384838342666626,-7.804910988916267,7.48902566230899,150.54310978782786,-0.40670703962089216,0.4213483636853353,-0.4461107779236032,-0.15948007884877682,0.07953709591093475,0.034200612522646355,nm,0.0
19.413129568099976,-6.185975892601914,8.61842331827018,150.93581991335336,0.11069895749929715,0.2549469398037954,-0.23032250244095875,-0.2130024662320884,-0.03403043958822193,0.004411934813860374,nm,0.0
19.414997339248657,-5.7556461409500095,9.756308101422585,151.08770555174982,0.3964905130878597,0.22474714271770127,-0.27006460207594096,-0.18484630463206725,-0.1446697926188847,-0.0035116842396910645,nm,0.0
19.42334747314453,-5.5162444513579905,11.265130302163913,151.15958897612617,0.6726488877563161,0.09577774605873587,-0.190249388245787,-0.18702329894796163,-0.22848593046437357,-0.015932964141779565,nm,0.0
19.45941662788391,-6.400509577653107,16.55617090069322,150.3678741080678,1.1010098210073824,-0.41168448600136415,0.654009582773016,-0.08205078042186464,-0.3518867766238084,-0.11156556537837276,nm,0.0
19.475659370422363,-7.305569049896658,18.164631821340702,149.56240191067553,1.068043450463233,-0.5736840119704907,0.9607874493871982,-0.009921512274355886,-0.3521749223942643,-0.15272942447036755,nm,0.0
19.478874921798706,-8.59676903498742,19.47211359284186,148.47037617678214,0.9498248946614835,-0.6362450774891348,1.1175568262410687,0.07677947835945886,-0.3370475944211309,-0.17440947279270172,nm,0.0
19.48176407814026,-10.114485363333573,20.42626351325898,147.258298638035,0.6719883118451985,-0.6756889341461928,1.1473545911279626,0.1421845937331587,-0.3002459441766488,-0.1711805980569504,nm,0.0
19.489598989486694,-11.81233838132367,20.978922710865845,146.08718420766849,0.34771098872527645,-0.6270872527478505,0.9366938909872364,0.20684477002934668,-0.2536876933713249,-0.13022909558274023,nm,0.0
19.511824131011963,-15.446796364767815,20.685160364680105,144.6520625730108,-0.02276525899343584,-0.38169652546752786,0.11512002488445393,0.33918606347628055,-0.1250855517110698,0.027224880477071157,nm,0.0
19.516992330551147,-16.752967890597542,19.68715433286519,144.5567358413326,-0.05805282557789363,-0.26656740636637033,-0.18819767178716648,0.31774330985544375,0.03448209737003278,0.06720415552383037,nm,0.0
19.54747700691223,-17.963725463021905,16.51384940719097,144.5486898296633,-0.15305657537234182,-0.43811387281019243,-0.3276196622730563,0.2995262969911816,0.22164809906088193,0.05966227496904071,nm,0.0
19.54942297935486,-17.96247987701802,14.58225049194019,144.51651869499307,-0.04974744856149455,-0.4176918664096092,-0.36339437278778963,0.2260864478746347,0.32899397763210314,0.00948266066516089,nm,0.0
19.56208086013794,-17.43110945172099,12.589368000926246,144.39487110962554,-0.16693463293443905,-0.43573693414418535,-0.11889768113157916,0.14967896564902958,0.3987638232325963,-0.03412757878131047,nm,0.0
19.566973209381104,-16.75682816932334,10.87471820425862,144.162145236063,-0.01977321731936703,-0.10301439544434698,-0.23051416390616333,0.09494744487030768,0.3699285124189305,-0.05923107109419872,nm,0.0
19.58855104446411,-13.926357786214748,8.493332554552781,144.03111221000157,-0.25429701074688177,0.21960919739774487,-0.1657068378062652,-0.14044756882002452,0.3745212994074385,-0.03989445147757161,nm,0.0
19.59437656402588,-12.35508951435576,7.761514371633558,144.22535173326816,-0.5250279654160939,0.2763508992738007,0.12152763069273186,-0.16493774583182452,0.31530606435495856,0.003987077989003556,nm,0.0
19.619378089904785,-10.19358722948936,6.838470454710494,145.10409489276856,-0.5415614882433882,0.7714451795243591,-0.1530714931165776,-0.1381074582213929,0.2171043724262427,0.06799095094887417,nm,0.0
19.623538970947266,-9.414348442247539,6.411369379775821,145.6307816733874,-0.676424769175839,0.7640291598531251,-0.024361852349729807,-0.07800418257104225,0.17229539042306058,0.07364142234930239,nm,0.0
19.64664125442505,-9.236832751732576,5.702644449967687,146.32230991715406,-0.5865314096446874,0.7575126539736735,-0.17626038313403297,0.03563251896062368,0.07219441696757037,0.04361849552927797,nm,0.0
19.651520252227783,-9.641397855406169,5.40216804226501,146.52183283492738,-0.580735467928147,0.6668859034863703,-0.2087689450113162,0.10117166722808278,0.019517298137802536,0.033787432236248416,nm,0.0
19.6752712726593,-11.022263047424593,5.35516498356505,147.0041869559134,-0.5254785114868259,0.40216633945255403,-0.3255266850741696,0.10937060833464914,-0.07878566931864223,0.0469275852792617,nm,0.0
19.701311111450195,-13.522868076408335,7.246587754529305,148.28848654266636,-0.4040433970336396,-0.036982885337455806,-0.5273469388025831,0.024077556672572935,-0.22015118524025445,0.08645654317018549,nm,0.0
19.70989441871643,-14.376038614324656,8.44018625457985,148.71650894036313,-0.26545942206552303,-0.1229684954025911,-0.5648487643955118,0.020141662176644468,-0.2780836453985266,0.07815392447718533,nm,0.0
19.736799955368042,-15.375484226301415,11.512440540811946,149.25388112661477,0.03750298874699967,-0.370724467929513,-0.42498435286359465,-0.1302384879063746,-0.2920411708799729,0.022134970372646928,nm,0.0
19.738458395004272,-15.643055196326577,13.325724885322593,149.34119912210213,0.285704147901617,-0.4758311668761687,-0.36046824974425484,-0.13970235691115385,-0.32500706625808323,0.00652382992925919,nm,0.0
19.748236417770386,-15.735086047828489,15.220199375095243,149.42541192994406,0.612357763945834,-0.5086264318353316,-0.18230406088883766,-0.17707285136437445,-0.3217344364576788,-0.0005636637648481115,nm,0.0
19.755465984344482,-15.364188475528739,17.115815832631526,149.59099745598428,0.7369161775857926,-0.7541873064578943,0.37732824940331794,-0.25327025096275657,-0.27720373560828393,-0.009797142888403599,nm,0.0
19.76559066772461,-14.867453743945902,18.920749886968512,149.7777606060004,0.9890912654604798,-0.7834090235875993,0.74321402856189,-0.26330928685922556,-0.2505820388188456,-0.008268044929063472,nm,0.0
19.788808584213257,-12.895193585596948,21.824312480364814,149.97092178242428,0.9259706667245959,-0.8690057029742625,1.3917818425203083,-0.31977309291144485,-0.10140877241957386,-0.08334826859921612,nm,0.0
19.79450273513794,-12.158515551796913,22.684069212309215,149.7333040737665,0.6173614567464047,-0.7453519555976047,1.512453074562429,-0.20346683093311432,-0.0668591614331226,-0.10861629162683274,nm,0.0
19.822110414505005,-11.95074257246714,21.329289242757685,147.94895453666606,-0.10430364708751981,0.17535771443051376,0.4647267342625344,0.15576148443188514,0.19045185061975844,-0.09794821177473345,nm,0.0
19.84250831604004,-12.592155916851324,17.343915968556992,147.4746423744986,-0.23776858688976416,0.20355436335247717,0.2959024214137597,0.28160168210750164,0.3636319477966418,0.028458432458382418,nm,0.0
19.857184410095215,-13.073149354276032,14.90073753136217,147.70442919816614,-0.06386337453897897,0.14923793979767444,0.15713425617411725,0.34179941639158573,0.37676760533101156,0.09970969045501792,nm,0.0
19.864651918411255,-13.442057562886411,12.521626834405165,148.10228623692853,0.06564482476506589,-0.03213486186030683,0.11864190277702255,0.31514921492498643,0.3789513773824201,0.12396748611951575,nm,0.0
19.884934186935425,-14.072366088600619,8.399061638826392,148.74703965612647,0.08425254007353217,-0.08518256594339997,-0.18694682902592968,0.25601767041587353,0.31184043862306576,0.07770035405367856,nm,0.0
19.888413906097412,-14.145191520385387,6.755681959345134,148.7482305400146,-0.12211555145229654,0.009132088068470417,-0.2572199087233515,0.18362646039361005,0.2877782105763229,0.02235613935753831,nm,0.0
19.913451433181763,-13.9221055807998,4.03109407063989,148.34119573652197,-0.5491989950952678,0.4827486469227016,-0.42053190858836076,0.10579645678695389,0.2549722736961213,-0.03841965641013276,nm,0.0
19.92189335823059,-13.57433412569788,2.8445028440758144,148.16705111874768,-0.7445712853659516,0.6168416865963091,-0.35058965194567915,0.06626121412073713,0.2528127133026765,-0.03059520764692423,nm,0.0
19.934465408325195,-13.259645850437925,1.8045208172287361,148.13230546250898,-0.8121135110501184,0.7302495187233533,-0.34491773685962523,0.056670162477089524,0.2243293006770108,-0.006530204270678692,nm,0.0
19.943197011947632,-12.998191622153552,0.9350749720302585,148.24014254647813,-0.8047508867232643,0.7658303361813953,-0.3308142639497792,0.047477183638190305,0.18976414637192468,0.021671752691979126,nm,0.0
19.959500074386597,-12.781950020412635,-0.1035229780107581,148.68453276150666,-0.7028065849955593,0.6488729521226289,-0.3131437872490564,0.03501352733110464,0.08301484951026837,0.04920464611660466,nm,0.0
19.96483302116394,-12.874054893479402,-0.17518967615958142,148.90887142463052,-0.6154546595130689,0.5743698122288518,-0.4088054608929668,0.023147837090926306,0.01697825647393798,0.0425114628477671,nm,0.0
19.996666431427002,-13.320223145508669,0.777899710035431,149.21547014074437,-0.42048861596721404,0.33722145831221,-0.4853061066557966,-0.019923245912352883,-0.12791016604638075,0.011109695189000133,nm,0.0
19.998399019241333,-13.617543700682189,1.815069843539473,149.32255390294577,-0.30423640197015234,0.2533845550914242,-0.5425423139623661,-0.05489065129160534,-0.19473540355509686,0.003372766204997817,nm,0.0
