timestamp,roll,pitch,yaw,acc_x,acc_y,acc_z,gyro_x,gyro_y,gyro_z,markers,motor_input
14.024961471557617,-14.064389890420728,-5.96437738726583,143.85534881834963,-0.291487208806612,0.35542344137198884,-0.415401357544372,-0.04236298471774213,-0.0882119448618993,-0.019193566206006357,nm,0.0
14.027198314666748,-14.244750721468247,-4.979722261111231,143.93646483247733,-0.31145070111798556,0.2614234251596038,-0.28408589647612026,-0.08586011326966261,-0.1662388154847431,-0.012626213183220025,nm,0.0
14.030524015426636,-14.517580771953456,-3.4222761627639673,144.03219859339535,-0.20560410118285571,0.1980201893471134,-0.2994242999367028,-0.13808541198930366,-0.27002603890045873,0.004259490122134302,nm,0.0
14.05120849609375,-14.788451892909269,0.87926170055,144.84578140551213,0.10403034501547812,-0.19110323760812412,-0.29176967170992046,-0.2515687136756011,-0.37445849298739803,0.09151311258954754,nm,0.0
14.066965341567993,-14.794110470035069,3.580597523684323,145.6177296119852,0.40346646578439654,-0.4142368039926125,-0.2649372968912337,-0.3060807657797765,-0.4311430152196586,0.12462651286962104,nm,0.0
14.070035696029663,-14.554948147023248,6.525356605821533,146.55590420395203,0.7562522753045154,-0.7507040452480901,0.023848624392584915,-0.36707911990946884,-0.4491506892739387,0.1456052442230461,nm,0.0
14.079395055770874,-14.005925911388458,9.376594980915586,147.59409042620067,1.0476502607255433,-0.9771302085018511,0.43905288889914523,-0.4004459762922537,-0.40657209242311154,0.1562906653744493,nm,0.0
14.107141494750977,-11.597994706862632,14.108252561472503,149.3744314762741,1.2289074623912348,-0.9343727677411447,1.0667446821421804,-0.45854801909785936,-0.21370036736284878,0.08301304148414589,nm,0.0
14.109010934829712,-10.03879125201695,15.553410054660612,149.76540614075256,0.9807649415567291,-0.6153850641789981,0.9080703539414425,-0.40623436479054426,-0.08294774740610569,-0.0015685674603182246,nm,0.0
14.115932941436768,-8.768228734961042,16.16758896769983,149.6492212360074,0.4877143341328601,-0.18785338653192224,0.810019435069419,-0.27265490775976603,0.030855089997356585,-0.08777455843845806,nm,0.0
14.126891374588013,-8.028215019158026,15.907520123892168,149.0707109385722,0.07042813649307038,0.18367867192481127,0.575576728985949,-0.09510656708387868,0.13086308799196864,-0.1485500659799301,nm,0.0
14.146945714950562,-8.460460465209293,12.594831855462195,147.42619101094095,-0.28563549529501503,0.4575425600477103,0.32254848313627743,0.31310516695190055,0.31017194742234994,-0.12496176081610066,nm,0.0
14.156592845916748,-9.402508484019853,9.98535264884805,146.83847634168515,-0.14350296008136657,0.2682934645705164,0.345471081065082,0.4401385418357178,0.3518733046452639,-0.06672824336653632,nm,0.0
14.182406663894653,-11.888352203826857,4.616944745771869,146.5633116573987,0.1604062531972682,-0.2489382351106574,0.21796655246581845,0.5041743036969218,0.30114317264068863,0.03602825097561962,nm,0.0
14.186151266098022,-13.127491412827707,2.4452291132151522,146.66372414329763,0.20173982510785532,-0.37192581484592624,0.00046963266872633737,0.4468179453545243,0.2407380527599068,0.046091738951452285,nm,0.0
14.212544441223145,-15.02194449255111,-0.691758150331094,146.53530192867925,-0.052522051098333175,-0.17586010582375902,-0.396948403239436,0.30022892647948035,0.14822127138434085,-0.029543042284360475,nm,0.0
14.22808289527893,-14.956788125538997,-2.718770578066221,145.48037622821033,-0.5649272064535618,0.3566825725611268,-0.4185552680879978,0.04057926348850154,0.21309516069464843,-0.12553651514715067,nm,0.0
14.24460744857788,-13.127917484971295,-4.380971289407269,144.0966196334005,-0.938856319866265,0.7317388259228382,-0.09012036106006033,-0.07799188425204673,0.26490810241411855,-0.11925436150075341,nm,0.0
14.26202392578125,-11.785818500113175,-5.509724922316508,143.2331868807942,-0.5220460334000707,0.8693433097530837,-0.14310164416889387,-0.030028761869700386,0.17572979084211252,-0.03685812470646715,nm,0.0
14.294880151748657,-12.427708108766168,-4.85587654605545,143.7278704669359,-0.346631772830218,0.40461111057849525,-0.23553930622399133,0.020432270850779644,-0.1548777035420958,0.055830040294458365,nm,0.0
14.296580076217651,-13.27973035058916,-3.9721267069197306,144.15935989321164,-0.48872030345409767,0.22341006225915844,-0.13933714738438252,0.03438459120898334,-0.22887398774603882,0.07147957015693773,nm,0.0
14.311086177825928,-14.347362987066745,-2.6868591783473503,144.6987150225415,-0.5003458170089479,0.19238875394609645,-0.2654009399398932,0.02511816157673091,-0.3191458345135127,0.07512768615894685,nm,0.0
14.31863260269165,-15.285808071064219,-1.0558683324067442,145.28945266238324,-0.4614123276223361,-0.028623796342686823,-0.29107420530539396,-0.03228562375293319,-0.3609561119962209,0.08890729373923813,nm,0.0
14.338913917541504,-16.56074328548714,2.752793900672635,146.92238873040534,-0.015605227872473088,-0.1788260332706,-0.49717456437954627,-0.16205770024892155,-0.3608321569559046,0.15155073369841662,nm,0.0
14.344883441925049,-16.2951977752348,4.980846057538425,147.960657097433,0.25323630644316414,-0.652703694002625,-0.2755929648940358,-0.28422792706937294,-0.33337632919923293,0.1889660428712349,nm,0.0
14.374452590942383,-14.66448542109752,9.322933826234628,150.57869159469655,1.016501158466077,-1.0290812787644301,0.4756617722640506,-0.4080648676389195,-0.23980838812643412,0.24432546060336235,nm,0.0
14.376335382461548,-12.966151058897966,11.280697687072925,151.8874640015265,1.2597840277764631,-1.0890776067260632,0.8116295127435934,-0.4822196624216075,-0.1686378963811238,0.1974003075729004,nm,0.0
14.387633800506592,-10.888887972723923,12.943110617630216,152.73215415921132,1.4127431793271716,-0.7632590989085027,0.535341076296253,-0.5151177040228365,-0.09196864774639363,0.07741917080868642,nm,0.0
14.39223861694336,-8.37632944356321,14.226563908707735,152.74676728181456,0.7965233483922961,-0.8649594200874934,1.2252803373502694,-0.5526177029041002,0.009405579308057112,-0.10863338752949094,nm,0.0
14.418693780899048,-6.3881941617698725,14.815776888144505,150.387753135894,0.23296158257456476,0.4162530752363096,0.29708471742818554,-0.10747019435699673,0.09796070746745697,-0.3312601247634636,nm,0.0
14.4206063747406,-5.913937121832571,13.965151317781935,148.82240500577018,-0.3365924315852327,0.42397311236280416,0.707858117977363,0.007574889716887021,0.2068080120749999,-0.342485789343263,nm,0.0
14.450243949890137,-7.335045139204542,10.46324058610809,146.6270724204486,-0.12231192112690864,0.6205544709741332,0.13843589975073076,0.34027471897463285,0.2728286735325257,-0.1318240136903715,nm,0.0
14.452533483505249,-8.306144183098478,8.198752390424739,146.25675500277288,-0.20866144907141113,0.2146092375000308,0.43096130425205675,0.4117618639353065,0.2851225963330527,-0.02435289112038872,nm,0.0
14.477211952209473,-11.199616148536334,3.7412117877100526,146.02766257701197,0.016762916263535408,-0.2205263665682044,0.11494379507238205,0.47019920919357633,0.22642529783676546,0.02059718573828392,nm,0.0
14.478881359100342,-12.564533018414895,1.6664327359939966,145.6725705057323,-0.01761472856167874,-0.3105736240806871,-0.08461545615678129,0.4600641802670358,0.20445983333124298,-0.047838140328648124,nm,0.0
14.486533880233765,-13.69899773381107,-0.23344760119814034,144.8830035346344,-0.07829333742349633,-0.10857341941964202,-0.3891762941673041,0.40448469667599884,0.19724481178594747,-0.14057249287445725,nm,0.0
14.498457670211792,-14.228090243736935,-1.934477507080957,143.78773803608073,-0.3213746971633808,0.047874711686355736,-0.3707763022635947,0.2859574172787165,0.22910432646411982,-0.21148216782931362,nm,0.0
14.505873203277588,-14.431179464556351,-3.409526665274542,142.58980227908012,-0.49797086035253424,0.34265031195717915,-0.38401881042645425,0.2110050120863151,0.22637682483596372,-0.23895426439395087,nm,0.0
14.533092975616455,-14.13820351037221,-5.758986089920964,140.91688312259566,-0.7059800443532108,0.7614304531119777,-0.26099879910501955,0.09666497901607646,0.21144235576817969,-0.12632564733282722,nm,0.0
14.534793138504028,-14.011006135151243,-6.468644423744723,140.64634346564117,-0.7253687583053023,0.800080979927851,-0.1751568913419497,0.0721643655909967,0.140339176479305,-0.04082575850949831,nm,0.0
14.559913396835327,-14.357610774764906,-6.850584588683455,141.22574382081078,-0.66648483144927,0.5836506439679279,-0.19749891035201525,0.05018846989192071,-0.012928344813372497,0.0769843119685542,nm,0.0
14.563775777816772,-14.842207492592282,-6.6056391948433575,141.77008528777597,-0.6520458798790869,0.4650254775794757,-0.2339892377123799,0.0465546013967721,-0.08403357478318499,0.08499186090176293,nm,0.0
14.58867073059082,-15.997149374408336,-5.0374793524203,142.68154688143224,-0.5426263551883727,0.1005614351356106,-0.3239313232262138,-0.018755149720191815,-0.21063590783362807,0.06560608501275468,nm,0.0
14.591377973556519,-16.73267693495007,-3.750399381367537,143.19787793858293,-0.4302248432257222,-0.003162595886694772,-0.31394007176384203,-0.03658474503410989,-0.2798381128955563,0.07771193474505626,nm,0.0
14.614696264266968,-17.385909674040594,0.1162258804685512,145.01637486644162,-0.07782091531238763,-0.24227732145287822,-0.3966136709437025,-0.24893681244942675,-0.3390337318566659,0.18858136553669366,nm,0.0
14.622392177581787,-17.16163756401385,2.7043238440387176,146.36464239655723,0.09797063444296143,-0.46155248095419743,-0.33574080381524113,-0.32807457893750885,-0.38877669006123594,0.2438874234542885,nm,0.0
14.629631996154785,-16.60106062259558,5.5963045715638735,147.8854970549466,0.433101998754804,-0.5210713215833724,-0.3748836900850831,-0.4076182292393784,-0.4116311594964978,0.2764484270031123,nm,0.0
14.647591829299927,-13.772236371311507,11.03043282273696,151.0929495135276,0.9306033685600744,-0.8608776185412657,0.4753117852723932,-0.5211546348904615,-0.27452624376994533,0.2279717919280375,nm,0.0
14.666685819625854,-11.76521582167265,12.991733485807453,152.1694474398273,1.236808472133609,-0.6727812806518013,0.5496014803812368,-0.5326823112166262,-0.1449282896005506,0.12763405093518013,nm,0.0
14.668400526046753,-9.121329808495208,14.29662242203049,152.66325815139191,0.9057259256178328,-0.8501154293480615,1.164051851437098,-0.5771439736532332,0.020269263160837266,-0.03094279184841079,nm,0.0
14.694945335388184,-6.475523782453622,15.126306465974698,151.36650164788642,0.646514214221751,0.27413039783440757,0.37412263742484336,-0.182939375299779,0.08711754358033752,-0.2522696683068526,nm,0.0
14.717048168182373,-5.998908144211754,13.075756366068301,148.8795746728768,-0.024114253598078512,0.6399924457731333,0.3435749235406704,0.21063075524872923,0.2154501306405717,-0.22272532515667734,nm,0.0
14.71869707107544,-6.689429342065962,11.051256575996394,148.02782380445078,-0.0035856448213772165,0.6128981188431689,0.1959373118461718,0.32821341327245457,0.28804613744574253,-0.13168990272689085,nm,0.0
14.733208656311035,-7.579783995635667,8.598668914721246,147.66978820924027,-0.04195236386239194,0.14355092626684593,0.5139344529355234,0.41087072501547334,0.33577979926857715,-0.033725695332053204,nm,0.0
14.749987602233887,-10.39802715977647,3.762869187730431,147.52985864305577,0.21186022295723142,-0.2734770941405568,0.1696128181945247,0.46886356898883863,0.2580952351271731,0.026672674634079973,nm,0.0
14.754429340362549,-11.63766432933698,1.715087664963498,147.32150649579083,0.15626823032885603,-0.4198393608293975,-0.0009109224237245657,0.43018204569847196,0.22600411153608874,-0.022521186446400977,nm,0.0
14.779102325439453,-13.12096853326288,-1.742533755675667,145.93722087962283,-0.22101029546299447,-0.058217069126167205,-0.3056171824059087,0.25252475615050757,0.22643739796750448,-0.16228132898591177,nm,0.0
14.782449722290039,-13.214875658355398,-3.0798738648261437,144.93803579746626,-0.3833345053266993,0.18487641358236823,-0.3630840532547873,0.16831469753511094,0.22410440758298733,-0.19418962247806468,nm,0.0
14.805302858352661,-12.657319250599004,-5.2346707670324415,143.47790866038005,-0.6718336318961945,0.6794231717111389,-0.23989941611131302,0.05097843732023271,0.21202246220183985,-0.10941471440953719,nm,0.0
14.81087589263916,-12.254358079532345,-5.771668985841897,143.28199350116054,-0.7929466896175337,0.7192945707828357,-0.06682752490748316,0.000831247437140051,0.14851045011894698,-0.033238023419138424,nm,0.0
14.834493637084961,-12.217932867147036,-6.135436250717381,143.90433823929354,-0.7571080946229517,0.7340526786289326,-0.1807701739982204,0.02887464720262357,0.028921393703096952,0.08846079307146397,nm,0.0
14.83895754814148,-12.479496460973769,-6.04929933266208,144.46551790425303,-0.7802599900077217,0.5585045739302719,-0.11954139107327214,0.03300055684461302,-0.03013060276273552,0.10512035457147596,nm,0.0
14.851575374603271,-13.002786819630439,-5.684869279534696,145.03015692438996,-0.6811255254044964,0.4663742458167041,-0.338395502514152,0.04381297100631454,-0.1053872597681699,0.08915333202556391,nm,0.0
14.860976696014404,-13.546812411024748,-5.1928593347764,145.53947249411715,-0.6436127651323932,0.2976926531314473,-0.3570631192409305,0.033782625442522474,-0.1283665508180979,0.07529385676916245,nm,0.0
14.873278617858887,-14.117219209292571,-4.521428118879478,146.01145827686588,-0.5843254196303294,0.14859124456243983,-0.30935322975866475,0.019181542986831706,-0.16080220035430787,0.06695269273091407,nm,0.0
14.876323699951172,-14.716920604592667,-3.5236810769757083,146.50095085765045,-0.4419259926590345,0.026579097934984912,-0.2913990796837828,-0.010743562878605038,-0.21831350306983074,0.07491233701380373,nm,0.0
14.899437189102173,-15.31957707381974,-0.48229215670318965,148.0749056919094,0.02262561471758087,-0.16892989383785956,-0.42616675932845904,-0.1718739611287325,-0.2790290932179902,0.1675739479208721,nm,0.0
14.905571699142456,-15.026181915035036,1.6097754735273508,149.23691399646717,0.25306095773854526,-0.47953545719630974,-0.24173788907240604,-0.2678100410583366,-0.3131903644129282,0.2072114318658891,nm,0.0
14.92828369140625,-13.410201285555493,6.359400498533518,151.69567418559916,0.9757395127047209,-0.8673394403156441,0.3386616770462922,-0.41882806418904744,-0.29992148408290464,0.1983737045042431,nm,0.0
14.934337377548218,-12.043911733326526,8.471188791909448,152.6551780189205,1.3097797925587842,-0.8979662724654656,0.7520648099850633,-0.4377520305887731,-0.23362085548862652,0.1383730337178221,nm,0.0
14.944038391113281,-10.174755822015117,10.163880729805838,153.17232436786495,1.414327139631191,-0.8140832988995657,0.7912007337279896,-0.483732971156075,-0.119879112927397,0.03279535430243051,nm,0.0
14.96623182296753,-7.735699899492555,12.471259523243793,152.2499456317633,0.8213946413841499,-0.0589001450899698,0.6510505483144303,-0.20093710555122596,-0.1027853312000128,-0.19156944127660833,nm,0.0
14.97543454170227,-7.190194468344971,12.757518528974423,151.10261707290286,0.20038882668050645,0.17308405125597928,0.7358273948404356,-0.12093430404390748,0.013629768859061623,-0.2586613394381634,nm,0.0
14.99980902671814,-8.442632383128922,10.755920908380064,148.94870335534586,-0.2545411612895098,0.6484796669445356,0.10960897134329703,0.31577942033993245,0.15566941906576692,-0.15546493270555387,nm,0.0
