timestamp,roll,pitch,yaw,acc_x,acc_y,acc_z,gyro_x,gyro_y,gyro_z,markers,motor_input
37.518447399139404,-47.43800671925276,17.119553170986247,36.685259425972596,-1.2811998464697172,0.23968062531411446,-1.777127726649976,-0.05202826186959685,-0.22380803999199728,-0.15858909978153657,nm,0.0
37.54514265060425,-44.66564730841059,15.930076665898223,33.700578727548276,-0.08649363832910849,-0.3890947618552249,-1.3614331886144402,0.4471712280490275,0.1580922603755267,-0.39067525453375507,nm,0.0
37.547117948532104,-40.31766182275074,15.616305790094547,32.32609618070894,0.41196271677154067,-0.5420349725430245,-1.058153272481258,0.7508456747331671,0.3966079620759031,-0.46300025721214394,nm,0.0
37.55002474784851,-33.53897667157795,15.660932482420279,31.30992106393,0.5989434992571956,-0.2327558912243226,-0.33845886246590445,1.1204160994044041,0.6879979102873224,-0.5211702178479142,nm,0.0
37.56567430496216,-24.75392178536644,16.04085787603552,30.77155239335816,0.9081060155363888,-0.09113545782061534,0.988981203025462,1.4253933289372203,0.92753329862472,-0.5387524430533556,nm,0.0
37.56962180137634,-14.095062084709012,16.499134686059538,30.808040025932286,1.378075049169853,-0.5004300053821082,2.26546909462708,1.7276689106107421,1.1162694253802292,-0.5421087098341323,nm,0.0
37.57707166671753,-1.9248749892271888,16.6742938562537,31.28483167258614,1.8034694821969766,-0.8909025918247858,3.327962755038333,1.9966363854844378,1.2229972372606808,-0.5543755639915577,nm,0.0
37.58891940116882,9.786251989100679,16.611865441506914,31.82056580381563,2.0684230800989,-1.95229619369001,2.7874350425380907,1.9334351070054976,1.154765707157583,-0.5231722677732947,nm,0.0
37.59575128555298,20.425237703221658,16.495915091409554,32.180061980058305,1.781264791899125,-2.547691030358543,1.573922068081932,1.7548117001832322,1.053860246935189,-0.49863823908367955,nm,0.0
37.621020555496216,35.227886127904306,16.726946223500033,32.232843054260606,1.3461684523940052,-2.4328667390060366,-0.07151021598437567,0.9223325879498844,0.6414664452526992,-0.34420520492428724,nm,0.0
37.6271607875824,38.259848221528614,17.34090447467784,32.24753454631039,0.95453227927378,-2.0544720494662276,-1.0920699093139243,0.4317212857332525,0.41076854351419567,-0.1875989966343642,nm,0.0
37.65207552909851,37.94193390694076,18.12289563752618,32.47649284089826,0.9052071281523103,-1.0600922072060825,-0.8100821572465037,-0.22675574534188211,-0.09739921423413155,0.07896331309562767,nm,0.0
37.65729880332947,34.879385977208486,18.018296559869725,32.88255561707515,0.6995508999868928,-0.5476183985467468,-0.5766488038506385,-0.4721270533733177,-0.33667341161171593,0.215517200239278,nm,0.0
37.67997431755066,24.52007034536732,17.337521098626606,34.13423495185215,-0.043103746764104334,0.40984269036521875,0.5343805181785346,-0.8961122701187473,-0.7033449076128562,0.4095132246113239,nm,0.0
37.68210196495056,17.443081276530194,17.08285956084947,34.70067671331254,-0.5316822347657784,0.668423990774953,0.3498855973957458,-1.076168239216314,-0.8156520968975621,0.4484422620420915,nm,0.0
37.69423866271973,10.28214601014427,17.00459223879484,35.50236897945023,-0.9501932627145249,1.326917558502551,1.1402825816190065,-1.0977061564754789,-0.8132893264401412,0.4331668899501533,nm,0.0
37.70026922225952,2.192620985846849,17.033119101278707,36.11863423897796,-1.4613721896620564,1.9736179257651274,1.2263214919093035,-1.243680414881676,-0.9141013080380487,0.4686047425524432,nm,0.0
37.712801933288574,-6.463517344566959,17.088637353715374,36.641636886921326,-1.6490043607553564,2.1539303783014394,0.5189958996622571,-1.3249025713301767,-0.9852510400175905,0.5152780011998707,nm,0.0
37.71895217895508,-14.505021901676761,17.29343152688627,37.20370104446771,-1.9410963020175316,2.6079302503868673,0.2693394681893887,-1.2396981461492838,-0.9003182030998073,0.5282059926900212,nm,0.0
37.745392084121704,-29.486981559052943,18.176342724418443,38.295479232788665,-1.9103863069467097,2.038117202072303,-1.171419605489157,-1.122686416631153,-0.7701198977032172,0.5382226408965644,nm,0.0
37.747451305389404,-34.98718901103551,18.615351177101054,38.65378138962545,-1.9620138685656003,1.7811243729163142,-1.452694668284159,-0.85940709539281,-0.5857624296831112,0.42849194794364787,nm,0.0
37.75951027870178,-39.09944830903057,18.81767184892194,38.54688429363171,-2.0012457297595008,1.459157257501923,-1.6729262519284849,-0.6217788459481877,-0.45817174117808906,0.28279947107986997,nm,0.0
37.78411602973938,-43.70253762532081,17.982164809204935,37.126009728416285,-1.4990132591568766,0.5941632215247443,-1.5542162259956023,-0.15141920758839833,-0.2909780063265044,-0.06072104437458159,nm,0.0
37.78636860847473,-44.18451768853477,17.112985363678376,35.80721202745637,-1.1147040198999054,0.2614430047505825,-1.3747847489311584,0.04301627158927778,-0.19919722134179838,-0.2330679312412172,nm,0.0
37.804521799087524,-41.69584817659319,15.516285914925808,32.132431923011396,-0.046740589789236835,-0.5721918022871155,-1.2387577464888215,0.3995129168101827,0.07508361917292097,-0.49176896679227095,nm,0.0
37.820730447769165,-37.97836474622923,15.14874325665222,30.125284411737375,0.5106667282909887,-0.9672948495204158,-1.165607872590295,0.6655215080680656,0.30178861659180384,-0.5976459532753217,nm,0.0
37.824063539505005,-31.600800281324158,15.201158356661162,28.203814629154166,0.7200645776662047,-0.44728370244816207,-0.09687464508257096,1.083782906010367,0.6026442490791523,-0.719017064668363,nm,0.0
37.85327672958374,-11.005888164150065,15.457418784830937,25.585342155863795,2.270653469370613,-0.2814288700839887,2.9371894426175396,2.010751383101318,0.9880033727743736,-0.8260180799086162,nm,0.0
37.855297565460205,1.6898396205445299,15.963441049877861,25.24130207878906,3.2570839085514764,-1.3475086215941785,4.3366726064714625,2.1771253374087762,1.1337196033769772,-0.7642046860553079,nm,0.0
37.86275911331177,14.285592029732198,16.777312772549795,25.815846574720634,2.960831033743446,-2.6172852896727754,2.981388591394845,2.1223192388178487,1.1826913658511797,-0.6057536854990004,nm,0.0
37.887157678604126,35.437454980694426,16.28366724371847,28.166233946542995,2.0036535409283833,-3.3135669881847627,1.4144677487020634,1.6430151943965994,0.7150531531965143,-0.30582657888897574,nm,0.0
37.89022350311279,41.391593532887846,15.973066619151647,29.51435697502744,0.7465142719902799,-2.8213971433040554,-0.5549072630472864,1.0392407377869657,0.49550827764807637,-0.07434215458828067,nm,0.0
37.89934015274048,45.075234931636395,16.294838297982015,30.89002296159242,0.3277192854335935,-2.5408358072509434,-0.5288324127020012,0.5855359179949629,0.4102867629348004,0.057207767778187285,nm,0.0
37.930808305740356,44.716203488528734,18.763986454977836,32.713401178910345,0.4529681558811739,-1.230821489461059,-1.030715807726475,-0.36181082108059476,0.12594062589204513,0.2270717486478272,nm,0.0
37.93271350860596,42.184004374601344,20.490404138817752,33.49625594762943,0.5697891290504664,-0.5533420556210374,-0.6852179731661481,-0.5836400209302484,0.02614952419867469,0.3137988711540447,nm,0.0
37.93813157081604,38.02673324222468,21.79990088901785,34.12112030833001,0.5306371232036005,0.1185177140697152,-0.5555900452345658,-0.7854018473073264,-0.21748150024874466,0.4124303860736555,nm,0.0
37.96242880821228,26.303036963729507,22.487871745349178,36.43263791802504,0.1324111488526336,0.9318863684789521,-0.3494003368864866,-0.9335144359310562,-0.6621560334196123,0.6765358028889552,nm,0.0
37.96668291091919,19.965360469144148,22.374708061184645,38.24135023384375,-0.31019564979545183,1.4320578852947838,0.42286000187162937,-0.9090124755654285,-0.7365367566768812,0.781016432248928,nm,0.0
37.99124026298523,4.718194712902716,22.305268548514164,41.809037349086395,-1.4335994019616578,2.23249026898187,0.7025184035979388,-1.1238307407196928,-0.970413173627517,0.9020724402062696,nm,0.0
37.994821071624756,-3.4904480111754985,22.686593483920095,42.959276667044705,-2.0279911691252717,2.5757069567840385,0.6485763719781107,-1.160633982978098,-0.973645186226172,0.8300978206611178,nm,0.0
38.00476574897766,-12.118183391294737,23.012774231447825,43.38849709697369,-2.4557915245320308,2.6561467627306024,0.18307950536833342,-1.192638705477102,-1.0472544639305448,0.7400458391129513,nm,0.0
38.01470899581909,-20.775012635588986,22.979945751447637,43.21221633776649,-2.4330960898820146,2.202812203378983,-0.6249666684498033,-1.1429670723689973,-1.1042795981437412,0.6265529148691394,nm,0.0
38.040730714797974,-34.58678779795081,21.83689354731711,41.74476401000104,-2.2959912880014475,1.576102264873583,-1.4080705950362786,-0.7400546406702463,-0.8847933299025756,0.29891097530202665,nm,0.0
38.04249334335327,-39.313830852876606,20.87338753338368,40.755526590182406,-1.9377536423481094,0.8294831496919405,-1.862522595693297,-0.5223675816445381,-0.7294805097325566,0.16829459338841285,nm,0.0
38.067866563797,-43.45994737258238,19.20942318014714,38.32590332447445,-1.3547916084621694,0.12806325069023192,-1.6720033680995958,-0.0756298851200964,-0.2585647141839492,-0.15105133294990414,nm,0.0
38.07585048675537,-43.093819959395745,18.68769517623521,36.77586754633262,-0.8315860767088853,-0.4811123549053571,-1.6087348501313559,0.13227734974412061,-0.045092878458758215,-0.30380450115836855,nm,0.0
38.08040237426758,-40.74891526694591,18.18647145461189,35.08475611970981,-0.27845893895035134,-0.7327083136805865,-1.4434246818755088,0.4333970080685137,0.17443912918496396,-0.44782615135143505,nm,0.0
38.10627603530884,-28.501334102066085,17.693535055706427,31.608395755114014,0.7656426975898506,0.001951966903858019,0.019417522704491184,1.2423310852150458,0.7521116473850559,-0.7603979646667399,nm,0.0
38.10953092575073,-18.641333986351313,18.00362655073703,30.297824367031634,1.6734572098770781,0.22391077245466273,1.904249998181706,1.5941073544423923,1.0093602891446143,-0.8238361786016806,nm,0.0
38.13497257232666,6.4350238330271,18.79343924234755,30.375472953063863,3.1450558864885267,-1.2025493809995829,3.365534148605367,2.1270964673869863,1.290378498153998,-0.6968802917833471,nm,0.0
38.14077067375183,18.892466574816737,18.767534826226672,31.722159127248478,2.629023425077453,-2.4493594707219972,2.24066280674789,2.0365346378162745,1.2041238163418433,-0.5005380846342442,nm,0.0
38.156994342803955,38.59229334370073,16.837143146128568,34.52812722838744,1.1391770985608767,-3.099372044290787,0.8457715059836491,1.4941820894999762,0.7186691523790848,-0.27196388721660053,nm,0.0
38.181198835372925,43.75027098375474,16.406397452773017,35.50610436730438,0.5299548512943252,-2.803589084959727,-0.34059898022721724,0.8658288659907788,0.49570609358110856,-0.11282998930348535,nm,0.0
38.19613265991211,46.950866051403,18.638964602697527,37.31516091246499,0.4123593049932369,-1.6493503800025802,-0.8544595389091441,-0.0911668970860411,0.2992030280065569,0.1130928017364744,nm,0.0
38.1978497505188,45.18570192845147,20.229853898458522,37.72091489335845,0.6992124926297136,-0.8182961781534156,-0.9961700056301451,-0.4533548034892684,0.04796741149267984,0.18537931828183987,nm,0.0
38.21414566040039,41.68982457943199,21.437052814947577,37.963654960216445,0.8505308424604637,-0.12790864806895758,-0.8967212535945287,-0.6596018446624099,-0.2128724878793341,0.2843103104227875,nm,0.0
38.216026067733765,36.83479279524967,21.94122431872054,38.23875858608966,0.7862618359037391,0.4855077457183964,-0.45486879271230635,-0.7671676160007116,-0.48102585471901294,0.40152752666065067,nm,0.0
38.22474670410156,30.401678453615165,21.72603097153294,38.63931216395435,0.4101767144426218,0.9029189935411328,-0.027690116647093616,-0.9029034281168595,-0.7808089019658151,0.5471198274666204,nm,0.0
38.23304224014282,23.015495191144637,21.12292361795003,39.680354193818864,-0.12905084859885627,1.1360508794221786,0.19382352519675375,-0.9796298382830495,-0.9709339283505243,0.6509899852669063,nm,0.0
38.26023316383362,6.401964251800277,20.290967306812853,41.491926126139845,-1.5734594533664685,2.151301939570521,1.478088388663101,-1.2095598023692702,-1.1508529417612972,0.7222632256179099,nm,0.0
38.26195168495178,-3.1684989802015284,20.252704797064947,42.33851254680445,-2.1753626474740195,2.2996495990086947,0.952774941527901,-1.3134063380161867,-1.2197342384057286,0.6857982566743545,nm,0.0
38.2909893989563,-22.16448742090984,20.49511455677384,42.46577814478725,-2.6325697476405976,2.3986845088568534,-0.4113750404949294,-1.313938828379432,-1.200467236774604,0.5377215488635159,nm,0.0
38.29344129562378,-30.82479312076552,20.44327511872949,42.08876069582035,-2.284969002461955,1.9076664408505994,-1.1187448207592434,-1.1780442205165265,-1.1081795463137132,0.462850161840683,nm,0.0
38.301509618759155,-37.62657059936814,20.26309393725402,41.578702470849336,-2.15215387907315,1.7084150730586192,-1.500743058253984,-0.9125617783293578,-0.8831419855381567,0.3495155284616223,nm,0.0
38.325878858566284,-46.36933484965711,19.774043025678708,40.210436014476684,-1.4784264181992555,0.4798072371508977,-2.132263402655545,-0.4650822546241334,-0.4841089569305998,0.11453516946271051,nm,0.0
38.3284695148468,-48.02984075869854,19.400877167812325,39.278448183637245,-1.283403018206002,0.3111216796758716,-1.930768018565753,-0.17962743309316073,-0.26068175434828905,-0.03559847436094951,nm,0.0
38.35628151893616,-43.67535022810401,17.670397984842054,35.683200295727744,0.05616550418874259,-0.9016208308221123,-1.3647303804710937,0.5974882466110033,0.2465876989268229,-0.461561855512671,nm,0.0
38.36609625816345,-37.87858909726985,17.053833998587656,34.34644726096757,0.46466172720309956,-0.7429134283590764,-0.8712732563716388,0.9915612858632745,0.5292627878493192,-0.6131643238133138,nm,0.0
38.376988887786865,-29.320405244115694,16.841174883146753,32.9922609231804,0.6697277223062958,0.16667750298879846,0.7730576396703623,1.4009618781726911,0.8672433226428077,-0.7712694184017984,nm,0.0
38.40037298202515,-6.687406841136302,17.427650499903404,30.825839878749843,2.7791525335399894,-0.3381071431157494,3.4687815194241507,1.9517718123748793,1.2628651510641393,-0.8377683233319689,nm,0.0
38.403270959854126,6.234350691099232,17.860163435529408,30.83871620852146,3.308284452127299,-1.3626110343534314,3.08018680175699,2.085517320532528,1.3273103182194048,-0.7465974583953217,nm,0.0
38.43021607398987,29.55761330634465,17.044686365875034,32.77538964557012,2.35345954019093,-2.7627335066022565,1.7629498908636774,1.8196078382978949,0.9439333335889109,-0.4196313331552734,nm,0.0
38.43423008918762,37.03166511877816,15.785486787305777,33.681918678954055,1.218062364061603,-2.90890976895559,0.135498831545562,1.3456273203068512,0.5733702528639639,-0.2540998059453397,nm,0.0
38.441232204437256,41.87794806023003,14.928298228514006,34.43310831616067,0.5735521345522505,-2.8413972296484813,-0.21026319252305015,0.8776856097691835,0.38014045645027966,-0.11949663065493978,nm,0.0
38.45118427276611,43.912528720345996,15.053316525414683,35.1671561053099,0.10889304625756017,-2.421755667561558,-0.5755872472754432,0.3149553071572917,0.24373431157985687,0.028569235542151745,nm,0.0
38.47666883468628,41.34103813111811,17.685152683515668,36.42905771523887,0.3821475642372203,-1.0962300175082738,-0.6372928733071227,-0.5134284158409407,0.004315476669290675,0.2277185289455507,nm,0.0
38.48895502090454,37.42535512829555,19.101207426985464,36.9657847156743,0.6015605867993171,-0.26986715919219134,-0.3701327186201772,-0.7593305534775441,-0.22116385268094949,0.3084947514148637,nm,0.0
38.49058818817139,31.83674952239987,19.99724796144087,37.77683582752461,0.5847827941790537,0.453225477723605,-0.2692446658537631,-0.937716317228687,-0.5052026075372196,0.423295346104366,nm,0.0
38.49813747406006,24.862594774559494,20.351926795854823,38.91053916142303,0.27137041339214707,1.0359530537054338,-0.005527119008135052,-1.0597946568361718,-0.7677468130101329,0.5662821181370012,nm,0.0
