timestamp,roll,pitch,yaw,acc_x,acc_y,acc_z,gyro_x,gyro_y,gyro_z,markers,motor_input
38.00476574897766,-12.118183391294737,23.012774231447825,43.38849709697369,-2.4557915245320308,2.6561467627306024,0.18307950536833342,-1.192638705477102,-1.0472544639305448,0.7400458391129513,nm,0.0
38.01470899581909,-20.775012635588986,22.979945751447637,43.21221633776649,-2.4330960898820146,2.202812203378983,-0.6249666684498033,-1.1429670723689973,-1.1042795981437412,0.6265529148691394,nm,0.0
38.040730714797974,-34.58678779795081,21.83689354731711,41.74476401000104,-2.2959912880014475,1.576102264873583,-1.4080705950362786,-0.7400546406702463,-0.8847933299025756,0.29891097530202665,nm,0.0
38.04249334335327,-39.313830852876606,20.87338753338368,40.755526590182406,-1.9377536423481094,0.8294831496919405,-1.862522595693297,-0.5223675816445381,-0.7294805097325566,0.16829459338841285,nm,0.0
38.067866563797,-43.45994737258238,19.20942318014714,38.32590332447445,-1.3547916084621694,0.12806325069023192,-1.6720033680995958,-0.0756298851200964,-0.2585647141839492,-0.15105133294990414,nm,0.0
38.07585048675537,-43.093819959395745,18.68769517623521,36.77586754633262,-0.8315860767088853,-0.4811123549053571,-1.6087348501313559,0.13227734974412061,-0.045092878458758215,-0.30380450115836855,nm,0.0
38.08040237426758,-40.74891526694591,18.18647145461189,35.08475611970981,-0.27845893895035134,-0.7327083136805865,-1.4434246818755088,0.4333970080685137,0.17443912918496396,-0.44782615135143505,nm,0.0
38.10627603530884,-28.501334102066085,17.693535055706427,31.608395755114014,0.7656426975898506,0.001951966903858019,0.019417522704491184,1.2423310852150458,0.7521116473850559,-0.7603979646667399,nm,0.0
38.10953092575073,-18.641333986351313,18.00362655073703,30.297824367031634,1.6734572098770781,0.22391077245466273,1.904249998181706,1.5941073544423923,1.0093602891446143,-0.8238361786016806,nm,0.0
38.13497257232666,6.4350238330271,18.79343924234755,30.375472953063863,3.1450558864885267,-1.2025493809995829,3.365534148605367,2.1270964673869863,1.290378498153998,-0.6968802917833471,nm,0.0
38.14077067375183,18.892466574816737,18.767534826226672,31.722159127248478,2.629023425077453,-2.4493594707219972,2.24066280674789,2.0365346378162745,1.2041238163418433,-0.5005380846342442,nm,0.0
38.156994342803955,38.59229334370073,16.837143146128568,34.52812722838744,1.1391770985608767,-3.099372044290787,0.8457715059836491,1.4941820894999762,0.7186691523790848,-0.27196388721660053,nm,0.0
38.181198835372925,43.75027098375474,16.406397452773017,35.50610436730438,0.5299548512943252,-2.803589084959727,-0.34059898022721724,0.8658288659907788,0.49570609358110856,-0.11282998930348535,nm,0.0
38.19613265991211,46.950866051403,18.638964602697527,37.31516091246499,0.4123593049932369,-1.6493503800025802,-0.8544595389091441,-0.0911668970860411,0.2992030280065569,0.1130928017364744,nm,0.0
38.1978497505188,45.18570192845147,20.229853898458522,37.72091489335845,0.6992124926297136,-0.8182961781534156,-0.9961700056301451,-0.4533548034892684,0.04796741149267984,0.18537931828183987,nm,0.0
38.21414566040039,41.68982457943199,21.437052814947577,37.963654960216445,0.8505308424604637,-0.12790864806895758,-0.8967212535945287,-0.6596018446624099,-0.2128724878793341,0.2843103104227875,nm,0.0
38.216026067733765,36.83479279524967,21.94122431872054,38.23875858608966,0.7862618359037391,0.4855077457183964,-0.45486879271230635,-0.7671676160007116,-0.48102585471901294,0.40152752666065067,nm,0.0
38.22474670410156,30.401678453615165,21.72603097153294,38.63931216395435,0.4101767144426218,0.9029189935411328,-0.027690116647093616,-0.9029034281168595,-0.7808089019658151,0.5471198274666204,nm,0.0
38.23304224014282,23.015495191144637,21.12292361795003,39.680354193818864,-0.12905084859885627,1.1360508794221786,0.19382352519675375,-0.9796298382830495,-0.9709339283505243,0.6509899852669063,nm,0.0
38.26023316383362,6.401964251800277,20.290967306812853,41.491926126139845,-1.5734594533664685,2.151301939570521,1.478088388663101,-1.2095598023692702,-1.1508529417612972,0.7222632256179099,nm,0.0
38.26195168495178,-3.1684989802015284,20.252704797064947,42.33851254680445,-2.1753626474740195,2.2996495990086947,0.952774941527901,-1.3134063380161867,-1.2197342384057286,0.6857982566743545,nm,0.0
38.2909893989563,-22.16448742090984,20.49511455677384,42.46577814478725,-2.6325697476405976,2.3986845088568534,-0.4113750404949294,-1.313938828379432,-1.200467236774604,0.5377215488635159,nm,0.0
38.29344129562378,-30.82479312076552,20.44327511872949,42.08876069582035,-2.284969002461955,1.9076664408505994,-1.1187448207592434,-1.1780442205165265,-1.1081795463137132,0.462850161840683,nm,0.0
38.301509618759155,-37.62657059936814,20.26309393725402,41.578702470849336,-2.15215387907315,1.7084150730586192,-1.500743058253984,-0.9125617783293578,-0.8831419855381567,0.3495155284616223,nm,0.0
38.325878858566284,-46.36933484965711,19.774043025678708,40.210436014476684,-1.4784264181992555,0.4798072371508977,-2.132263402655545,-0.4650822546241334,-0.4841089569305998,0.11453516946271051,nm,0.0
38.3284695148468,-48.02984075869854,19.400877167812325,39.278448183637245,-1.283403018206002,0.3111216796758716,-1.930768018565753,-0.17962743309316073,-0.26068175434828905,-0.03559847436094951,nm,0.0
38.35628151893616,-43.67535022810401,17.670397984842054,35.683200295727744,0.05616550418874259,-0.9016208308221123,-1.3647303804710937,0.5974882466110033,0.2465876989268229,-0.461561855512671,nm,0.0
38.36609625816345,-37.87858909726985,17.053833998587656,34.34644726096757,0.46466172720309956,-0.7429134283590764,-0.8712732563716388,0.9915612858632745,0.5292627878493192,-0.6131643238133138,nm,0.0
38.376988887786865,-29.320405244115694,16.841174883146753,32.9922609231804,0.6697277223062958,0.16667750298879846,0.7730576396703623,1.4009618781726911,0.8672433226428077,-0.7712694184017984,nm,0.0
38.40037298202515,-6.687406841136302,17.427650499903404,30.825839878749843,2.7791525335399894,-0.3381071431157494,3.4687815194241507,1.9517718123748793,1.2628651510641393,-0.8377683233319689,nm,0.0
38.403270959854126,6.234350691099232,17.860163435529408,30.83871620852146,3.308284452127299,-1.3626110343534314,3.08018680175699,2.085517320532528,1.3273103182194048,-0.7465974583953217,nm,0.0
38.43021607398987,29.55761330634465,17.044686365875034,32.77538964557012,2.35345954019093,-2.7627335066022565,1.7629498908636774,1.8196078382978949,0.9439333335889109,-0.4196313331552734,nm,0.0
38.43423008918762,37.03166511877816,15.785486787305777,33.681918678954055,1.218062364061603,-2.90890976895559,0.135498831545562,1.3456273203068512,0.5733702528639639,-0.2540998059453397,nm,0.0
38.441232204437256,41.87794806023003,14.928298228514006,34.43310831616067,0.5735521345522505,-2.8413972296484813,-0.21026319252305015,0.8776856097691835,0.38014045645027966,-0.11949663065493978,nm,0.0
38.45118427276611,43.912528720345996,15.053316525414683,35.1671561053099,0.10889304625756017,-2.421755667561558,-0.5755872472754432,0.3149553071572917,0.24373431157985687,0.028569235542151745,nm,0.0
38.47666883468628,41.34103813111811,17.685152683515668,36.42905771523887,0.3821475642372203,-1.0962300175082738,-0.6372928733071227,-0.5134284158409407,0.004315476669290675,0.2277185289455507,nm,0.0
38.48895502090454,37.42535512829555,19.101207426985464,36.9657847156743,0.6015605867993171,-0.26986715919219134,-0.3701327186201772,-0.7593305534775441,-0.22116385268094949,0.3084947514148637,nm,0.0
38.49058818817139,31.83674952239987,19.99724796144087,37.77683582752461,0.5847827941790537,0.453225477723605,-0.2692446658537631,-0.937716317228687,-0.5052026075372196,0.423295346104366,nm,0.0
38.49813747406006,24.862594774559494,20.351926795854823,38.91053916142303,0.27137041339214707,1.0359530537054338,-0.005527119008135052,-1.0597946568361718,-0.7677468130101329,0.5662821181370012,nm,0.0
38.52449083328247,8.587601551796439,20.140607763497282,41.850826015118955,-0.872118283542493,2.174590371512204,1.3617252813402494,-1.157977911974764,-1.0832074280867132,0.7641836293553954,nm,0.0
38.53143358230591,-0.9266368348788561,20.087098137758066,43.22078845262941,-1.7181404508880884,2.6074549082184113,1.2595993524777747,-1.2942662068975117,-1.2276814100296305,0.8247390805083706,nm,0.0
38.55289959907532,-20.68079007075859,20.40442710399249,44.65761494003538,-3.0036785271544777,2.6821856765776353,0.05629481407124068,-1.3300477549836969,-1.2834803758306483,0.7288312807517345,nm,0.0
38.55564999580383,-30.280330040918198,20.317577132243805,44.55966948172131,-2.7939042684987316,2.1297748892298536,-0.860767750578969,-1.2560885263257782,-1.2822230938645558,0.6345732280836824,nm,0.0
38.58098387718201,-44.92430481610614,19.65733660071022,43.07943460654855,-2.298822674356163,1.102901086241748,-1.8916339181389998,-0.8083370999621347,-0.9047243218738751,0.27762567351897216,nm,0.0
38.58520555496216,-49.58241190945888,18.893118765248538,42.11595579785787,-1.7714733163470664,0.37887836412679066,-2.28575875364541,-0.5312083091297893,-0.7104369744275543,0.13757014548153865,nm,0.0
38.59619164466858,-52.31166076821195,17.99553097585101,41.12351002576255,-1.3771028706809325,0.15037796677860238,-2.2085204151733073,-0.25434588381780493,-0.48103505257890977,-0.02249127310256811,nm,0.0
38.60345530509949,-53.24415434501951,17.18420561583741,39.83193512317742,-0.9904408121477812,-0.12028289611681954,-1.9933934448225912,-0.016192341804510214,-0.24171702588872623,-0.19859638465887847,nm,0.0
38.62851667404175,-49.63320862812999,15.733133167998991,37.120070690365786,0.16166972767017448,-0.7511644251510737,-1.5398021847255732,0.525888659106473,0.21486644546743536,-0.4140729678396752,nm,0.0
38.63250470161438,-44.35016063589665,15.268385896599277,35.88119438062945,0.6811391564447126,-0.8083004834200309,-1.1966525789128672,0.8883278108540358,0.5271024865335794,-0.5284072099360253,nm,0.0
38.647886753082275,-35.94601204054554,15.174993100888404,34.865740673231606,0.635496092553449,0.07165329803915979,-0.037745776307621375,1.3482928828098202,0.9194018605607399,-0.6442781175419546,nm,0.0
38.66657209396362,-12.471739600517452,15.911318093609559,33.81987372581889,2.124185919279952,0.014651018522201511,3.438994200194954,1.9980070853247152,1.4490987782579212,-0.6626630842533566,nm,0.0
38.670087575912476,1.660838386541294,16.498839253638277,34.51847166419298,2.688884066748467,-0.9744504013432115,4.260632244986342,2.197909251657801,1.6109250132023551,-0.5950862750990562,nm,0.0
38.69534397125244,27.7713337203918,16.127812858307756,37.57437955291077,1.9982936916085288,-2.7587041050409558,2.04203727490012,1.9717638354173994,1.3394961897779751,-0.36285769543981516,nm,0.0
38.70344853401184,37.36118719215486,15.597442010020371,39.012679531111715,1.5226698328405173,-2.953913518265018,0.9520155946737732,1.5222965794877095,1.05946410412241,-0.24996182271040904,nm,0.0
38.72283124923706,47.31363472326781,16.564157110972445,41.16807716141283,0.7145856263860981,-2.1176524457425945,-1.0462259815866908,0.4103523960121166,0.5794182505378206,-0.013392315213808105,nm,0.0
38.746628522872925,47.21782810738115,19.256474502345238,42.54774060031572,0.9152845375914919,-0.8372248854514832,-1.2446523746462832,-0.34388457990378707,0.04264239828753595,0.1798379065784689,nm,0.0
38.74857306480408,44.256058767471956,20.06809525063585,42.93803249550464,0.8647600183982553,-0.23445743397620442,-1.0483169131304788,-0.5151074280272547,-0.26104125002029827,0.26431081460710376,nm,0.0
38.802921533584595,19.400710907568435,19.2296154165856,46.303156018321594,-0.8977176770597727,1.174106690896526,1.0194077670024413,-0.922956875287294,-1.05034842466971,0.6040803821840567,nm,0.0
38.8059983253479,1.5861232364069497,19.492153798873236,46.76438534546973,-2.074325637109373,1.9852789487128715,0.9218025953205496,-1.2406229594835136,-1.2596632854985745,0.6131376325423121,nm,0.0
38.8209114074707,-7.757024300083857,19.792681555322392,46.58729180598322,-2.45432275829121,2.392428918790031,0.6315174680159454,-1.2388555032162982,-1.2457737019858286,0.5665752372486839,nm,0.0
38.826937675476074,-17.134373718280155,20.0200261876271,46.198813353139336,-2.6213924137199043,2.530786515938841,-0.06372662940943961,-1.236694716384336,-1.2514475858961625,0.5482079875331262,nm,0.0
38.831613063812256,-26.10338903785659,20.158408017285407,45.75770978003312,-2.3594082335030158,2.1306019576005357,-0.8718947391482588,-1.1779356828849592,-1.1973869520409979,0.5224192367207428,nm,0.0
38.84428668022156,-33.545376053352136,20.198769106820663,45.69142778141776,-2.2724452778113307,1.852993370376579,-1.2865728136063126,-0.9652769564205569,-1.0016657332435823,0.4349700732567905,nm,0.0
38.866639852523804,-43.7678740872005,19.817567174590774,44.66032377039019,-1.7480850892212945,0.6119001093845,-2.1270072497979275,-0.5253579348528624,-0.6234276672666327,0.18551281568216707,nm,0.0
38.872196197509766,-46.24855819649132,19.265037475930328,43.70169189189413,-1.5747490633929504,0.31409375435240383,-2.039158064972217,-0.24511588543022264,-0.4075565355672425,0.0110170153148937,nm,0.0
38.88072466850281,-47.22024980554932,18.47261132573517,42.44029633618951,-1.2543045560209112,0.11864943013317138,-1.7940545115502577,-0.012484693999553573,-0.2442041023671026,-0.15253651014615446,nm,0.0
38.90359282493591,-44.29835124742486,16.67012004825005,39.01469460492445,-0.08524491248161524,-0.5636759211119678,-1.4061935500609244,0.48480833199999285,0.15677641380369906,-0.4601998986831597,nm,0.0
38.912452936172485,-39.612265084170744,15.97634318969395,37.1739036121136,0.4492701547510433,-0.6995824600590371,-1.0232318261649365,0.808956539372564,0.4401171206878306,-0.5846719331904278,nm,0.0
38.93760919570923,-21.938503595622826,15.627646170322466,34.16813522155564,1.214918907935431,0.10135132686382659,1.4844738873453687,1.5964157851546448,1.0896748190724634,-0.7521609809748521,nm,0.0
38.94065475463867,-10.010475178514856,15.849821680525263,33.36778923446567,2.2255487997352,-0.4259384406934267,3.044523071720663,1.9019328481230122,1.3031786494670707,-0.7520891332008033,nm,0.0
38.961949825286865,16.901031163580978,15.862910236335175,33.883056689698826,2.8094978033741005,-2.193005075835583,2.696486692964199,2.172573856993331,1.3926178370493094,-0.5827550960089415,nm,0.0
38.96598792076111,28.9911847798496,15.38074180579443,35.04446044540533,2.5071825013758064,-2.9453494297906064,2.1847883605084837,1.9845839920616626,1.2364538467070867,-0.4316829783070654,nm,0.0
38.99074459075928,44.65561501360927,14.614364669711806,37.39728942222319,1.0138412914445325,-2.9014607814762665,-0.2730662122038449,0.9967690682894583,0.6902969322497657,-0.10125064122038546,nm,0.0
38.99559736251831,48.01698331127803,15.086668482519638,38.55318366869779,0.6863992066339627,-2.39383184463488,-0.8929166321199166,0.46022999378711027,0.4743985600184562,0.045560507495978286,nm,0.0
