timestamp,roll,pitch,yaw,acc_x,acc_y,acc_z,gyro_x,gyro_y,gyro_z,markers,motor_input
6.502790212631226,-23.882294545323944,-31.76445405221831,144.60762462606687,-0.8944490257434534,0.47268450302984244,-0.33067965274070604,-0.18386322214857792,-0.19003320645703353,-0.029899257551364192,nm,0.0
6.511210918426514,-23.770927228641668,-29.78295812175954,144.58851411322703,-0.891750681546478,0.5144133227007329,-0.27086572543316007,-0.24316669517545486,-0.29878003205973336,-0.016691920056536184,nm,0.0
6.539865732192993,-23.61502324674593,-24.126931443108376,145.42100001588017,-0.7587526851842327,0.335674571112161,-0.2684079829348778,-0.35806916917406556,-0.4858767153456152,0.10575006072857265,nm,0.0
6.545229911804199,-23.41675113668923,-20.66032666456904,146.47508796969578,-0.4724984342452788,0.10887251984414931,-0.3445848305672035,-0.4170271599654205,-0.5411729942699711,0.18523046860501882,nm,0.0
6.54697060585022,-22.957818500605214,-16.928156286826393,147.7655780775765,0.0008851907641726094,-0.24868088566096072,-0.39005801815524044,-0.47715574820969486,-0.5669558384932069,0.24767069321632856,nm,0.0
6.5594329833984375,-22.149260941609935,-13.132840851178974,149.34652322615668,0.7017180380673201,-0.7205471553255594,-0.21127806979080843,-0.5280092434484832,-0.5541031872401085,0.2854540147316215,nm,0.0
6.5788915157318115,-18.889598071776415,-6.5087664347828555,152.11563113370156,2.1832983038977725,-1.6262787908866736,0.8104594707802193,-0.6369602498899968,-0.33538609307895617,0.28936951642653264,nm,0.0
6.5839293003082275,-16.408134957672367,-4.333048032200168,153.02269350921358,2.3436987436681513,-2.024897366631686,1.5948840035221186,-0.6408008189668462,-0.14460659710372334,0.218457789173678,nm,0.0
6.597824811935425,-14.430911914640584,-3.108084818398242,153.17500970437172,2.3560574314236025,-1.3146666866200898,1.2367101092456094,-0.46448436727140324,-0.025652469899994822,0.0545457796190277,nm,0.0
6.618099212646484,-11.058702813524148,-4.310205781471736,150.99305192463336,1.3059009647067674,-0.601987042892119,1.2868938632896323,-0.12285199332455278,0.3746325642495353,-0.26914341694028254,nm,0.0
6.622298002243042,-10.652773666702537,-6.687078654054365,148.9865398706152,0.8457621726148886,0.2403313146855905,0.7211900471193795,0.16803955507890259,0.46677039429054956,-0.3744013675751886,nm,0.0
6.647262096405029,-10.44269887563937,-13.209687307767902,145.49578807980774,0.230412426730183,0.6396578466771347,0.5383974599017202,0.3906506809951339,0.5807945025067394,-0.2802467221558681,nm,0.0
6.6505467891693115,-11.124307191675351,-16.73366208486248,144.65566767311748,0.3612320200036617,0.6542807478615945,0.07694205871125837,0.513287000458902,0.516862096173461,-0.17570919855928618,nm,0.0
6.677051305770874,-13.439602253907095,-22.85533824960441,144.80673777322127,0.29163686363711705,0.017627738017042028,-0.1591284323560822,0.5266049307383611,0.3102521840188862,-0.03232735299350382,nm,0.0
6.685275077819824,-15.131722008832094,-24.79396016687105,145.05044489860555,0.1962064451121245,0.011717901264682314,-0.5681674848659499,0.47763450311861794,0.15378993968050086,-0.07932730834623213,nm,0.0
6.704890727996826,-18.11485457713294,-27.267302948097054,144.62020752484867,-0.5563588973256316,0.1697105297445756,-0.5295559742588309,0.33180052554023665,0.03426560091209985,-0.22406273407154112,nm,0.0
6.713548898696899,-19.510435960020107,-27.96022898257748,143.87044871226743,-0.9478459887932745,0.49853929340152514,-0.4398313685336315,0.2837092827481599,-0.01776039843177536,-0.2956439925829935,nm,0.0
6.73470139503479,-21.45017040659944,-29.26931215486725,142.43200167412573,-1.5991074881929639,0.9297635976913156,-0.2106677977643139,0.1900376394416934,0.04653041507446943,-0.18925484590727928,nm,0.0
6.739206552505493,-22.26695976278362,-29.930241005606433,142.20160650560075,-1.7663957072641554,0.9315566632431865,-0.11656046723405326,0.19583622055679525,0.03164824389850868,-0.12352615203345732,nm,0.0
6.761883735656738,-23.601586760164057,-30.94251404734134,142.7832680825736,-1.605307248158852,0.7079533820364432,-0.3826424328056342,0.12660695614886547,0.036748772720912995,0.060366805805133227,nm,0.0
6.767521858215332,-23.91597504880213,-31.213946122674272,143.28920918742304,-1.4549814023807863,0.4737319420241579,-0.43367098798966164,0.07811131271487501,0.02465439008881566,0.10241262761675875,nm,0.0
6.789294004440308,-23.328407504068505,-30.475027341979047,144.03603747737213,-1.0829597566477434,0.271727298419881,-0.6064372509300489,-0.14728746189399428,-0.025206343535728724,0.12966655255410584,nm,0.0
6.79320764541626,-22.50165696152823,-29.406077059401177,144.25047723892243,-0.9363277288006109,0.2930408153700753,-0.5515572825130526,-0.23976931058774806,-0.07552376812407924,0.12892743041356955,nm,0.0
6.8201329708099365,-20.213723948460345,-25.50336141958464,144.7839392566597,-0.6148536690497947,0.2697575385050035,-0.3623087193529524,-0.4394964576312968,-0.2253797658848199,0.17979122417472018,nm,0.0
6.824320077896118,-19.04986917282574,-22.794837384721397,145.47907157228985,-0.371148806931731,0.22438043814691863,-0.3229802967629874,-0.48315218786971137,-0.30964422984223877,0.21069901301492736,nm,0.0
6.847238302230835,-16.295930392978132,-16.385375279006375,147.3447401193018,0.3082833371543385,-0.38358358471967724,-0.11756127511567578,-0.6123164393720285,-0.38463178454437363,0.2688293977814719,nm,0.0
6.850618839263916,-15.13740115850519,-12.944631523703656,148.02987571339173,0.7897703870525927,-0.6984200505519902,0.1785455115154561,-0.5579745061311283,-0.4478328835003428,0.19567824199952624,nm,0.0
6.873902082443237,-13.091079456031359,-6.498344945669935,148.6280535308053,1.6974184390813511,-1.102846525164315,1.037997261435606,-0.522136442336445,-0.39033640997160707,0.03511093681427826,nm,0.0
6.883708715438843,-12.445512011392362,-4.032849950707975,148.45541973896448,1.8840561361318287,-1.1092996483003486,1.2925861603269948,-0.3671842411405683,-0.3399922419315635,-0.04770881257943635,nm,0.0
6.90021824836731,-12.150202850827897,-2.151477903443426,147.77976908542033,1.6060424067944303,-0.8071657305885072,1.2495343210803584,-0.05660117701945302,-0.03915273186777783,-0.058856564386790405,nm,0.0
6.908219575881958,-12.430265867429592,-2.995924319822236,147.65088109854446,1.4209444643270026,-0.5546259694276571,0.8515296421734816,0.13782424910392607,0.1273258793427478,-0.03040717898915859,nm,0.0
6.932147264480591,-12.986670854820394,-7.520693893128114,147.2844778420568,0.9313807740359652,-0.43665169437198037,0.5506584985880857,0.32839299459840593,0.41996379079740714,-0.02645916217877523,nm,0.0
6.939944744110107,-13.291804356230589,-10.46336565218285,146.77171299323814,0.8478634300209326,-0.2802532382487828,0.08049100098118651,0.37236659648984904,0.4752531145649404,-0.07275113635009424,nm,0.0
6.959922790527344,-13.595308533918226,-16.912778549179368,145.18998630470847,0.32143711384681944,-0.009527073432089363,-0.0782098246757857,0.39167964458644666,0.5266145174398476,-0.13942297836526915,nm,0.0
6.965532302856445,-13.784511769106718,-19.77164804721473,144.36183727793252,0.05521382998101494,0.2063084289501594,-0.2095779908639392,0.36109683670288095,0.4607732433037064,-0.14237008632416753,nm,0.0
6.991851806640625,-14.653548317740121,-24.739906853706948,143.63279493485,-0.558170475637524,0.5111438952475174,-0.1856850244924557,0.37037487100845246,0.3367449895521283,-0.055748440315319975,nm,0.0
7.000228643417358,-15.429240637057633,-26.82484920786239,143.8618467199035,-0.7823128306358571,0.5930158574453865,-0.20405578891719592,0.3610375956271198,0.26807149858441587,-0.007950749900467048,nm,0.0
7.003863096237183,-16.281368911490304,-28.64088214793635,144.3160797143713,-0.9258139890051591,0.5736917877836093,-0.2912514274496523,0.33692820025473585,0.22008228442174352,0.020872079420845163,nm,0.0
7.023977756500244,-18.203381123718657,-31.992348101787933,145.1459464423285,-1.026651024229682,0.7002962978207266,-0.41912085988182757,0.3262375702525141,0.18391705752989046,-0.03542692975294773,nm,0.0
7.033043622970581,-18.724455936912047,-33.41394967889702,145.1613520124269,-1.0762746466224955,0.7260206828959982,-0.47098753255211606,0.2361884865365474,0.19748616923975093,-0.0501505658885445,nm,0.0
7.052276849746704,-19.205507453440138,-35.212186580151545,144.44813545610563,-1.1542204646014773,0.82561969459702,-0.4291880377864138,0.11963696234602336,0.09876311365204707,-0.12760437000840738,nm,0.0
7.063246726989746,-19.291582698658523,-35.32737034101229,144.10323457346556,-1.1805979069184895,0.9143186391902122,-0.39347158886815264,0.026771010831773617,0.024425127517828778,-0.09536398561757965,nm,0.0
7.083705902099609,-19.69947832961618,-33.88829811652416,144.21975631416908,-1.2231279995187814,0.8565764030455204,-0.2727078528100644,-0.06566004679790677,-0.17841459660679115,0.006227361256788432,nm,0.0
7.092649936676025,-20.060193783737404,-32.42919966086332,144.90456938889875,-1.1886805128298996,0.706701299063464,-0.24202587790977062,-0.11822798310349192,-0.25925372408626934,0.07663877489114079,nm,0.0
7.098989009857178,-20.41524992391539,-30.57352500011001,145.7573828606127,-1.0711925701526528,0.4938060617019979,-0.3117784760047635,-0.1598294947595152,-0.3261982974152591,0.11533773039915611,nm,0.0
7.119686126708984,-20.73411832600219,-26.123424641784606,147.24129069726354,-0.5865565842161673,0.0858951632731174,-0.4393651437192872,-0.25061147213244556,-0.3810281727762877,0.11381758414167759,nm,0.0
7.131147623062134,-20.5575815680387,-23.532278266328085,147.73584397414564,-0.24939054210541825,-0.10125261711640009,-0.46006748942831144,-0.3046401551169553,-0.40653221000684175,0.07965387365058527,nm,0.0
7.152771711349487,-19.634065619943183,-17.588606654973635,148.41594203184732,0.5598096205037592,-0.5548281193422339,-0.2198183995871453,-0.41036387511662414,-0.45909507085927576,0.0596140315681116,nm,0.0
7.155528545379639,-19.01786208157492,-14.279345254389767,148.90565857199817,0.9530069254228977,-0.7652461034968832,0.08007514690740807,-0.4449540374754225,-0.49072871634739584,0.08586351533148799,nm,0.0
7.192896366119385,-15.510346932920264,-5.560856374630964,151.40215218361968,1.7717139841950003,-1.25931846084197,1.0169642682213187,-0.45437810074818547,-0.2590860874944624,0.19956890305121916,nm,0.0
7.197505235671997,-14.11392065346453,-4.308662010879553,151.97255827415879,1.9102916270498422,-0.9184706427990731,0.8288403202827065,-0.36509482271573385,-0.07426264637478285,0.13669124702925886,nm,0.0
7.20653223991394,-12.470221025650341,-4.343384018468175,151.99022732643584,1.699188064587508,-0.9107654828314926,1.1147795082430683,-0.2874396129052986,0.17460261454704804,0.026468087516314638,nm,0.0
7.230357646942139,-10.600718237807712,-7.525263823966408,149.67465528481023,1.1180902869777578,-0.03711945038508359,0.7240687281116067,0.06737828048086468,0.4269848541478586,-0.24664849912815665,nm,0.0
7.2320356369018555,-10.168956763786344,-9.928948929092964,148.05438340799626,0.8267020177631151,0.22140657253682963,0.5932859906983451,0.17602020717886968,0.4703166436839027,-0.2855492276893025,nm,0.0
7.266947031021118,-11.772286722098073,-17.636459825511455,145.9292362297947,0.07763397646358874,0.513315216799538,0.07421879009858294,0.4243970708166189,0.3072418539005748,-0.06049689655283321,nm,0.0
7.2816853523254395,-13.197992739729225,-19.709002873477054,146.15576897450427,-0.12455992539059592,0.3942530461721754,-0.17120643267029834,0.4566025536211255,0.20732429368856273,-0.03287378481271945,nm,0.0
7.283657073974609,-14.83751750998364,-21.535356616024067,146.3272146499422,-0.33265606534100156,0.2379132814889825,-0.2996880602596095,0.45918491546554585,0.14751816655581912,-0.07150885487208958,nm,0.0
7.28982949256897,-16.523498344038604,-23.13903162503552,146.11218819020425,-0.5817213632329209,0.20990685312126892,-0.395945739657288,0.43878058542996684,0.10762249444227362,-0.1699159898103383,nm,0.0
7.313076734542847,-19.766726553413275,-25.74400236231119,144.10654824293226,-1.0426536478224522,0.4086687365507619,-0.4173552945636903,0.39141498878954006,0.042108739059932454,-0.38193202355674194,nm,0.0
7.317504644393921,-21.28958300293537,-26.84629283607188,142.83734334364703,-1.2278657173451477,0.9069724617197354,-0.5405873092953037,0.3530927010690646,0.028642731868991807,-0.3863233755405538,nm,0.0
7.347623586654663,-23.638500885066485,-28.0706278396064,141.46820544008253,-1.6789104416249827,0.871876168402088,-0.367263904849813,0.23708518015264782,-0.06457215366717314,-0.20252718533007066,nm,0.0
7.349370718002319,-24.887487816395655,-28.097225954548122,141.7149428331573,-1.674947095991628,1.0908184518189832,-0.5854704821027433,0.178843107484306,-0.11917821303612805,-0.06466941436173286,nm,0.0
7.35509729385376,-25.58784858216067,-27.74812953432248,142.50356762091792,-1.7355644939079309,0.714458841511375,-0.5225839640962162,0.057335811720148656,-0.11752905667528632,0.09597510755845814,nm,0.0
7.402740478515625,-25.11267846414707,-25.233972262839377,144.92328185167258,-1.1004154727089024,0.14160126373534504,-0.6385671234774136,-0.22897391817395404,-0.06246931285560555,0.21046955270312362,nm,0.0
7.4044764041900635,-23.941526831803646,-24.03837509735222,145.08474211573116,-0.7781589734213544,0.13753480934585893,-0.584989287995935,-0.3105072432044647,-0.059262519934062466,0.17340373045386956,nm,0.0
7.412903785705566,-20.58675060862481,-20.382997761994424,144.88362583437404,-0.13362063837941587,-0.09403598649426412,-0.2666941071951965,-0.5041775932713537,-0.13564106693058967,0.1607943612544846,nm,0.0
7.427697658538818,-18.96739111984131,-17.808924462753367,145.28219698847394,0.27185459007183566,-0.07600237422808968,-0.28703257901848933,-0.545321974765089,-0.23285068109725088,0.1871208391753556,nm,0.0
7.4488348960876465,-15.862527066730014,-11.45153953091411,147.37691502106532,1.0543693197164383,-0.9076400422957651,0.42486501326058607,-0.5826258167991379,-0.3977869699760361,0.27363222268762777,nm,0.0
7.456024408340454,-14.915162163172003,-8.227439772599713,148.6150319200997,1.6758505163920074,-0.8332574347200838,0.45798372075130456,-0.5003939624414784,-0.4344077692785769,0.25907228218001344,nm,0.0
7.475104331970215,-12.182536323983133,-3.6732187886338483,150.05319995911222,1.990632355596572,-1.203375313912852,1.187878698011074,-0.408505922944475,-0.18299785138755492,0.10384059178483256,nm,0.0
7.486481666564941,-11.377428678938351,-2.7056132092208247,149.69904043890486,1.8700444642893672,-0.8161076316066005,1.0229645618423098,-0.2368540691735169,-0.07254514594205333,-0.06426734961497653,nm,0.0
7.491332292556763,-10.82253163826337,-2.64843108956868,148.66517776054437,1.4559978107846823,-0.585078510755253,1.1810109565635765,-0.1013358327927945,0.06126289938463559,-0.20425165933302336,nm,0.0
