timestamp,roll,pitch,yaw,acc_x,acc_y,acc_z,gyro_x,gyro_y,gyro_z,markers,motor_input
40.02267241477966,-37.29713814134078,15.425021419312877,39.06812701657817,0.10528464897834519,-0.2779296128219345,-0.9341625276731378,0.5432851877275015,0.2828851388230353,-0.47441678618799255,nm,0.0
40.02472686767578,-32.31633442585518,15.050100823811759,37.283680719334406,0.5403148777304756,-0.22426203766442795,-0.5671487989814545,0.8177231641946177,0.5287419263996369,-0.563149135357791,nm,0.0
40.0354950428009,-25.45793082031628,14.905553035987703,35.97378273325953,0.9008462332710153,0.13905511327356146,0.4671639913657601,1.0951691996886477,0.762633548165329,-0.6185208917869303,nm,0.0
40.0436635017395,-16.96986539234137,14.828602207923781,34.745335644039365,1.7045223299325625,-0.3226090170588429,1.2598988047588382,1.363643083141713,0.9286124830798903,-0.6282656317641678,nm,0.0
40.06872224807739,5.343638136680488,14.174106353684444,33.86425313404932,2.5802309184715453,-1.2482659220750203,2.8836246127242933,1.9142245276058731,1.1731009140960085,-0.5728404706074064,nm,0.0
40.07048559188843,16.174138651643926,13.733423436044502,34.045411142594226,2.425092638603536,-2.469034133158108,2.2350267935400008,1.806948393742686,1.0939279011150524,-0.44845818213181593,nm,0.0
40.07755374908447,25.908087571354855,13.116130950126417,34.63344513373653,1.8399006323272877,-2.924265593171182,1.5944861320542028,1.643690066231634,0.9639168564653069,-0.34596691310058647,nm,0.0
40.10447359085083,37.40163465606424,12.568817209223637,35.73152069639869,0.9050115290186511,-2.6356205808399173,-0.40943753590370524,0.6749477557951551,0.48078530339626274,-0.0773064089320873,nm,0.0
40.10616588592529,39.31800529979071,13.351767419607988,36.57017112139683,0.7731896907958994,-2.1567082235751145,-0.6459676763809172,0.21653024312900407,0.3454813395767092,0.06935006272573939,nm,0.0
40.13064098358154,36.49499274442463,15.518106751807077,38.00001423609739,0.9136723113628817,-0.7147599195672487,-0.5783881597539339,-0.4979400559286732,-0.13330043308663636,0.23590089727474994,nm,0.0
40.13477063179016,32.46989245687411,16.249798171994414,38.47206341274234,0.8493797767979826,-0.014122646167706716,-0.2642651764609813,-0.6919945627890997,-0.36749925498513986,0.3030742310443973,nm,0.0
40.16435790061951,20.1043296774825,16.62237179993877,39.24911146453589,-0.044191402103896146,0.8462101044323381,0.1113876381791154,-1.0167138167938803,-0.8400705745855471,0.45535272492643725,nm,0.0
40.166452407836914,12.706788224403986,16.383410348576934,39.96340610761552,-0.5470158019961449,1.1456836665143608,0.5482063475992205,-1.0507870966118478,-0.9498343800745478,0.4866636362761015,nm,0.0
40.18971252441406,-3.928094947119746,16.08212057851391,41.184352659717085,-1.9270781686206817,2.076670298934318,0.9092299791592516,-1.2561045062685765,-1.1298473336788843,0.5706852572267138,nm,0.0
40.191843032836914,-12.767226166913124,16.11879102691914,42.19232083562984,-2.3539033527036177,2.274195912642842,0.4712694522171925,-1.256642343772504,-1.136194816004587,0.5812170871807538,nm,0.0
40.21561288833618,-29.394055422992068,16.763139667348515,43.53559743216889,-2.5917652989455444,2.0357367438711784,-0.9726711261042393,-1.1798341295229446,-1.0211798238141463,0.5214722774750039,nm,0.0
40.220294713974,-36.338948999137855,17.1017040751024,43.64535261992124,-2.3622787871725297,1.6018135191648255,-1.4509815341993,-0.9960099543498393,-0.8718159568438135,0.4221817527992412,nm,0.0
40.24451184272766,-45.326036211402744,16.936181738549593,42.70114326047283,-1.9265584554886621,0.8188272289757633,-2.079625865376291,-0.46819626269250403,-0.5249154671271853,0.10308793086839044,nm,0.0
40.24962401390076,-47.53415138435645,16.23948138295661,41.67242296740982,-1.6358884664420417,0.5586437904011705,-1.9901243239940956,-0.20674272484168257,-0.3905509900774398,-0.05673043300886866,nm,0.0
40.279120683670044,-45.998522486517295,13.180697580502182,37.06816820296083,-0.2928800813888158,-0.018100122877956173,-1.2805708088824108,0.4025246273799498,0.05500991450283812,-0.40051714385100057,nm,0.0
40.30329656600952,-37.98101876603784,11.899746780508746,34.26811158577977,0.6692287511745147,-0.3702063283594676,-0.7824369878971379,0.867067730451328,0.4678172885897528,-0.46694462529330877,nm,0.0
40.30686283111572,-30.93011488197775,11.651130395120157,32.98624280152525,0.8507031719012267,0.0028666820422028655,0.2654319142701156,1.1931449813346342,0.7151880582852237,-0.49254830073949163,nm,0.0
40.33378005027771,-10.515820944436264,11.207738821729235,31.681210943084622,1.950975494633754,-0.5005627902245441,2.770517791049713,1.9508574076402208,1.134310217757589,-0.4831542904275728,nm,0.0
40.33598327636719,1.9676157274899047,11.023664298732877,31.69272431592435,2.3989351029293022,-1.414420565599012,3.6676426642986875,2.120819855865873,1.2455687084044835,-0.42809338400675323,nm,0.0
40.34453630447388,14.05653017383412,10.994980092960468,32.12490314463359,2.3051076826358217,-2.6141130288569916,2.892985290536644,2.033415624221404,1.2406783257106087,-0.3260362679877368,nm,0.0
40.36822032928467,33.300066647604254,10.829728923940085,33.99037505008987,1.6008052259689378,-3.1706519651188754,1.2446100357028531,1.3677270815173772,0.887216666329124,-0.1413399338508071,nm,0.0
40.37234830856323,38.37605372627684,11.381875367956727,34.986157876127315,1.1338644904345936,-2.7365913277792457,-0.32744235106176933,0.7669784150001342,0.6540279114716587,-0.00875307548281438,nm,0.0
40.39602303504944,41.36175385168005,14.036427225228627,37.130988604727634,1.0270007335721447,-1.5692009900578818,-0.7543730231309012,-0.12112550657163113,0.26573063455994755,0.17349680921974095,nm,0.0
40.40075993537903,39.523300948799246,15.31527241363505,37.80768416236585,1.1026029587384985,-0.8876645638959871,-0.7585528629506016,-0.4317098888109301,-0.015205456466669893,0.21607189397702053,nm,0.0
40.42830038070679,31.407396940291772,16.74514456795736,38.68515157853897,0.621398961208136,0.2493101675286501,-0.12512912243990568,-0.7703761152243024,-0.49269813423682135,0.33636182779994184,nm,0.0
40.43274688720703,25.317711227127567,16.841924735353444,38.993762192912186,0.14660486539737502,0.590185869761992,0.21480782002177548,-0.9129701708895206,-0.7206041216207791,0.4029165223131307,nm,0.0
40.4548442363739,11.310070320589329,16.6727873386507,40.89432872161379,-1.0047836407318602,1.3032260034928467,1.0049331439408182,-1.0126318803339371,-0.9027108536753093,0.47083799283751215,nm,0.0
40.45792555809021,3.3501777983059795,16.73598198620059,41.59701652415183,-1.6435510021889899,1.730798518798844,0.9909585208020968,-1.141599708784324,-1.0054076338395557,0.516742355818574,nm,0.0
40.484188079833984,-13.025650237807472,17.298182547862197,42.92755811534,-2.357756205453112,2.2905897554901857,0.24648336587918698,-1.1625584242238916,-0.9913761545587171,0.548934236152216,nm,0.0
40.48598861694336,-20.878015169819207,17.8172135737629,43.37456958802763,-2.4462972630588413,2.3007508257455482,-0.41633806454597905,-1.1510587879374454,-0.9541280365885597,0.5568820000510818,nm,0.0
40.511144399642944,-33.73088965338324,18.834893224637298,43.99923905772231,-2.2137825722748543,1.6899640685269892,-1.4056338577157907,-0.8263085358150171,-0.6852168415082575,0.437909725344228,nm,0.0
40.51684331893921,-37.96130326523837,19.027331288902708,43.996428739146516,-2.10584593308523,1.3153017743872073,-1.743551960163204,-0.5899742340574301,-0.5309699196318527,0.31404225268683894,nm,0.0
40.53356742858887,-42.02866095483482,18.307514567927434,43.056028578151704,-1.7445036042976785,0.640381724952001,-1.681841264605523,-0.0846780077170999,-0.24789781185205334,0.0004680149060335735,nm,0.0
40.5478880405426,-42.061316645782036,17.522511892398523,42.074531415858694,-1.4372620557680944,0.48015479669094846,-1.3866762707859592,0.11552764771336772,-0.12339873854324668,-0.15004160798721006,nm,0.0
40.55664086341858,-40.99318924754199,16.73277440865225,40.70661525307761,-0.9674431053094672,0.200902345718317,-1.1748361160237235,0.27184577764470375,0.012271574986390437,-0.2842323879007019,nm,0.0
40.57879948616028,-35.46521995994496,15.591659332158018,37.723600925143,0.05480485148243652,-0.21035324852717077,-0.860289953493674,0.5764716604146195,0.319039166716111,-0.43287528814085696,nm,0.0
40.581846714019775,-30.365850739952805,15.36781222355816,36.39715572290661,0.47739593524959556,-0.2896379959350701,-0.5679841986706983,0.8268156646757397,0.5502303759986161,-0.4918688720848596,nm,0.0
40.62372922897339,-14.611516831657653,15.231932518150101,34.77399235666888,1.625176568604805,-0.42468117059895255,1.451718878615549,1.3998313281111132,0.9513790253152231,-0.5685732937810689,nm,0.0
40.62553787231445,-3.730922233726658,15.05418740687997,34.42527227669285,2.1718250095134506,-0.7469851375527036,2.781775016979966,1.7650772325392143,1.1555835339704859,-0.6021744262539888,nm,0.0
40.627190351486206,7.799373239827663,14.680894941844969,34.38572587867379,2.676305695638349,-1.6282296730017993,3.300167637438743,1.8959652779144216,1.190436194596465,-0.566736342263985,nm,0.0
40.63654184341431,18.61040404574714,14.29044604159546,34.627493551232114,2.4005923429787592,-2.558598245770728,2.0472190943852753,1.7824972674946968,1.1157875477992623,-0.46793381691063957,nm,0.0
40.65488862991333,34.992694747942814,13.83078824868958,35.83162125518448,1.4676793774090986,-3.0309653811094686,0.6117466872511751,1.104800174566818,0.7511923086176225,-0.21847714594523024,nm,0.0
40.65856075286865,38.91872899277396,14.2073998924804,36.568009489403764,1.0402585944147784,-2.648499442056979,-0.43712425542072936,0.5779225103459196,0.5094240550977275,-0.055566160599550926,nm,0.0
40.68667125701904,40.09419615855463,16.306964890026777,38.650716558314144,0.9407407752995425,-1.4644533001163595,-0.6151611389765497,-0.20899205336321752,0.12657972568866366,0.2300093947966692,nm,0.0
40.68845748901367,37.82649603925125,17.310480782442244,39.61366016172727,0.9108434519436444,-0.6926415437651505,-0.5421635190085694,-0.45733156906948064,-0.12056291579857571,0.3114502407686446,nm,0.0
40.69641423225403,34.12628907832117,18.00430001695552,40.45268829373,0.8216903462251404,0.022400379061402246,-0.23858381685473412,-0.6228121573986923,-0.35033839688227,0.3803831852552687,nm,0.0
40.721585512161255,22.91485862182346,18.592027172515195,42.847621103045626,-0.11641838209919843,0.840548383966862,-0.17141142627491995,-0.8801348930493863,-0.7750850633870353,0.5000459152273325,nm,0.0
40.72368049621582,16.422941425884716,18.51653604372344,43.66104056613632,-0.5797413962613569,1.1647770530593646,0.3791343766450042,-0.8742917762081425,-0.8625624742509057,0.48081117821449615,nm,0.0
40.75153112411499,1.33811996781271,18.331077200845826,44.30085021305671,-1.7451158321448133,1.7495804418956917,0.6026770090688376,-1.0679326840513779,-1.0733012929598782,0.49627161188890356,nm,0.0
40.75489687919617,-6.5967175421636215,18.26222389699348,44.27668197790063,-2.165250498437632,1.9293161633652636,0.38857228064910154,-1.0578015512827905,-1.0676383821580646,0.4881559772050478,nm,0.0
40.788601875305176,-22.107747112755607,18.485039949400182,44.98483511866527,-2.4471482523582595,1.980730647217284,-0.5962281358260684,-1.059468116090383,-1.0069023086648294,0.5066810440321708,nm,0.0
40.79027700424194,-28.77885811485617,18.915539231064013,45.32312309002869,-2.3443277916134533,1.7158313033362418,-1.0281472208285283,-0.9383111705804572,-0.8411326151142238,0.46431026381340057,nm,0.0
40.81699562072754,-38.03399643435444,19.70195085875509,45.41019402133118,-2.0906067105091766,1.1228309161852825,-1.7655724965639077,-0.5649078995853201,-0.4929740846357215,0.26826871212274295,nm,0.0
40.81890106201172,-40.5977243738504,19.810235092311572,44.890250364393424,-1.847312629226626,0.7661041398379594,-1.8464806917543752,-0.34241315755247587,-0.3293492858879523,0.1044075064411981,nm,0.0
40.820648431777954,-41.78547801872323,19.544686592787446,43.961448770792146,-1.6399125674717085,0.701851304483556,-1.6276337187020231,-0.10897790773924507,-0.19723584461420718,-0.0574648823504274,nm,0.0
40.83635330200195,-41.91716674163769,18.977898237520137,42.896103758101,-1.1945984094969722,0.4858853894112599,-1.432278880719847,0.07402007213320516,-0.10254547136625747,-0.2034240136157708,nm,0.0
40.841628551483154,-40.98663498499188,18.306769893253403,41.47905702004556,-0.7486295145236181,0.2320899634052324,-1.2306132187384335,0.23505105664140355,0.015550006088791528,-0.34218988167109465,nm,0.0
40.86217164993286,-35.90909524645447,16.99586850384993,38.19399550664457,0.18404577462962998,-0.44480754243501514,-1.057777298014215,0.5572983367179846,0.2723850802757221,-0.5201507431155128,nm,0.0
40.86828112602234,-31.005270520409926,16.510027655081505,36.47760484377772,0.3627358422682928,-0.3033676258962644,-0.5842249585307268,0.8200301738805997,0.48761484105651803,-0.6271859105123265,nm,0.0
40.89691972732544,-16.646408601284683,16.06566682480916,32.53725349442293,1.4230968565605646,-0.5668903833658281,0.6443211125543793,1.3070680928798406,0.8114524950090198,-0.8282915039976515,nm,0.0
40.89862775802612,-7.109027945828419,16.095404557077398,30.50039390780286,1.92920373253175,-0.448947096408184,1.2223329268134402,1.5743187900204836,0.9550363304729778,-0.9059411030164564,nm,0.0
40.90498447418213,2.272831006895772,16.516271960035002,28.73701643652999,2.217284350285529,-1.0721880419084262,1.390803557104395,1.5377759651654908,0.955089133134291,-0.854160471452488,nm,0.0
40.93853807449341,17.665480642007765,18.504605088090933,27.573944927659603,2.6274531362194598,-2.745221764622564,2.5962133173912303,1.0827750894219053,0.8435555691054241,-0.4454955328743761,nm,0.0
40.940295696258545,22.26446984009878,20.616910261341747,28.714123989965902,1.1725847014438535,-2.565781449867707,1.145424371490569,0.5732154978607186,0.7763811111901185,-0.09117024275169312,nm,0.0
40.944618225097656,23.926334799635857,22.606694241412722,30.303527151519297,1.1585846911959061,-2.7535532816904706,1.4949495253730196,0.08004769724824014,0.4936256864389275,0.18428803488918924,nm,0.0
40.96989321708679,20.743061130759124,22.417781020258438,31.985435919798288,0.8738525700361637,-0.6924981367748305,0.009717965045588325,-0.2995955461971385,-0.3716540811024479,0.29621510004396007,nm,0.0
40.97186803817749,17.29765857023445,23.055716806161055,33.278880811406744,0.6571036964935022,-0.024879288001442356,-0.10413937255238759,-0.5966522818526305,-0.241411355906041,0.515161158126157,nm,0.0
40.99600601196289,6.5125672836667325,24.88825100209796,35.50612570072639,-0.3101183544156011,1.0863406079528066,0.6447554144191799,-0.9708472525905455,-0.6340009256619367,0.6707751534194476,nm,0.0
41.00017523765564,-1.2653597994231989,24.786949837465265,35.98416681031276,-0.18156645675270341,1.531833515828344,0.3426635553496376,-1.12239730271383,-0.8518975650895174,0.6766712126207751,nm,0.0
