timestamp,roll,pitch,yaw,acc_x,acc_y,acc_z,gyro_x,gyro_y,gyro_z,markers,motor_input
22.516479015350342,-14.580220398386793,13.838442888181344,144.38122027089892,0.3307551316854172,-0.4851615546235815,0.9347067796859212,-0.019750545864450082,-0.30589851281805885,-0.08931388084266537,nm,0.0
22.523210525512695,-15.425510549065828,14.362914415920104,143.94195695898384,-0.037094241795500124,-0.24638457604979527,0.5237800570604458,0.07337682351567486,-0.1673778382855676,-0.05030812655787546,nm,0.0
22.526389122009277,-16.144381408376564,13.94451058533442,143.71932114441603,-0.30104609399345217,-0.0961863624359526,0.22188164217769482,0.1639253426494612,-0.0008164224619452044,-0.012790317287805341,nm,0.0
22.548720836639404,-16.96883764946145,10.594396861485027,143.60102445187096,-0.27928963567884796,-0.14882424254952992,0.02155842962416276,0.29162395106593986,0.3101139768167848,0.02746329354323066,nm,0.0
22.554078340530396,-17.027198377678282,8.076100194766013,143.58348198988315,-0.105388595700812,-0.2719415479296976,0.07852913343790502,0.3107030358854748,0.41271906876511577,0.02722152514531884,nm,0.0
22.56773591041565,-16.87661948637171,5.476367063952064,143.51691028588834,0.12273933255294131,-0.3585364133406481,0.06523186730579791,0.28736476224898316,0.4502978284980001,0.015536281221983975,nm,0.0
22.58810782432556,-16.139541875613784,1.1778207238555038,143.29561147110567,0.28012914890052665,-0.23613366804317776,-0.0925561678841009,0.16644752726582085,0.3738181713258591,0.0014615558834655713,nm,0.0
22.59344172477722,-15.72626146377753,-0.2131552984130079,143.18273459119735,0.1435669219986402,-0.054525287078550116,-0.15107243155337344,0.10222268561244842,0.2867944963662881,0.009013554750969337,nm,0.0
22.61815357208252,-15.238795779675932,-1.8993511483177514,143.45129236374333,-0.3520490367724035,0.4206165822362369,-0.2525238568742914,0.05906658123719187,0.150651456634792,0.06014224076786416,nm,0.0
22.62106466293335,-15.232868434300453,-2.4513700689624907,143.8507748645034,-0.5624860118028423,0.5645219635510805,-0.2715955162785633,0.06577796528581842,0.10403525276528461,0.08441056255148131,nm,0.0
22.62765860557556,-15.406268824098015,-2.9297839295421055,144.28263690400598,-0.6714703629099023,0.6352714788299149,-0.285642266841056,0.08542212652859675,0.07149642347360641,0.09907467120398607,nm,0.0
22.65340828895569,-16.088167949261646,-3.7983861135583816,145.31552602482463,-0.6463321026728314,0.5593733283101704,-0.2638698359537362,0.11036723774651816,0.03803473648607514,0.0997321086136981,nm,0.0
22.655231475830078,-16.499576481522247,-4.086357456672293,145.80634962872264,-0.5879426971425098,0.46162184810633705,-0.30689351202100124,0.10109979999039741,0.01547576957327634,0.09152193430174639,nm,0.0
22.680548429489136,-17.193068070049314,-3.9811812732708756,146.7186219438286,-0.5115465827585671,0.36360912538764545,-0.3822709329274884,0.03142811109229167,-0.05124973796258998,0.08501657405069298,nm,0.0
22.699482679367065,-17.388379231028065,-3.492992158302087,147.17729618139148,-0.5187764451225988,0.3471715593745786,-0.4321717174720788,-0.020209588412379527,-0.08880450779675164,0.08832021345947122,nm,0.0
22.716010570526123,-17.345229858436245,-1.724422480113807,148.0726464159919,-0.558180701409442,0.36014126010373804,-0.5289198838430468,-0.12384110472846839,-0.14444059036128384,0.0864835818934106,nm,0.0
22.720038652420044,-17.066689466665224,-0.552533799582441,148.43338859680674,-0.5178389246390015,0.3451353477529834,-0.5601543345021922,-0.1707673782478252,-0.15582500239651725,0.071922827442494,nm,0.0
22.72432589530945,-16.642197566260016,0.7364447172505122,148.67189818514836,-0.4136946962814696,0.3032041344198625,-0.559699205799463,-0.2070861640249975,-0.16149281045084143,0.04595152158563105,nm,0.0
22.731677055358887,-16.135001923024316,2.1403604984614555,148.81952313078344,-0.24724908249604974,0.22501433762637962,-0.5202887791051083,-0.23245078134347194,-0.1734712630698158,0.010692170426569227,nm,0.0
22.75559639930725,-15.257811451068104,5.495301129233218,148.6090277562149,0.2315298202571141,-0.03523724138364635,-0.31259159671095543,-0.25211466591410037,-0.2510318257736446,-0.06121411807415441,nm,0.0
22.763105869293213,-14.990550476432627,7.54130149054188,148.34203151722107,0.5115646739082809,-0.1818333810809292,-0.1335728914670196,-0.2588473728512507,-0.30751625065872135,-0.08375708428729448,nm,0.0
22.784557342529297,-14.86284060483513,12.232768813888496,147.68992615245085,0.9800076032985815,-0.5766331776186783,0.48199912599979283,-0.2576193382518558,-0.3951417121061444,-0.08873241541102192,nm,0.0
22.789905071258545,-14.945524685107909,14.735212529008692,147.3985453748024,1.061240251093568,-0.7702132608298469,0.9545679289243911,-0.25397757404222215,-0.4177706796205571,-0.07794177136351625,nm,0.0
22.798554182052612,-15.108051389121698,17.24876951613021,147.16039785324995,1.0570743695437121,-0.8822106825177974,1.238288040169467,-0.24420836419153816,-0.4267367399056446,-0.06157465911611724,nm,0.0
22.821998357772827,-15.614949528886621,21.60940158919308,146.86654725823396,0.5706748802622377,-0.7437022270441728,1.2221964172045032,-0.17331214506562287,-0.3516277484137944,-0.011008526812075814,nm,0.0
22.82650923728943,-15.840218644794646,22.982009154321457,146.82289793143528,0.2578334288371099,-0.5652980052928965,0.9637743573935764,-0.11392111117231306,-0.23923808449402603,0.015091236753487601,nm,0.0
22.850385904312134,-15.983014105392916,23.08480764842299,146.9074391875665,-0.11764229775355763,-0.26894053179236166,0.4112380613358842,0.04889438350180328,0.07911821092212909,0.03854315396664056,nm,0.0
22.855313539505005,-15.943839151539077,21.88337701609883,146.9228321980781,-0.12275642669130256,-0.21815574400468243,0.2636032693448829,0.12702643465596608,0.2190538683205867,0.027641456437683277,nm,0.0
22.881245136260986,-15.804544368775828,17.87182138090512,146.71503155305558,0.07495112484814541,-0.16999407337614617,0.17238021089620842,0.22778572740506817,0.3884732144179773,0.005953617861333543,nm,0.0
22.884746074676514,-15.683623903222005,15.645177213294028,146.61198802572736,0.2049783226257069,-0.14895989594556555,0.11369980500750575,0.22755911811196736,0.3987532585186714,0.010241809163698719,nm,0.0
22.909778833389282,-15.41873755277056,11.868872847228019,146.8753616819066,0.276988603926681,-0.050537614580305985,-0.14731567061499892,0.169335264385211,0.3193034010685297,0.06152817988865121,nm,0.0
22.93343949317932,-15.052673822709512,9.450268641558596,147.5275534362268,0.048332208031426446,0.16479235963482952,-0.4089053120552895,0.07759463475379781,0.21251050620525272,0.09256270631347188,nm,0.0
22.942504405975342,-14.758397858490337,8.621401869577753,147.82886387641773,-0.10776479511743081,0.25382553781802736,-0.4707061944269915,0.04034575148153902,0.1854378900052731,0.0757973180652922,nm,0.0
22.94634175300598,-14.427293082277929,7.860962073262228,147.98522568985175,-0.2631782199371418,0.35691950519908305,-0.4860536951873626,0.025964427495950397,0.17796065075210818,0.03972045575592139,nm,0.0
22.966673612594604,-13.750255662901935,6.483458488308906,147.52995238113795,-0.5234139113997354,0.5270216929436145,-0.33591395531696217,0.015379392549445354,0.15978126716893373,-0.059043363686606475,nm,0.0
22.973326921463013,-13.476189318164982,5.904486114913976,147.04496346480786,-0.5908406129832481,0.6001783870527354,-0.31693336669110633,0.01749084082940901,0.1411388564086805,-0.08854037701046043,nm,0.0
22.987051963806152,-13.258743141959615,5.437686820182196,146.58373386052367,-0.6498426554786693,0.656381059637336,-0.28989943401803053,0.015674040602730522,0.11605639342524095,-0.09165301149908746,nm,0.0
23.003417491912842,-12.923438400506726,5.134173627219424,146.0178846395585,-0.7134943826210891,0.6520858306187278,-0.30820114065629395,-0.02167044132008947,0.03701445858803767,-0.03871908207670252,nm,0.0
23.011459350585938,-12.769134344634573,5.333322587425122,146.02899311865303,-0.7277223325438584,0.6003695566266428,-0.33692218089290843,0.0,0.0,0.0,nm,0.0
23.021746158599854,-12.612228574906075,5.749437038269032,146.16288488829323,-0.7158563894851533,0.5180306007270803,-0.3743783708612972,-0.07157855247914187,-0.037637304617378645,0.020609044534804565,nm,0.0
23.026670455932617,-12.467590651995053,6.363162341817053,146.3393969643055,-0.6494249938148344,0.41290978624695246,-0.414796971318908,-0.09138180940278015,-0.0721317516077268,0.029015289795811357,nm,0.0
23.036277770996094,-12.338395392537171,7.155778387067968,146.49643691239555,-0.531557411351494,0.29720256459591293,-0.4232296605732715,-0.1083538214324343,-0.10399217937635052,0.025002571627667898,nm,0.0
23.048662185668945,-12.213848465063466,8.15657126799445,146.61525116337629,-0.3624279458876357,0.15871160408465027,-0.38956841981682194,-0.13021030839592304,-0.13961274655548686,0.016925834930162094,nm,0.0
23.057088613510132,-12.105228059007255,9.429802566992242,146.80164433922207,-0.12559532610128715,-0.007527800516676605,-0.31769036731900846,-0.15690707990273448,-0.18747450591454182,0.016354850354787145,nm,0.0
23.06791353225708,-12.000467964477643,11.025679056217284,147.00412482998246,0.16482487398313053,-0.20415812168046588,-0.17128069796996342,-0.19087081093484978,-0.24256370409210426,0.0328879049479804,nm,0.0
23.087244987487793,-11.570619227159218,15.364820030534144,148.01600615929274,0.7947934019533355,-0.6367801820261507,0.3240481371661383,-0.29788509709432526,-0.3590446286174697,0.10722123892455837,nm,0.0
23.093204498291016,-11.048750222762296,18.098464293802753,148.86129984713585,1.0542167624657488,-0.823649217374774,0.6875771694445227,-0.3708240291201348,-0.40048813226113095,0.13419953102269955,nm,0.0
23.118294954299927,-9.323646702767844,23.92404338712449,150.6273484760582,1.2515344676250124,-0.8228729295717379,1.3507628822199216,-0.43953042861786507,-0.401806824710364,0.08501217366410786,nm,0.0
23.122997522354126,-8.269269632843686,26.537175864035117,150.99877156344556,1.0016991909287345,-0.6102713782482522,1.4322781087257888,-0.42061873740194117,-0.35073675648961006,-0.02194086637411436,nm,0.0
23.14516282081604,-7.3545081359500415,29.966383343137256,149.38137222881934,0.19159648814860378,0.043706541879440376,0.9951975237928156,-0.1465474613100469,-0.19938882009650602,-0.26654330656129627,nm,0.0
23.149834156036377,-7.975610288433243,30.185026165448555,147.47613560157313,-0.20408295176975577,0.3610115699672191,0.5179664101924503,0.07120886065387065,-0.08106617502944422,-0.3257497148259721,nm,0.0
23.175309419631958,-10.79780568636879,27.84471239912694,143.16487564137384,-0.28565152955559847,0.556157427023628,-0.04582025615876411,0.4127687080973136,0.11501253022086151,-0.260977680014499,nm,0.0
23.180798053741455,-12.254212501577719,25.52245509123034,141.5445757420699,-0.24800236885734106,0.4095867097165958,0.018849875371341158,0.4937380090848411,0.22147739256062374,-0.17282405560124736,nm,0.0
23.2050940990448,-14.823284890230573,20.43929098232901,139.75653966761726,0.13355365740729097,-0.2570183564314131,-0.1303394223499402,0.5016910327155725,0.2508134625025113,-0.02430240077503855,nm,0.0
23.209657669067383,-16.07642138663085,18.012049400062836,139.15063731683335,0.05450134002982062,-0.4554766889560534,0.06766697414676318,0.49933838579808065,0.2283010242529124,-0.017331817345540262,nm,0.0
23.235880374908447,-17.758915790880526,14.021533432005375,137.00566218887087,-0.23228110165324034,-0.12204568553303237,-0.32778583471632494,0.3361645440481716,0.1941650877706746,-0.21737905792920573,nm,0.0
23.237752199172974,-17.855454317700307,12.593797352517926,135.24641209225,-0.40778222225948746,0.2948229894359555,-0.6649607986026366,0.21561498722681363,0.2065307327778399,-0.3314666638416505,nm,0.0
23.26101517677307,-17.291043871419834,9.832278580899189,131.85056256548953,-1.0560215494307847,0.987948105820412,-0.2501374614841279,0.1737814449642148,0.24079763909375076,-0.30581131055471145,nm,0.0
23.276806592941284,-17.241366719242155,8.584256671677505,130.822328630343,-1.0174203523587075,1.1777645873106857,-0.23494074294662906,0.18596163543434904,0.18572543813630132,-0.19202951033156695,nm,0.0
23.28327775001526,-17.33662167993992,7.578222158296416,130.45671795261117,-0.8774084252429295,1.0975691238105667,-0.330875427752721,0.16997276807521436,0.13020864670981763,-0.05803443292623898,nm,0.0
23.285568237304688,-17.655038029465302,6.742776068423115,130.739557878869,-0.7489039746310728,0.8028645137766413,-0.38066268988614405,0.17285762826131923,0.07428574714286316,0.0688421890685255,nm,0.0
23.29283857345581,-18.23066445469835,6.156098785554844,131.37414584830006,-0.6182718909871001,0.48789337200854693,-0.40849369580441947,0.16829721571120143,0.00432258077581181,0.1467038935585244,nm,0.0
23.318281650543213,-19.89359933775971,6.380570630977669,132.56790410957308,-0.35665690872135475,-0.23296073478182364,-0.4273679196787861,0.0777604973851434,-0.16650231181205472,0.1305991208820972,nm,0.0
23.321163177490234,-21.02799788913359,7.047373577186052,132.98156061601813,-0.08141865995915847,-0.1844208817119175,-0.6423443665672621,0.059308746045494194,-0.24249663278314149,0.10784439268724226,nm,0.0
23.34966778755188,-21.668766282554852,9.564985669923509,134.0870412718114,-0.12779808106524718,-0.566443356399062,-0.28936236769150825,-0.20019747433857377,-0.1939159782513089,0.13470625216206283,nm,0.0
23.351425647735596,-21.4497193644456,11.24905383126036,135.23910729295372,0.25049463677350836,-0.6127949460536656,-0.24015169873112802,-0.26652570021395405,-0.1925155626054363,0.2207526838921027,nm,0.0
23.374242305755615,-18.265517202749617,14.857543852061038,139.14753023457632,0.9388206712982459,-1.355382796919391,0.48904625858479644,-0.521827561019939,0.00502264941202615,0.34467803043882367,nm,0.0
23.378538846969604,-15.867949390660474,16.288320376203455,141.33750287587904,1.3516421919901005,-1.4018693340347776,0.9154443238029931,-0.5361658255470633,0.08974013241144502,0.32498214022987093,nm,0.0
23.38820791244507,-12.694066314372506,17.22656538545967,143.0765880101446,1.386330574734215,-1.3543955775674652,1.4909951715248866,-0.5935719867185258,0.23856705058553074,0.18010670427808975,nm,0.0
23.397189140319824,-9.408227696704309,17.66805485170542,143.82502509432948,0.9247821546586956,-1.375447606679986,2.333466542539024,-0.5544763516679134,0.3165496710721676,-0.034134085685894044,nm,0.0
23.408607006072998,-7.568405182518748,17.56372960337008,143.32463189162874,1.2234741302398047,-0.5532336254813447,0.9459337039719931,-0.2677107694614053,0.23860513524557056,-0.20341888487254242,nm,0.0
23.42708396911621,-5.632826030125533,16.101713703354356,140.28656304476468,0.15220009507745555,0.5026942389869327,0.6025818129720901,0.03846706787388313,0.22350535778414682,-0.3672791568340124,nm,0.0
23.447431087493896,-6.531908545588283,12.376551011145681,138.62739073861874,-0.11676903446880009,0.8477305890793795,0.04124518827276006,0.3537090770488407,0.2769207340363089,-0.0622281173761361,nm,0.0
23.454709768295288,-7.487690492469014,9.967008319327187,139.0578359485116,-0.09135579845292448,0.447249855750018,0.15385433574553817,0.46166166067615466,0.25305671357091153,0.11848708224109529,nm,0.0
23.46403956413269,-8.846249865682807,7.561270157443864,139.9098071577347,0.13203798200527833,0.02906882972864145,-0.008697503570517282,0.5197916575007521,0.2051471985812386,0.2077916805404846,nm,0.0
23.475250482559204,-10.218222014492781,5.38518376986548,140.62318588932956,0.17130693302322653,-0.4443886508897365,-0.0034577980229379404,0.49062533332916675,0.17440749533271438,0.17013098110855826,nm,0.0
23.48340082168579,-11.629230687440389,3.5561420634507046,140.6923900805376,0.21318239517039714,-0.574041897759217,-0.3282766888848619,0.4521130467254267,0.11861478708847255,0.03276946982352781,nm,0.0
