timestamp,roll,pitch,yaw,acc_x,acc_y,acc_z,gyro_x,gyro_y,gyro_z,markers,motor_input
54.00538110733032,-9.21963453591868,7.133604868103196,2.8431579047826956,-0.9218311805726683,3.6705478858919105,1.065422439712552,-2.36493664527167,-0.16077764954376883,0.3991813029571388,nm,0.0
54.014636754989624,-20.291403793090677,6.89221695163894,3.2254470016064123,-1.0033615331844863,3.8704607998034195,-0.06867763849911297,-2.1869065294667394,-0.17655628939596066,0.34533004019915264,nm,0.0
54.04033851623535,-37.84213612454329,5.794599862082645,3.319811120147702,-0.7196810297366771,1.3639958921501671,-2.591434705942294,-1.4867522473077235,-0.23436403652072602,0.14927343109814944,nm,0.0
54.042250633239746,-42.045939342230525,4.7440578492800345,3.0068424366396616,-0.4983126717477503,0.5213689974824935,-3.0587190649134826,-0.8170188947755782,-0.267570529374303,0.017880415176041574,nm,0.0
54.06249976158142,-41.50575462882675,1.7941416743581686,1.1961279829031948,0.5083430432335849,-0.8138087814754668,-2.49406048979333,0.39802238044215815,-0.29949980597953135,-0.24495466265915813,nm,0.0
54.06883764266968,-35.53932342963094,0.8442950992751367,-0.4531901951097351,1.0112962339352711,-0.6336177241350062,-1.519843583439411,1.203004316753252,-0.19447105282197366,-0.3550910245203679,nm,0.0
54.089603424072266,-12.645225558031497,1.6099920704025021,-3.097321413716648,1.9246342282326396,0.0331676244334875,2.86335905279785,2.5973126783235485,0.0318298008012771,-0.25272093594147155,nm,0.0
54.11375570297241,16.82540396211682,3.8521313918985745,-1.3342831202132623,1.3187668057706432,-3.255401679153099,4.2664628004223335,3.048936566159869,0.0695716222471292,0.11605792477740479,nm,0.0
54.11544346809387,30.94948797535484,3.803741746758649,0.6527256851616409,0.6020344234828718,-3.6608374046901453,2.3550683020840886,2.828607947587686,-0.033465414768836105,0.19645073688556527,nm,0.0
54.13888430595398,52.199314900914715,2.3935222763497155,2.737710366697519,-0.3639200468682304,-2.1702099846800675,-0.6725392304454779,1.8966724639958485,-0.048666600963084075,0.018688043631597734,nm,0.0
54.14246416091919,58.02876916072597,2.7950366783302303,2.731931684904093,-0.5648004007757347,-1.8254100823831039,-1.187910451441679,1.1677641638367493,0.13446583073504104,-0.06662973741914686,nm,0.0
54.162954568862915,60.579540300245235,6.667980403834595,2.221276750967706,-0.6710092385601205,-0.4602546841949084,-1.8995114035113485,0.02682537038516963,0.45256995652691584,-0.0773339653219277,nm,0.0
54.178643465042114,58.229751121261344,8.77405705316637,1.7738188101505978,-0.5328533039303075,-0.33095551650898575,-1.4923762421803106,-0.47517542425791087,0.4036253750784361,-0.03969033385130392,nm,0.0
54.18038082122803,53.50200593703605,9.98461820360214,1.3764347117525402,-0.3898606078648083,-0.0074192505586279205,-1.3292342919120108,-0.9350466287998895,0.21391836579879037,0.06151257958265048,nm,0.0
54.2070529460907,38.78298099332587,9.015747806339055,2.405032539384649,-0.043461476997207836,0.33204991020251867,0.7073893702954541,-1.636184837794137,-0.2511328104578208,0.44762849126062504,nm,0.0
54.21001076698303,28.97161021044774,7.821624346322083,4.114710504707692,-0.14010082713731864,0.9538287897747753,0.9443230006824826,-1.9204615627381398,-0.35570427700641993,0.6183618922585136,nm,0.0
54.21873426437378,18.813930708769142,6.911633490851977,6.074889422699894,-0.28562832840987445,1.8197377442417961,2.166899948217211,-1.986075174286217,-0.3685709466176927,0.6430470776258719,nm,0.0
54.240756034851074,-3.2588165638869295,5.7487968584518105,7.701642001652116,-0.8781377357981893,2.9342181133188214,0.5977403009449923,-2.1451500935757646,-0.42005213311634154,0.2808313317046194,nm,0.0
54.24985146522522,-12.67152368476875,4.510513963937283,7.011689426095854,-0.8487355515308537,2.7594358325067083,-0.47101581943325144,-1.8215418730592732,-0.4969388451916708,0.02767941871616288,nm,0.0
54.27417874336243,-24.42573714765838,0.08316803911820685,4.956727630895333,0.14363149664307803,0.5340235571287729,-2.5876902603266547,-0.8184486703292103,-0.568597586724306,-0.168531457694398,nm,0.0
54.27816724777222,-25.164445352716626,-1.7288280137632313,4.472252339622166,0.5147481470519027,0.12777008057446856,-2.1086094686390346,-0.1092470234058748,-0.3855500452427919,-0.09865639631648222,nm,0.0
54.302823305130005,-15.794933247133251,-1.9686902654507643,5.089044733300663,0.36170306893752974,-0.3037625274508979,-0.6969214633958091,1.3229170208296623,0.1759528382729254,0.16839588085733087,nm,0.0
54.304513692855835,-5.243448652852234,-1.273649793986804,6.109685977336046,0.09176696565892033,0.032991033503746735,1.5657973172247512,2.0971579989299887,0.33330914460079963,0.25976651458216327,nm,0.0
54.329131841659546,20.06520830036724,-0.23241470080006585,7.257507367735709,0.9544487232383037,-2.5402702624369633,3.4444006014049333,2.51723772453058,0.4172471569828159,0.07047925579077438,nm,0.0
54.33435606956482,32.61237502458544,0.6924263347066176,7.095825074132129,1.2987257337589344,-3.159801478989455,2.046783971871811,2.4778069330414008,0.4909977522513029,-0.052781779397250886,nm,0.0
54.35751748085022,51.9915297546603,2.921000043239838,6.221705967734064,1.0804068497669197,-2.1754741744751236,-1.0619685366271177,1.6383841656106026,0.39798884665882844,-0.17960650261372724,nm,0.0
54.364540100097656,57.41531599188571,3.589409549890804,5.633698037386983,0.6273045582991672,-1.4011721236050307,-1.8347309699036893,1.0714489347616432,0.2437876724381971,-0.19204423991961442,nm,0.0
54.37214207649231,59.89707070282474,3.7729224383587,4.963743863601458,0.06519076817363978,-0.8017255641376766,-2.0350175767087677,0.4970641628876494,0.08160483962625656,-0.1788379067033942,nm,0.0
54.394583225250244,57.05032844597198,3.5475511784098424,4.00655004001234,-0.8962229703503554,-0.37481764471881013,-1.028417342256655,-0.5171435190994619,-0.05950901130705689,-0.049072997978890115,nm,0.0
54.40010476112366,52.00073938691365,3.7436049312835804,3.919060578752558,-1.175050527574584,-0.1193028776566616,-0.29986260165825235,-1.0025439203200825,-0.033155086942567524,0.03428463939375756,nm,0.0
54.42156434059143,35.37444692455888,4.836359746856681,3.775289811455427,-0.9420618479247824,0.6058230373511629,0.9217778552514639,-1.861590316716802,-0.00945166649034695,0.11485481094224784,nm,0.0
54.428404092788696,25.060366661472656,5.290033895938944,3.6482526417522614,-0.6122980384877,1.1649695603477015,1.7756259388967253,-2.051762414756126,-0.05048365850231579,0.14689049578075394,nm,0.0
54.4505136013031,1.9174695231571828,5.108259909475743,3.556372782855022,-0.2668965814991152,3.021191516527947,1.437762992638439,-2.363991757564015,-0.21475483472834067,0.21157233289180835,nm,0.0
54.45702314376831,-9.383109082329677,4.570237752229539,3.6113445174719265,-0.30619009823243776,3.3897171592812594,0.4968640341583294,-2.2358857329954778,-0.25900294002339147,0.2048689927008723,nm,0.0
54.479083776474,-27.833838107425876,2.5196313925218554,3.6420838696271183,-0.44925392817296117,1.8394583076426425,-2.2338722438517666,-1.6371036802555403,-0.36458792356046305,0.08583265970519956,nm,0.0
54.50655269622803,-35.103801434578365,-0.6077395193692915,3.0949686484519647,0.05912325702368205,0.24621573962144147,-2.7120854844982816,-0.3819729163690065,-0.34853009588771217,-0.07685968420999968,nm,0.0
54.508331298828125,-34.011193129221915,-1.7770427758313574,2.370725854790742,0.4704211808728269,-0.5216608667212531,-2.3927154005382256,0.23749154338805298,-0.23533432394631024,-0.13807886064516087,nm,0.0
54.51387166976929,-29.021840928096804,-2.2303877241434824,1.5494603849102189,0.7873858928196664,-0.6132374975482424,-1.5359408974677864,1.0086704814133691,-0.06866125843223933,-0.12803297593603147,nm,0.0
54.53556489944458,-7.455574611188044,-0.723833601234574,0.992584452514581,1.0099638251466079,-0.037088281087949516,3.0054852504794423,2.503874783095181,0.25168238769302587,0.05428121081863379,nm,0.0
54.54203128814697,6.427667863265132,0.576146353677602,1.6883047967266058,1.1459738290650217,-1.7915278204071048,4.338916131706046,2.7809414927906633,0.3135180335596688,0.13586489734306806,nm,0.0
54.566102743148804,34.853034906290574,1.9968620287860201,4.0434329761877095,0.9551728619482931,-3.8121211267262267,2.1197947684787546,2.7842563846871227,0.2506302469213421,0.13311204236606689,nm,0.0
54.5718195438385,46.64419902443859,2.2085238051893885,4.672330262433021,0.6824124733569445,-3.247609696003192,0.27903824175017533,2.3566678197593474,0.21785965181827135,0.026880837878952967,nm,0.0
54.59318494796753,61.19368799596773,3.5741035151169087,4.130818941162837,0.09409426348038005,-1.6905416059864071,-1.6899113092887676,1.1225037341020614,0.2717117810738031,-0.178203669466616,nm,0.0
54.61701941490173,64.05412014773401,6.543664665313944,2.591156958356727,-0.4979176123661015,-0.5440948560917264,-1.9217332983682716,0.03220940713630412,0.31800428981411244,-0.17169514595542626,nm,0.0
54.61872339248657,62.088696711701004,7.967464513764453,1.9910486859489243,-0.7410393553075377,-0.2821193357709658,-1.4678489452807137,-0.3958251118206863,0.26856335438287915,-0.0837671307057785,nm,0.0
54.6275315284729,58.06537763033012,8.924136458369821,1.6705122716137364,-0.8901928193975394,0.02870306557820843,-0.94704544589717,-0.7971086932385252,0.16435419517879438,0.04085350045781932,nm,0.0
54.638466596603394,52.180290207373794,9.291445459680029,1.788202003102146,-0.8575760999894209,0.08508503942731035,-0.10565410996630079,-1.1597632815486825,0.03553161169771105,0.19698469744144007,nm,0.0
54.68752408027649,14.723265717158629,9.380749105431333,6.61810439342769,-0.1472020028422304,2.6095977815518108,2.0101207964120085,-2.166816903669446,-0.18847730091875103,0.6015857204505907,nm,0.0
54.68924951553345,3.552905999937332,9.548618089718875,7.269445432616211,-0.3070396021799215,3.1676346641808784,1.2238558890830917,-2.186595490427391,-0.24359497713913542,0.4909667892879666,nm,0.0
54.697834491729736,-6.9659786952049645,9.12039422569023,7.245104433364961,-0.43082443623747774,3.512001227545614,0.4281216993522336,-2.0425846514938333,-0.35963009611742197,0.3172525106067235,nm,0.0
54.72265148162842,-23.69615867513879,5.8906216930135855,5.846497644494544,-0.4462695868630053,1.6162475134054164,-2.14530540479254,-1.3616873481106069,-0.5648955293576031,0.01006340741933949,nm,0.0
54.72438931465149,-27.645830624815332,3.4670981216708423,5.27867959273342,-0.1885460475497539,0.9243401039711854,-2.4613433251869177,-0.7290209721833997,-0.5708696947792391,-0.0487955963201725,nm,0.0
54.74813413619995,-26.453419239545447,0.5678165479601629,4.64800869219469,0.38034006575713136,-0.5112101704240464,-1.5959697627725147,0.49537592361427524,-0.1434388267116581,-0.060251828269936816,nm,0.0
54.75438952445984,-19.781199694871457,0.9421048142657514,4.681090012505735,0.21477665750008007,-0.32406083614422215,-0.5281505159784066,1.3338057330556392,0.17152653144609648,-0.012001462107077466,nm,0.0
54.76010274887085,-9.468982361802915,1.8747850737397762,5.118168264597041,0.38183267317026537,-0.10331852208104741,0.6709636210708063,2.049238056379889,0.3505762468940527,0.03319616704871898,nm,0.0
54.788801431655884,17.05640886273094,3.483127134647196,6.089616528375932,1.3872747919924362,-2.5838771997965053,3.810054406709494,2.7702708043914765,0.4094584074285498,-0.08146267774214402,nm,0.0
54.79114603996277,30.869831661633043,3.9025757628769866,6.136536734939112,1.550911641254507,-3.7410886824233214,2.91447973116996,2.7431081418521774,0.37065972820200577,-0.17942614775233745,nm,0.0
54.79885792732239,42.91901479013929,4.312509878036903,5.845438075340004,1.1581050552412748,-3.5078579296527685,0.6555570001957632,2.391845839823398,0.3283202309038431,-0.24283524772606832,nm,0.0
54.86503744125366,62.57457434510237,6.400092592463488,4.010718289291046,-0.2691392092344695,-0.8756629706419016,-2.100979365175685,0.622361964297619,0.2259148481451442,-0.20955633724915915,nm,0.0
54.86684226989746,63.112966482454084,7.387700198728613,3.432889220284137,-0.5612141144564398,-0.5164271185909622,-2.0202045517580807,0.09974681364999216,0.20398306435765934,-0.1419070331109158,nm,0.0
54.86864137649536,61.40312931264945,8.343973450764459,2.942107382930884,-0.7608316599327364,-0.4036520734072591,-1.3248188001095602,-0.343682418215432,0.17158258226954096,-0.06474607738409503,nm,0.0
54.87075972557068,50.95792528933294,9.683757312786275,2.2806304204145897,-0.8787362084604914,0.1439232580395489,-0.27646475878871085,-1.2279944329775672,0.050693403957380305,0.14212451573816678,nm,0.0
54.8770318031311,42.89871391887383,9.891864579781922,2.3640760813678448,-0.7098506960254638,0.2737285182392071,0.7611664343413374,-1.5850977728239135,-0.027527352207666153,0.27850455920110434,nm,0.0
54.89884090423584,22.962970106603475,9.542144772817442,3.7643894984732214,-0.36479522998488234,1.4990999789482342,2.1653013910282857,-2.01617202891373,-0.18145318987034928,0.5155880575672686,nm,0.0
54.90462327003479,11.676125386998528,9.266065406881465,4.8201971604029925,-0.22209492125463925,2.6235966420828305,2.3268957212638606,-2.212526751761673,-0.23137487483821148,0.5717268269737102,nm,0.0
54.92924475669861,-10.833687569729705,8.899234718201459,6.185393848650539,-0.4801047544474808,3.5122620855481026,0.23588260819246182,-2.1160544513515784,-0.284956655017253,0.4119302206460766,nm,0.0
54.93207502365112,-20.450571876856152,8.065809093918823,6.02639321594675,-0.6348125737134754,2.88141400474791,-1.2839196392263483,-1.8673686950409174,-0.3810809052324383,0.2336114035271366,nm,0.0
54.95645332336426,-32.175005156160765,4.173212161606123,4.375458523076265,-0.2617971424124095,0.5587706803608109,-2.9932615720704843,-0.79379877525257,-0.5315212928285792,-0.1089223640750291,nm,0.0
54.980990409851074,-30.616819708225556,0.5668378457417977,1.8823144463626105,0.7246448806988026,-0.5734709316345,-2.0628322802423287,0.5320772542794465,-0.2640805367060968,-0.28033158840627487,nm,0.0
54.982786893844604,-23.960495585154742,0.4656057968471079,0.6547814917351013,0.9216444954261318,-0.34712791605628784,-1.0420805308893013,1.3405112989107584,-0.003042919474114019,-0.257590502222493,nm,0.0
54.99038600921631,-13.647451692450296,1.168784058859526,0.11607979903421496,1.1458247723707293,-0.1417152286618287,0.7683511671325034,2.0713148035717004,0.14212580790525198,-0.1393897946283476,nm,0.0
