timestamp,roll,pitch,yaw,acc_x,acc_y,acc_z,gyro_x,gyro_y,gyro_z,markers,motor_input
42.015679121017456,28.66796570925847,-6.2191967537938275,35.55306974065538,1.8487316373318465,-2.7807420040950213,1.5620062006197657,1.6472494204726367,0.9674606386593823,0.33310649159688277,nm,0.0
42.02110719680786,35.79613100894594,-6.508719458119667,35.19989417888576,1.5688783286318535,-2.7746964637422566,0.7423617655670118,1.2007680546567439,0.7738765845758118,0.07778205794331541,nm,0.0
42.03452229499817,39.94664383738438,-5.713594518287723,34.08586872989953,1.2953219172718644,-2.2717816773484447,-0.5265342276921648,0.5994940409170896,0.6009085834373242,-0.14485763077202582,nm,0.0
42.038822174072266,41.79651012499014,-3.846668417390789,32.71734406803379,1.021308509654426,-1.8903455467406183,-0.8209467471540238,0.11201384869652364,0.51538193106186,-0.2539406657608651,nm,0.0
42.0611617565155,38.80755228534684,0.20713471290959903,29.76240375992197,0.7633307179324027,-1.0472091478762542,-0.5784132558432273,-0.616459271819222,0.049157699828159325,-0.3120292214657581,nm,0.0
42.06743335723877,34.67858400764323,1.1817843808109725,28.737354518283443,0.6269548996364229,-0.6554715909582115,-0.08660818245051045,-0.807230487148865,-0.23597518374381535,-0.2058984143052633,nm,0.0
42.090550661087036,22.437824126824296,1.369182378999042,29.046803419267516,-0.40856186375338704,0.21899734643939617,0.3399933803408678,-1.1640348237078584,-0.6677628851378694,0.13021756808792317,nm,0.0
42.09377908706665,15.483721971187812,1.417833667154734,30.033228545462297,-1.0510432559374558,0.5844820144437451,0.5134120025677339,-1.2049202674521446,-0.6825752569182126,0.2230856498214245,nm,0.0
42.11791181564331,0.9462563383322531,2.8202984547827787,31.905318674518398,-2.1254413603950693,1.5043242117812046,0.3171695061676862,-1.3635502272319164,-0.6450822370319165,0.14992441660773131,nm,0.0
42.12215232849121,-6.410057145404917,3.83399833534286,32.01403923842768,-2.1826135077018356,1.775249946426366,-0.04554438074719334,-1.3419847297421343,-0.6141716603010525,0.07781866704436564,nm,0.0
42.15100812911987,-20.135413873625012,5.69266512516209,31.541193239236847,-1.7767583019462159,2.2742651950302597,-0.7557726257680798,-1.2282063893384265,-0.5610179889400474,0.09828251066263255,nm,0.0
42.162978649139404,-30.617109347075303,7.292320999264751,32.40779123386618,-1.4618509296124085,2.2067961903855324,-1.3772932639843267,-0.8425196285226403,-0.36020525027291594,0.2698365898197382,nm,0.0
42.179489612579346,-34.01829347943697,7.842120413661659,33.498845335290255,-1.5026047553484785,1.8439544195720012,-1.7084040734995003,-0.613277737776363,-0.2808779069902742,0.30924871567423623,nm,0.0
42.181257247924805,-36.134278268278784,7.921707453758039,34.58308575729129,-1.591496677851649,1.4092827012378435,-1.830013932026232,-0.34347884880514185,-0.22737282665099393,0.2767658426384881,nm,0.0
42.18947792053223,-37.066506394920054,7.3113321840250585,35.32881541043585,-1.7455471899987811,1.1319576350406186,-1.594787906504617,-0.06833663137814382,-0.21159323825524542,0.17590497663266136,nm,0.0
42.2139675617218,-35.9295936722609,4.3219478424814985,34.753653858561286,-1.1219118513672923,0.20608598135732217,-1.3366055609029617,0.3955641172083961,-0.15402613271654345,-0.15331437762984526,nm,0.0
42.2168231010437,-33.512985472720096,2.534116666009322,33.454201074021555,-0.588493197580167,0.04673493712930737,-1.0433161146493308,0.6136815967943627,-0.03160256501491309,-0.28737105856420003,nm,0.0
42.23212552070618,-29.6630158194067,1.0485478548658098,31.820130489879723,0.2894775802609562,-0.2233621670094498,-0.7156986828340494,0.8221096276844005,0.15862249157441993,-0.35008126993643124,nm,0.0
42.23722505569458,-23.4633790472477,0.22672446425153997,30.24629309711455,0.8659324839900799,0.06310604305297737,0.23536551620103294,1.1611152870898678,0.4921378535720557,-0.3287863342055702,nm,0.0
42.26365947723389,-5.790236480234735,0.04110639800624172,28.180223178544363,2.5108430361670613,-0.6664240086520858,2.3215873973789467,1.699903230514319,0.9072957054721298,-0.06816708721998871,nm,0.0
42.268473625183105,5.371921709669978,-0.17181675011470118,28.49536343229726,2.8576679622060435,-1.33717136994558,2.957000949527512,2.001810169501044,1.0124645452874523,0.11835179923355747,nm,0.0
42.28969407081604,26.544405304113884,-2.158309751604214,31.011570251120126,1.9914906018570926,-2.9761597082996496,1.7502162613628602,1.865300499148467,0.791381290562623,0.29746422007501994,nm,0.0
42.29483985900879,34.41966370897096,-3.5088330422409246,31.66979496978468,1.111681412475412,-3.151278159953172,0.8323884208367726,1.4959520181653505,0.5873081011512119,0.19948049577620794,nm,0.0
42.31737685203552,41.664145170480296,-3.0034147221905316,31.18766349748229,0.43573250616526,-2.4479050373265974,-0.7557993102470102,0.2978591235421435,0.41684366888375485,-0.06073034822461442,nm,0.0
42.32180881500244,41.72353104714174,-0.5615244735641174,30.806283734910455,0.38561246150389344,-1.9106741362744013,-0.7054528670361133,-0.23254933709900125,0.4247181766677653,-0.0872632185198018,nm,0.0
42.34895610809326,35.41994916828533,4.180566782385891,29.378015601137154,0.8484109070077445,-0.5664968904039701,-0.4011618960665527,-0.898169227703333,-0.06157766762114747,-0.12610008450154758,nm,0.0
42.35072898864746,29.90102351825691,5.103148791192468,28.951918223509434,0.8548690671112995,-0.0131077570103175,0.1729803421145035,-1.0425790898811387,-0.3788634632567033,-0.006467993751272062,nm,0.0
42.38278603553772,15.321569980449128,4.766502979902369,31.01215442322088,-0.4223718641741849,0.7598504438951457,0.3537010430151528,-1.266068180143442,-0.8522723628777903,0.3131247373630057,nm,0.0
42.3845272064209,7.755626268347146,4.403893407263966,32.813245162842776,-1.3921435941146132,1.2841687353530875,1.0958868091174803,-1.2278322597593492,-0.8712442939641524,0.3596958756656386,nm,0.0
42.39109134674072,-0.4926225526597439,4.499683322965392,33.73919246119637,-2.2654845449882854,1.738459865521991,0.902789548276495,-1.375278094785362,-0.892789568043546,0.3127383640551188,nm,0.0
42.41220045089722,-17.14179112140997,5.447191741347392,33.945345312887284,-2.687863403591407,2.2248298704314022,-0.1790168098035321,-1.3772060265161847,-0.8270153345662757,0.09534467220250871,nm,0.0
42.418750286102295,-24.856548080972676,5.809668607345377,33.43595642657936,-2.385124895065813,2.348828364199985,-0.7844700154545658,-1.3059726451886915,-0.7994042921747385,0.03798329452400867,nm,0.0
42.44483971595764,-37.05121164255314,6.046963984850979,32.791669500903815,-1.5489500373672287,1.9133890210576863,-1.7146923939480407,-0.8769036756387547,-0.5720679664613808,0.09648701821974275,nm,0.0
42.45588278770447,-42.91189850558235,5.616665137691766,33.81716734416091,-1.2985235270174444,1.2487715825396877,-2.0835135652949295,-0.3100479781402915,-0.2914632650619251,0.17447829298438022,nm,0.0
42.4720938205719,-43.51384442019808,5.01646071820491,34.455825492844845,-1.4281222949471064,1.0201022269321962,-1.8522289628223028,-0.018887024302333494,-0.17209522506918193,0.1425350438323473,nm,0.0
42.48581266403198,-41.10132962373696,2.6756981912491344,34.701295951423056,-0.9451163594628811,0.2083103734868024,-1.3581519937660103,0.46451169323956143,-0.016275291444232707,-0.04345834832995139,nm,0.0
42.501792907714844,-37.8973689009028,1.2209221023706718,34.02912556145806,-0.5121061257974998,0.013500776007981838,-1.0234040510677869,0.7066039350334409,0.1157489649352705,-0.15355352193199492,nm,0.0
42.505157232284546,-33.127190815770106,-0.10343787727556758,32.96461923425153,0.25493697641681645,-0.23507630703669816,-0.6477075015496552,0.9556734938735257,0.29989115616919715,-0.22036172506184423,nm,0.0
42.5275616645813,-17.320549994449582,-1.162084739384262,30.85004738343713,1.4120777464920482,-0.03767462110370594,2.053315817926914,1.5359033493748644,0.8697155062864815,-0.15593282325162447,nm,0.0
42.55384922027588,16.749109092119046,-1.2115001949528734,32.582159598082434,2.694342887851589,-2.4368093251676037,2.9626213058981303,2.054706699852194,1.189803843561349,0.2956801036898594,nm,0.0
42.55996036529541,27.277092776000835,-2.1500167079606203,33.85641165231044,2.192284627027306,-2.934381797566038,1.9863598480082565,1.8763935974556087,0.9955872920227323,0.3068929495533655,nm,0.0
42.58493757247925,40.470992551236215,-3.4478293485991993,34.38524977477993,1.0865447520476086,-2.7215949797232213,-0.3077935431803811,0.8805684320164543,0.5362209663079543,0.03011464631715489,nm,0.0
42.58845901489258,43.07138919408181,-2.318998954766612,33.95308888027412,0.7789206156929706,-2.2240329298373913,-0.8083973102624469,0.31258141567403336,0.47943350311933225,-0.07145792255836997,nm,0.0
42.60858750343323,41.26241020421081,2.49267733663469,32.38636605496317,0.7422070758430527,-1.1765741640163225,-0.7538276070242961,-0.6088081475371684,0.20308493475645817,-0.19132044399146358,nm,0.0
42.625495195388794,37.62105505122342,4.403425662675785,31.341825619412024,0.8201036005149207,-0.5993218463752936,-0.4365795069268793,-0.8114102492022603,-0.061047480383772806,-0.17669112122940442,nm,0.0
42.629443645477295,32.536155352468356,5.392166914551137,30.707275259847492,0.6159217954622445,-0.10568254420891746,-0.04583262464849827,-0.9623272750863411,-0.35594986330315753,-0.051049730328129504,nm,0.0
42.65172457695007,19.092686368237093,5.285697221114807,31.561725986034727,-0.6002596356557522,0.5815927377700603,0.21833862280513444,-1.1649856711346058,-0.7770342457795547,0.2796253314522732,nm,0.0
42.65487504005432,11.994791760822968,5.19764189070194,32.726963585673126,-1.459043206519738,1.1094261804244103,0.9210914015564836,-1.1779980380067552,-0.7728026906314848,0.35495706744101946,nm,0.0
42.680652379989624,-4.2478712826591245,6.46384175901361,34.20134858321633,-2.56252855656334,1.8356911995736673,0.2942822357233408,-1.458227610732075,-0.7973690078688893,0.24912665590006491,nm,0.0
42.684247970581055,-12.410922451879248,7.363930375108755,33.963513230154255,-2.6914780322936047,2.3263640160178727,0.11209036085886634,-1.4322005132605407,-0.7664789236568329,0.1458265093281818,nm,0.0
42.70837926864624,-28.111346107161538,8.452701569208287,32.89234567854624,-2.0347890429260125,2.2463136726961714,-1.1248796634062386,-1.2827869730734498,-0.7666074255331773,0.08539406758453949,nm,0.0
42.71194911003113,-34.34500507525362,8.496220999477497,32.58868910627248,-1.7913122083473758,2.213090238259038,-1.4330974803125962,-1.0301361606459427,-0.6665409757572118,0.12432930428351063,nm,0.0
42.73772430419922,-42.46469838199156,8.000577548351615,33.06253408747111,-1.436911325895968,1.2995791626879964,-2.1553446599901926,-0.4993183670655658,-0.4168696701103804,0.17066389603660104,nm,0.0
42.74464535713196,-44.1737602784775,7.365369581176742,33.52567060351099,-1.5096154654381564,1.0203663173738442,-2.021295712240299,-0.20064618247285324,-0.29783291063698514,0.1417781196286277,nm,0.0
42.75730919837952,-44.614139065213074,6.360578368507634,33.81961980027613,-1.3769977864242873,0.6805827341603883,-1.7528761097472563,0.05168103590735076,-0.22126587223833694,0.07290929456021127,nm,0.0
42.75908827781677,-43.738877999176715,5.100127506013991,33.67983976747571,-0.9847446703839848,0.18223183397205947,-1.5617048118623227,0.29814265804314616,-0.11838583653081129,-0.04198231424740409,nm,0.0
42.78243851661682,-37.525644066554236,2.492641621423299,32.25634433978196,0.2140807985430759,-0.16340239073776933,-0.7409707028419655,0.7987342502927871,0.20219877319114318,-0.20743424795136695,nm,0.0
42.79047513008118,-31.464586816395858,1.7239054525662043,31.456497160857037,0.7121287603126302,0.07845143219656918,0.07229943949014578,1.124117842089272,0.5029225932671438,-0.20326616349126128,nm,0.0
42.81719970703125,-14.536481727010635,1.556747207192994,31.390110188173985,1.960217965799267,-0.4448328445436994,1.8480618816390288,1.5655835706319805,0.9472217248507592,0.015113191008595601,nm,0.0
42.81921887397766,-3.957728993553911,1.7717806998903678,32.52875311384646,2.213589884565884,-0.9760496116472891,2.7030258912537195,1.7861737177963812,1.1513112415624789,0.16136846266848945,nm,0.0
42.82617950439453,6.945846313452992,1.799377662482335,34.200909142270845,2.314851453170582,-1.9894642038224069,3.1325021269233795,1.8315906716331003,1.20007430512965,0.25919439605101796,nm,0.0
42.85562038421631,26.052754618620817,0.15817556442326927,36.33853439925018,1.8811055570434674,-2.55050877105583,1.438021758829689,1.55352340409235,0.856905442013106,0.08973874259726305,nm,0.0
42.85735464096069,32.30652968895104,-0.43738370960213296,35.8952818252323,1.578223177279088,-2.3245296103415836,0.5602683163000054,1.091936712997303,0.6406837885573293,-0.09586654535979977,nm,0.0
42.88493037223816,36.98658926327661,1.4784915689377078,33.151842702151846,0.8287689345868174,-1.881322530002331,-0.6815001386124679,0.07761403890697273,0.3725743522864183,-0.3391501038433948,nm,0.0
42.89565849304199,33.670826345769555,4.219558244323308,29.591377645622522,0.4259176071943474,-0.9325861690709251,-0.3949089955321328,-0.5896831273617156,-0.06597228578891878,-0.3080966990480067,nm,0.0
42.91235852241516,29.45277952893162,4.977663293775234,28.71441271515709,0.14760658927796486,-0.5245291375924906,-0.15472824393833187,-0.7998987541473386,-0.2809845292321038,-0.11837804100902484,nm,0.0
42.915836334228516,24.07955653532805,5.256518888479632,28.795642676117946,-0.263291955416909,-0.0004923955168806212,0.518960146454909,-0.9566226729405636,-0.4707459860660595,0.10235412981311087,nm,0.0
42.92122745513916,17.472439484159146,5.445474566047008,29.69827681009278,-0.7006798710505756,0.45344981646928706,0.33783634436981647,-1.1574977529189154,-0.6154277214119989,0.2950538095451102,nm,0.0
42.93472218513489,10.796220275078081,5.967239507022597,31.056157114623872,-1.2240030844155123,1.0450869396869187,0.7121062204533175,-1.1895192461166293,-0.5879946496077125,0.396719616681658,nm,0.0
42.94137477874756,3.7792574988593546,6.88826911012305,32.59960658886488,-1.818101400709252,1.689180704305558,0.7593656578080077,-1.2701974657893944,-0.5895258662440277,0.3881898974234395,nm,0.0
42.949434757232666,-3.7517989422644473,7.9666204806612395,33.304894511275116,-2.0122267486477865,1.9369549801643087,0.11773710980755826,-1.3593538665499643,-0.6401943838768304,0.3028562773402719,nm,0.0
42.97769784927368,-17.68420010556996,9.467654805442075,32.77968797467389,-2.0462976456493918,2.30426547623317,-0.60804376312004,-1.1655692205344903,-0.6388871862099397,0.1279469995605192,nm,0.0
42.98073625564575,-23.900509858929954,9.586021441488228,32.428812498159544,-1.7593218936503612,1.9980802417929724,-1.1818211769583002,-1.0340809706068406,-0.648072283360765,0.1345915325102335,nm,0.0
