timestamp,roll,pitch,yaw,acc_x,acc_y,acc_z,gyro_x,gyro_y,gyro_z,markers,motor_input
39.52088689804077,24.100745345009106,13.199364326433559,34.06010653637083,2.046377903910496,-3.0058556868028368,2.050989617827846,1.8654726145086118,1.1222804587502664,-0.29033838317573774,nm,0.0
39.5298707485199,32.95016545737735,12.459243498745286,35.39093958604756,1.3786849929003344,-3.3323724659938074,1.2475758926884457,1.512231678902205,0.8600013814758248,-0.13923255173204896,nm,0.0
39.56657314300537,42.77574373040752,15.096185833185178,39.945979919190655,0.847667829525155,-1.848195265045677,-0.6469997390920623,-0.09547990352662003,0.3961394160286363,0.25410628568383686,nm,0.0
39.5684711933136,41.497169908961475,17.078037501287756,40.96700432825074,1.0308984929110792,-0.8572201161917423,-0.8540806671067666,-0.4384853734829019,0.14091804572479255,0.262375699998439,nm,0.0
39.58270859718323,38.38153109663778,18.631233221973783,41.65483120213155,1.1924500048976021,0.00036631288350576316,-0.7679294741690919,-0.644644250939856,-0.16145101048795096,0.2802744463185796,nm,0.0
39.584556341171265,33.74695444398839,19.504004764594605,42.22382677112291,0.922791558101862,0.5952051119228037,-0.625108162011935,-0.7610206966198461,-0.46078991712447126,0.3471433353595955,nm,0.0
39.607481718063354,20.825363694697153,19.023699161210704,43.3668155782745,-0.18024352804361285,0.9684463834449866,0.023792929883925652,-0.8763375761040139,-0.9877637108635441,0.5193445246104893,nm,0.0
39.62411022186279,13.668920642846185,18.323622515588752,44.44102806766558,-0.9175086015465407,1.2420214261459175,0.8848619120864935,-0.866246043710966,-1.050034245396703,0.5618439317015523,nm,0.0
39.62585926055908,5.790406367279479,17.871114807856713,45.52085822537191,-1.8046785807793928,1.6096723146659349,1.3142376399643951,-0.9812533379126842,-1.131703414533172,0.6110238872368849,nm,0.0
39.630929708480835,-2.8213311321750636,17.764465961198123,46.56897244089609,-2.4359322404440054,1.6712237525284517,0.8349920927287645,-1.106732403767348,-1.205388671903305,0.6316781008037795,nm,0.0
39.65939712524414,-19.626369563140557,18.481730773293666,47.72671215467745,-2.8909127475235468,2.0972626913471313,-0.1355019857252559,-1.1273998676330395,-1.105990098729371,0.5433368530935829,nm,0.0
39.666048765182495,-27.44466755759873,19.076494144604254,47.692069629093645,-2.5384378289430902,1.7406574525093257,-1.0032156350311914,-1.0703584255007041,-1.0204149304432506,0.4741862581205706,nm,0.0
39.69243097305298,-38.543703714359815,19.520143906213868,46.69961458196488,-2.0612926529116393,1.3169238614260845,-1.821370064262526,-0.6031939954700015,-0.6496993000814547,0.2258752773481989,nm,0.0
39.70816111564636,-43.49257127146315,18.240005841778448,45.012336339552405,-1.4709308854324263,0.5215084944356361,-1.8919358335718242,-0.08287719645801814,-0.35124410729529437,-0.05004156039221994,nm,0.0
39.71181511878967,-43.68779633215985,17.069628154057018,43.76090717629709,-1.2705376401921482,0.4130306800395803,-1.4987822846902914,0.15091875627642864,-0.19654284446875098,-0.18078407227711255,nm,0.0
39.73285222053528,-40.28602997019797,14.915281586317924,40.894971621651706,-0.36243747591483166,-0.29090879735774516,-1.056294254127895,0.48915826172852817,0.15558925859683453,-0.40136667393359704,nm,0.0
39.734947681427,-36.31037009062133,14.265988192712257,39.22428857664399,0.1756391140389462,-0.4290909498054028,-0.8014252437374627,0.6880982960778381,0.39021248248901835,-0.4744052626107785,nm,0.0
39.758867502212524,-22.61450234592906,14.245283394792583,36.51139879005856,1.0205463824871506,-0.057084204747590545,0.7781531717358734,1.182726244290951,0.9143051989498255,-0.5478527490621485,nm,0.0
39.76686215400696,-13.185390256202332,14.520966722821164,35.94844327987387,1.8086665865155822,-0.4082479885046601,1.6499826401026092,1.4586034376948127,1.1151340901452056,-0.5178822236079439,nm,0.0
39.78865885734558,9.829172783352725,14.817384312016555,37.04604148534159,2.670270656484582,-1.7717054720234544,2.9996943158487728,1.8243354749391245,1.3480676465349555,-0.3715777689845082,nm,0.0
39.79646635055542,20.792964381406208,14.506068511046275,38.20686014724227,2.376253273992022,-2.5781341758450234,2.036914986411238,1.732425392602167,1.2392925547683178,-0.27780324801687684,nm,0.0
39.82329201698303,36.677805291087004,13.623312802911794,39.971005493015745,1.6194587286752167,-2.7216778257297793,0.4049827535116559,1.0198706079388908,0.7566591257284301,-0.15433449066017962,nm,0.0
39.825453996658325,40.2428147949236,14.042115856445818,40.58471836913021,1.1543147341360325,-2.3195004309791063,-0.6694972430602169,0.4815229726652417,0.5108885266420892,-0.06046016382062234,nm,0.0
39.829296588897705,41.55161309120395,15.007875919869063,41.021379636625774,1.0838958562572778,-1.858371098002455,-0.7346092428777472,0.07223802123269893,0.3110600700956493,0.008865874339205913,nm,0.0
39.876328468322754,33.70416900937101,17.15174913997091,41.44988776117293,0.6447331694620898,-0.02630664289367235,-0.32643158130126093,-0.6330263740076351,-0.47585805924761354,0.2674158746413645,nm,0.0
39.8790819644928,28.343864883835895,17.084746346934555,42.34329435231124,0.2272464152231674,0.420495534650808,0.15809784849571976,-0.743386058386596,-0.701062517468116,0.38366315662551215,nm,0.0
39.88098478317261,21.80011640998942,16.81686093804071,43.31830920706205,-0.337170794849177,0.6956413400600276,0.06496299819410487,-0.8704610089616766,-0.8977222555333694,0.48623650585869804,nm,0.0
39.895312547683716,15.019720059558418,16.647772655873084,44.400724957674946,-0.8823566522246342,1.0594896002142686,0.6490776075688434,-0.9008251839739141,-0.9318939033083038,0.521306608072823,nm,0.0
39.90076017379761,7.646768650737671,16.698354474344917,45.363530835171765,-1.565941046060898,1.626042773826314,1.1848583547728153,-0.9950265044813488,-0.997737434518131,0.536381801463712,nm,0.0
39.92302227020264,-8.965415416635944,17.23064271092234,46.39561488162626,-2.4054703109173072,2.1410702050091097,0.48986374376501624,-1.1315902164646716,-1.1143733522412664,0.5146888989658137,nm,0.0
39.927284717559814,-17.11369303643876,17.549511025627616,46.22992980174477,-2.5838397025708306,2.36797415753254,-0.0028996436656509098,-1.1100428723846063,-1.083676819479831,0.4915362513412591,nm,0.0
39.95169925689697,-31.44481412204325,18.097574684461417,45.89028087593156,-2.235846122545986,1.760923619729356,-1.1996576559658718,-0.8852715109352913,-0.8637440129255088,0.4157364346400936,nm,0.0
39.975096225738525,-39.92691758297383,18.174644205893976,45.365347963466846,-1.941330938347033,0.9075499855625384,-1.8468137149988144,-0.45095670460465587,-0.48641297300037883,0.2012656422335909,nm,0.0
39.976810693740845,-41.97060676019986,17.889336956600832,44.71220567304161,-1.7267986618769673,0.5407021681203239,-1.7455842069575331,-0.22120721510989913,-0.31768672379908836,0.05623537565136407,nm,0.0
39.98496747016907,-42.61636232450109,17.354711758924818,43.754253348839114,-1.4832360997599985,0.38850982532922673,-1.4646957421427753,7.449290858577192e-05,-0.16540658333515382,-0.09563288637300363,nm,0.0
40.02267241477966,-37.29713814134078,15.425021419312877,39.06812701657817,0.10528464897834519,-0.2779296128219345,-0.9341625276731378,0.5432851877275015,0.2828851388230353,-0.47441678618799255,nm,0.0
40.02472686767578,-32.31633442585518,15.050100823811759,37.283680719334406,0.5403148777304756,-0.22426203766442795,-0.5671487989814545,0.8177231641946177,0.5287419263996369,-0.563149135357791,nm,0.0
40.0354950428009,-25.45793082031628,14.905553035987703,35.97378273325953,0.9008462332710153,0.13905511327356146,0.4671639913657601,1.0951691996886477,0.762633548165329,-0.6185208917869303,nm,0.0
40.0436635017395,-16.96986539234137,14.828602207923781,34.745335644039365,1.7045223299325625,-0.3226090170588429,1.2598988047588382,1.363643083141713,0.9286124830798903,-0.6282656317641678,nm,0.0
40.06872224807739,5.343638136680488,14.174106353684444,33.86425313404932,2.5802309184715453,-1.2482659220750203,2.8836246127242933,1.9142245276058731,1.1731009140960085,-0.5728404706074064,nm,0.0
40.07048559188843,16.174138651643926,13.733423436044502,34.045411142594226,2.425092638603536,-2.469034133158108,2.2350267935400008,1.806948393742686,1.0939279011150524,-0.44845818213181593,nm,0.0
40.07755374908447,25.908087571354855,13.116130950126417,34.63344513373653,1.8399006323272877,-2.924265593171182,1.5944861320542028,1.643690066231634,0.9639168564653069,-0.34596691310058647,nm,0.0
40.10447359085083,37.40163465606424,12.568817209223637,35.73152069639869,0.9050115290186511,-2.6356205808399173,-0.40943753590370524,0.6749477557951551,0.48078530339626274,-0.0773064089320873,nm,0.0
40.10616588592529,39.31800529979071,13.351767419607988,36.57017112139683,0.7731896907958994,-2.1567082235751145,-0.6459676763809172,0.21653024312900407,0.3454813395767092,0.06935006272573939,nm,0.0
40.13064098358154,36.49499274442463,15.518106751807077,38.00001423609739,0.9136723113628817,-0.7147599195672487,-0.5783881597539339,-0.4979400559286732,-0.13330043308663636,0.23590089727474994,nm,0.0
40.13477063179016,32.46989245687411,16.249798171994414,38.47206341274234,0.8493797767979826,-0.014122646167706716,-0.2642651764609813,-0.6919945627890997,-0.36749925498513986,0.3030742310443973,nm,0.0
40.16435790061951,20.1043296774825,16.62237179993877,39.24911146453589,-0.044191402103896146,0.8462101044323381,0.1113876381791154,-1.0167138167938803,-0.8400705745855471,0.45535272492643725,nm,0.0
40.166452407836914,12.706788224403986,16.383410348576934,39.96340610761552,-0.5470158019961449,1.1456836665143608,0.5482063475992205,-1.0507870966118478,-0.9498343800745478,0.4866636362761015,nm,0.0
40.18971252441406,-3.928094947119746,16.08212057851391,41.184352659717085,-1.9270781686206817,2.076670298934318,0.9092299791592516,-1.2561045062685765,-1.1298473336788843,0.5706852572267138,nm,0.0
40.191843032836914,-12.767226166913124,16.11879102691914,42.19232083562984,-2.3539033527036177,2.274195912642842,0.4712694522171925,-1.256642343772504,-1.136194816004587,0.5812170871807538,nm,0.0
40.21561288833618,-29.394055422992068,16.763139667348515,43.53559743216889,-2.5917652989455444,2.0357367438711784,-0.9726711261042393,-1.1798341295229446,-1.0211798238141463,0.5214722774750039,nm,0.0
40.220294713974,-36.338948999137855,17.1017040751024,43.64535261992124,-2.3622787871725297,1.6018135191648255,-1.4509815341993,-0.9960099543498393,-0.8718159568438135,0.4221817527992412,nm,0.0
40.24451184272766,-45.326036211402744,16.936181738549593,42.70114326047283,-1.9265584554886621,0.8188272289757633,-2.079625865376291,-0.46819626269250403,-0.5249154671271853,0.10308793086839044,nm,0.0
40.24962401390076,-47.53415138435645,16.23948138295661,41.67242296740982,-1.6358884664420417,0.5586437904011705,-1.9901243239940956,-0.20674272484168257,-0.3905509900774398,-0.05673043300886866,nm,0.0
40.279120683670044,-45.998522486517295,13.180697580502182,37.06816820296083,-0.2928800813888158,-0.018100122877956173,-1.2805708088824108,0.4025246273799498,0.05500991450283812,-0.40051714385100057,nm,0.0
40.30329656600952,-37.98101876603784,11.899746780508746,34.26811158577977,0.6692287511745147,-0.3702063283594676,-0.7824369878971379,0.867067730451328,0.4678172885897528,-0.46694462529330877,nm,0.0
40.30686283111572,-30.93011488197775,11.651130395120157,32.98624280152525,0.8507031719012267,0.0028666820422028655,0.2654319142701156,1.1931449813346342,0.7151880582852237,-0.49254830073949163,nm,0.0
40.33378005027771,-10.515820944436264,11.207738821729235,31.681210943084622,1.950975494633754,-0.5005627902245441,2.770517791049713,1.9508574076402208,1.134310217757589,-0.4831542904275728,nm,0.0
40.33598327636719,1.9676157274899047,11.023664298732877,31.69272431592435,2.3989351029293022,-1.414420565599012,3.6676426642986875,2.120819855865873,1.2455687084044835,-0.42809338400675323,nm,0.0
40.34453630447388,14.05653017383412,10.994980092960468,32.12490314463359,2.3051076826358217,-2.6141130288569916,2.892985290536644,2.033415624221404,1.2406783257106087,-0.3260362679877368,nm,0.0
40.36822032928467,33.300066647604254,10.829728923940085,33.99037505008987,1.6008052259689378,-3.1706519651188754,1.2446100357028531,1.3677270815173772,0.887216666329124,-0.1413399338508071,nm,0.0
40.37234830856323,38.37605372627684,11.381875367956727,34.986157876127315,1.1338644904345936,-2.7365913277792457,-0.32744235106176933,0.7669784150001342,0.6540279114716587,-0.00875307548281438,nm,0.0
40.39602303504944,41.36175385168005,14.036427225228627,37.130988604727634,1.0270007335721447,-1.5692009900578818,-0.7543730231309012,-0.12112550657163113,0.26573063455994755,0.17349680921974095,nm,0.0
40.40075993537903,39.523300948799246,15.31527241363505,37.80768416236585,1.1026029587384985,-0.8876645638959871,-0.7585528629506016,-0.4317098888109301,-0.015205456466669893,0.21607189397702053,nm,0.0
40.42830038070679,31.407396940291772,16.74514456795736,38.68515157853897,0.621398961208136,0.2493101675286501,-0.12512912243990568,-0.7703761152243024,-0.49269813423682135,0.33636182779994184,nm,0.0
40.43274688720703,25.317711227127567,16.841924735353444,38.993762192912186,0.14660486539737502,0.590185869761992,0.21480782002177548,-0.9129701708895206,-0.7206041216207791,0.4029165223131307,nm,0.0
40.4548442363739,11.310070320589329,16.6727873386507,40.89432872161379,-1.0047836407318602,1.3032260034928467,1.0049331439408182,-1.0126318803339371,-0.9027108536753093,0.47083799283751215,nm,0.0
40.45792555809021,3.3501777983059795,16.73598198620059,41.59701652415183,-1.6435510021889899,1.730798518798844,0.9909585208020968,-1.141599708784324,-1.0054076338395557,0.516742355818574,nm,0.0
40.484188079833984,-13.025650237807472,17.298182547862197,42.92755811534,-2.357756205453112,2.2905897554901857,0.24648336587918698,-1.1625584242238916,-0.9913761545587171,0.548934236152216,nm,0.0
40.48598861694336,-20.878015169819207,17.8172135737629,43.37456958802763,-2.4462972630588413,2.3007508257455482,-0.41633806454597905,-1.1510587879374454,-0.9541280365885597,0.5568820000510818,nm,0.0
