timestamp,roll,pitch,yaw,acc_x,acc_y,acc_z,gyro_x,gyro_y,gyro_z,markers,motor_input
58.00304293632507,48.34247892489183,5.5624894268828475,0.29561301737156975,-0.4445917825050245,-0.7313459429047335,-1.8758448114676793,-0.11974765617490336,0.5193033770602598,-0.10932147132112076,nm,0.0
58.013264417648315,44.997187377390645,7.231929250086639,-0.4006586479787196,-0.28873926963126956,-0.47344447449066734,-1.5069003314278502,-0.6595260607132912,0.330291654877086,-0.07718835067781256,nm,0.0
58.03733777999878,31.05353072240858,6.4393945475046515,-0.8362913373722906,-0.04184040790721544,0.09304844470958276,0.7405590296722122,-1.6172446971075467,-0.17791882908736578,0.21098632490103392,nm,0.0
58.044034481048584,20.568828982371954,4.940748424905341,0.01409289355518625,-0.3688246174092226,0.9212534295602842,1.498541198109246,-2.0847056015855525,-0.29310503049682934,0.3686812970638203,nm,0.0
58.065824031829834,-3.507442305988531,2.13011094480148,1.8813479623393492,-1.337317176344515,3.6408156326986894,2.6331195666889404,-2.466828483637859,-0.3317155581405254,0.26415771569616603,nm,0.0
58.069897174835205,-16.501177719567703,0.9330246873715194,1.7599799208494717,-1.6369820896854534,4.082859630553043,0.7074549812184517,-2.584363030152659,-0.33326775688369303,0.04361702070648865,nm,0.0
58.08870220184326,-38.041237607958585,-3.092790114237475,0.08103151725180703,-0.9049512044895941,2.263992948409556,-2.301205243312712,-1.9324557615070042,-0.4916114406130359,-0.24300157340228348,nm,0.0
58.10367393493652,-45.0913098845062,-5.3363360098008625,-0.7462414409326006,0.005258591607887262,0.1918088817844539,-3.1233128310705496,-1.4037549887671166,-0.45216397958578974,-0.2640704850928246,nm,0.0
58.119181394577026,-48.23368043806797,-7.376051926331417,-1.9046607654848864,1.4586668129443412,-1.1642193391871125,-2.670124737935413,0.042469118805202107,-0.11569153071172487,-0.08569165596050822,nm,0.0
58.12993574142456,-44.66874753606872,-6.859805054245653,-2.1428334371164137,1.8022757442598503,-1.030724386201572,-1.7788512288654295,0.717923728744467,0.06641773184940643,0.04603314825469545,nm,0.0
58.13618278503418,-37.128539247345195,-5.630714418175105,-1.8832926682196443,1.8953569841649625,-0.2976431899937341,-0.6074516777552907,1.5153073722388253,0.18057721794010986,0.21971367231787448,nm,0.0
58.16137433052063,-12.251360261484615,-3.4698975146586775,0.5773381258115067,1.2700660114668905,0.5485117032174321,3.837637981829109,2.7073368826137436,0.14664932667898595,0.4790582485767401,nm,0.0
58.16505527496338,1.833791785013634,-3.229983568583379,2.0919597751461603,0.7154631237903544,-1.2117524748844395,4.432006480131328,2.8220361859833187,0.10248510381181992,0.4616138774768296,nm,0.0
58.19081687927246,28.061866735155682,-3.392341077719283,3.3247409793885687,-0.2741827636207119,-2.885415165015068,1.5006116354397208,2.472281304304207,0.11949514649317251,0.17438407055742483,nm,0.0
58.1952064037323,38.319689599462734,-2.8917954719588352,2.7507327073071357,-0.2816722997317118,-2.6521425750925043,0.16819574374412227,2.050966851271726,0.20311109876828834,-0.012649145240004676,nm,0.0
58.212929487228394,49.51003720916877,0.7803197533247682,1.313696802478359,-0.03616893692045085,-1.535157857924185,-1.7958275829057355,0.7712191993645523,0.45596962448555145,-0.1372182743625628,nm,0.0
58.22273826599121,50.732163802868634,2.871368207543669,0.7527970295949427,0.06362849346105887,-1.0704150579601273,-2.0285782736032805,0.2438533088033332,0.41984286921890374,-0.13246086791635278,nm,0.0
58.24614071846008,46.39888383751835,4.923721630877281,0.019494039747897967,-0.007860337092145389,-0.43242235364308074,-1.0987699625595448,-0.6486390282277349,0.12173369381895262,-0.006589301635056625,nm,0.0
58.25057578086853,41.246370373930155,4.971377783636196,0.15680939532439125,-0.37789031125833944,-0.032628297054101876,-0.3645353162954693,-1.021469839962759,0.002765206586440745,0.10459619238562387,nm,0.0
58.274970054626465,25.760579153939677,4.544995351729396,0.9478623965588984,-1.0405709856296521,0.9960441575296293,0.66469568351283,-1.6932562309554229,-0.0656984580431825,0.21422368708071857,nm,0.0
58.278926372528076,16.573299095581543,4.552628397526139,1.3381798003846497,-1.119398331931387,1.725223729860104,1.8483383217729688,-1.8265984750541375,-0.04432877864850876,0.21527300820659204,nm,0.0
58.30371141433716,-4.8320152634762605,4.079340112720999,1.7153909095001747,-0.7875832612535929,3.1394040159683336,0.8794772302659389,-2.1858965060623055,-0.15680738795214735,0.19285153250522474,nm,0.0
58.30763816833496,-15.15072883630644,3.3859476406128306,2.0229183584868418,-0.47896568133342465,3.412816047134203,0.0266589943224926,-2.048566087154618,-0.21765088662816945,0.19359918111819288,nm,0.0
58.327125787734985,-32.02052455008399,1.2399828752291073,2.844329150112507,-0.021550056124541198,1.5813653594517059,-2.473394915892389,-1.4797713910911088,-0.329581461054713,0.13400472751357317,nm,0.0
58.338160037994385,-36.57836786764966,-0.37825953719067235,3.1018844973659334,0.1890285682841464,0.7710670640643629,-2.86845175045327,-0.8865992797312716,-0.3824659734317967,0.06114914948633202,nm,0.0
58.357473611831665,-36.419760878134376,-4.100837738969997,2.1809262331701977,0.740527311527409,-0.5101938445744353,-2.2749195417338535,0.381840643327054,-0.36289125449318255,-0.12706594065479795,nm,0.0
58.365763902664185,-30.59291850679911,-5.433932014223191,0.9221736755362737,0.8106441276023907,-0.026071649274611006,-0.9466464425470134,1.1769841993085057,-0.24731892222652835,-0.15274069381575714,nm,0.0
58.392165660858154,-8.902885441364749,-5.112688217863609,-1.6863515444125505,0.9630739811126332,-0.025372917218319708,3.1954559447118935,2.47758425466001,0.0874407431815791,0.007662924994400511,nm,0.0
58.3939163684845,4.6664262556049465,-3.8005052272613162,-1.9690486121293862,0.9645383100920685,-1.5218316749801615,3.973780282199313,2.7233592205383306,0.16383651122855977,0.14936425299101283,nm,0.0
58.402764320373535,18.287120782310957,-2.742570749168696,-1.3904091558554073,0.8324313740137533,-3.002310194373192,3.339881712432734,2.7356663790276943,0.12156550473680958,0.26299618578767475,nm,0.0
58.413660764694214,31.069305938288174,-2.4177125952276195,-0.4775032854108488,0.6512815857105732,-3.515642549708608,2.0094007867084884,2.5654738843825906,0.015922779788085328,0.2874233936527671,nm,0.0
58.436156034469604,49.33932433583213,-2.651484275970548,0.21247774250688647,0.0865858729805375,-2.0271331702602113,-0.9194423504068056,1.5365299586126928,-0.011804346946652814,0.06897374239344978,nm,0.0
58.442798137664795,53.66319983322526,-2.106035244598955,-0.3142599811852971,-0.12895386559184238,-1.4028866634412434,-1.5803020554934972,0.8729720825504443,0.1056823112189872,-0.0813386808116352,nm,0.0
58.460139989852905,53.78052109175947,1.3442562892774061,-2.001955702661287,-0.6487269328706597,-0.5029520140206973,-1.5760826406281496,-0.22194414936253065,0.41212597752126895,-0.1897562754670769,nm,0.0
58.490723609924316,44.311057358753764,4.708660398174774,-4.062145824167344,-0.8859261015521332,-0.059865522686820084,-0.5280561843920855,-1.1461782180621203,0.3337764741381698,-0.13181745901210604,nm,0.0
58.49288606643677,36.43433095679542,5.037166709001751,-4.4651662226699065,-0.794196292743265,0.15555418138627594,0.517377736811364,-1.5563374176132803,0.17570506550765405,0.042004252494239086,nm,0.0
58.50346779823303,26.69402379855856,4.567799277913009,-3.7442918553317606,-0.7030803534659911,0.7308279564146454,0.8621579744671,-1.939226679747557,0.03732240490854914,0.2971499334224582,nm,0.0
58.50757622718811,16.239744005393636,3.7918094646531255,-1.8005634958719803,-0.509642232986209,1.636195788797778,2.0056877746760207,-2.0865001358754793,-0.0634648774019515,0.532250095190537,nm,0.0
58.53743600845337,-7.267951201837158,3.4876897585719315,2.6457235961315186,-0.4971904134751168,3.8662216207847355,1.1590893837743852,-2.4101280237762195,-0.04755137860792887,0.6033559014849714,nm,0.0
58.54314303398132,-18.706618724035916,3.6930431372032255,3.566230585813789,-0.6842646690290626,4.1080281994501355,-0.09115105871613122,-2.277077114401277,-0.08961557302042739,0.3777002958441048,nm,0.0
58.54947328567505,-29.091790192179815,2.9906687667491196,3.3658178171559383,-0.8239627956397894,3.3968780006561543,-1.6934267274341974,-2.055480451374572,-0.2780456103733727,0.07485445946500793,nm,0.0
58.55722403526306,-37.65131563691577,0.7060771865733204,2.1556531585639225,-0.6183106924654413,1.641768728352182,-2.980226179428318,-1.681313480448403,-0.5503636383689031,-0.1837403562456595,nm,0.0
58.579302072525024,-44.56250167862826,-6.7150495252785465,-1.1011494165805595,0.417794342180663,-0.20344466454267118,-2.8179023232388576,-0.3299753557084355,-0.775441727185973,-0.3643974446590049,nm,0.0
58.59635090827942,-37.141622398102015,-10.081706047972128,-5.194215931878946,1.0301473135253736,-0.7189388511859696,-1.0702274149672353,1.1062186015129973,-0.22987631140209008,-0.22301074778685395,nm,0.0
58.612431049346924,-27.862834066882392,-8.967519630793134,-6.629504210061121,1.1549657864394731,-0.15433852179532215,0.5519563702128573,1.8512290875187531,0.019598291928484196,0.022675507006143836,nm,0.0
58.61413025856018,-15.562772249538323,-7.065286330031107,-6.765282890130073,1.3084865205542673,0.34107882471797896,3.2401976255199716,2.472699534957206,0.0793209299701788,0.31555236329945674,nm,0.0
58.62177515029907,-2.0736203087293053,-5.323648423537098,-5.669728958641463,1.6025571470032849,-1.168419553317744,4.634074080730097,2.714026761862278,0.04202290371499867,0.5059251468267768,nm,0.0
58.66983342170715,25.571694324459926,-4.0333239895315245,-1.9453488092839903,1.1149736255393807,-3.088545309986689,2.2460249097375398,2.74405698557296,-0.12958716404031376,0.5582521870549426,nm,0.0
58.671591997146606,37.145808626791585,-4.768011071947632,-0.8015795368733575,0.5469844596443276,-2.9370983869296605,1.0970215208471952,2.3149003763987137,-0.20807223508943742,0.3958921440489934,nm,0.0
58.67348599433899,45.173746262129875,-5.081815770177813,-0.5223224294729816,-0.2665840711886985,-2.4786768639948176,-0.6117983126954979,1.6091000762689687,-0.08573199043073576,0.1829485649643952,nm,0.0
58.67514085769653,50.57436498090553,-4.348560158633695,-1.0651105117472506,-0.7484101980276567,-1.6081829185956942,-1.6799872303263015,1.0878937400532653,0.12829802475258487,-0.031089051482620554,nm,0.0
58.68071532249451,53.47341849444734,-2.4713363040931178,-2.139470621628048,-0.8954899989925875,-1.2698580994709876,-1.4530347304126572,0.597587147381353,0.35645273935443045,-0.19235720142239143,nm,0.0
58.7036771774292,50.47195531262567,3.222001178241901,-3.57513542777902,-0.8211960513122315,-0.4395162635286643,-1.7188356688783062,-0.4788503814634857,0.59777016054374,-0.09909063746731996,nm,0.0
58.70965027809143,46.030139636806126,4.865054456193607,-3.966961852247141,-0.6162916779579295,-0.24223913017212526,-0.7763617342104785,-0.8575868538573294,0.381791627706125,-0.027973633611165585,nm,0.0
58.732134103775024,30.182865166479626,4.193936039843849,-2.5903368325410683,-0.051847649371314246,0.5850050307934996,0.5053470799959756,-1.7765096180373958,-0.05644347865165394,0.388688813806412,nm,0.0
58.73730397224426,20.342479224386686,3.175444471978431,-0.41552524578936945,-0.37611349930369725,1.4855331378274264,1.4572078436139078,-1.9643954821208973,-0.1607225884201585,0.5519995952309382,nm,0.0
58.765241861343384,-2.9495827035530198,1.5835546899088546,2.8822292429273637,-1.0902365115846755,3.7791376409828716,1.6458460998939382,-2.442524191619005,-0.22420612894550418,0.311586574254265,nm,0.0
58.767500162124634,-14.910887021034663,1.092609353368265,2.632426759722272,-1.4584023095018197,4.105485262864941,0.3047163537297056,-2.379108753942415,-0.22492992295225114,0.004005372192432569,nm,0.0
58.78849530220032,-35.06110317494415,-3.121544872808459,-0.4541371097080775,-0.716964754653546,1.9953633182897874,-2.49381895426984,-1.8320961319206175,-0.561936095653152,-0.39872028863305103,nm,0.0
58.792821645736694,-40.9494215126387,-5.907730893936016,-2.1545768383305073,0.03734297982147038,0.5988092854914803,-2.840562583920508,-1.1814296130076858,-0.5426441443615673,-0.4286257130179358,nm,0.0
58.81692290306091,-42.60984917921241,-8.606208896950955,-4.751467828037777,1.1271414375154343,-0.7184761647727191,-2.1005701328210797,0.13508365960657226,-0.1676083928231704,-0.1950499064893541,nm,0.0
58.821324586868286,-38.177739514217926,-7.987262953967721,-5.330768339122653,1.355387002668388,-0.6258145948167819,-1.3147336054347651,0.8914377338252161,0.0336262905224118,0.016185974309977834,nm,0.0
58.83053994178772,-30.096211576842485,-6.575132938296494,-5.220963877162923,1.3428842345566063,-0.011917112551616107,-0.1438463935511453,1.6304448071326918,0.1205598937412096,0.22924513752672002,nm,0.0
58.841893911361694,-19.060139271912472,-5.408461647570192,-4.389347017209318,1.2380830175234216,0.5346617801890571,1.8403356711702943,2.2162046277637777,0.035062262477391345,0.39635788526925075,nm,0.0
58.86492919921875,6.151751066922349,-5.068560009559161,-2.681044847746811,0.7590903799654345,-1.7955207230418064,3.876310575716197,2.5382125510478173,-0.1507930751432553,0.35039356848960496,nm,0.0
58.868674755096436,18.17558689452373,-5.193119160789187,-2.689065044883538,0.4122585916042894,-2.6056540682437985,2.472662345729285,2.4019312653951044,-0.1467387218057951,0.2061074177422876,nm,0.0
58.89334201812744,36.24227260607789,-4.792929289341055,-4.851538712092449,0.0516644249818892,-2.29005847555933,-0.22988335421135214,1.5566242378257704,-0.041047084151557084,-0.15151869576976165,nm,0.0
58.903199911117554,40.69092233883886,-3.8981510945356193,-6.4674363968210455,-0.09253898216704062,-1.8516318235715061,-1.2435643327916706,0.9090803592859995,0.08438910573331104,-0.2666028711702559,nm,0.0
58.92182922363281,41.039494628215756,-1.8802859394382136,-9.66549560749355,-0.5851979426553227,-1.0938419114766642,-1.3141780989602139,-0.18551572281894482,0.20852492459341357,-0.3347211231400458,nm,0.0
58.92571687698364,37.44530703721701,-1.311971546147567,-11.005005820496322,-0.7970349024669705,-0.7238573491170279,-0.739460795559153,-0.6809739972042911,0.23367295796712542,-0.2989103284209383,nm,0.0
58.9547905921936,23.963694305887987,-1.0205318958661311,-12.341261543892147,-1.22909367374633,0.5269367784843461,0.8162810533515337,-1.5043776842918894,0.3163217053649078,-0.1258394643295068,nm,0.0
58.9566695690155,14.562001772184143,-1.1421150300802418,-12.38392907568018,-1.2147142929514236,1.214525443081879,0.8461228381173682,-1.8385293973284689,0.36815509611562736,-0.051623648921346244,nm,0.0
58.979142904281616,-5.308856800052808,-0.9583943666172381,-11.403317834277056,-0.7102944133216114,3.107101833089334,1.2831794352123944,-1.9683250296834753,0.4340650760930987,0.08080924628885697,nm,0.0
58.99768400192261,-24.660635058367436,-0.6324826395974023,-10.04439240189247,0.03374707543337352,2.5953059471566395,-1.1806888586939575,-1.7659669940489477,0.335099697204736,0.11580734063228887,nm,0.0
