timestamp,roll,pitch,yaw,acc_x,acc_y,acc_z,gyro_x,gyro_y,gyro_z,markers,motor_input
3.5070102214813232,-60.60781142511387,-27.433325321961362,132.27023051122194,-0.32894094288081993,-0.17299622781870327,-1.0340953798166623,0.9720935583680679,-0.17511696945786467,-0.6957590103284342,nm,0.0
3.5146923065185547,-65.03556627162807,-29.602004203927805,130.69854075147646,-0.6882153092592572,0.7659655302623483,-0.602239606944259,0.8475102556688557,-0.2863248447713814,-0.7794029448312882,nm,0.0
3.534054756164551,-73.6236516508459,-31.094896218055904,129.1812215581342,-2.0490569374690506,1.633330687663823,-0.44047458283187896,0.5489721341093725,-0.5523508776592312,-0.6062273734105685,nm,0.0
3.5492172241210938,-78.33572504940459,-30.8452770590398,129.11149485456534,-1.7265608101924321,2.2311444970384584,-0.6474328799213881,0.47863359968032526,-0.6521631743342983,-0.5502100269202934,nm,0.0
3.557473659515381,-82.25740542272541,-30.63440101010078,129.09443869042198,-1.3319718349160732,2.2355336923900633,-0.8489282552252092,0.397329720496477,-0.545460468466596,-0.3918975919673277,nm,0.0
3.576401948928833,-87.11444535217521,-30.81031438897283,130.4476122540997,-1.2980190460430454,1.45482060247454,-1.2964802084972247,0.2621645311573344,-0.26998995767052053,-0.052826860506743956,nm,0.0
3.5820865631103516,-89.04362675396104,-30.630934254057873,131.26624782332686,-0.6422815263413276,1.3964313993638957,-1.0391136023567353,0.19356046163447907,-0.2706937733193911,-0.019977739023330443,nm,0.0
3.58825421333313,-89.50323221300991,-29.778658497042777,131.87466116412315,-0.6936410067497996,1.0367171928708794,-1.110628645645081,-0.07163320602079781,-0.168690753462448,0.08900602471257119,nm,0.0
3.602867603302002,-89.08757644197343,-28.061584199983475,132.09719172247384,-0.702733940623438,0.8096142275476467,-1.1258464660061855,-0.30113910496040797,-0.17167049440184246,0.08115859089294863,nm,0.0
3.608466386795044,-88.12473406870136,-25.456574432723663,131.9860477737274,-0.24047909799436404,0.8211187530175743,-0.8785404169247176,-0.4996979436346486,-0.2169729215370719,0.05443233502578809,nm,0.0
3.6171212196350098,-86.10726553802768,-22.117449946288712,131.95442378442488,-0.304680974710287,0.6053885668873655,-0.9558713349829147,-0.7415404366286636,-0.16753780498705168,0.13312303071463702,nm,0.0
3.639902353286743,-80.50224683859899,-14.820823818620758,132.42045711403264,0.15474747094839686,0.23260510578249943,-0.7642596520473078,-0.9291018692241476,-0.04411242004488579,0.24096356177865308,nm,0.0
3.6484909057617188,-76.29232992873462,-11.597052646142295,133.16972976865628,-0.1139724172675843,-0.6239295036554682,-0.8158140880520155,-1.029154366544957,0.17293025331501236,0.35371381078645314,nm,0.0
3.6689035892486572,-67.0022269555588,-7.20010905173719,135.55234298863493,0.8605336992691832,-1.8006495560167943,0.2513286760939686,-0.94396935411148,0.43883175934926844,0.42896306823010255,nm,0.0
3.6909375190734863,-54.96871276382363,-5.7474635393014415,137.13561596835743,1.5598652020788373,-3.204091368513138,1.4125692229407325,-0.9151395450044162,0.7914968269536566,0.35484445076142956,nm,0.0
3.6943984031677246,-48.84553009756254,-6.0826654732359975,136.7131841428478,1.879516179333598,-2.908528260285369,1.8154096569831761,-0.837099088606273,0.8996502016117135,0.1814317395583679,nm,0.0
3.7172765731811523,-37.51058305474974,-8.238776266602914,133.3722008691678,1.2986575014721737,-1.3671460933369095,1.9783224314655188,-0.5203227184245571,0.9379129138589332,-0.20150421583952002,nm,0.0
3.726304531097412,-33.4360912473708,-9.97473949536393,131.3160382282528,0.8618874142719026,-0.007009940513575772,1.753939442646358,-0.2812380699588877,0.8427629681908722,-0.27902715126745176,nm,0.0
3.731137275695801,-30.58331326291922,-11.977719469939167,129.4803445698714,0.4665970253945086,0.7818936242909252,1.5428374851263364,-0.05299464853707723,0.700161464935406,-0.25570274236010127,nm,0.0
3.7580347061157227,-29.4035999108316,-17.69771647649333,128.3765209881271,0.17608416855428816,1.2570739521244705,1.131798228394386,0.5101307884239566,0.39285747098991003,-0.012984247369617254,nm,0.0
3.7671959400177,-30.769403332015443,-21.105921980669724,129.02046709623895,0.08857477506364464,0.5617075518502337,0.9470890071253626,0.6994603806381416,0.23804523949701475,0.04204053845718234,nm,0.0
3.782723903656006,-36.72698671986017,-27.88585378843112,130.4550570741632,0.20550507248548644,-0.43749524994858024,-0.2562193725566769,0.9037886858311797,-0.01691694101885842,-0.17523064340638564,nm,0.0
3.7894222736358643,-40.433718365571664,-30.993454823807465,130.57555510119147,0.05575582187536967,-0.45952530878797143,-0.7657331442202908,0.8991290764854153,-0.07461269279046634,-0.3734638119023439,nm,0.0
3.8184878826141357,-48.35682711043564,-36.08477747246997,129.13251907762333,-0.5970018738787916,0.24624706825126147,-0.8715055443826667,0.7913729407121545,-0.20541287713200476,-0.6991989816305938,nm,0.0
3.8203794956207275,-52.69386286862657,-37.7295441896327,128.07618707635802,-0.7921135411921633,0.9693670950997134,-0.6340375944832284,0.6986750792737411,-0.3271400793375964,-0.7819256284394532,nm,0.0
3.8430981636047363,-61.42812281305957,-38.57705125376937,126.68776523502557,-1.847988395872981,1.5951773306320334,-0.23783769632109295,0.4402108397913762,-0.5536726945229115,-0.725910045752986,nm,0.0
3.8523061275482178,-66.07261136197963,-37.96696062143051,126.40982183668253,-1.8191579398870656,2.128014525588806,-0.36799261132646277,0.3454028973932559,-0.6523608491180777,-0.6807031480002201,nm,0.0
3.877826690673828,-74.16368748024944,-36.22200495732696,127.14823662515268,-1.5103946587568804,2.212314851805867,-0.7601637044315536,0.2302223499847908,-0.580917056174598,-0.36174531500054774,nm,0.0
3.8794589042663574,-76.76437311259981,-35.218897590709126,128.0787753969721,-1.33113726099762,1.9314320687461661,-0.9667582122544196,0.10577380655399325,-0.45229329991240197,-0.1633027809121283,nm,0.0
3.898235559463501,-79.8402968923212,-31.82625887630922,130.3132405675209,-0.7169323807729875,1.301418553774372,-1.2216059123241625,-0.16765660066528612,-0.4103205236642145,0.08225386579246413,nm,0.0
3.903853416442871,-79.50462046820526,-29.063466411769674,131.05229616920505,-0.632278991390166,0.7973607237920772,-1.380131803684325,-0.45301140165038567,-0.31094086530717485,0.19458458591047934,nm,0.0
3.9280049800872803,-75.89587462355836,-21.6615446242428,132.4762402693726,0.05593845116672283,0.020410276085114157,-1.281352805825854,-0.8560875987794657,-0.21745682827502893,0.31984418875799175,nm,0.0
3.949838399887085,-67.61924734167492,-13.587625547434433,134.92705057329837,0.47829351399415415,-1.3675192973572523,-0.843702303763717,-1.1980942402976076,0.10929538016265472,0.5203575246124418,nm,0.0
3.951692819595337,-61.60687139196803,-10.296837095472007,136.46640563836903,0.6326260004038715,-2.642530707484689,-0.30972477512264956,-1.2998499551823925,0.36513241333134006,0.6056674631908594,nm,0.0
3.974273681640625,-47.628748176058075,-7.484031248861978,139.05397099140845,1.966747742822719,-3.657553339956542,1.329114254273173,-1.1794404603734996,0.8758799770952104,0.5029787629046629,nm,0.0
3.9999914169311523,-32.35908599061608,-9.491801779203756,137.79245274322994,1.9214151634170364,-2.441143433964427,2.4345950413153816,-0.9061902883697792,1.1910822441028641,-0.06940601985569077,nm,0.0
4.001624584197998,-25.846014758632105,-11.010157670259337,134.95548190903668,1.5260912327457858,-0.8524662527724703,2.2713616580189875,-0.7157694971301164,1.119149502432466,-0.333428214716007,nm,0.0
4.0302653312683105,-17.65116341064667,-14.175989815483028,129.6775630344166,0.7365882222088554,1.6186037282666323,1.5122295409183528,-0.12677330128458353,0.6939330824255168,-0.29467166409724993,nm,0.0
4.033026933670044,-16.52595165324385,-16.53137476859493,129.12602821712426,0.5384819000507096,2.116028408317424,1.191336143825734,0.23128727013481226,0.48088967563371854,-0.05016629599725909,nm,0.0
4.035984516143799,-17.111960133795126,-19.40785529595341,130.23005371739453,0.3371703919258652,1.5320448406134881,1.263358903291146,0.5191585055163406,0.29551635750196703,0.18584481097694036,nm,0.0
4.05380392074585,-19.563777645247253,-22.519390314041296,132.3297516536623,0.3215172236488336,0.5728406907208261,0.9776415456577796,0.7749531467231876,0.0801111055111972,0.24649324346646256,nm,0.0
4.0557098388671875,-23.384892759051116,-25.48528442729376,134.36215573469812,0.38320493475592665,-0.27975200712759757,0.3774048723921554,0.9157025451233247,-0.08733875458689294,0.09847416795018339,nm,0.0
4.078684329986572,-31.795275603909158,-30.68590517966342,135.18457217136532,0.1648661397692041,-0.6883333727243495,-1.0536019548610562,0.8760547898134874,-0.12936299157762893,-0.5127641542766321,nm,0.0
4.083091497421265,-35.54215352019009,-33.32412439243538,133.76111403012837,-0.22829738320190238,-0.30581392753949743,-1.1162014192541065,0.8283968263814736,-0.06992068312671566,-0.740609890951426,nm,0.0
4.112076282501221,-46.68276803940966,-38.53514676286292,129.6536704926101,-1.4767372453501686,1.2273896449286834,-0.24992785334087209,0.5388753093699891,-0.33519056665177477,-0.6701910343897151,nm,0.0
4.13474178314209,-55.3069128005919,-37.42897868810328,130.7683258840971,-1.7650654098399952,1.8439324788502607,-0.4076185991288785,0.2839818539939667,-0.6297579953663912,-0.4237121369449915,nm,0.0
4.143317937850952,-58.785799999721206,-35.96415530000594,131.73107191805,-1.8743862141919545,1.63495521524317,-0.7637163928069443,0.15610054591725836,-0.6046421211590981,-0.2855113004626832,nm,0.0
4.163756847381592,-63.78265360146286,-33.50003715825653,133.24648669523577,-1.415511365527185,1.4006186723005705,-1.1937976636283576,0.08028487027659478,-0.3913165346720633,-0.12906377146232104,nm,0.0
4.186808109283447,-64.87895102055671,-31.380300590154857,133.87461460081178,-1.0255550849167567,0.9387881600267968,-1.142943062949504,-0.1492290761310098,-0.17066682946854672,0.03366755367016527,nm,0.0
4.18863844871521,-64.26517616203692,-29.508877436217944,134.1691611105659,-0.7720505685154027,0.7227091557454081,-0.9890466522767464,-0.3380129184050654,-0.17592212174354932,0.12708083549611487,nm,0.0
4.197423219680786,-62.88449300736699,-26.59291858341341,134.7203875424752,-0.5431293987598381,0.4022795413734505,-0.9276859019084164,-0.5828719669593413,-0.22607872256487266,0.232877057305021,nm,0.0
4.220640659332275,-58.16186832111758,-18.035160930585096,137.0483418802988,0.20198676454947148,-0.5809298438046485,-0.9089313531647634,-0.9989436184050873,-0.3075417227062133,0.4382253029312835,nm,0.0
4.243093967437744,-49.797929805648366,-9.439984757292306,140.5391753847539,0.9627559763723611,-2.5585292146217906,-0.08211481837022205,-1.2188800910096729,0.005207530143811917,0.551463796051373,nm,0.0
4.244738578796387,-44.80582111045823,-6.648640151209216,141.7465153202391,1.8280273618064715,-3.0230269568363983,0.7299273923590158,-1.1190015200553345,0.20237126912499856,0.44731077638077543,nm,0.0
4.268472194671631,-33.09003816212983,-5.539363705472221,140.86446244359558,2.100824809360714,-3.1379710948310873,2.230993610202069,-0.9129620900222497,0.7940668560132595,0.07936721411357088,nm,0.0
4.273776531219482,-27.78240065100203,-6.478190405877242,138.71289151972968,1.9650250946907566,-2.0533388640474235,2.334729794976177,-0.6791200691159283,0.8432889803507454,-0.20485041617341698,nm,0.0
4.297107458114624,-19.678795650508015,-9.95867723587243,133.55453104154984,1.079204435942526,0.30687587332589134,1.8089640190680385,-0.20396932433659046,0.7948591246305304,-0.3586429312256217,nm,0.0
4.302728891372681,-17.538354888974464,-12.312610516804542,132.01623731817017,0.8186371560316836,1.2148125791603628,1.38345273178215,0.06450029102801064,0.642609734680098,-0.2189574905416979,nm,0.0
4.324175119400024,-17.158989224585383,-18.133732813997145,132.8563718415218,0.4391396001315614,0.9144294543553179,0.9272873303112583,0.5399014515755541,0.36625327912589495,0.18247482353436317,nm,0.0
4.337578058242798,-19.1186570082411,-21.422893949538068,134.64881380001327,0.3603134812959319,0.3185022201839272,0.6977509673012486,0.7346843141434966,0.20293053634250047,0.21586318603450005,nm,0.0
4.343099117279053,-22.032011876594183,-24.416848948253666,136.3177922471331,0.33472583267077455,-0.29954587003248107,0.14169984312779516,0.806909412870736,0.06526001107395828,0.0848122119087232,nm,0.0
4.363529682159424,-28.794325383905914,-30.218547453102733,137.03797368184385,0.002754451750884399,-0.2581439519340726,-0.9016123401176128,0.8342990640167165,0.046487664640670716,-0.3940579044108458,nm,0.0
4.368463039398193,-31.786985598716658,-33.10303018447643,135.97342103861328,-0.37252283836762073,0.035803080238982966,-0.9174614340163948,0.7721827342123004,0.08203381865829004,-0.5736613786994539,nm,0.0
4.391430616378784,-37.815730403105285,-38.037544960364364,133.27639297339869,-0.8592869835887414,1.3474666313896255,-0.6322719044790706,0.6659155416291463,-0.021914147875895844,-0.6434902977393832,nm,0.0
4.3997156620025635,-40.722698152816676,-39.5403328286362,132.66776461957596,-1.3846899875691343,1.277875785315733,-0.2821664442992322,0.536064146964102,-0.11549169446399951,-0.5161848021546758,nm,0.0
4.420235872268677,-47.70413796912395,-39.753614672850006,133.0046431857044,-1.6234204567433197,1.7477908937381688,-0.39422360146735985,0.32715458827111626,-0.4342560401803897,-0.432281123988958,nm,0.0
4.449631929397583,-53.566301007214264,-37.778181875301144,133.97630116158524,-1.7417441322833158,1.3808424420385144,-0.7286589809195276,0.14313071656666182,-0.4533073694789906,-0.2821114517986982,nm,0.0
4.451374530792236,-55.66049821251185,-36.524895994979545,134.32360935590532,-1.5725135155785523,1.3068381963598328,-0.9081564540779735,0.06003934364588904,-0.4055994434711245,-0.24014887635597615,nm,0.0
4.456724643707275,-56.97704234877766,-35.11949840853279,134.5081261343232,-1.4289758362835676,1.1609584865832903,-1.0130646346499472,-0.04467145607803956,-0.3409256258394335,-0.16317627923591377,nm,0.0
4.481513977050781,-57.57128877984732,-31.045921494504263,134.80028579690364,-1.0732791117156744,0.8768208630719995,-0.999681663808829,-0.3346465088088043,-0.3152060508552432,0.03820884550017303,nm,0.0
4.490521669387817,-56.85295872102334,-27.901051908469977,135.34866673142764,-0.8203909140894542,0.5756059942490213,-1.0230822905550214,-0.5279725399612589,-0.34838800474740983,0.15763948191114388,nm,0.0
