timestamp,roll,pitch,yaw,acc_x,acc_y,acc_z,gyro_x,gyro_y,gyro_z,markers,motor_input
60.003517866134644,32.916238093893625,-5.65880085262092,-10.43408926712977,-0.315123217509041,-3.0095072174213815,1.5216191078641186,2.368982992827627,-0.45049530193115184,0.7443271268197074,nm,0.0
60.024280071258545,51.50757285727427,-6.2553212066855925,-7.318315209190967,-0.6452965091565707,-1.682847748376054,-0.9123804791476985,1.614174516947758,-0.2458094514793482,0.3827719191993626,nm,0.0
60.031235218048096,56.663393688272826,-5.025671892024918,-6.945472726652001,-0.6247307790474378,-0.9635533930477381,-1.5707959079096139,1.0581380420593038,0.11357909212246141,0.16450585476642732,nm,0.0
60.03786611557007,58.93491940496525,-2.4443330174232885,-7.148000871742539,-0.4059071277961739,-0.1110922269742709,-2.1642698808136673,0.5215483623138876,0.45472005855698294,-0.02295279053960982,nm,0.0
60.06150984764099,56.37610174310036,3.8428961735665945,-8.64773427034104,-0.19423368164318802,0.15315872550660659,-1.6641466395013473,-0.407127916985094,0.6639917579055632,-0.1668532957271397,nm,0.0
60.06714081764221,51.316823384402475,5.474870365403877,-9.656870872654853,-0.15735823149428532,0.2667564288138766,-1.3439191472690202,-0.9393101665854063,0.4788435558185587,-0.13232955784144013,nm,0.0
60.09373211860657,34.99728012622807,3.355907045265157,-10.033400154421177,-0.4649473029251609,0.4681850011553414,0.7635061622389836,-1.867945740646514,-0.04038276209090821,0.18318159351032684,nm,0.0
60.109778881073,13.355019465696044,-1.0621671663410577,-0.3148131518693007,-1.6812857186723116,2.383699365435637,2.486603741426457,-2.238921521587324,-0.37355905848252013,0.3466719700993509,nm,0.0
60.115901470184326,1.3498576433459724,-2.4491000401788012,-1.6610424447445509,-1.8708589202050234,3.5253008847276144,1.7386641669288414,-2.404640205011474,-0.19312081433443234,0.1608184474256341,nm,0.0
60.12315893173218,-10.121540487849321,-3.458437124243988,-1.8791967606239794,-1.7958381660432512,3.732468136987334,0.1459487591387706,-2.2922038532548097,-0.13912948821802315,-0.1282036819887388,nm,0.0
60.15216326713562,-27.48720326872464,-6.7249194255467,-4.991581430548675,-0.15751536255098486,1.7180291815898867,-2.445953808419709,-1.5171855071507652,-0.2856010062518075,-0.5436789485576325,nm,0.0
60.15401029586792,-31.59164908114482,-8.620367487138182,-7.079444979040476,0.8698129057109145,0.399693330766321,-2.725798502058445,-0.8444961082479899,-0.30471258692125436,-0.524882601160862,nm,0.0
60.175347566604614,-29.289983006153406,-10.24076557007466,-9.47834180637034,2.439365003579733,-0.806391675764068,-1.4796433111973968,0.5394970740652564,-0.15902084104145403,-0.05083814307271406,nm,0.0
60.182265520095825,-22.813302144106792,-9.269820738428793,-9.028879367305771,2.5657608656801076,-0.6999023856103807,-0.26362528445724814,1.2980907119828478,-0.02725388844687287,0.31062433817340324,nm,0.0
60.19156241416931,-12.664861657641904,-7.814462516412419,-7.1218894504697685,2.0963008153090703,-0.175595163760016,1.443467017201589,2.0369106345448946,-0.0075683964009823565,0.6813399961393015,nm,0.0
60.213788986206055,13.57920444744399,-7.5451504888461285,-1.2196328548838185,0.38964266807421066,-2.1233938261041074,4.280339973835407,2.672287594224713,-0.20751434336494706,0.9221032655956748,nm,0.0
60.24009871482849,50.0136625253073,-7.236771020133834,0.14816122628627534,-0.20381404899967012,-2.958379068157898,0.07633755945093466,2.0811512435528443,0.23275058340636737,0.0935042061007534,nm,0.0
60.26503276824951,61.066638530920066,-0.9089972544960947,-1.6327977300812302,0.14255699473894792,-1.1542300259489673,-2.164599961708133,0.8033868954602258,0.7001861099121125,-0.12667540011736078,nm,0.0
60.26809549331665,62.36612063962944,2.252196076254611,-2.482430250198605,0.10336876697972826,-0.536352855191346,-2.3906040189533404,0.28964269578655977,0.6221150619075947,-0.18586950087289633,nm,0.0
60.29078912734985,58.158773096201095,4.638043799573151,-3.792779340737615,-0.2865890367170887,0.015230244614324855,-1.6104300214985805,-0.609998004489503,0.13401351917241233,-0.045840973970052074,nm,0.0
60.3092405796051,45.678031148938665,2.8927451528431716,-2.8630768088642378,-1.1664015251307296,0.5844708564827948,0.3450394659867111,-1.4726931280722737,-0.14536656328752087,0.2155093152171612,nm,0.0
60.33199119567871,26.057812382675706,1.765057383780375,-4.319225751996626,-1.470784669120912,1.784744783896536,2.220424624354802,-2.0624894219400836,0.10065769784889442,0.21581341164074824,nm,0.0
60.33738422393799,14.14798803858368,1.4745283885824612,-4.280740391689873,-1.3220669673147225,2.924991358502129,2.698780544946595,-2.375066881267878,0.11065920970570044,0.06725444342328733,nm,0.0
60.35908651351929,-10.946685070576347,-0.48010973400312923,-5.535629760454282,-0.5330101169581358,4.043649938820878,0.6536391389117671,-2.4624912884043315,-0.03760737024293388,-0.17861502421773465,nm,0.0
60.379759311676025,-31.291450515562445,-4.1452091742369275,-6.557116107760844,0.13745617257736512,1.8329288614801997,-2.3085547324797684,-1.848996857469207,-0.20689941046178711,-0.21310293325753343,nm,0.0
60.3864951133728,-36.95381507285017,-5.916456785992389,-7.043503644329122,0.5503935622147804,0.7021866946380283,-2.867226587298767,-1.1579843853949976,-0.23101621713061912,-0.19322194195612352,nm,0.0
60.390387535095215,-39.14783519390149,-7.1403368949664765,-7.817628874876936,0.9455696438097834,-0.1451196186852075,-2.962664104441331,-0.4592620867962588,-0.19933333589985586,-0.20080630322913098,nm,0.0
60.41569471359253,-32.39096794175087,-7.902541842364335,-9.989968803873827,1.6521715543152922,-0.43904050095340774,-1.2048991605697423,1.066174166743331,-0.21279254570857453,-0.06656933257574614,nm,0.0
60.43841195106506,-10.791343573858732,-6.609166975517183,-10.724616919898823,1.6719126834937483,-0.031660298777705015,2.454016474146006,2.466577318982268,-0.30071107570761557,0.30505723502029064,nm,0.0
60.44007611274719,2.9673160230516067,-5.562648728477726,-9.78650298953945,0.8861022059444749,-1.0807563734409207,4.262757673247932,2.7389988118683473,-0.2948007367870571,0.4741829918401388,nm,0.0
60.44672751426697,16.242453450719964,-4.746135849247196,-8.143150915995662,0.061849493565646875,-2.5926799966246423,3.2846886567840636,2.6473948241138068,-0.2623170290575485,0.5590566441946214,nm,0.0
60.47054839134216,39.42321000221388,-4.423893297553137,-5.316902704537949,-0.5603989829233763,-2.419267085296183,0.10382400661933251,2.137346918678147,-0.213079593367542,0.37907956888480365,nm,0.0
60.4761700630188,47.389118004600014,-3.8366287224283213,-4.952788763549485,-0.3759583320504273,-1.4080711202429101,-1.2535118679122341,1.6028654093341876,-0.030112124394939908,0.1764362896605044,nm,0.0
60.4871768951416,52.21461902237948,-2.2687524865023883,-5.045296978757441,-0.4315405668215862,-0.924411929030811,-1.706137676453874,0.9961453783448441,0.2248439102283084,0.02117099579102259,nm,0.0
60.5089807510376,52.25140995395656,2.2245528321419847,-6.512213957496317,-0.6306283104554872,0.06753915658367042,-2.2026615952774367,-0.22076553320170295,0.46319338714447056,-0.20622044255160277,nm,0.0
60.516929149627686,48.53752190766262,3.53849321901286,-7.855391251694866,-0.7517543865578367,-0.002797655586536083,-1.4139231958078433,-0.6979240115450439,0.34919290967019834,-0.2437635598950343,nm,0.0
60.537116050720215,33.649831596814565,2.421664454099164,-9.383322035798763,-1.107129185605696,0.5004157496187284,0.5372016281417932,-1.7328910012398997,0.03394974442903473,-0.0020685560405028333,nm,0.0
60.5425066947937,22.972421218414482,0.4729128639777303,-8.865831969702194,-1.2543998761343782,1.1459957591503667,1.2991373735177942,-2.1661946087201542,-0.054706467460361265,0.1482225064826554,nm,0.0
60.567615270614624,-1.4427131833120275,-2.856036270375985,-6.233739114640882,-1.4828367429875597,3.9563672321600913,2.193855078941907,-2.5552876992998472,0.013581417689880752,0.1666177903373613,nm,0.0
60.571974992752075,-14.637343054587022,-4.020854120981548,-5.627083802321616,-1.397081634904537,4.433798916284091,0.459627240310762,-2.6409829175587776,0.028599875807727396,-0.03901068518418759,nm,0.0
60.5962495803833,-36.67385004615898,-7.755185279469291,-7.079802693377221,-0.30863562077136414,2.385701436127435,-2.6386517879006126,-2.024099438674989,-0.2260554962000471,-0.4488034431297372,nm,0.0
60.60296607017517,-43.72774017546634,-10.516043808245769,-8.519529183451983,0.6070029550656616,0.12340049127197465,-3.308006620298763,-1.452082621550211,-0.37028089712182205,-0.5067301511305226,nm,0.0
60.62284874916077,-46.00396914172586,-14.889662530126984,-11.423096652960306,2.7385116597399315,-2.279160625887743,-2.150589843489705,0.09338774576263183,-0.37811793912767844,-0.2406852604715083,nm,0.0
60.6472065448761,-19.026135863156785,-11.213012577660434,-8.146362316775512,2.1581982503280326,0.4677223174010861,4.0073743575649,2.246474908632695,-0.005459820125669457,1.1028055729327577,nm,0.0
60.670729637145996,9.563533704913846,-10.25035933059007,-0.2611395679554578,-0.5564617384674899,-1.2706270592059077,5.297397696455148,3.014008940245188,-0.1526115332378308,1.2801058464718826,nm,0.0
60.688835859298706,34.55573971985438,-10.715959847270746,1.406687177947025,-0.7641931440846845,-2.629238419674366,0.2036033830707723,2.393815834283592,0.07215872927478084,0.3963916441006209,nm,0.0
60.69925403594971,45.60486839771431,-9.176569646788487,-0.4352619590563529,-0.699809307199183,-2.487194227272996,0.6566036650783469,2.1856009630372664,0.32130969224126166,0.004125486450783626,nm,0.0
60.704516887664795,52.03010738907622,-5.813954331620056,-2.7149296949966124,-0.2438000416133959,-2.033393775433215,-0.8767566327617213,1.3021990543788944,0.6338720441862639,-0.2993328106378004,nm,0.0
60.727452754974365,56.14957647544178,1.348921530603737,-6.463861973872309,-0.14781850407799768,-0.8518750551382009,-2.16489061117506,0.3171525625389606,0.5949105666874266,-0.3557813014224259,nm,0.0
60.73342728614807,54.46749613997568,2.7099939019286294,-7.7438243936475954,-0.149111283705354,-0.6476458152221918,-1.8444818644941396,-0.29389702631309333,0.3086448002646351,-0.2568657617515068,nm,0.0
60.75887155532837,44.76094159713509,1.048713757683135,-7.022439502906172,-0.8120771872027415,0.0821730902382586,-0.3313143108701623,-1.1316038130973445,-0.12233224152897637,0.21716967596201656,nm,0.0
60.761969566345215,36.99946986871867,-0.2877422869103095,-5.421881922387742,-1.2585766071966114,0.7843047741145482,0.6846068209239601,-1.5671302228498791,-0.10387094932496727,0.3195325600757519,nm,0.0
60.787813901901245,17.401006569627015,-0.6627786546521637,-3.444203508215373,-1.7094044475591867,2.2156204965635697,1.6601533037837222,-1.9796985426152451,0.157892552662963,0.0746051317104898,nm,0.0
60.79114866256714,6.273785081803154,-0.49222466226703987,-4.166798201838677,-1.4540630903940808,3.313738371707163,1.81336258913044,-2.214217270174496,0.1706040139353967,-0.17287494932458305,nm,0.0
60.81246280670166,-16.86643764044771,-2.650424558140092,-7.475228647338115,-0.18279560233364678,3.5036363366809034,-0.23453242031180566,-2.243757659916321,-0.04793750898132868,-0.3390374313082633,nm,0.0
60.81802010536194,-26.893733775015722,-4.579578775003854,-7.6079118945642925,0.2586605694799773,2.9622195631548935,-1.2728580298772383,-2.031173459637992,-0.13951684076217558,-0.2338923363697198,nm,0.0
60.82758355140686,-35.143987736745785,-6.461487298951469,-7.164940194016074,0.6088301312129429,1.2845665009579006,-2.460488230786733,-1.6735304911071232,-0.17564636762898245,-0.08115423252979204,nm,0.0
60.851850509643555,-41.7948653556598,-8.869305653916994,-5.339213369280159,1.1658875737171452,-0.3223159209004994,-2.794842682282611,-0.337347510774496,-0.17436493366723238,0.13704039726437534,nm,0.0
60.857487201690674,-39.97121302944865,-9.62873134665596,-4.827459338667305,1.5013733904215687,-1.1073245354012498,-2.4640207943289028,0.3512357793247491,-0.19585261509458254,0.1657633193065432,nm,0.0
60.880189418792725,-22.904211988891443,-10.614160046663525,-4.907584369452925,1.7842381026024026,0.5304839313938514,1.810621530294091,2.110777106877769,-0.261913579427255,0.35869666102919545,nm,0.0
60.88467741012573,-9.45553567445552,-10.31829589783308,-4.990138947157202,1.3288667173236686,0.16127287356507977,4.663761440461299,2.65016844209196,-0.18234693496952295,0.4710221645341259,nm,0.0
60.90840554237366,18.812042450676223,-8.153726546349157,-3.09096906026233,0.3237438590362119,-3.171074069195975,3.6084315680895482,2.825092523212568,0.0318589061708519,0.6972271784010332,nm,0.0
60.91373038291931,31.7529056041809,-7.618464032754409,-1.4557022489126803,0.19288199511258147,-3.23577665835317,1.5485511604620292,2.577811195405159,-0.0023685444067123233,0.6724416468022066,nm,0.0
60.9377543926239,50.216296904668816,-7.353401684613636,-0.02505483995137005,-0.14654460986549828,-2.3569027989644096,-0.7418843430073745,1.5532927749078513,0.035397738932986804,0.2502244407788943,nm,0.0
60.94136929512024,54.73270911031417,-6.300042142684176,-0.4619980986625105,-0.2602412386772421,-1.3279563424104557,-1.7728853124100632,0.9074980292084032,0.20448186446738037,0.008748097563148342,nm,0.0
60.96577024459839,55.89359638213775,-1.8045182108109081,-2.760566987952506,-0.6379740636731375,-0.5738284839483876,-1.7431592854567077,-0.10940178432167932,0.5060027797707711,-0.28512922481168856,nm,0.0
60.97241282463074,53.09604873939909,0.5863452007276027,-4.137177998234811,-0.7310800183438424,-0.04211926072700863,-1.6871193746486544,-0.5233115456933881,0.5081675092199255,-0.29373514730539446,nm,0.0
60.99636387825012,41.827933545507214,2.341682490197707,-6.019229174433999,-0.7284480637937069,0.29612362606895376,-0.16802917845905319,-1.3201019842587793,0.175826590948871,-0.09706753649450262,nm,0.0
