timestamp,roll,pitch,yaw,acc_x,acc_y,acc_z,gyro_x,gyro_y,gyro_z,markers,motor_input
58.50346779823303,26.69402379855856,4.567799277913009,-3.7442918553317606,-0.7030803534659911,0.7308279564146454,0.8621579744671,-1.939226679747557,0.03732240490854914,0.2971499334224582,nm,0.0
58.50757622718811,16.239744005393636,3.7918094646531255,-1.8005634958719803,-0.509642232986209,1.636195788797778,2.0056877746760207,-2.0865001358754793,-0.0634648774019515,0.532250095190537,nm,0.0
58.53743600845337,-7.267951201837158,3.4876897585719315,2.6457235961315186,-0.4971904134751168,3.8662216207847355,1.1590893837743852,-2.4101280237762195,-0.04755137860792887,0.6033559014849714,nm,0.0
58.54314303398132,-18.706618724035916,3.6930431372032255,3.566230585813789,-0.6842646690290626,4.1080281994501355,-0.09115105871613122,-2.277077114401277,-0.08961557302042739,0.3777002958441048,nm,0.0
58.54947328567505,-29.091790192179815,2.9906687667491196,3.3658178171559383,-0.8239627956397894,3.3968780006561543,-1.6934267274341974,-2.055480451374572,-0.2780456103733727,0.07485445946500793,nm,0.0
58.55722403526306,-37.65131563691577,0.7060771865733204,2.1556531585639225,-0.6183106924654413,1.641768728352182,-2.980226179428318,-1.681313480448403,-0.5503636383689031,-0.1837403562456595,nm,0.0
58.579302072525024,-44.56250167862826,-6.7150495252785465,-1.1011494165805595,0.417794342180663,-0.20344466454267118,-2.8179023232388576,-0.3299753557084355,-0.775441727185973,-0.3643974446590049,nm,0.0
58.59635090827942,-37.141622398102015,-10.081706047972128,-5.194215931878946,1.0301473135253736,-0.7189388511859696,-1.0702274149672353,1.1062186015129973,-0.22987631140209008,-0.22301074778685395,nm,0.0
58.612431049346924,-27.862834066882392,-8.967519630793134,-6.629504210061121,1.1549657864394731,-0.15433852179532215,0.5519563702128573,1.8512290875187531,0.019598291928484196,0.022675507006143836,nm,0.0
58.61413025856018,-15.562772249538323,-7.065286330031107,-6.765282890130073,1.3084865205542673,0.34107882471797896,3.2401976255199716,2.472699534957206,0.0793209299701788,0.31555236329945674,nm,0.0
58.62177515029907,-2.0736203087293053,-5.323648423537098,-5.669728958641463,1.6025571470032849,-1.168419553317744,4.634074080730097,2.714026761862278,0.04202290371499867,0.5059251468267768,nm,0.0
58.66983342170715,25.571694324459926,-4.0333239895315245,-1.9453488092839903,1.1149736255393807,-3.088545309986689,2.2460249097375398,2.74405698557296,-0.12958716404031376,0.5582521870549426,nm,0.0
58.671591997146606,37.145808626791585,-4.768011071947632,-0.8015795368733575,0.5469844596443276,-2.9370983869296605,1.0970215208471952,2.3149003763987137,-0.20807223508943742,0.3958921440489934,nm,0.0
58.67348599433899,45.173746262129875,-5.081815770177813,-0.5223224294729816,-0.2665840711886985,-2.4786768639948176,-0.6117983126954979,1.6091000762689687,-0.08573199043073576,0.1829485649643952,nm,0.0
58.67514085769653,50.57436498090553,-4.348560158633695,-1.0651105117472506,-0.7484101980276567,-1.6081829185956942,-1.6799872303263015,1.0878937400532653,0.12829802475258487,-0.031089051482620554,nm,0.0
58.68071532249451,53.47341849444734,-2.4713363040931178,-2.139470621628048,-0.8954899989925875,-1.2698580994709876,-1.4530347304126572,0.597587147381353,0.35645273935443045,-0.19235720142239143,nm,0.0
58.7036771774292,50.47195531262567,3.222001178241901,-3.57513542777902,-0.8211960513122315,-0.4395162635286643,-1.7188356688783062,-0.4788503814634857,0.59777016054374,-0.09909063746731996,nm,0.0
58.70965027809143,46.030139636806126,4.865054456193607,-3.966961852247141,-0.6162916779579295,-0.24223913017212526,-0.7763617342104785,-0.8575868538573294,0.381791627706125,-0.027973633611165585,nm,0.0
58.732134103775024,30.182865166479626,4.193936039843849,-2.5903368325410683,-0.051847649371314246,0.5850050307934996,0.5053470799959756,-1.7765096180373958,-0.05644347865165394,0.388688813806412,nm,0.0
58.73730397224426,20.342479224386686,3.175444471978431,-0.41552524578936945,-0.37611349930369725,1.4855331378274264,1.4572078436139078,-1.9643954821208973,-0.1607225884201585,0.5519995952309382,nm,0.0
58.765241861343384,-2.9495827035530198,1.5835546899088546,2.8822292429273637,-1.0902365115846755,3.7791376409828716,1.6458460998939382,-2.442524191619005,-0.22420612894550418,0.311586574254265,nm,0.0
58.767500162124634,-14.910887021034663,1.092609353368265,2.632426759722272,-1.4584023095018197,4.105485262864941,0.3047163537297056,-2.379108753942415,-0.22492992295225114,0.004005372192432569,nm,0.0
58.78849530220032,-35.06110317494415,-3.121544872808459,-0.4541371097080775,-0.716964754653546,1.9953633182897874,-2.49381895426984,-1.8320961319206175,-0.561936095653152,-0.39872028863305103,nm,0.0
58.792821645736694,-40.9494215126387,-5.907730893936016,-2.1545768383305073,0.03734297982147038,0.5988092854914803,-2.840562583920508,-1.1814296130076858,-0.5426441443615673,-0.4286257130179358,nm,0.0
58.81692290306091,-42.60984917921241,-8.606208896950955,-4.751467828037777,1.1271414375154343,-0.7184761647727191,-2.1005701328210797,0.13508365960657226,-0.1676083928231704,-0.1950499064893541,nm,0.0
58.821324586868286,-38.177739514217926,-7.987262953967721,-5.330768339122653,1.355387002668388,-0.6258145948167819,-1.3147336054347651,0.8914377338252161,0.0336262905224118,0.016185974309977834,nm,0.0
58.83053994178772,-30.096211576842485,-6.575132938296494,-5.220963877162923,1.3428842345566063,-0.011917112551616107,-0.1438463935511453,1.6304448071326918,0.1205598937412096,0.22924513752672002,nm,0.0
58.841893911361694,-19.060139271912472,-5.408461647570192,-4.389347017209318,1.2380830175234216,0.5346617801890571,1.8403356711702943,2.2162046277637777,0.035062262477391345,0.39635788526925075,nm,0.0
58.86492919921875,6.151751066922349,-5.068560009559161,-2.681044847746811,0.7590903799654345,-1.7955207230418064,3.876310575716197,2.5382125510478173,-0.1507930751432553,0.35039356848960496,nm,0.0
58.868674755096436,18.17558689452373,-5.193119160789187,-2.689065044883538,0.4122585916042894,-2.6056540682437985,2.472662345729285,2.4019312653951044,-0.1467387218057951,0.2061074177422876,nm,0.0
58.89334201812744,36.24227260607789,-4.792929289341055,-4.851538712092449,0.0516644249818892,-2.29005847555933,-0.22988335421135214,1.5566242378257704,-0.041047084151557084,-0.15151869576976165,nm,0.0
58.903199911117554,40.69092233883886,-3.8981510945356193,-6.4674363968210455,-0.09253898216704062,-1.8516318235715061,-1.2435643327916706,0.9090803592859995,0.08438910573331104,-0.2666028711702559,nm,0.0
58.92182922363281,41.039494628215756,-1.8802859394382136,-9.66549560749355,-0.5851979426553227,-1.0938419114766642,-1.3141780989602139,-0.18551572281894482,0.20852492459341357,-0.3347211231400458,nm,0.0
58.92571687698364,37.44530703721701,-1.311971546147567,-11.005005820496322,-0.7970349024669705,-0.7238573491170279,-0.739460795559153,-0.6809739972042911,0.23367295796712542,-0.2989103284209383,nm,0.0
58.9547905921936,23.963694305887987,-1.0205318958661311,-12.341261543892147,-1.22909367374633,0.5269367784843461,0.8162810533515337,-1.5043776842918894,0.3163217053649078,-0.1258394643295068,nm,0.0
58.9566695690155,14.562001772184143,-1.1421150300802418,-12.38392907568018,-1.2147142929514236,1.214525443081879,0.8461228381173682,-1.8385293973284689,0.36815509611562736,-0.051623648921346244,nm,0.0
58.979142904281616,-5.308856800052808,-0.9583943666172381,-11.403317834277056,-0.7102944133216114,3.107101833089334,1.2831794352123944,-1.9683250296834753,0.4340650760930987,0.08080924628885697,nm,0.0
58.99768400192261,-24.660635058367436,-0.6324826395974023,-10.04439240189247,0.03374707543337352,2.5953059471566395,-1.1806888586939575,-1.7659669940489477,0.335099697204736,0.11580734063228887,nm,0.0
59.00293445587158,-31.75291422847646,-0.7463999814266368,-9.401654773960496,0.3378492831938266,1.8785926019192591,-2.0290825369097925,-1.3982326169585748,0.204031770366612,0.11323608471655645,nm,0.0
59.02533769607544,-38.365496665991934,-2.2118631589953517,-7.95168121207862,1.0232405963160334,-0.17594431100265662,-2.6430748069290955,-0.37560552809761927,-0.14252612635325865,0.1489033887359173,nm,0.0
59.03047180175781,-37.07617360872392,-3.080180564561163,-7.134610766476353,1.4435852589353464,-0.45565153078652126,-1.9430297535894294,0.2385337279795353,-0.2191214735885141,0.1787236826772741,nm,0.0
59.06209373474121,-24.112007660996397,-3.1506094286187047,-5.046270748238258,1.274922849208102,-0.04094795934104608,0.3907113381501297,1.6694127747420653,-0.12457563910850519,0.33967033429634624,nm,0.0
59.067702770233154,-12.937238223611862,-2.629430860601558,-3.378526265400548,0.7088549139030738,0.43286959377124784,2.719735940099962,2.2433361745051306,-0.07302550989089954,0.44369737225003236,nm,0.0
59.071574687957764,-0.9448373657225722,-2.3118354386027544,-1.6100178525329174,0.1673939793031944,-0.9171736871677456,3.707463557296169,2.4070783511067444,-0.05274650964377935,0.4518171147060357,nm,0.0
59.07764768600464,11.535513149715108,-2.336807233412833,-0.2883361743623022,-0.14574577858671042,-2.144343243905602,3.3070487172101015,2.504367994908788,-0.05648792510944981,0.35807660143629544,nm,0.0
59.10140943527222,33.49259246602465,-1.8272793095519961,-0.43464408660888076,0.10866405285202924,-2.9523933766864077,0.8451900674086433,2.0057912507180418,0.09941410918150358,-0.042684544287841686,nm,0.0
59.10661768913269,41.128393739679034,-0.4460660228142,-1.4362347973773737,0.3179950984363071,-2.553715463940668,-0.3459435778391942,1.5403925351052565,0.24574369989898345,-0.18113827141595432,nm,0.0
59.13574695587158,47.689899715203694,2.6950162698726294,-3.9313007982431065,0.3617016250099351,-1.4122910450255233,-1.9152534890506,0.3891579977860752,0.25375841737681276,-0.2850904535627348,nm,0.0
59.1374146938324,47.45979860831948,3.2994792400533495,-5.104274683576136,0.11410586082234812,-1.1660547695379209,-1.5237503338738185,-0.02999481020227586,0.11972388437995482,-0.24464557500493284,nm,0.0
59.16130232810974,40.56582418884215,2.673875360598356,-6.039258434381043,-0.8440720485464095,-0.156309178863379,-0.47209101686586485,-0.9003339427639127,-0.01054983824659532,-0.0015294712890034584,nm,0.0
59.164307594299316,34.34764801820494,2.2788239393695022,-5.713508082610589,-1.282510366368669,0.416057413214855,0.24824299677698397,-1.2392133604051014,0.04156405852613391,0.10812997572130448,nm,0.0
59.18845748901367,17.689983932112813,2.8304560605708486,-4.5596772387002344,-1.2495881838260332,1.6177955422923482,1.0046287601768176,-1.7278538835148902,0.24048348733057023,0.1879570821534644,nm,0.0
59.192840337753296,8.20433522147696,3.554925008492986,-4.091127009377999,-0.8738590440788471,2.536601245045958,1.610292339690655,-1.87397777868195,0.2763881536728186,0.19234715784758855,nm,0.0
59.2187716960907,-12.649039916572596,4.241238971137877,-3.363251318401506,-0.04359801065808907,3.4845091805556057,0.28859884033287064,-2.0595485729598355,0.14711099346718462,0.22488668446500165,nm,0.0
59.222394943237305,-22.33958285222601,3.997288241006613,-2.8895156801773614,0.08155751917532864,3.529760777626406,-0.6587065338747732,-1.9285110096780431,0.044134720642111824,0.23316507746289997,nm,0.0
59.244529008865356,-37.373063515342324,1.993518027419297,-1.7939352128654906,-0.18118092558700535,1.4288527278757899,-2.6691072071903332,-1.2765994740265878,-0.22305997805007372,0.17633157054923593,nm,0.0
59.249945640563965,-40.95143622516509,0.23853288420504562,-1.3151180105905218,-0.17094834932367484,0.7946162170329869,-2.8849984847981553,-0.7185356252658922,-0.34378619345120104,0.11337069375337269,nm,0.0
59.271098375320435,-39.50328181311271,-3.1242354139273707,-1.8272451642361909,0.32273284081805204,-0.48438920743006636,-2.160762258117145,0.4815220255616206,-0.3224347096554,-0.09051929233517376,nm,0.0
59.27816128730774,-33.27675944551323,-3.8445359929184693,-2.9029130699189047,0.6682443596569333,-0.19515192744948917,-1.001774254819712,1.2441158580515899,-0.20790364905806824,-0.13690787869536236,nm,0.0
59.2978401184082,-10.591414249820433,-3.030324676815938,-4.656881321433645,1.4355559166526872,0.09482416622840331,3.6233036321243635,2.5759089481648303,-0.06682594264507735,0.022645736292127357,nm,0.0
59.30874514579773,3.043874378071953,-2.005356876488498,-4.528957726819093,1.652709491309155,-1.8010040479424965,4.762244408043637,2.742082794402538,-0.026435119359354255,0.14008056852224965,nm,0.0
59.316150426864624,16.76329870114346,-1.0978384874363023,-3.5860181326415907,1.3752291423116882,-3.2075251142354455,3.569413163221429,2.759166672456462,-0.02377246366999732,0.2543498973639774,nm,0.0
59.341002225875854,40.25518022464508,-1.6604253955649266,-1.6245223435546434,0.4876110327307753,-2.939468706964883,0.44701068545686284,2.1214170095230513,-0.209063625506083,0.18758334769500867,nm,0.0
59.34623456001282,47.52470748456938,-2.2114940083153587,-1.6059425834403152,-0.07948635283877728,-2.456861965481603,-0.6876840172861509,1.4588559403322838,-0.15532908463806286,0.041432128752367986,nm,0.0
59.36120629310608,51.803192835036114,-1.9172065063220725,-2.1911247836298866,-0.5326024425776366,-1.3966670598189435,-1.6984320407109281,0.8653081422299235,0.02713949130235985,-0.09804027163104483,nm,0.0
59.38060116767883,52.30893028472073,1.568922210751305,-4.511264714370892,-0.9073401861111665,-0.6794917776808433,-1.5236144224697685,-0.19554421467132907,0.44326588296992603,-0.2637451919881236,nm,0.0
59.382285833358765,49.07787474003396,3.8916801508238392,-5.7051730499632525,-0.9113876779928843,-0.32546945427378915,-1.2116240555476987,-0.5961238089039822,0.5164062303685913,-0.2205451660285004,nm,0.0
59.40706706047058,36.41289472524537,5.8896742846460794,-7.179119748633789,-0.5205140741854857,0.21677329358690695,0.12507280234213233,-1.452479024669338,0.2506194705573809,0.042564377454100445,nm,0.0
59.41038680076599,27.44271145532898,5.452224779414642,-6.525373243468278,-0.38534996887685813,0.7109071229219429,0.45956467596342976,-1.7795651419334932,0.11804338735542498,0.29778730125956265,nm,0.0
59.43308091163635,7.024935253986353,4.199803153072108,-2.6971997623510124,-0.5668777109655819,2.907621394261486,2.0793383413569733,-2.155670431501766,0.017533899600184248,0.5789356559702701,nm,0.0
59.43965268135071,-4.577204444534327,3.9691827674843227,-1.099824570425708,-0.7502501578133436,3.6364519234488686,1.1880696715160541,-2.310878923232023,0.01893713573419165,0.4796412194181016,nm,0.0
59.47109532356262,-25.854638445878,2.928860841927064,-1.2493833561463341,-1.0356983705592246,3.448334236884752,-1.338503155008228,-2.039342807807531,-0.1585619856954197,-0.008465987774584766,nm,0.0
59.47373390197754,-34.1628688717629,0.8431384213214683,-2.4698193368258257,-0.6634694390867684,1.7668600244242294,-2.5974598610768354,-1.668589934433336,-0.3752495471816124,-0.18710680526901768,nm,0.0
59.47749137878418,-39.10247643296807,-1.9146916223269006,-3.782811826608677,-0.05811829061500592,0.7912283232170141,-2.888973771005324,-1.0113069292592058,-0.509550519016997,-0.26850429559253963,nm,0.0
59.48630213737488,-40.95218571745745,-4.47719452314512,-5.049768725992592,0.6620191694611546,-0.07263715627199269,-2.5146605231791734,-0.4022235271960874,-0.4955109239627195,-0.2701302557928406,nm,0.0
59.495911598205566,-39.36773230510741,-5.913153973479743,-6.186415968570098,1.2811010850701599,-0.26103040470499356,-1.4518837901925423,0.29200884458763404,-0.3297055546832631,-0.19482651285383132,nm,0.0
