timestamp,roll,pitch,yaw,acc_x,acc_y,acc_z,gyro_x,gyro_y,gyro_z,markers,motor_input
9.003047227859497,-7.662255437245569,-23.51748826252004,148.2056471012936,0.6075077046875632,0.5350897152964234,0.1904157164876928,0.3727187000443203,0.48547018926162067,-0.2664809496370868,nm,0.0
9.009642124176025,-8.765204598705738,-26.593672123349474,147.72121261382256,0.33334314203541443,0.4714657965656291,0.16200685468963066,0.4959466639576671,0.43045761689098166,-0.19007763098212388,nm,0.0
9.029238939285278,-12.690008809321794,-32.01202162917342,148.27694224024378,-0.07647181712150315,0.12433293814242158,-0.016119174165304728,0.5841911967425145,0.24631145218459044,-0.1477156256027641,nm,0.0
9.03886365890503,-15.000767002144451,-34.2361012403916,148.54486079857932,-0.3600125127541086,0.1493942171423515,-0.3364249378463096,0.563473249068167,0.19102665473055983,-0.21642259249831702,nm,0.0
9.085652589797974,-23.073298241978208,-40.60062703144851,144.58557444709902,-1.1717935670534634,0.6686272649625484,-0.23013614461309848,0.34802479476911535,0.040968686470575964,-0.5205962976700398,nm,0.0
9.100938081741333,-24.79480945533474,-41.194426981780964,143.65595317909091,-1.4616140584904744,0.5150157445248315,-0.077985499878799,0.2838668664852544,-0.04283660008857791,-0.4343644299167028,nm,0.0
9.117777824401855,-29.40967449836664,-40.93437987343228,144.06699720873317,-1.67318616503863,0.926474738376882,-0.31561578221556236,0.23266666532283892,-0.254409085824081,-0.2033885064962818,nm,0.0
9.121801614761353,-31.259266629838386,-39.96875473070622,145.03689470730848,-1.7165232616780302,0.6038977519296459,-0.4400162617444561,0.12087521411779313,-0.30811776446308653,-0.0542358938921131,nm,0.0
9.169671773910522,-30.502679132407593,-32.571945379001114,147.3906070794385,-0.5811365981970725,0.029580350977420292,-0.49239316914554543,-0.41380063822752855,-0.13621230515834798,0.17583829860904152,nm,0.0
9.171571016311646,-28.57498163175669,-30.39680147258275,147.51825285926736,-0.3106948236188636,-0.11260656872556155,-0.2771217342444343,-0.5100528221631084,-0.1766314717507365,0.22344024723714295,nm,0.0
9.190420150756836,-24.681119898668626,-24.385312412860486,149.06807289915096,0.39130405422755965,-0.27243447613355765,-0.23205880322065875,-0.6433068354359286,-0.35964014850954873,0.3702769273850987,nm,0.0
9.207146406173706,-22.584549122676986,-20.733739271677823,150.5552664149675,0.7228492016640362,-0.9561583159951674,0.2407150765761112,-0.7026065256704629,-0.4231696116313473,0.4468093293882977,nm,0.0
9.210445642471313,-20.982637179353958,-16.898147982082886,152.15301505792542,1.190637379376871,-0.9238951906400105,0.34770648269828025,-0.6351559566980514,-0.5143176076861594,0.4157751789703016,nm,0.0
9.230775833129883,-17.2720307591136,-10.115906807573603,154.90269966251054,1.4222104265120423,-1.116784617145276,1.1858773487498497,-0.6174890378093635,-0.37937110584026723,0.3179033226791916,nm,0.0
9.245924234390259,-15.850934499548838,-8.075574350921363,155.600585214045,1.4478826865489711,-0.5943435571325418,0.6302149922306749,-0.42804741221864556,-0.23905895049096115,0.18400467805933252,nm,0.0
9.248642444610596,-14.494727102705546,-7.47127010440684,155.70632994873247,1.2724586607318666,-0.27709749757856494,0.5425575347562097,-0.2969265363620872,0.015121071677051004,0.06828443412080719,nm,0.0
9.271451711654663,-12.624199932603593,-9.233738778294368,154.07826236427042,1.1675896780608754,-0.051109242541084204,0.7795763330006866,-0.005419772805649641,0.3035857538912288,-0.16630485305983655,nm,0.0
9.276821851730347,-12.136325139023159,-11.504810027849503,152.87962601133566,1.1880653134168886,-0.02035853396709405,0.7578090730661557,0.11624465590702356,0.4640229335544715,-0.19560349281079764,nm,0.0
9.297851085662842,-12.166383428594209,-16.461788031602353,150.78865554566786,0.7824854307540817,0.22908279391047126,0.1699776316967581,0.2606685030852692,0.39187042457215154,-0.19131029455416448,nm,0.0
9.304721355438232,-12.69856841135883,-18.643145668697123,150.13299270859466,0.47600078867601064,0.25512328536643863,-0.06007209729897274,0.30335231430393894,0.344086219177347,-0.14285276770794583,nm,0.0
9.328467845916748,-14.700464428846612,-23.14767332002598,149.7173353757099,-0.3195353184132593,0.3700640495333918,0.05503975314940799,0.3945164836752725,0.28074971810329485,-0.09280854428058777,nm,0.0
9.337328433990479,-15.831958107598682,-25.08720359562406,149.58729538708235,-0.5099292736486799,0.45214381368348167,-0.2001211864642302,0.37454695820032646,0.24492464477046402,-0.11064112738890694,nm,0.0
9.358325958251953,-17.760429034644567,-29.13996982514635,148.97059120277552,-0.7635132551275075,0.4332241529612669,-0.28627376492712375,0.3458745638460732,0.27629006700406183,-0.16571740616353156,nm,0.0
9.361944675445557,-18.621478316368343,-31.009464309970138,148.43469723608655,-0.796453793867616,0.5629879961518292,-0.3872122745860794,0.32252988082084505,0.2565214906148175,-0.19084862745520464,nm,0.0
9.38692855834961,-20.219285518079484,-33.33614965243402,147.6091987062513,-0.9741066397922381,0.5890736750208425,-0.45440278423206343,0.21983355541810018,0.0773112159755045,-0.15725893427990098,nm,0.0
9.395513534545898,-21.579771228913287,-33.68647860137896,147.74558006324776,-0.9340602593769495,0.8606117522854976,-0.5325040964791564,0.2306185830133382,-0.04824348595852214,-0.11941994860038083,nm,0.0
9.41426944732666,-23.66916397266808,-32.87019656526321,149.29499553928733,-1.0869573181549208,0.30000903400082013,-0.3600719758066508,0.06981930156863661,-0.1896959594635348,0.08912653527747093,nm,0.0
9.418133020401001,-24.692348187892907,-31.753933906872778,150.1900393903122,-1.043521449390973,0.5061907373706774,-0.7007528250732649,0.03760341094088458,-0.2664734346098962,0.0824541837680084,nm,0.0
9.446755647659302,-25.01062346513233,-29.190192578858987,151.56890370853333,-1.0286201566645665,0.05907113449443173,-0.43279784149239525,-0.1375244406419029,-0.20982703440946399,0.09674368036877748,nm,0.0
9.44841742515564,-24.690920062411628,-27.777375975141567,151.78495925694702,-0.9149897899050938,0.19774046284708813,-0.45749592047779214,-0.18326838313919858,-0.20862534880436862,0.04304546419439878,nm,0.0
9.469126462936401,-23.071576897642274,-24.65121420307226,151.82185978816491,-0.5071263740561853,-0.039284859880553566,-0.11734825623606848,-0.2924832182499805,-0.20075200722149703,0.0638594844891415,nm,0.0
9.476823806762695,-22.15835036596441,-22.65928605250325,151.96532464225405,-0.14436942464734806,-0.08710494983939598,-0.062185607728046786,-0.33589954376445486,-0.25880643311716267,0.09612351613736372,nm,0.0
9.498029232025146,-19.70330286328221,-17.69464906472019,153.1421230332457,0.7589198633390044,-0.4724040421052576,-0.05376863846324821,-0.47210231159080246,-0.3263846723981626,0.21246567068156508,nm,0.0
9.510820865631104,-18.06264662964835,-14.9587200250282,153.94344683890273,1.2747389571505867,-1.2313477724461381,0.9347833256299483,-0.5271859003049887,-0.3362927955070906,0.22240454497138046,nm,0.0
9.51249647140503,-16.685814025235274,-12.262102623709044,154.472206216243,1.9059584986344695,-0.9884792367595188,0.5921331910654752,-0.47735221284398993,-0.35569783256995,0.14612525538187288,nm,0.0
9.532382249832153,-13.10813877771001,-7.913278242278576,153.93952049336337,1.5919372604071493,-0.7936981014297466,1.0178909962700293,-0.49990850439141815,-0.2065334020085807,-0.07844897789412578,nm,0.0
9.545201301574707,-11.97829647452206,-5.943693880977039,152.69430491604516,1.3259545727022788,-0.2710156829360394,0.7872593006904861,-0.37892902517450405,-0.23734665132590577,-0.23006018432443567,nm,0.0
9.563683271408081,-10.974696481816862,-4.772726086989295,150.05117797096273,0.35220633399368234,0.31118153240600666,0.6975929075963695,-0.046504582426366174,0.025250538668027435,-0.24288386044444146,nm,0.0
9.575461149215698,-11.383995242371926,-5.285392308575538,149.1898323545475,0.11719410939690535,0.49223659376251094,0.36368774510575225,0.122002700264593,0.06157579878873221,-0.18162330696316592,nm,0.0
9.595489025115967,-13.110422791144964,-8.636655621884007,148.5696253796525,-0.2345502606582956,0.34364251808829616,0.15838159219406395,0.38442487697739464,0.2696619851870642,-0.026937781149496742,nm,0.0
9.603565216064453,-14.147677795341082,-11.004207518609315,148.574742107732,-0.22400093729646756,0.20994900128277572,0.07446953619984989,0.4219721523345098,0.31179346586217527,-0.011010949522759607,nm,0.0
9.607977628707886,-14.95936445161252,-13.478070489236991,148.47489860582124,-0.08953153016924414,0.030297473487356643,-0.16920622596658536,0.39440913620054174,0.35351173608833425,-0.0270024443632382,nm,0.0
9.627629518508911,-15.695782992810834,-18.82963327124152,147.6001786611356,-0.1794400713513115,0.19263056122925987,-0.41806064495037676,0.314807504154523,0.44080874099641315,-0.07995069300875146,nm,0.0
9.640601634979248,-15.471370938719657,-20.984573334291422,146.93979715561525,-0.2443145672871049,0.08471476050424245,-0.0975825402098169,0.19870979497777688,0.39995139921062667,-0.08069872904308568,nm,0.0
9.661006212234497,-15.212823936317326,-24.553637462407924,146.405509757322,-0.5692206707331938,0.4676591580699613,0.03326302067976273,0.17829173856109837,0.3048106754463122,0.02291933510510688,nm,0.0
9.667609691619873,-15.353381692589096,-25.564894589920723,146.81104359384545,-0.8769960563346322,0.46229022976335776,0.16804244840104765,0.13328553731821355,0.16932336363678785,0.0854169317107477,nm,0.0
9.689500093460083,-16.984423599003133,-26.10985643982183,148.66105084994948,-1.2017011979821108,0.6138914581264059,-0.18744772801078297,0.16891164850650134,-0.04485342836324592,0.14306222935884508,nm,0.0
9.721153259277344,-19.898160388548803,-25.821187473813907,151.78288550227822,-0.8919977162355334,0.31964271411490885,-0.5515239185858523,0.050819584598614166,-0.11276790201903145,0.10026471152889632,nm,0.0
9.723246097564697,-20.074316235666654,-25.309522549957997,152.2719021980673,-0.6975410932974366,0.08286441002544907,-0.571161059918298,-0.02044314740779003,-0.09116805286076388,0.0850908371300485,nm,0.0
9.750190258026123,-19.43435061929354,-23.22259464522158,152.68462398237392,-0.21367297017301762,-0.09127953365271756,-0.4551063164674968,-0.2161894291313853,-0.17440660125477056,0.07640384287451957,nm,0.0
9.756822347640991,-18.688329321204076,-21.389073325878858,152.94595968174013,0.006315311602129292,-0.2255338334026011,-0.32309904845141113,-0.29144007264581545,-0.24926221323914916,0.09914458231693048,nm,0.0
9.763702869415283,-17.947835374809785,-19.15636464126999,153.48928208916925,0.20352744800979447,-0.1905620346903463,-0.2004874449546904,-0.3263107381697167,-0.3225237867002361,0.13008795100666987,nm,0.0
9.783390283584595,-15.695591509118406,-13.534259496147682,154.8538429014798,0.5613401157263086,-0.486563909609781,0.16712934318676229,-0.482877230563195,-0.4122817297337803,0.18027747422683976,nm,0.0
9.792234420776367,-14.45404550921877,-10.61356027225279,155.3924112828207,0.7766388223351818,-0.6313436522642107,0.44700081774596023,-0.4680857679533919,-0.4143699829769229,0.13910829186061294,nm,0.0
9.817712306976318,-11.840277519991332,-5.692582229559932,155.55409068965395,1.2422963430894534,-0.4784622945688713,0.9372554283558089,-0.46060645269443284,-0.27163825733169306,0.0011262768670748488,nm,0.0
9.82368516921997,-10.531725590712112,-4.0282326626989065,154.94489680647487,1.1467712399722014,-0.3946364125065141,0.9392750768561915,-0.3785355676901187,-0.17891549660968087,-0.08569359020866879,nm,0.0
9.844380855560303,-9.561219551843433,-3.0296095281022506,153.00631081695215,0.80369031126516,0.017047210850152563,0.5427920766272932,-0.05544666927052075,0.030424142111421196,-0.19616046911927107,nm,0.0
9.84647512435913,-9.837100580701984,-3.773230678436224,151.94711679926954,0.4948925623643344,0.08516417849607856,0.7065247761821475,0.11676200494559569,0.12065703360248639,-0.1988752734132616,nm,0.0
9.866480112075806,-11.589338620597426,-7.252951501753185,150.13043883128904,0.1564644958226026,0.003147441443504081,0.28944634704420746,0.3777120525311383,0.2776784333692694,-0.13078656254091897,nm,0.0
9.87639045715332,-12.865289626007511,-9.781423549964952,149.60732960852394,0.1154408818574526,-0.12304965169105449,0.184191080033651,0.47275071011605524,0.3246027616009006,-0.10388745326856898,nm,0.0
9.894800901412964,-15.057802050899943,-15.286825008401793,148.87805643105722,0.04761140306706393,-0.08646800853870375,-0.24788308624217137,0.43833501643661243,0.40015105956006863,-0.09226877590906364,nm,0.0
9.905435562133789,-15.390652868240572,-17.95485056967003,148.41588192662013,-0.11464290016057571,0.02635597177250681,-0.34397614006915983,0.3328742670305651,0.4371170659726487,-0.08858075043556399,nm,0.0
9.915399074554443,-15.214684609110373,-20.5097976672218,147.87005580300277,-0.3227472985349018,0.42454514443419655,-0.5508336463626622,0.24224266805124525,0.4663224856552211,-0.0773296658053415,nm,0.0
9.93386960029602,-13.935258226636511,-24.845378380148794,146.73217161021074,-0.4456891072469554,0.5514141967066912,-0.39432760108323095,0.13345623889946123,0.41720119911376613,-0.03194597469510354,nm,0.0
9.942864656448364,-13.533834761335807,-26.792183772840264,146.44143494587425,-0.6295327589760291,0.706978209648673,0.045193062720898236,0.155091623002943,0.3794532543439104,0.004889039911385123,nm,0.0
9.960975408554077,-13.702203653838994,-28.60571545743803,146.7527343677873,-0.8017801927184276,0.7347111899513066,-0.23159665998549006,0.12202330175921307,0.08942222461411341,0.03823519942543139,nm,0.0
9.9702889919281,-14.407830786279524,-29.131201990015903,147.41831335098308,-0.9864433596477086,0.6149476529193102,-0.1045135250846634,0.16134391499442055,0.03543943185594019,0.06684003896391177,nm,0.0
