timestamp,roll,pitch,yaw,acc_x,acc_y,acc_z,gyro_x,gyro_y,gyro_z,markers,motor_input
16.041138887405396,-8.785855202589783,5.278173747302796,143.33036799826283,-0.30573200646295634,0.594021000309458,-0.07578826990835397,0.09260641246324448,0.036493332193566215,-0.032252644977430696,nm,0.0
16.057621002197266,-9.484474240596544,5.3217493572714405,143.1979384971126,-0.3631237739320395,0.4087908641169245,-0.06672768258443477,0.10793152690328678,-0.0764402191629424,-0.01735813170197485,nm,0.0
16.059279680252075,-10.537577602711005,5.6615895173729065,143.23311347051495,-0.2761470683215468,0.35757428975824,-0.38651555020497574,0.12903303715279463,-0.16619366692720938,0.008025537059494471,nm,0.0
16.06584405899048,-11.506077008502741,6.185097083834863,143.43544168209075,-0.3763393108110604,0.16236062312997177,-0.3055408712352803,0.0938179928125466,-0.1852536451240679,0.0398067842190165,nm,0.0
16.06758189201355,-12.488744264800113,6.986280552767088,143.79134306882128,-0.3714394884575637,-0.02427454586446424,-0.2662236654508601,0.06390410305653901,-0.23107360070350536,0.07001599384921278,nm,0.0
16.09052872657776,-14.135576324345973,9.414242652697473,144.82671465722674,0.06260833653727924,-0.16865033481813407,-0.4716336502659919,-0.05786894301918234,-0.27072856849776883,0.11442239921603843,nm,0.0
16.093257665634155,-14.108511517803613,11.023455551289436,145.4955306441371,0.02769769458322975,-0.5592548284013739,-0.11354205918502801,-0.18706951857507081,-0.24755007980585758,0.11889225842038521,nm,0.0
16.118217945098877,-13.531506370668794,14.924356035023484,147.10082011266715,0.5313390879336803,-0.6811914233038551,0.043032671476094866,-0.30720377416913164,-0.26527902677688153,0.12761276691426465,nm,0.0
16.122092962265015,-12.520474201394359,16.934807040872638,147.98412156458284,0.5225817401577584,-0.7670315040034072,0.4335218209034612,-0.3792151282057488,-0.22160049261333414,0.1112232515129352,nm,0.0
16.149880409240723,-9.81127281375614,20.695671360180576,149.32884266863456,0.6704623985865046,-0.3716650279916582,0.4064404843406771,-0.4333335065800671,-0.14257095363920588,0.0035183050380612944,nm,0.0
16.151909589767456,-7.888108799058191,22.079185471440795,149.57314733614928,0.20264911559093068,-0.3356148602954063,0.7459504605996177,-0.4483808192513555,-0.04319611059142639,-0.09748443773428973,nm,0.0
16.177187204360962,-6.185689930159447,23.300695098734348,148.72375119143024,0.13199332190932891,0.46714451778629007,-0.0006640446823803568,-0.1186015362366999,0.009502880274497454,-0.1644409655240908,nm,0.0
16.179484844207764,-5.589158815012,22.934884655218443,147.96063952939906,-0.3033353891673268,0.442266353923164,0.2966728527715097,-0.053238367228551985,0.1328479361168964,-0.19039749103856055,nm,0.0
16.208827018737793,-6.5857285654437785,20.609864540159105,146.69990771432228,-0.06505146490689957,0.5624220690556254,-0.08299525295102594,0.25398315956006157,0.17376464512277817,-0.042438304014027796,nm,0.0
16.216963052749634,-7.276582716613311,18.986399844783122,146.5059353802034,-0.16782799451654645,0.22434787619551266,0.24948328464895042,0.28940220519579235,0.21274105804248566,0.014874138565557185,nm,0.0
16.222763538360596,-8.432834188137987,17.29495138935166,146.4406541777203,0.047818554806299346,0.10509128675260078,0.05860143556143109,0.3721719686860597,0.17380749985214147,0.07439197391273253,nm,0.0
16.237059354782104,-10.351865752852424,14.50721587778959,146.30271960554916,0.009875358707329186,-0.2162979620470295,-0.06867785700803673,0.28550734146115964,0.13093161957915506,0.03127379576836858,nm,0.0
16.25086522102356,-11.039569328542315,13.507657006315343,145.92922808711393,-0.08230992411345436,0.09930951927154708,-0.47738365222563056,0.22392091886231555,0.10519033684977383,-0.028298859748836353,nm,0.0
16.257219791412354,-11.069467995731422,13.041499127131543,145.310952355926,-0.3794375404629473,0.05305152565760436,-0.18566323158535292,0.05904000081199076,0.08739831385566339,-0.10702193935099534,nm,0.0
16.27951717376709,-10.885832951479037,12.14638345296221,144.19265832318584,-0.5217460057166052,0.4710098487921187,-0.2713824664036232,0.034307738325595055,0.11238413325537205,-0.11188088679852992,nm,0.0
16.294979572296143,-10.454523459275228,12.109874969607244,143.84695788503,-0.640456101124958,0.5356376376545705,-0.20285199928854866,-0.062278428653549815,0.06918207546703763,-0.09173267239875761,nm,0.0
16.310771226882935,-9.736646666083635,12.992335114485495,143.86992855294028,-0.4140000082542222,0.4918058543310788,-0.26391428132806505,-0.10395334898928739,-0.016209800278950297,0.011352822413224767,nm,0.0
16.31590437889099,-9.446801903354869,13.576086023947129,144.22676596764538,-0.44701922339569655,0.3796030996939473,-0.08859371685763716,-0.1125808380770507,-0.04793100561420934,0.053350020764355736,nm,0.0
16.3406925201416,-9.54993800422728,15.544676936583977,145.03554548676928,0.018836657053320615,-0.09253200279649214,-0.060802104909612104,-0.09270323237761216,-0.16679582983336974,0.08211169884097833,nm,0.0
16.347552061080933,-9.782606119311145,16.543283974234562,145.3507359310769,0.1267875446792897,-0.21447885483298992,-0.027382993529807186,-0.07566691906382203,-0.17630088018380283,0.07096646950848418,nm,0.0
16.367640495300293,-9.930097850642696,19.50235037597903,145.76820896553218,0.5087443675699294,-0.5596117445524083,0.22768294889884272,-0.17972548861227367,-0.24880515557749333,0.028352306323491814,nm,0.0
16.37639355659485,-9.741270300885214,20.91250333020872,146.14031253716723,0.5762785037508301,-0.5906161852535006,0.4881407985290858,-0.18554275362689102,-0.20094505024688242,0.04639376624782574,nm,0.0
16.393827438354492,-8.555114138457506,23.682676490404774,147.23741499961633,0.71362239173624,-0.5716819083990509,0.8141025440613135,-0.26504842945490764,-0.1511794163078498,0.039034136371267944,nm,0.0
16.400335550308228,-7.75918630164888,24.832635897535123,147.6577081277473,0.6355708011548808,-0.4727391184796794,0.8457660685194137,-0.2444329471953971,-0.10307491726916639,0.007328359194411459,nm,0.0
16.408209085464478,-7.105532287709299,25.552538668545697,147.74217382059007,0.43245426125862135,-0.22419742545516375,0.7610409008016729,-0.1751611927252681,-0.04573329499189778,-0.03961018106748023,nm,0.0
16.43184471130371,-6.8481593046898945,25.499088806824467,146.80474205178248,0.10306235782768422,0.09811203370899078,0.42176173470471334,0.05210316038050924,0.06194635670027069,-0.11284150173161486,nm,0.0
16.437016010284424,-7.291172455478782,24.428871405238706,146.0512992396371,-0.019241304459174862,0.20271664930657074,0.2843695912372672,0.18786781500716548,0.14676158971125974,-0.10306077652365496,nm,0.0
16.46869921684265,-9.410971182334263,18.613205366861912,145.02108411909836,0.07801898604811537,-0.08070326764415293,0.17334444818084674,0.3650482854472894,0.29601997513465195,0.048217445442520046,nm,0.0
16.49278450012207,-10.487396237218297,14.553321372803286,145.24612049369645,0.1081636171461058,-0.16063391322836615,-0.181327463896834,0.28971113098110984,0.2799375873240758,0.06472103397999404,nm,0.0
16.496383905410767,-10.583751652939393,12.996842227101093,145.24985153853703,-0.07228216530324742,-0.18792791932848074,-0.026494913184936693,0.1947144245964892,0.2589254325753144,0.017369557475454902,nm,0.0
16.51737952232361,-10.547595466701384,9.903985334763975,144.81233204358898,-0.21531374015845706,0.1971255411035998,-0.2524329191947931,0.16941763152591094,0.28402701324487134,-0.05777095319139294,nm,0.0
16.527636289596558,-10.233671784828719,8.676815075485315,144.43620725483163,-0.3583292708106475,0.35844479534680096,-0.20180910264434,0.0931469532972589,0.25006355893881166,-0.0839697480686435,nm,0.0
16.536542654037476,-9.840610226234228,7.711448195552702,144.19048809738274,-0.3116341604662626,0.4575705406517029,-0.2769728228834228,0.05082128455921162,0.2162905034701299,-0.07375792407711818,nm,0.0
16.555238485336304,-9.12030169171914,5.670194251143058,144.25407334056356,-0.48904563600275086,0.6170302046243079,-0.07197062609551777,0.0641318725421505,0.20630444873302292,0.0113423024828019,nm,0.0
16.561102151870728,-9.013587026182664,5.017254144788846,144.4398275925091,-0.3692432170191875,0.5313094167125747,-0.19425840687470528,0.0601165309748372,0.1325235495837767,0.03136577699770904,nm,0.0
16.583950519561768,-9.413781519941843,3.8956329023507217,144.71128135593858,-0.42757976392142333,0.4199324665146764,-0.152492193898127,0.11003007379488049,0.06255237242615316,0.007948574783420774,nm,0.0
16.590077877044678,-9.899411570394342,3.715819140454756,144.61644821122394,-0.3801601538295344,0.3248405877930119,-0.2890766142330115,0.10109691201458383,-0.0126958337371203,-0.031686670992197186,nm,0.0
16.61159610748291,-11.251952909294689,3.9710625483287574,144.08123012933413,-0.3778521085200158,0.190796085466312,-0.30348299568332715,0.09286352139601754,-0.10561713366956506,-0.05781166549175144,nm,0.0
16.630513668060303,-12.500710801251625,5.7348614220160545,144.18786829910678,-0.33975459932770496,-0.013812155951323258,-0.20756850240299227,-0.03706343074893743,-0.2371261180211283,0.027011825201782177,nm,0.0
16.64599108695984,-13.106169966510246,7.277038587290162,144.74796799399394,-0.207261274485207,0.07747722978573114,-0.3646914021195615,-0.07983524691349077,-0.30736773189998057,0.09946786867755501,nm,0.0
16.6476411819458,-13.208492100991693,9.28267505397287,145.66311158938805,-0.14425625560402047,0.02868774151871733,-0.37502790227883753,-0.21097036221372448,-0.3276460807989386,0.15564251155949713,nm,0.0
16.6565158367157,-12.842710008813903,11.673375742802882,146.82474206089495,-0.16940989362875447,-0.24758886010894618,-0.1736380973497273,-0.32440811382442375,-0.3445307317982213,0.1844437726589172,nm,0.0
16.6805317401886,-11.55504281190015,16.485833392624144,149.21087227688648,0.23470509665549036,-0.33084554374624386,-0.1410694999178914,-0.38630747958916734,-0.2990996092152399,0.16739592395162955,nm,0.0
16.684065341949463,-10.51812806841543,18.632761628768506,150.15212884132993,0.3662106477964241,-0.45869135242201103,0.30493356561558116,-0.3870988922271143,-0.2577879139024505,0.1131944468979092,nm,0.0
16.70730996131897,-8.220857320087312,21.90440120273161,151.06082908034458,0.7330646482650273,-0.5264001864516544,0.84040426077536,-0.35276127569233423,-0.11422743664936537,-0.040022214119123545,nm,0.0
16.735592365264893,-7.1498039033815415,23.29541023747119,150.83142582000397,0.7366121757687718,-0.06092743724541346,0.5028785479123092,-0.07116723636828985,-0.05421803845024932,-0.0656155167320753,nm,0.0
16.737271070480347,-6.8960935906462275,23.35474266986592,150.45052797449537,0.30917760469754935,-0.030336675345502162,0.6874141821809326,-0.04529533696666769,0.025507654015505223,-0.09000074832379541,nm,0.0
16.741947174072266,-7.251209526024017,22.94037175867398,149.96648538796185,0.1937642189719462,0.05043814444295682,0.4817321270899518,0.09923132023527664,0.05247867242933874,-0.06195519045679125,nm,0.0
16.751988887786865,-7.977083208657537,21.939408027453048,149.41249007428212,0.22106775527645645,0.13817519514065724,0.19813003409610927,0.21844800385054414,0.11822306159963314,-0.04757489785002953,nm,0.0
16.76388669013977,-8.681492430997386,20.466478752301054,148.8043910279338,0.04560533889333085,-0.029247994635981392,0.34809923445090296,0.26564005731807583,0.198648831293429,-0.0607112094013582,nm,0.0
16.783494234085083,-10.341696132490904,16.961073986840493,147.46142299625114,0.20381430605854772,-0.034866434106952636,-0.06591008448023233,0.30791507157682435,0.24468397592928867,-0.07890047822546623,nm,0.0
16.789990186691284,-10.647280462516397,15.360795607784452,146.76109025730105,-0.01868689101644198,-0.07895003066870478,0.08287437013948039,0.2249924607686454,0.25043057851452916,-0.0927901761254451,nm,0.0
16.79800271987915,-10.912932380350643,13.943146787168986,146.17667530347816,0.07696261250678414,-0.09846785252719711,-0.05062103634946726,0.2013203983995263,0.22158753314218999,-0.07510485105406073,nm,0.0
16.830406427383423,-11.107243576575497,10.513149148039382,145.6099813611787,-0.2738469187029514,0.2552810603404415,-0.3587352858306937,0.0920068687586034,0.13964925185104848,-0.020602386362306293,nm,0.0
16.85188627243042,-10.984318988898673,9.781017795108125,145.5849310665094,-0.4550341746137737,0.2941627804859611,-0.2782726008183901,0.0640398836537818,0.14848620980628394,-0.013354364204114386,nm,0.0
16.854737043380737,-10.85920018129199,8.976791329558685,145.59580439226363,-0.5921095873343392,0.4347198959570806,-0.2432544091470252,0.07176268593677806,0.1606893100974447,-0.005839178236956315,nm,0.0
16.85631537437439,-10.683998944318592,8.303382332388017,145.60879453886034,-0.6241005620155766,0.45372550467402345,-0.229860500275353,0.048669342591788484,0.14473495898415353,-0.0065565255367620754,nm,0.0
16.88361358642578,-10.303705174698289,7.146864798297506,145.7739732024501,-0.5272599300074702,0.4504446415660112,-0.2409677147429567,0.03735639083052208,0.12838341115383642,0.015797293756967704,nm,0.0
16.92168664932251,-9.877253608212415,6.8721646080298155,146.72792740479682,-0.424801069705728,0.33289163416692547,-0.326691115958157,-0.036148870749365986,0.0010228249421696488,0.05834466596872353,nm,0.0
16.923713207244873,-9.752078243572448,7.223226196926741,147.14403222119907,-0.44550459450762225,0.30363761642672854,-0.2988471723461363,-0.05850808126974209,-0.03147737871056251,0.06761477686532623,nm,0.0
16.925467014312744,-9.642773297818474,7.8328370885386835,147.58625615916685,-0.3870268541965696,0.26891134401015815,-0.33266893115761037,-0.0834591709575365,-0.07727232866945104,0.07127040516939326,nm,0.0
16.93296980857849,-9.474532178546221,8.626306466647126,148.04378626405776,-0.28752683544329377,0.20068122863613339,-0.3772619511758832,-0.11227196132902746,-0.1029209787630436,0.07519597870708469,nm,0.0
16.940424919128418,-9.23708038820003,9.547723943030988,148.5646700206892,-0.1725387001250907,0.11954903067401489,-0.341137751666175,-0.1363575798975378,-0.1186009393796667,0.08218677661160627,nm,0.0
16.9658625125885,-8.484407049391365,11.94571002702282,149.72469888876253,0.2508745826175898,-0.10799162768538721,-0.17024594998282686,-0.204192366819165,-0.16545735429387642,0.09293505121991753,nm,0.0
16.97136950492859,-7.973237122438874,13.320393499342254,150.3235257438701,0.4752050875982819,-0.25328295080078,0.015821541184027666,-0.22372649190309224,-0.1749977831117409,0.09247169138961067,nm,0.0
16.99597930908203,-6.829115471253108,16.177504887691384,151.3967198927254,0.8365620277555169,-0.4139956905985134,0.5210525288608052,-0.23459996088870275,-0.1858410410959967,0.04417931297828364,nm,0.0
16.998056650161743,-6.383169828377428,17.51906685423121,151.5225360040889,0.9062093977082788,-0.418324597640534,0.6739204516311577,-0.20300842413123116,-0.181927973539413,-0.006483742444298784,nm,0.0
