timestamp,roll,pitch,yaw,acc_x,acc_y,acc_z,gyro_x,gyro_y,gyro_z,markers,motor_input
10.504772186279297,-16.29940789251223,-20.015092642140775,149.10223286761908,-0.4409697731245601,0.17506794867936756,-0.31524067166830066,0.20421953669455803,0.12077299419485853,-0.09129182161321192,nm,0.0
10.523860692977905,-16.681689409884445,-20.35408051553602,148.70098483576143,-0.7850062359922345,0.2698784954460197,-0.22081303321869997,0.09657725596278585,0.03541829388258241,-0.10563096818350068,nm,0.0
10.536345958709717,-17.93340608097941,-19.997960020448083,148.47345976400635,-1.2721779304392518,0.7729090513114341,-0.21727574733354313,0.08493715044134359,-0.10232578434709616,-0.03582707730640641,nm,0.0
10.543669939041138,-18.480046220201395,-19.44674319873866,148.8894195138946,-1.3322628500279645,0.7743813572784836,-0.2213233200143682,0.030715650003471224,-0.1334611200753082,0.04769319237600925,nm,0.0
10.552087306976318,-18.856595815403434,-18.73373372236018,149.57162450706895,-1.2270352699416793,0.5056788100634105,-0.2832915914203698,-0.011913964471160263,-0.1447342966888667,0.11325635069966036,nm,0.0
10.573810815811157,-19.297234642752848,-17.582313849436932,151.05747421252354,-0.5859576132486851,0.020992720044610384,-0.3822338185550858,-0.04005578543727982,-0.08701400001130179,0.13341185812576148,nm,0.0
10.584952354431152,-19.09253933637942,-16.974774829967583,151.32740360658195,-0.17196626550241498,-0.2215768341863977,-0.40897646955157796,-0.0935193334539404,-0.07329143407985596,0.08005114945462694,nm,0.0
10.590506792068481,-18.581360802834485,-16.303938019677307,151.2219070212861,0.19107413252177122,-0.2881284824984244,-0.3870208931287677,-0.1511625544296056,-0.05619328089966975,0.01870757927354232,nm,0.0
10.61174750328064,-16.5149803183453,-14.342889881454122,150.4637284881112,0.5960487201914973,-0.38486216115953137,-0.038347161297153994,-0.3102258179730595,-0.07417834240244943,-0.02840544775008753,nm,0.0
10.623225688934326,-15.232888623181871,-12.877476703717276,150.23180249219905,0.7181066083588432,-0.6069043876154742,0.4300675093294419,-0.3624674370435608,-0.11735779691256422,-0.0017020576699216766,nm,0.0
10.64277458190918,-13.417085187813846,-9.593840296878088,150.62361383691908,0.9440605322381667,-0.29657061306856924,0.5288267139734486,-0.3267093923732069,-0.18266098757782195,0.08724387021643215,nm,0.0
10.646641731262207,-12.42917526468405,-8.147333646949424,151.1640162886437,0.876441165567833,-0.3984247552372128,0.7429869203514748,-0.3123831459196654,-0.1439303664753257,0.11522700212663177,nm,0.0
10.66687273979187,-11.434418299250195,-7.045582941731903,151.62655639768272,0.8460009094266736,-0.24034372902476295,0.4743605820719618,-0.08375072189179107,0.024163431485860264,0.01688369489465787,nm,0.0
10.678032875061035,-11.28234806057587,-7.659165260269011,151.18831545530296,0.7217516244774875,-0.28307068482121467,0.62157266431154,0.031411634218663526,0.1366403956196998,-0.07708774813098837,nm,0.0
10.696139335632324,-11.847582091699154,-10.424000337372961,149.27178039148183,0.4815080414919691,-0.09710162161922459,0.2909056065708443,0.22434957735536534,0.2611321102189202,-0.2108648655159478,nm,0.0
10.702961444854736,-12.402494421577817,-12.474579230264839,148.3442583247861,0.2842167007778174,-0.02369262626959195,0.2219532794516401,0.3057584423655701,0.3090958740135049,-0.19579752955032806,nm,0.0
10.726948261260986,-13.873343522231767,-16.64648403120299,147.50308222295774,0.015674181554579242,0.038032874918828403,-0.02412535946135137,0.34022011649144784,0.279856973415382,-0.07382110680912285,nm,0.0
10.735430240631104,-14.6366130953933,-18.602072395809678,147.55524892465405,-0.12763523473532026,0.07086122066506635,-0.1579917270085373,0.33342322671433694,0.26635176377189174,-0.017905384488137964,nm,0.0
10.756020545959473,-15.483684185889892,-21.941436794729064,147.71626246253953,-0.48940531563756035,0.067145036051309,-0.04033701595991871,0.2010182843032743,0.24483491668185942,-0.0022342673749298865,nm,0.0
10.759765386581421,-15.737265644858923,-23.45925411313824,147.50546634127434,-0.5535702321857667,0.3077235411375681,-0.48520392815789587,0.20274725852866382,0.2458454124714016,-0.04950910652180323,nm,0.0
10.769899129867554,-15.804862220637572,-25.185131911814153,147.15292289994576,-0.7676852484906111,0.4121593825450896,-0.1446705888811078,0.19753096729168887,0.29848983010329433,-0.05964099116684287,nm,0.0
10.777506113052368,-15.733579646549742,-26.620751455322768,146.7145210011529,-0.8988821085208712,0.43124908297864484,-0.0358805421363271,0.14676477129158197,0.26217538529469936,-0.06756520654878212,nm,0.0
10.788417100906372,-15.760219711700593,-27.750456365305254,146.34059724513625,-0.947012073860054,0.6703536745745501,-0.30815403157298876,0.12953909518581908,0.2002915554762625,-0.05756965107280832,nm,0.0
10.808357000350952,-15.853370105436074,-29.577595476266122,146.60986686392343,-1.001569451965029,0.5933147691744595,-0.23019413232345104,0.09929119388459176,0.1350604299670296,0.07097890186580635,nm,0.0
10.817708492279053,-16.059882186944492,-29.877938858291007,147.1892691245213,-0.9052441311179109,0.5708977084198033,-0.34035610758002016,0.06347194249075078,0.04504807941198112,0.09770466543946739,nm,0.0
10.836490631103516,-16.082389078519906,-29.45170986866615,148.3801522865315,-0.6423639187792619,0.23165198808274215,-0.38552808829060803,-0.04528544203774874,-0.036405422438427044,0.11914633444615652,nm,0.0
10.847597360610962,-15.901413792141675,-28.74657441182178,148.65571462214697,-0.5343487525197691,0.22252509606599316,-0.38306865653434286,-0.1006148345154347,-0.08957257928837983,0.07483401420391425,nm,0.0
10.868103981018066,-14.94836819346613,-26.122329589438674,148.69978455116228,-0.2666583201027314,0.06835728253484465,-0.27752009257528665,-0.2285417881207838,-0.18816629752545422,0.013855409881886924,nm,0.0
10.874512910842896,-14.531158124631363,-24.398592511901757,148.70374743734817,-0.15642582495029625,0.09202366750055342,-0.18161020424994698,-0.2436914083675323,-0.24157687130632768,0.010456572414858027,nm,0.0
10.893675327301025,-13.836906571418893,-19.8604610146652,149.2705731349327,0.12234951267558773,-0.11125501073776585,-0.02943197426341421,-0.3012301957747432,-0.37244311317206774,0.0739534701455706,nm,0.0
10.905290365219116,-13.67019652144659,-17.25657991549899,149.88320820711652,0.30516374184705447,-0.21621985800276422,0.03029633773551643,-0.29121159422781234,-0.4195981174732574,0.09769947245254612,nm,0.0
10.933839797973633,-13.171629677387529,-11.88963380082283,151.13370639069532,0.8168677474368057,-0.5348102862435175,0.24624912688363265,-0.3150544823970198,-0.4202387750729887,0.08898644460425113,nm,0.0
10.936139106750488,-12.831294267179702,-9.50785926201939,151.38642703043848,0.9694539291098938,-0.5120317481466775,0.22322150332434473,-0.2885552444858491,-0.37190788218265686,0.037318167016153904,nm,0.0
10.944014072418213,-12.38988092178771,-7.4877528257791015,151.2730300450527,0.9240330346355407,-0.4488748084955464,0.28483180546204373,-0.2714240093195932,-0.298822550141502,-0.02805663247427615,nm,0.0
10.967364311218262,-11.927962707361164,-4.91818917489406,149.92819975921245,0.46019186822601477,-0.12698506155681544,0.37730544876048566,-0.11367799733934911,-0.14619334409351753,-0.15674022490331907,nm,0.0
10.972852230072021,-12.048444112669511,-4.61633016781541,149.10054599329084,0.15127652138736997,0.044469077344116474,0.47321784987844845,-0.010211593506319413,-0.049976114390615854,-0.1747244481890939,nm,0.0
10.987251281738281,-12.349461447409253,-4.920287846542793,148.38102411250077,-0.024517006398109012,0.2163147037579564,0.29621930258596413,0.08282856043573511,0.035212743803693485,-0.15782261743038384,nm,0.0
10.988847732543945,-12.655400682702243,-5.770377866554584,147.86095712186847,-0.11426537611771291,0.28787080788682234,0.21094638684806713,0.14171867544283426,0.12668511259813606,-0.1114920788096805,nm,0.0
10.996709823608398,-12.863842841635508,-7.044140906389765,147.4585606628462,-0.14578488798559408,0.259515032745142,0.1445953503011572,0.1718350209689737,0.20746685765305317,-0.05785227476382937,nm,0.0
11.007534742355347,-13.00782714967344,-8.564910975896934,147.18891072337323,-0.09384960833490401,0.20581882988978425,0.05720801376424626,0.1889802643600602,0.2550037623680701,-0.023011754152560956,nm,0.0
11.015440225601196,-13.057610981736072,-10.196521410307454,147.00028739289456,-0.07240389400015065,0.24081666724829154,-0.14689217331418128,0.1862206638186504,0.283163768740771,-0.014705999461531442,nm,0.0
11.04065728187561,-12.94132956300975,-13.020640299478984,146.21116102301295,-0.16543666243151095,0.3381930449264821,-0.35358442130901324,0.14141021001170015,0.2345637076229704,-0.07658425651475623,nm,0.0
11.044086217880249,-12.930008828765184,-14.214818925187416,145.59609549925423,-0.37464257276447477,0.46667661862164367,-0.15812288865445134,0.13291380460166377,0.2135441705906401,-0.0987405557708017,nm,0.0
11.070130825042725,-13.463701943300352,-15.571860931717385,144.61944640926296,-0.6914741360120188,0.660228065744361,-0.21292698953791359,0.12249764148962691,0.048783492721754806,-0.09484447720365745,nm,0.0
11.073667526245117,-14.103736587068637,-15.84648002492378,144.5783712235091,-0.8156063510120207,0.6193956345075283,-0.1769675678447719,0.13323396690634406,-0.012179632594465141,-0.04980335637269467,nm,0.0
11.093735694885254,-16.1181521346985,-15.33578775198052,145.28142553612872,-0.8299770111395015,0.3041557096200992,-0.22612461746698792,0.12166754158624321,-0.1859990215728607,0.02201386594012128,nm,0.0
11.102073669433594,-17.456110250101684,-14.50549837724484,145.83669689942715,-0.7120713789605602,0.11986053151564367,-0.33070209521621147,0.12030114278854052,-0.269037594205234,0.03251912669192022,nm,0.0
11.11119294166565,-18.80780954284579,-13.405190113726999,146.4399202517101,-0.5152134815426476,0.18688605831959834,-0.5512287397051417,0.0962133759405459,-0.3148124305430223,0.03966991591147207,nm,0.0
11.13425874710083,-20.02959901104234,-10.252079226724405,147.38127905631364,-0.3539932779707099,-0.22351275438387733,-0.563547907580021,-0.11243437141635945,-0.33021284945959534,0.05557434116614522,nm,0.0
11.145450592041016,-20.10670263002691,-8.228216859964872,147.76613567645822,-0.14184792617822212,-0.22402167249254365,-0.5364178721296893,-0.20394354439556991,-0.3359108753416952,0.06185144840038602,nm,0.0
11.150365591049194,-19.565850979227978,-6.100821543255508,148.1801774116248,-0.012999429504365284,-0.4452957923921203,-0.22926183980170795,-0.31683476704028657,-0.2897123707351445,0.0962509348237918,nm,0.0
11.172598838806152,-17.549968151599927,-1.6920087204307688,149.36553663706937,0.5234256093847768,-0.45317671829386663,0.14830726731384125,-0.434668374280566,-0.24612812773963394,0.13978665103662802,nm,0.0
11.177258253097534,-15.752092327595351,0.4485169548446652,150.0787641840022,0.8203068939975815,-0.5097540101045918,0.22239624466915622,-0.5272704005983553,-0.17427305030842238,0.14485618583451326,nm,0.0
11.202575922012329,-12.192600020108685,3.802384158241836,150.99833255550308,1.1398514178510424,-0.4102055786530374,0.7621546940704763,-0.4016833749324776,-0.10633261722969074,0.05218639259244382,nm,0.0
11.209155082702637,-10.538132722454641,4.895524770212559,151.03437182897935,1.1868766387887937,-0.28225635505050034,0.8828600148980325,-0.39542507400108395,-0.017376416585939997,-0.021395820702615764,nm,0.0
11.216755390167236,-9.088824807606073,5.4936302384774045,150.66576236651727,0.9995500287529646,-0.30605495876751415,1.221025847046134,-0.3110146132203135,0.050307169270350886,-0.08926155919414511,nm,0.0
11.240534543991089,-8.230803540008154,5.300345060932113,149.41616023688283,0.8271896263702063,0.14412148247703632,0.9550591167860817,-0.018437079008841076,0.09583139664584323,-0.12110611124730185,nm,0.0
11.245356798171997,-8.469523170073618,4.549776685563127,148.9832192293754,0.6453294261895597,0.10375556962079667,0.8637119939690762,0.11795473862125097,0.11859086324854144,-0.07917172079744607,nm,0.0
11.268720388412476,-10.165674058705735,2.0165723375353095,148.76668769987128,0.3364326003477909,-0.05879809808893198,0.5453205094428534,0.3007301683695963,0.15650893217929251,0.014709624674393372,nm,0.0
11.283044815063477,-12.46207633761629,-1.2577235883097075,148.50059660389445,0.117963906073961,-0.18617051359030723,0.10796012872763977,0.37435615529112887,0.18875026995204292,-0.01719739372302852,nm,0.0
11.29291558265686,-13.441673562940554,-3.1081791601635502,148.08972768427336,-0.04239923520151641,-0.22625132994652572,0.0264818078049782,0.36172373989688567,0.2262654337935043,-0.0738716090996101,nm,0.0
11.301714420318604,-14.274396543673463,-5.037635356177655,147.42560837086987,-0.15462163676722587,-0.0993782422101275,-0.15959088636470334,0.34716217191335974,0.25219391090300314,-0.13178746750925055,nm,0.0
11.3255615234375,-14.965334903446305,-8.932051865793003,145.86249289827478,-0.4426024719246102,0.1689216985554732,-0.21903378532341095,0.24802276525018938,0.3133532764043443,-0.14821014921795017,nm,0.0
11.329591989517212,-14.920175988966303,-10.688044142194213,145.23290505095179,-0.5711908940520944,0.3964584332271009,-0.24381524794527024,0.1925627963553422,0.30922612379906433,-0.10333831951974953,nm,0.0
11.353801012039185,-14.695167984638704,-13.719491691286244,144.93890698089334,-0.5904610873707365,0.45984348773054096,-0.2943683717444291,0.1705332437483428,0.2679899619614074,0.01927057557066589,nm,0.0
11.360703945159912,-14.654203199515297,-15.096099772204816,145.0639788403842,-0.6535861500001336,0.4190316424865413,-0.11257137230830441,0.1526222207564394,0.24459727974199355,0.0576227015526969,nm,0.0
11.385416030883789,-14.78996738021314,-16.983479397430674,145.29592854070262,-0.7083430238665238,0.513106626986051,-0.4166869497678327,0.11691601822247188,0.14404031701115655,0.021110919905194772,nm,0.0
11.389266014099121,-14.82526377122839,-17.828286455133895,145.27689129384027,-0.7698514319383551,0.5136051511023042,-0.4351822499801067,0.10261960339866953,0.14960513334249723,0.0033802312842854706,nm,0.0
11.396030187606812,-14.87940883447086,-18.481605543350742,145.12353161421504,-0.7979057287633992,0.4888312679156008,-0.3465318608276638,0.08391328288248606,0.11592094909030339,-0.020509911279865442,nm,0.0
11.417645692825317,-14.960499865075496,-18.868074878785723,144.9616255197199,-0.6486531166159941,0.3731109566754693,-0.3998395801417096,0.0,0.0,0.0,nm,0.0
11.425065040588379,-15.045188673136261,-18.651616960848564,145.19268280157794,-0.5769183143977361,0.27043496182449667,-0.31334708087606183,-0.010917295373362411,-0.030307212148046332,0.041359893585878604,nm,0.0
11.44996428489685,-15.204234409830585,-16.71442435866861,146.3342940356466,-0.23704526175711713,-0.05974452269129302,-0.333620074259558,-0.1236387822478285,-0.19193264152699518,0.10845564038810694,nm,0.0
11.457128047943115,-15.192089315274174,-15.168137165819724,147.03439651275937,-0.03902013310514876,-0.18598205953869362,-0.2757195713388824,-0.17161589478930322,-0.2431069019932158,0.12792225314911404,nm,0.0
11.488093376159668,-14.94628901570858,-13.261514120454779,147.76465387336174,0.1731430561914908,-0.4005815711353194,-0.07413113198690215,-0.24551624036970277,-0.28173791156476136,0.1334055266787477,nm,0.0
11.490214824676514,-13.853480518394791,-8.799202756970557,148.90108967989,0.6113326035389802,-0.48231462989898705,-0.0030423790440613357,-0.34796021717150477,-0.30666820060887967,0.10964724221660674,nm,0.0
