timestamp,roll,pitch,yaw,acc_x,acc_y,acc_z,gyro_x,gyro_y,gyro_z,markers,motor_input
53.01359677314758,31.48538384228026,10.926389004664415,6.092143889668033,-0.21951410971078442,0.6174010584139613,-0.7912620171351167,-0.6005738398552927,-0.017348762486760372,0.2448803068307176,nm,0.0
53.01792120933533,28.100202270087735,10.823383536202265,7.033418436191226,-0.45576060167241206,0.9600983108988879,-0.1316260622217139,-0.6526483125738229,-0.10346781618768895,0.30532179874200815,nm,0.0
53.03923463821411,17.98900489689786,10.384694033334213,8.406920022385773,-0.9140369751569406,1.78302384031373,0.24353997429277507,-1.1037480265963528,-0.20817116983175682,0.30090560594688026,nm,0.0
53.04584288597107,11.641127164005463,10.213932985966236,8.44753944443137,-0.9709955033281626,2.1467798633086046,0.5163434949048041,-1.2247012289749521,-0.2261751299116777,0.22697488025724646,nm,0.0
53.050458908081055,4.555711839443221,9.886175008094742,7.988023015836427,-0.9708132924877589,2.5683544070836195,0.607775953679937,-1.3655713200515929,-0.2744876568933998,0.14859371786329545,nm,0.0
53.06894278526306,-10.460077939378966,8.165652524620814,6.236172447293956,-0.9131352789639647,2.592959621778923,-0.4741775334324533,-1.4124517954061473,-0.3903462046238219,0.03286923061221876,nm,0.0
53.085410594940186,-16.957927259629443,6.806932420191825,5.484715276425722,-0.8947871777455548,2.3574785514500474,-1.0406361060576583,-1.2469059552432977,-0.41475386991121144,-0.003251685758881351,nm,0.0
53.09488320350647,-22.211925378790927,5.2912810329761735,4.762533484108098,-0.7960381147781571,1.6874949457384074,-1.7424981844750014,-1.0066262013365295,-0.4072520040692686,-0.034699379434514996,nm,0.0
53.09652066230774,-25.595221451003376,3.8178606767964984,4.10068282257683,-0.5999955627289842,1.0446056379347364,-2.0034579560531314,-0.6422596699685755,-0.3580931186026385,-0.07883602558005179,nm,0.0
53.120039224624634,-25.233920220041654,1.4608841202181753,2.4981363599856308,0.20119494452068568,-0.39660684014370995,-1.8644336937739394,0.3335686859332181,-0.20973540918086567,-0.18344591341309419,nm,0.0
53.126338720321655,-20.139172420939143,0.7197311542264806,1.5734607834991832,0.8515666775620507,-0.619978807451065,-1.0259273470566364,1.0323762510761054,-0.12414897777271873,-0.2053679160814315,nm,0.0
53.152175426483154,0.4035180776074205,1.1588090868354712,0.4967396654608453,1.9751450251456089,-1.243047047746139,3.545255549315869,2.3256967830483495,0.12910605362215005,-0.09706993843192521,nm,0.0
53.1554491519928,12.95829438213263,2.1854002575338543,1.1225377583195666,2.0280299041813903,-3.0524524833373237,3.7288065476400516,2.517140073895106,0.2304536272681149,0.04372197876089638,nm,0.0
53.164674043655396,25.996931183734926,2.8352371130655456,2.610006446184683,1.783455877843715,-4.007838988825756,2.8162439761460565,2.6100901309084605,0.20679282315291364,0.17236098342844647,nm,0.0
53.18798470497131,47.693435176901176,1.9390813856346483,5.469284152859351,0.5184254266699657,-3.0640656981386667,-0.043948426530110385,1.931043379673366,0.01986203154298903,0.14520477642509963,nm,0.0
53.19727063179016,53.941315855621866,1.4025663266724764,5.754016289750283,-0.07215131449090333,-2.350777382616199,-1.1073166319714884,1.2623450183867049,0.013591702802745208,0.008185551788662114,nm,0.0
53.200899600982666,57.250914489504275,1.6675314372958634,5.39520871254156,-0.44918002259449014,-1.5969455020872219,-1.5291439083335605,0.6613640251605082,0.1159041435529303,-0.10205798954853763,nm,0.0
53.21051478385925,57.87394494510954,2.9645129417391876,4.83407776099026,-0.6518355809284031,-1.1942609091042249,-1.3931561038774194,0.10789240994962067,0.26858318985875007,-0.13007499773764636,nm,0.0
53.23522448539734,52.27354001623326,6.674356545923607,3.3720847412052795,-0.5937646292706217,-0.39210435058591736,-0.7811032161494604,-0.7687485759313462,0.3008058996047012,-0.10099315095340564,nm,0.0
53.26007413864136,39.002247663317476,7.84507216546099,2.4939772479157654,-0.18386730087342346,0.22791824187851162,0.35929227932203067,-1.4924410713848442,-0.0383426704517403,0.1630665013898713,nm,0.0
53.26206994056702,30.562179201162213,7.427597397879275,3.1239721310979203,-0.24398024659970147,0.7782618210795179,0.8426223489217994,-1.6625606193190892,-0.17229387954027559,0.33954164053071695,nm,0.0
53.292582750320435,11.397965550875895,6.675383208664299,5.380653872748287,-0.5793674819642887,2.584729396963548,1.7194564768067795,-2.003717841564065,-0.21706089507300982,0.4534545007682445,nm,0.0
53.29455780982971,1.1145836605573953,6.8971710052907715,5.904456258155891,-0.8899090746840488,3.0946679440285516,1.0331292479112115,-2.03139961886812,-0.1674583610615162,0.34183206317155707,nm,0.0
53.2965042591095,-8.549290137524478,6.927466812546667,5.567566046164909,-1.0536875194502782,3.4285670296692174,0.24942438202625966,-1.9039474526427598,-0.1972085522576653,0.16143164017793568,nm,0.0
53.32077765464783,-24.583434496681182,5.158254200909004,3.278253100599287,-0.6554199702908918,1.8676987151593678,-1.9471303841210736,-1.376802754227133,-0.3412415258109054,-0.10982806300729024,nm,0.0
53.32501697540283,-28.88956788742977,3.75126237307876,2.252080298355338,-0.3283168748864525,1.4136269007063025,-2.199023392262003,-0.8371523139953432,-0.334801322570105,-0.1378336701894331,nm,0.0
53.349053144454956,-30.63516129584375,1.7631777633545096,1.426822935693377,0.3585652580076594,0.04770314606007963,-1.9498229999249224,0.08750627352249585,-0.15691835034565343,-0.04342190105733472,nm,0.0
53.35302686691284,-27.218463532678175,1.6095780359676666,1.5792586317799007,0.5578395191101481,-0.09713738503280124,-1.3433491732291107,0.6922005511343394,-0.02497917442279902,0.010883660254676134,nm,0.0
53.37669396400452,-11.226591911365777,1.785197636126569,2.7617374670947696,0.948402150011744,-0.06757595330974007,1.209841751945072,1.9344219439991122,0.08296219819729027,0.07855497236799258,nm,0.0
53.38230228424072,0.2699115988295478,1.7284023639764483,3.42127639237636,1.1353588783795021,-0.9039084013182429,3.091065101716089,2.3061933177135807,0.10191135346403912,0.05574321471335415,nm,0.0
53.40887117385864,24.948172145520367,2.265052128871029,4.3495224580774225,0.982371587248549,-3.520278723225117,2.784701795230113,2.4919317299754584,0.25342164401926937,-0.01511822157468888,nm,0.0
53.41059231758118,36.166916120885624,2.877882330703596,4.655201723314798,0.7623279707610037,-3.5216597672254157,1.075816840718679,2.2349921994246977,0.29250953232531757,-0.05089459022403352,nm,0.0
53.439610719680786,51.440015123821446,4.716724313186368,5.018312361016768,0.33454015337422266,-2.552493771999286,-1.082585324520574,1.2313832113091923,0.30638162709280287,-0.07401445005824876,nm,0.0
53.44177031517029,54.83966772384414,5.786863644076826,5.089529175046747,0.07211153655478654,-1.8732532705213503,-1.6649536844890729,0.6626998711312434,0.2712482545124071,-0.06093024682054617,nm,0.0
53.4495906829834,55.878340966622794,6.757349402924673,5.050576327439936,-0.05818461127626641,-1.4474548611287026,-1.564594731052766,0.1948419428106431,0.21017070045480532,-0.043540934449429566,nm,0.0
53.47263765335083,51.78568791772672,8.204220765933897,5.064120699977337,-0.2751539092975578,-0.5585415165145947,-0.762079240396237,-0.6000352868028522,0.0712860819555447,0.07984953206266841,nm,0.0
53.47983431816101,47.16127716756615,8.6182032835647,5.185080237373474,-0.3637740131384027,-0.12090346918015742,-0.26135269496761043,-0.9138413214235871,-0.0027980940068513837,0.14693190900386158,nm,0.0
53.50158071517944,33.64040404075971,9.042778595393315,5.549437516919158,-0.42869227612157784,0.7783551894544501,0.35465632979358874,-1.4418374042950726,-0.1067997393087806,0.2585189628058278,nm,0.0
53.50592088699341,25.88501255538985,9.172817781195846,5.737051459092924,-0.3683223873120022,1.332225850801043,1.3540514722712556,-1.5219239672915037,-0.1322928432974629,0.27279175145479817,nm,0.0
53.52870988845825,7.268441914063328,9.103392343747789,5.570175532771091,-0.4989001407380629,2.5787050801802986,1.1489374429869854,-1.8925844810150216,-0.22093736036105624,0.26522120852863856,nm,0.0
53.53701829910278,-2.081117291683432,8.72002314936109,5.29316905464792,-0.6561670277387989,3.090212100555641,0.8604609649564895,-1.826362517521767,-0.26218745879903066,0.22899146037329154,nm,0.0
53.55837345123291,-19.1173354613743,6.959189105628848,4.7948322428051675,-0.8913306811211721,2.4717386740087486,-1.0884976246863436,-1.558382160378993,-0.35069017095309046,0.1666848615367887,nm,0.0
53.56170439720154,-24.96341665495427,5.8979147660206195,4.749827725232968,-0.8650421548294694,1.988264242838724,-1.6417398026091083,-1.133191265773331,-0.3201247426071496,0.12151767237877678,nm,0.0
53.58903789520264,-30.284036704546317,4.135359684221893,4.711417147578484,-0.43338182077207815,0.5521047677205985,-2.235733396850275,-0.2986880030028832,-0.19826163394064053,0.015899015913241405,nm,0.0
53.594234466552734,-29.149113998687604,3.5642093402390804,4.496692630579917,-0.014721583398565713,0.08420538321575527,-1.934372251078592,0.24360424174349968,-0.10752522152380947,-0.05759456130113273,nm,0.0
53.61561107635498,-17.837855792443342,3.400491417419342,3.5918512638720004,0.9099477193194037,-0.36414735280958044,-0.35395395582868233,1.4528898688837866,0.10317437945969071,-0.1822320033411628,nm,0.0
53.62078285217285,-7.348126948547653,3.6854823653763615,3.336906053185674,1.2455842526607726,-0.18772437684167953,1.8770610997430255,2.097067148794626,0.17203828172049182,-0.18472073711342557,nm,0.0
53.6457200050354,17.770573976804783,4.564312538858291,3.94314344424245,1.5131848581975438,-3.0457751567561178,3.364889640315936,2.606204706084963,0.25725553813741825,-0.1009938256094515,nm,0.0
53.65246868133545,30.647919614856605,4.788370974769296,4.664929328969491,1.2104860586486146,-3.81788505835802,2.5080809073967134,2.5664587980231843,0.23079497101145502,-0.07699026397888886,nm,0.0
53.656872510910034,41.56601491314422,4.739718905042843,5.1753999717465495,0.8143257455808571,-3.5084640648916956,0.4905442437827826,2.1783425337202873,0.17264424682953552,-0.09152144245434533,nm,0.0
53.683112144470215,55.90597849704106,5.141963928963227,5.274968365546676,0.014999746534679021,-2.0845894274131185,-1.2460128014843974,1.1306498177676902,0.17797902285458034,-0.13417161062202707,nm,0.0
53.688509941101074,58.40757996172568,5.90129786240919,4.854334599438421,-0.22976704875274329,-1.3690368471369831,-1.848797818052897,0.48943703569283437,0.19430757763006523,-0.1454222341279163,nm,0.0
53.712496519088745,56.741207420773364,7.913101976001912,3.904718825714534,-0.5156037503672917,-0.6476110671464087,-1.1067758809781443,-0.38848834900828366,0.17165473415855015,-0.05373410548932897,nm,0.0
53.71417045593262,52.57420140318376,8.610463128360953,3.530465506895408,-0.563938490276756,-0.3047680323645884,-0.7457063923668641,-0.8273356723318661,0.0831884272746685,0.031934678679187485,nm,0.0
53.74079489707947,39.231372220138496,8.672810073743927,3.6966789563549347,-0.4435688729315644,0.3920043153990127,0.5209349775791581,-1.4777892480328956,-0.12676588352834217,0.27574342919123407,nm,0.0
53.745323181152344,30.55539606685766,8.38119459879979,4.397976282836341,-0.43164828983332804,0.9096258366521293,0.8258996304882987,-1.7033267411883373,-0.18613097991853206,0.3866952560382799,nm,0.0
53.76716876029968,10.989632866738631,8.008271387914952,5.923100929191501,-0.4691256897985712,2.5805830427619183,1.660290848258732,-2.0277408084874673,-0.2331918559290078,0.4115236746173813,nm,0.0
53.79112124443054,-9.557731739593875,7.569781265425585,5.7578129373229086,-0.6661913003380366,3.322394728301378,0.18028174401801292,-1.9433128485618962,-0.2873851431016691,0.18764022902069086,nm,0.0
53.7929208278656,-18.56313216763593,6.645756110083147,5.011750384003512,-0.6256833289396753,2.7415268900327576,-1.1800743602067965,-1.755899878308136,-0.3634263731788001,0.07202765097470497,nm,0.0
53.80092787742615,-25.54295036793332,5.190524739657526,4.275738260299367,-0.3957517630174217,1.5664045474768507,-2.206057384649373,-1.3537865938930034,-0.4144448163215274,-0.003418157006294169,nm,0.0
53.824899196624756,-30.452013992574845,1.9802112259880809,3.7676478326591996,0.20279465189629858,0.42772412806017984,-2.1373386111429857,-0.1884267663267742,-0.3307787357258542,-0.005509674031768368,nm,0.0
53.82814073562622,-28.551366347099147,1.080561350437222,3.9203946752887555,0.5123566340992008,-0.14966514531952005,-1.2769378602589199,0.39992895418935037,-0.16605333671168784,0.02126745444775991,nm,0.0
53.852540016174316,-14.481230915623637,1.6353484171304145,4.919831744374589,0.5981720174379773,-0.13781160590483993,0.283026501912554,1.67887518642309,0.2344637591172129,0.08186827741198373,nm,0.0
53.85838484764099,-4.151048715994551,2.1849508386277985,5.663501106542017,0.9546338322756162,-0.9214637520285196,1.5028191439934355,2.056833008060256,0.2890491362877766,0.07508621078252858,nm,0.0
53.880911350250244,21.444812159958616,2.107169723632853,6.812665741724953,1.3395542888073533,-2.8885345029068197,2.9959876917043227,2.630410513197081,0.2486095693678371,-0.022678575429078186,nm,0.0
53.8864164352417,33.14637918781378,1.5123406158990969,6.693784232388769,0.8523677183217889,-3.6141115995126607,1.4162401739325268,2.3475493114214525,0.15165769757376263,-0.10831985753153678,nm,0.0
53.91251277923584,50.739012096077616,0.6464662406756317,4.699323675554434,-0.3636422280508185,-2.7763067607723473,-0.40241006300713406,1.4987413855342202,0.10128130310292395,-0.2725320643105923,nm,0.0
53.91425156593323,54.623576914597905,1.4897408395082323,3.6082631394224625,-0.6783410374756742,-1.6092765894676324,-1.5029532606843765,0.7706656133649874,0.2226525553273614,-0.24525647888909652,nm,0.0
53.937615394592285,53.796138546651605,5.365991073614785,2.430807335638368,-0.442352604839321,-0.8385188699509084,-1.1892105372812363,-0.37316591404634514,0.4090763248198955,-0.07757385638483143,nm,0.0
53.94602012634277,49.689239575492266,7.203842888444413,1.9686260777623645,-0.14053175129496376,-0.2963036099495998,-0.8083835608408265,-0.824970218633426,0.3329054899100821,-0.01525209272061983,nm,0.0
53.97425699234009,34.824520333548314,8.524939723953421,1.1924570055617887,0.12027528321042529,0.37297576937031324,0.6768557359387425,-1.6852161651135842,0.00648192116687618,0.18033971236128798,nm,0.0
53.975945711135864,25.098680025054968,8.254915153904832,1.3163728535228068,-0.1374609125105979,0.9704409594975394,1.2465835484989998,-1.9188562773260556,-0.10410111073328124,0.2985832996999895,nm,0.0
53.981730222702026,14.606545955418175,7.754665289770459,1.777222952127486,-0.37581348040237617,2.075870070262032,2.535209114462072,-2.0704939904873156,-0.16551974158582922,0.3759478298098173,nm,0.0
