timestamp,roll,pitch,yaw,acc_x,acc_y,acc_z,gyro_x,gyro_y,gyro_z,markers,motor_input
66.51448845863342,-17.201030311865406,21.781147339396114,-79.87329188362432,0.6370640672925328,-0.48238215574209675,0.09838483492818878,-0.44591060628658025,-0.32794148620081554,0.01351922443785389,nm,0.0
66.53197193145752,-15.04200820429413,17.174576058430404,-78.73178941875508,0.5723691968741037,-0.47040993759748684,0.6313570270973216,-0.41230378711392995,-0.2720260338137831,0.06694650954310347,nm,0.0
66.53515028953552,-13.786903142158653,15.257634837010018,-77.98952669629396,0.5205870545910003,-0.34102917044628417,0.8016172044786178,-0.33803144197606266,-0.32257017001684,0.08875311661021511,nm,0.0
66.54406976699829,-12.508406217081628,13.788709947799925,-77.15529253267067,0.585426522599926,-0.07229989143417165,1.1227001663107732,-0.24455749242782682,-0.31426303080425994,0.11860079267596181,nm,0.0
66.55342555046082,-11.739146943804316,12.87570612834789,-76.28462282735484,0.33068870533316524,0.09127380725987834,1.1328835698079915,-0.15383887684321623,-0.1970975534526918,0.1501627796036188,nm,0.0
66.57843327522278,-10.57906213000462,13.709550633255947,-75.34383188061724,0.5465442803185001,0.3237471328901344,1.509395533887154,0.1855474339170909,-0.06115953650006519,0.061719333687765304,nm,0.0
66.58863401412964,-11.055802096942793,15.273038618068957,-75.6283923147523,0.20923778564059256,0.2676593716575952,0.9063864400727515,0.2700688946732865,0.15825409926724457,0.0001837843000595415,nm,0.0
66.60844588279724,-12.62803490636412,19.33977982523417,-77.48379317070109,0.2796388724601102,-0.248778835883715,0.7884641054378311,0.36590311669990705,0.24580498728915637,-0.12224956587762915,nm,0.0
66.61248874664307,-14.254191111984863,21.546003700029658,-78.64788297507893,-0.052414672806938095,-0.37534341333328036,0.22603177605540303,0.35907913485657106,0.3807431627995554,-0.07931464165337324,nm,0.0
66.62043738365173,-15.907287644426283,23.77175907384496,-79.62645974766392,-0.04836206236773874,-0.38108573664795375,0.08480032520158273,0.3698670987589719,0.3750485225081384,-0.027964676692467987,nm,0.0
66.63392949104309,-17.725509992316358,25.95431759904937,-80.35908737758554,0.042532281338451806,-0.2746064535915591,0.00837834404264141,0.3626945236949056,0.3923789391337562,0.05274508615332105,nm,0.0
66.66010570526123,-21.70750262172115,30.20351597617497,-81.38370709577296,0.030856634780760398,0.18466859843727002,-0.22666511132018186,0.3532112180781239,0.390060438934153,0.13151037224178408,nm,0.0
66.66169881820679,-23.785722010002676,32.135485457419854,-81.99085496877365,-0.029643423859855696,0.4069861052179142,-0.39597591558201567,0.32048969234594554,0.3998297382697711,0.1248243851246499,nm,0.0
66.6708071231842,-25.81712015340645,33.77877887750295,-82.81319196117906,-0.1295414678801136,0.5252160861737605,-0.5697220523079682,0.2700083190512969,0.37356142401091375,0.0827943678075562,nm,0.0
66.69192695617676,-29.182077174784556,36.02052323960385,-84.7509605936902,-0.1979794165369121,0.5185973936777426,-0.8091909133954295,0.14989710032441753,0.2649650608327865,0.0028256864884607844,nm,0.0
66.69502878189087,-30.188069875740144,36.616944874996165,-85.43292103073075,-0.22729698489639183,0.46470814040279795,-0.8881608829673773,0.0933887390535835,0.16418586205012892,-0.016347352450860237,nm,0.0
66.7073724269867,-30.539741466299763,36.92821417920651,-85.71959654556947,-0.21963756874592721,0.43913754926484494,-0.9129503246914135,0.04601470955114962,0.053359570255836056,-0.018551348689141458,nm,0.0
66.73126554489136,-29.24158215293814,36.68645346570416,-84.97578577535505,-0.19598061503670927,0.44983613025592173,-0.7669586049591046,-0.053726783961528336,-0.17091364600165423,-0.017070258258612372,nm,0.0
66.7346203327179,-27.776870800843138,36.07017266852317,-84.16034743303597,-0.16745861219490085,0.4467972869646127,-0.6335899346138306,-0.111993388491125,-0.2545168625932417,-0.029648591637769277,nm,0.0
66.76536345481873,-24.070438114117756,33.8011959438705,-82.37470915049748,-0.1301956159581068,0.3330402938538926,-0.383440354282224,-0.22960323365462598,-0.3585796726885806,-0.0896444539756785,nm,0.0
66.76750707626343,-22.1060421802978,32.21844440100958,-81.58213190513139,-0.12208293887364673,0.18632960068844415,-0.32084972359162856,-0.2783340015449392,-0.3792553362240727,-0.11105363511315564,nm,0.0
66.78684520721436,-18.259341889418376,28.48407193073438,-80.14147363346862,-0.03971305947660562,-0.13392023068872813,-0.2818932295402187,-0.3406227491648561,-0.3997309625196801,-0.09151676760310198,nm,0.0
66.79056215286255,-16.42449723585883,26.373667160826276,-79.36003549831752,0.04553303609072433,-0.28860552015041563,-0.2930020099242612,-0.36827807350108577,-0.40464519324864406,-0.04708469374483335,nm,0.0
66.80559062957764,-14.667359137632422,24.087447610764922,-78.4185860523299,0.21565683717864478,-0.4156986049824725,-0.23805697669713757,-0.3981251601362788,-0.4093350406307416,0.003607625910483459,nm,0.0
66.80989694595337,-13.058946968887144,21.600867927128217,-77.42587248416429,0.40811178845424034,-0.5088369046865471,-0.1192598038499167,-0.43498759697174444,-0.4033422402162428,0.04827860735636323,nm,0.0
66.82183718681335,-11.626929200677232,18.930126381924616,-76.47493085797555,0.627705606640477,-0.6063541386538852,0.1804047531478239,-0.470307705321649,-0.3919342751353608,0.07087102512854358,nm,0.0
66.87108850479126,-8.624770601309423,11.118401719974372,-75.0452955017546,0.5133447318481078,-0.2907479356077178,1.0919020471347727,-0.41245114104304303,-0.3333306146781517,0.006153657221910261,nm,0.0
66.87357568740845,-7.532160253243667,9.372664432256109,-75.16364553550798,0.5038716082627239,0.17466934763599498,1.509425170823328,-0.2927016891636802,-0.30704912226125847,-0.03188926009474552,nm,0.0
66.87528014183044,-6.961769178866928,8.468596952835565,-75.37599651906649,0.010551484824608463,0.5185733019735242,1.2428925551482306,-0.15626138539833898,-0.1646255386957922,-0.04914023324997565,nm,0.0
66.88863921165466,-6.344599208429293,8.555425258172463,-75.64118563272638,-0.1304344488604026,0.6644904997701053,1.143602762947666,0.0375383687478117,-0.12351324888197635,-0.05624097379655078,nm,0.0
66.89286923408508,-5.962639185967057,9.710865504376253,-75.94719658363152,0.19270075674275886,0.5380853635136801,1.6418873022517237,0.23295703468329268,-0.026192767365149913,-0.03675676553076872,nm,0.0
66.91742181777954,-6.764947321289546,11.867445936667059,-76.25713853437647,-0.09578705192651664,0.14218746656483558,1.0546351161697989,0.3719168626373789,0.24688120886097462,0.017806474259621858,nm,0.0
66.91909646987915,-8.841904861593667,17.701862781033352,-76.64651634969036,0.3694506814440226,-0.5794860255349775,0.7801312474854883,0.5268140509826148,0.34623135775354597,0.07284644755125073,nm,0.0
66.93414521217346,-10.785092026921001,20.617923474253942,-76.95704869698001,0.17790636384899025,-0.6565889182504508,0.10136495519632885,0.474693689212715,0.48205962369848726,0.08909588289180213,nm,0.0
66.93792366981506,-12.809275764240438,23.262824656387927,-77.68690939760866,0.3324369594877742,-0.5499789017273419,0.0013840349992817757,0.424349134197197,0.47394960255348045,0.04116855501289755,nm,0.0
66.94698548316956,-15.282119308305768,25.509716158893564,-78.77449567908315,0.3822076331654701,-0.3042921669308413,-0.12464873815816695,0.33807110821114944,0.5247538329668464,0.005607331502028443,nm,0.0
66.96415638923645,-18.12217774416328,27.374762036067672,-80.22241305608848,0.1544297730660054,-0.036174086612323866,-0.33615806551173316,0.26379601011853954,0.560413287335403,-0.016352440362776614,nm,0.0
66.97862672805786,-23.364289521054648,30.69239198359574,-83.38715926327667,0.05689930993938811,0.39341356171800795,-0.4385064538437073,0.2567165409724137,0.4771592229532258,-0.019171007010280933,nm,0.0
66.98102021217346,-25.534262954841946,32.4004010088744,-84.5541763424782,-0.03250895110887801,0.42380866780831833,-0.5117640506486015,0.2898598066198246,0.39628189648750034,0.012510941089978697,nm,0.0
66.99109244346619,-27.13007047627647,34.282447037267666,-85.39312790657348,-0.05099458635964253,0.4884245087509623,-0.6351534586774419,0.34048363908418755,0.2911101203984737,0.026499138061186606,nm,0.0
67.01458740234375,-28.81210149177199,37.6767000748284,-86.19134327589096,-0.2445119997266083,0.5845195601691455,-0.8605927228955793,0.2875738292477901,0.10386334846888845,0.013041869444621408,nm,0.0
67.02322435379028,-28.99367752361253,38.66907773614933,-86.43707973460513,-0.2659415432475218,0.5385115759521305,-0.874252828359731,0.18454627446091262,0.03407021844267574,-0.03050595932277273,nm,0.0
67.03026747703552,-28.95559446844548,38.998597800333265,-86.76828833261746,-0.35569906682303587,0.49152891947486,-0.8705821876363165,0.05425075172083267,-0.009154368601793346,-0.0749137851844009,nm,0.0
67.05445289611816,-28.05966172436298,37.75179333699158,-87.16999443326611,-0.3746154551576803,0.23162570590356343,-0.6671675378760672,-0.1850735164737084,-0.10807820284329861,-0.11938460478688945,nm,0.0
67.08103656768799,-25.79875800672539,35.17142336122433,-86.35395269613046,-0.36125264989867917,0.13620227245558283,-0.4322111512918219,-0.27472324424402833,-0.23903447696156338,-0.04060952269519966,nm,0.0
67.0827522277832,-24.16386882100327,33.70774580412415,-85.087893620588,-0.2929595507289027,0.134514266633659,-0.3381543632328998,-0.28353953541206606,-0.298715969870526,0.03137806268872518,nm,0.0
67.08584070205688,-22.333358066917558,32.18425017639712,-83.36529595897301,-0.1659996406774574,0.17024578008115585,-0.2991739196134872,-0.28340373360334203,-0.34482001897037395,0.08798766989791283,nm,0.0
67.1111741065979,-18.73191853209332,28.617197022289723,-79.83748674981004,0.09658254692897436,0.1347006380016323,-0.2816415140657202,-0.3367426978816054,-0.3690289720216148,0.10649731042086148,nm,0.0
67.13536715507507,-17.166830508224358,26.455213159534846,-78.7405984311157,0.23776619223351383,0.030840668424795676,-0.29556767293227687,-0.384553200274866,-0.36186098998553284,0.06527621973185196,nm,0.0
67.1375880241394,-14.469808066002086,21.322858842547653,-77.40610409178184,0.461376635278765,-0.26309128028325995,-0.24833670323144258,-0.48603866038303123,-0.3596061270155217,-0.020196875061023915,nm,0.0
67.15297627449036,-13.212399739457583,18.47741595817799,-76.99244078948286,0.6514093626470094,-0.4363384116533483,0.07117426450618111,-0.5132849512926191,-0.3664315947763772,-0.027245735620364794,nm,0.0
67.17735075950623,-9.595616165675244,10.491942873658918,-75.49126537904827,0.7022238180448638,-0.35930032236767107,1.1514429790885232,-0.4102318557713044,-0.40745878411100805,0.06493296190977361,nm,0.0
67.18098187446594,-8.432796854735553,8.525807749854874,-74.95720294791401,0.4025605407621877,-0.004877894671505476,1.1436662143121705,-0.3320676736715102,-0.3319681960376123,0.0781475348280197,nm,0.0
67.20646858215332,-6.017574012173075,6.822860735599712,-74.62813773118556,-0.04959609926413463,0.6177320660229988,1.1804209538096095,-0.024685280367444672,-0.2692951645676348,-0.013028155251958207,nm,0.0
67.20969653129578,-5.141645781603972,7.340588473740832,-74.9578191833779,0.1309135855606785,0.6166416896105001,1.6782461555300534,0.1359710823235275,-0.15058082948302182,-0.06752393443285108,nm,0.0
67.21945285797119,-5.460197124229675,8.766559913587253,-75.61163139514753,-0.31960220976302767,0.265030986113885,0.9890530605927982,0.2506494765542867,0.12368782573592864,-0.08366908245243108,nm,0.0
67.23304510116577,-6.014780092429085,10.902506770773385,-76.28115810380957,-0.21588374690837464,-0.14874861686087582,1.0104545381482617,0.378880650863036,0.19996451739502025,-0.06867703467209958,nm,0.0
67.25728845596313,-9.266319015965214,16.077942294883346,-77.28351215786898,-0.00020583291253720157,-0.7235339755887826,0.3939212208312916,0.41548554843546076,0.4954783818660067,0.07014169310799329,nm,0.0
67.25980162620544,-11.399418745183066,18.602230476532238,-77.71686409939117,0.33700074055242873,-0.7253787913330564,0.3197498599742275,0.3962130693952719,0.4976205231125682,0.10640654124988712,nm,0.0
67.2790687084198,-16.797441442512284,22.87597357103484,-79.06724465092225,0.35216321520401245,-0.16017627402822204,-0.26946297587444423,0.2741917663382017,0.5818083055111131,0.10665649865851956,nm,0.0
67.29477405548096,-19.48281858962339,24.54119639208673,-80.08334578292693,0.5309078917677161,0.06145347413614631,-0.22161546039721947,0.2287667311186073,0.5356914910545633,0.053600021765913955,nm,0.0
67.29667091369629,-22.403230844890285,26.05804950265321,-81.29131318655799,0.4472899570524723,0.21961161739068533,-0.30543778767968327,0.20366509770058483,0.5622360750945601,0.03748662446366176,nm,0.0
67.30657577514648,-25.17271805051723,27.529458095346662,-82.41605564858257,-0.07732990043787245,0.38922900134297356,-0.605919480777137,0.21034258569168415,0.5233651080522249,0.03395028987091434,nm,0.0
67.33355331420898,-28.405803675026544,30.67989353191164,-83.93637607627258,0.18208698103288834,0.41912366132762463,-0.5683982660285134,0.2847209589821347,0.287344873851197,0.0385562064143364,nm,0.0
67.33535885810852,-29.451567281960397,32.36411292944367,-84.27954004040328,-0.13850749961901707,0.5249817279063181,-0.7549155519744322,0.3056392596563351,0.203944143112671,0.048187512642407164,nm,0.0
67.3447732925415,-29.698134751658007,33.89629375322316,-84.39267256320201,0.08864500622707595,0.5217576482111069,-0.6465818921410863,0.2896203792155723,0.06340536559269341,0.0012355820118604259,nm,0.0
67.357919216156,-29.81029395693775,35.07025122317284,-84.53949669251914,-0.15688039319473066,0.5684896739067138,-0.7344001215019601,0.22056400582900756,0.03315604499691214,-0.019899586161488066,nm,0.0
67.38522696495056,-27.768502915580733,35.698099224446196,-85.49373346659183,-0.0071646926742273565,0.37383589954863855,-0.43612386464620917,-0.053928252849308,-0.13557272708918391,-0.2052660517386748,nm,0.0
67.40128684043884,-27.055071456787193,35.136124889477266,-85.99908372041989,-0.5664050387481822,0.379202397539344,-0.5936700046000182,-0.11549245153046658,-0.13175475197225694,-0.18767644110979595,nm,0.0
67.40291428565979,-25.535441702139604,34.42007819603536,-85.89074910347593,-0.17954457580348523,0.18390524683984497,-0.2864711233843112,-0.13659014058873092,-0.2669581433712337,-0.21518335167741112,nm,0.0
67.41137051582336,-24.065059549803898,33.589361973331876,-85.50731344936719,-0.3088072569186596,0.15924060832177478,-0.275458920964713,-0.15900263735162085,-0.2632657092856739,-0.1321800426968127,nm,0.0
67.43352770805359,-20.581350115607236,31.57623765654309,-83.78300569931437,-0.15053846537914506,0.11699318244685716,-0.158093343836162,-0.19348468492454224,-0.34403655055687454,-0.044014789776682675,nm,0.0
67.4421272277832,-19.037522527161848,30.289739167353094,-82.81522750487412,-0.21804507625770042,0.16935516494004596,-0.26145412792862194,-0.23597083921688836,-0.3011276281252667,-0.006064783303734969,nm,0.0
67.46512079238892,-16.31129000166083,26.981718651204563,-81.56640366277958,0.07107164825989702,0.028583710403404194,-0.209118934904832,-0.33017551034799797,-0.27976103198764485,-0.05252869718413391,nm,0.0
67.47030925750732,-15.309470393706572,24.998451154215914,-81.34075509511746,0.05814063479240715,-0.07772264773083368,-0.2997840523261259,-0.376964896120709,-0.24533595934935862,-0.0656335829584997,nm,0.0
67.48971915245056,-13.24237232676295,20.59614001758384,-80.97565440183897,0.33007789430808243,-0.42511755522037525,-0.09121585255375961,-0.4262987007157242,-0.2647941795428822,-0.039914921381065255,nm,0.0
67.49488043785095,-12.191494236666694,18.325021708738362,-80.49686249979241,0.39995603024430926,-0.545936690610737,0.07298546518805499,-0.42771618760726676,-0.27738201742936847,0.010638329731806003,nm,0.0
