timestamp,roll,pitch,yaw,acc_x,acc_y,acc_z,gyro_x,gyro_y,gyro_z,markers,motor_input
77.010244846344,-29.84659500837772,30.74698887309149,-91.00754634103382,0.15775872523379042,0.34123224272063857,-0.44098916552962314,0.3084098536347134,0.2404126707566009,0.028777975018605257,nm,0.0
77.01419353485107,-30.971930643113854,32.35837680529684,-91.25738425391674,0.01913046595376048,0.4236037985762317,-0.5139396922016388,0.3137827417670879,0.17906723043697478,0.046871124604314696,nm,0.0
77.02346444129944,-31.70824239085374,33.86362919551076,-91.30191369320382,-0.07754740313879978,0.47869114049087985,-0.5471681680033733,0.29152347778124904,0.11025838001683391,0.043924745201295336,nm,0.0
77.03338575363159,-32.15227746024681,35.10453598875168,-91.40146839516107,-0.07295056152347898,0.4815549347989397,-0.5300416527632077,0.23769905900682323,0.060627235920947445,0.027600426430329388,nm,0.0
77.05547785758972,-32.73216006515414,36.38893819400021,-91.68425025558847,-0.22299241505023945,0.4971159556025606,-0.5331988850520739,0.07320175355757773,0.026486278409613057,-0.016835325917523524,nm,0.0
77.06188917160034,-32.85201047292372,36.385706941773975,-91.84374100385841,-0.2617631218228126,0.479560694197085,-0.5010283719406441,0.0,0.0,0.0,nm,0.0
77.08593964576721,-32.54322504897925,35.498657479139915,-91.69312556620169,-0.28338223867299256,0.45086297940847675,-0.37517303123509455,-0.12346736513701691,-0.04878084843171885,-0.002926695004213489,nm,0.0
77.09028482437134,-32.04549892094694,34.85099622710398,-91.17426896494887,-0.26935130332910345,0.47346806160918925,-0.32696142383650423,-0.1440876678023205,-0.08507110849027902,0.034057269238802285,nm,0.0
77.102783203125,-31.309354702565567,34.15378329138953,-90.33455100168612,-0.21773415472362043,0.5021221264286927,-0.2867372837290136,-0.15347801559741595,-0.126663055504163,0.06699100754932344,nm,0.0
77.12269759178162,-29.393764001815132,32.54145664945815,-88.21067006504511,-0.04763083935482102,0.4989062542926549,-0.27069649982945626,-0.18035894387165322,-0.17840603220621123,0.0870992901347424,nm,0.0
77.12832546234131,-28.355251237261218,31.512624224438525,-87.22469536647881,0.04511571406191641,0.42938694736664995,-0.2928121597646167,-0.21070657407988416,-0.19193072994736285,0.06459357904812994,nm,0.0
77.14036464691162,-27.318866847327673,30.26593112473959,-86.38652608039045,0.11609371224904896,0.318961628903817,-0.3242324184775475,-0.2510419495448197,-0.19953429673819748,0.03129166832200612,nm,0.0
77.14935779571533,-26.253620650183453,28.782652277327937,-85.71434076673658,0.18500170419863138,0.1886164338877818,-0.3172125421655601,-0.295124020288103,-0.21362290742016118,-0.002686546603323617,nm,0.0
77.17230033874512,-23.908454375566073,25.270235059854713,-84.68903965566037,0.3739604331111194,-0.1349007477167007,-0.21012459698493302,-0.35606016052058964,-0.25614569447015034,-0.03045362790588209,nm,0.0
77.17547798156738,-22.61703525514285,23.382681124666906,-84.12862668891898,0.471517055818495,-0.2347363304586314,-0.09151393608469112,-0.36454700281301206,-0.27965755726374614,-0.023286629776000756,nm,0.0
77.1857054233551,-21.24581491413773,21.47793370302667,-83.55388897584253,0.616094860646376,-0.314397467374759,0.13028595937933612,-0.363277323435616,-0.3015896107359943,-0.012632107213348039,nm,0.0
77.21136403083801,-18.517153174518818,17.85732313339998,-82.53156341840128,0.8245723058284922,-0.36036235675494555,0.6262356353181315,-0.32639328115609373,-0.30585794340656947,-0.01934785527721834,nm,0.0
77.21359896659851,-17.24465994271074,16.37725024316617,-82.38814202447105,0.7907308091576034,-0.28998064987425,0.6873899220314365,-0.2731142751030751,-0.28862649528333,-0.05404392610770718,nm,0.0
77.22369742393494,-16.090749713520438,15.268810446405245,-82.48860386575797,0.6929684650732102,-0.17683735424527755,0.7856113405427647,-0.20190077757777675,-0.2579602063578944,-0.10234483900504485,nm,0.0
77.23336052894592,-15.10836276687617,14.577686677342935,-82.92230721447362,0.5208701354200548,-0.06845430569288134,0.8777048411619633,-0.124411716306071,-0.2142974136447644,-0.14796950622445748,nm,0.0
77.25159168243408,-13.85573579586693,14.787500731675516,-84.5152249908178,0.1923311646281118,-0.0580189669398621,1.039674337768356,0.07655588340045087,-0.09192345744747166,-0.1789654420157167,nm,0.0
77.26473951339722,-14.037025529081037,15.685030719084702,-85.35013887616223,0.13460705622409122,-0.15708872599734347,1.113500799617813,0.1643370504129541,0.04302672393801463,-0.134847705533189,nm,0.0
77.27115511894226,-14.889198874719364,17.046480421578224,-86.08736493341196,-0.06393900030327349,-0.1282384157919513,0.7246911038398216,0.24806332611420573,0.17598475661826188,-0.07701584887860193,nm,0.0
77.28146719932556,-16.122436804248125,18.750554773181534,-86.7550070871044,0.0571946452065792,-0.12408721965241637,0.6670690106774401,0.314241715256964,0.248331649321133,-0.037607485961182324,nm,0.0
77.2896499633789,-17.944659677619,20.651566797847384,-87.56501607781229,0.13252359077099068,-0.14134965135048752,0.518602845244046,0.3516399063306307,0.35441633500741815,-0.007951420063176578,nm,0.0
77.31405901908875,-22.638985518976178,24.647253642430336,-90.08978937899066,0.2910381900109029,-0.028507829558471087,0.12179812012193514,0.38097356634548185,0.44732970515402454,-0.033134554409263224,nm,0.0
77.3199098110199,-25.341950312332422,26.505197685408717,-91.72339656832317,0.26386383095449883,0.008969389248396234,-0.09797130380296847,0.36817871294338406,0.47497381144058104,-0.04276778148309219,nm,0.0
77.33011388778687,-28.01658214386394,28.279232189739652,-93.34967382844448,0.24379879197782295,0.05006410043456181,-0.2588885527583625,0.36373112342820824,0.45261014457623683,-0.05120611596852257,nm,0.0
77.33872413635254,-30.51733224544169,30.006806385142255,-94.84209233544667,0.20897157679678577,0.11309754409926746,-0.4129462496554769,0.36365025769284864,0.4051943685619932,-0.04123054599625019,nm,0.0
77.34679079055786,-32.70825977218847,31.677200622263634,-96.10625806570295,0.09817960841393027,0.17626523585578238,-0.5580951128346632,0.3561545924312918,0.3367990682817469,-0.012965846643011217,nm,0.0
77.3584508895874,-34.38646639993816,33.28897867289131,-97.00901116315862,0.04456408191567082,0.24643183029106513,-0.6669389705166079,0.3400786524602181,0.23872208496877684,0.0068084400411559595,nm,0.0
77.37946486473083,-36.333927782502684,35.9518393236213,-97.84517680668517,-0.09388275014261928,0.44725606577476645,-0.7783598325852633,0.23891298517050907,0.08367541284843612,0.02682419303325413,nm,0.0
77.38551950454712,-36.68814675403664,36.715027932153376,-97.9661836810906,-0.11168012060152559,0.5105635130404231,-0.7557646984673646,0.14620089917294868,0.029745566922487348,0.015565478695073139,nm,0.0
77.395099401474,-36.78388906498667,36.97999821550334,-98.00089372796741,-0.16767023768284964,0.5684256298416823,-0.7165336269854006,0.0,0.0,0.0,nm,0.0
77.40787100791931,-36.63656794683932,36.76061098932268,-97.91286199076683,-0.19003343279592175,0.5622394503098808,-0.6574570892688845,-0.05979693161386668,-0.023144785346078098,-0.013947197453818947,nm,0.0
77.41381239891052,-36.256542471153416,36.1353872319534,-97.69900345485415,-0.21326556900115898,0.5559277149467672,-0.5908556240395962,-0.1453498273554521,-0.049574555049160855,-0.01901399652644472,nm,0.0
77.4395079612732,-34.61324969536244,34.1738335386985,-96.59050036328674,-0.1883808884579269,0.4699896989876386,-0.41227112934493143,-0.24129060012504158,-0.14163048141469448,0.007507912436757838,nm,0.0
77.44238209724426,-33.347238899364335,33.07793520218247,-95.60587374494875,-0.15169933070467503,0.4384993782437781,-0.3517565215025323,-0.25336006148681584,-0.19286884778037267,0.03389781031201424,nm,0.0
77.4516830444336,-31.841915588199345,31.942076981019643,-94.36949508644871,-0.10795749926887904,0.39929834813655424,-0.32677935250508766,-0.26123766484266625,-0.2399387931210346,0.058563912064520024,nm,0.0
77.47683763504028,-28.427027818183863,29.291865347249868,-91.62404691063274,0.017093481336086208,0.24352952026371003,-0.33623641049226266,-0.307819983264267,-0.2968678645595382,0.07397089836387327,nm,0.0
77.47987413406372,-26.690257366738027,27.617102323867044,-90.27512943238563,0.08910421145978356,0.12722544344507772,-0.33981539458466525,-0.35228698110384354,-0.30750364192285407,0.06303010438560504,nm,0.0
77.50673413276672,-23.415614774246517,23.453217866639335,-88.02548306486484,0.2324951034238286,-0.12885647908947362,-0.3083823673060111,-0.44610643368412595,-0.3099574847509911,0.03587154158870496,nm,0.0
77.50877690315247,-21.879397034422908,21.05056162517712,-87.15860014579742,0.3404793997930499,-0.2636068395048872,-0.21647878890804506,-0.48049391357726073,-0.31242665035454015,0.034852340762108254,nm,0.0
77.53269624710083,-19.052750419514254,15.980422144945905,-85.25771776269255,0.7057682010611448,-0.5309200415114161,0.3856319204998897,-0.5003306838771772,-0.30686956846811553,0.0654395825935243,nm,0.0
77.53692626953125,-17.814652488948948,13.508612377681208,-84.30609057431045,0.8428643486635629,-0.5567850116175252,0.6733496824708473,-0.48212851224974274,-0.2927710125111855,0.08043979010083302,nm,0.0
77.55421423912048,-16.80479138359055,11.232541825900626,-83.6627691615477,0.9068649911976339,-0.45590495896037936,0.8611158774753114,-0.4440068786439477,-0.25248545559059765,0.08250417108128864,nm,0.0
77.57162642478943,-14.98581524614764,7.952228272004333,-82.84264171418047,0.6730750826429104,0.08254413137817711,1.079195763376703,-0.25868325236159984,-0.24621972923275598,0.0013877562017214741,nm,0.0
77.58068680763245,-14.264590415232739,7.2912531465183905,-83.10106083474962,0.5342664145797807,0.336020934039914,1.2527241457847575,-0.12527198553839577,-0.1666626486028253,-0.053749737741467664,nm,0.0
77.59891247749329,-13.295257204763628,8.601249617940312,-84.24988025808013,0.5650786462504876,0.33298535351457337,1.6002617442905704,0.21761340979463423,-0.0741065455656063,-0.12382039736803066,nm,0.0
77.60437488555908,-14.02365997281101,10.444398728465599,-84.99150832086175,0.056497134272795034,0.05230761762749156,0.9877124295367309,0.34264136136936035,0.16935964228298198,-0.09446272098604899,nm,0.0
77.61389374732971,-14.878995044529447,12.808526489702908,-85.6533232442826,0.060098891356187345,-0.2685094351036904,0.8370267628308183,0.446811993606346,0.19724153651764773,-0.05805465758313886,nm,0.0
77.63622498512268,-18.019015254508044,18.047632268746746,-86.8134135628796,0.11120192717182072,-0.509933155420777,0.0994279427879449,0.4871789034346399,0.39442150089199446,0.03089576158837759,nm,0.0
77.6427800655365,-19.921520825455254,20.44601741640548,-87.52430422524753,0.34659623530427897,-0.46093102941940595,0.025204941391393704,0.45037920550843186,0.37506879423912953,0.015813567620766064,nm,0.0
77.66096925735474,-24.691926903902278,24.30796884844019,-89.89296376702174,0.19556363213913086,0.020635740265774083,-0.4273381585040161,0.33449880998818193,0.4529258444790327,-0.02812066365337269,nm,0.0
77.67466592788696,-26.934875845141555,25.821744574131625,-91.41305865490261,0.31945659177432884,0.17737737472306836,-0.3827364094147878,0.2960834516888807,0.3959845507606631,-0.06359694587387656,nm,0.0
77.67892909049988,-29.120503064047256,27.248017755601158,-92.86279079178749,0.14080735102515743,0.32927948586309247,-0.5283963939226424,0.28798608389892644,0.37358221165100247,-0.05491910322668813,nm,0.0
77.68963766098022,-30.857898848763977,28.694618697659212,-93.99337385730226,-0.0025731902158647644,0.4421323921325347,-0.6179427832438081,0.29505873745424765,0.28267613909275474,-0.038820829940946655,nm,0.0
77.7151186466217,-32.87740342236078,31.744830180343335,-95.03244351318362,-0.10924489434188953,0.5130117885102611,-0.7476734938416256,0.3081889814499882,0.11206640243390799,0.02352303032678677,nm,0.0
77.71703791618347,-33.200903475676455,33.111107170335266,-95.08401855194616,-0.11058442698563217,0.5861759639764925,-0.7484924544972679,0.2645032435913017,0.024156798365280716,0.022039544943733506,nm,0.0
77.72648859024048,-33.20287801735801,34.017567030619944,-95.00983669441082,-0.10364741142794243,0.5850711355472935,-0.7328110196051875,0.16800843607341173,-0.02180193031982157,0.012584043142739232,nm,0.0
77.7376959323883,-33.06087150136677,34.37998518717229,-94.93758224760174,-0.20114230445187908,0.6055205788284782,-0.7261376641861957,0.05745292878374861,-0.03582345052948258,-0.01853195316183758,nm,0.0
77.74666833877563,-32.72763846171428,34.174288629373564,-94.97071933180084,-0.1891167599720144,0.5740609109791093,-0.6354779975561645,-0.058595631449628385,-0.05751789459508647,-0.06443060659381741,nm,0.0
77.75625514984131,-32.26874325484647,33.439300247737194,-95.04738677770348,-0.23720670158994145,0.5010761570589102,-0.5580445109525405,-0.16610770433499644,-0.06936175152767256,-0.08140994084297111,nm,0.0
77.76506686210632,-31.591270788226304,32.38036066646955,-94.98272199678442,-0.2716734332229478,0.41276782431954145,-0.4481561787588743,-0.23399956964123064,-0.10110610923522455,-0.078045772545886,nm,0.0
77.77512264251709,-30.62253177436856,31.21117023828937,-94.52731159064493,-0.25020887258080854,0.3704636714325128,-0.3386615363794509,-0.2596077641548379,-0.15135722143035665,-0.04830135373388067,nm,0.0
77.79679775238037,-29.39721107999976,30.02960873033827,-93.70318480562598,-0.24658746368206566,0.35102358822718055,-0.27431779853457744,-0.2636925469150736,-0.2000993506237953,0.01071538761654921,nm,0.0
77.81203985214233,-26.37221242195164,27.696628681462286,-91.15440210142,-0.08573590529053121,0.30123252774932135,-0.23554957830370993,-0.25649292427715303,-0.2754165981300574,0.10844452916197324,nm,0.0
77.8147451877594,-24.836313063475192,26.376803196607273,-89.7742714710192,0.015716051380490693,0.24090543262180905,-0.25169110951672485,-0.2787182515261402,-0.27870019002369134,0.12045700427448253,nm,0.0
77.83385562896729,-23.42115019765072,24.811549680771765,-88.57094119006135,0.14378027391987444,0.12005430577400272,-0.25184686496545194,-0.32178946286898563,-0.2672213424610345,0.102332737642524,nm,0.0
77.84892272949219,-21.13359750772989,20.884789843147136,-87.01256464927206,0.3798928262970595,-0.21619056752096702,-0.18663459441825808,-0.4217352974181745,-0.22403790138379048,0.03207424832124332,nm,0.0
77.85166025161743,-20.187206609881958,18.581237188980808,-86.5856669293153,0.542547848002567,-0.40958139560853507,0.005156584099612608,-0.46249763980100367,-0.21142711474711065,0.014450532491449458,nm,0.0
77.87899279594421,-18.64625047018488,13.979903971818484,-85.74119469233393,0.990228355340173,-0.6353508851993513,0.8737119782710702,-0.44937305223690144,-0.17247923617345692,0.04230789473928569,nm,0.0
77.88079929351807,-18.336167882663823,12.05682636723899,-85.3022892905217,0.6321017916918308,-0.4423919628988541,0.5600604326150378,-0.3909120264344171,-0.09835840709281456,0.07114730149332851,nm,0.0
77.90381383895874,-16.85078336700216,9.702637126408666,-84.66092752244658,0.8819093662205696,0.10655040539276282,1.0151040074210955,-0.17741471996861938,-0.17899134991426832,0.01451882994669009,nm,0.0
77.91920638084412,-16.466645692424542,9.455922429166131,-84.86385253203926,0.4662924049095529,0.24635601742682922,0.902152169305725,-0.05395379439738751,-0.08812440297267679,-0.03886799526395498,nm,0.0
77.93434286117554,-15.071634489210595,11.118304222591696,-85.99959728722574,0.5520442409730875,0.0531632160353382,1.166899492520759,0.23159765248405173,-0.13878707135049795,-0.14878435660241732,nm,0.0
77.93650698661804,-15.146180220365917,12.756056459393605,-86.72132426487973,0.4080313972626875,-0.21543618082674815,1.0531470283646927,0.314526135443811,0.02769937344414402,-0.13139437608303262,nm,0.0
77.94646191596985,-15.802076682275157,14.728097542951065,-87.38064178240998,-0.06644506808764694,-0.3602141451346674,0.4915932066455482,0.3759393512650355,0.14016371642543812,-0.087353135489406,nm,0.0
77.95545220375061,-16.42977216373269,16.848415054692826,-87.88305658284013,0.27725970025244706,-0.4801680916012462,0.6636410384081333,0.40727832152843857,0.13096316868652608,-0.050594379964801345,nm,0.0
77.9666965007782,-17.876150259639793,18.93709310840363,-88.41104507193855,0.12259727564192642,-0.3687553173389179,0.24055065485358917,0.3973537889633547,0.2814844908864072,0.012969845243249675,nm,0.0
77.97567415237427,-19.595902436354415,20.93038169464705,-89.0707856946874,0.07868669479116834,-0.18432509169540745,0.05542794610856976,0.3802694895518449,0.32489546182628676,0.025681039435210933,nm,0.0
