timestamp,roll,pitch,yaw,acc_x,acc_y,acc_z,gyro_x,gyro_y,gyro_z,markers,motor_input
90.0181725025177,0.0013680424412205864,-29.278023914213968,-99.3300828004536,0.09749231531454322,-0.016016374684278932,2.0576649064126314e-06,0.0,0.0,0.0,nm,0.0
90.02370095252991,0.16827091574389366,-29.22075499075503,-99.09684862072669,0.09430664925887715,0.024875977576398752,0.07056917901447063,0.0,0.0,0.0,nm,0.0
90.03656339645386,0.2968581871941459,-29.109625311981194,-98.83851483452702,0.10280856394950937,0.08019542471550267,0.033759647117084485,0.0,0.0,0.0,nm,0.0
90.0587706565857,0.556218756994558,-28.862390602572766,-98.60887134847518,0.11161005707492148,0.0875545294824164,0.018274636663332157,0.0,0.0,0.0,nm,0.0
90.06309103965759,0.7157036271427198,-28.73697412310447,-98.6323667231647,0.1111845601336381,0.06633850831915293,0.00913362239876754,0.0,0.0,0.0,nm,0.0
90.07112669944763,0.8806825306889321,-28.661198501195468,-98.71290948698508,0.10540339855958962,0.034500709518668966,0.0122850606186126,0.0,0.0,0.0,nm,0.0
90.08278036117554,1.030085715897688,-28.655138328648086,-98.79771846356275,0.10110966972476532,0.0010070192503384024,0.030119927867086473,0.0,0.0,0.0,nm,0.0
90.10822296142578,1.3013229739220937,-28.707839074964667,-98.80805820893018,0.1275206631667265,0.0017317535926715377,0.03877923868987994,0.0,0.0,0.0,nm,0.0
90.11243152618408,1.4680957814527467,-28.76585276626916,-98.6778220926953,0.1417611268381216,-0.005298686106986777,0.029419410818845068,0.0,0.0,0.0,nm,0.0
90.13595509529114,1.996579621344835,-28.82838768775003,-98.39110868726823,0.15178276706025767,0.02318909079403479,-0.01897726304524019,0.0,0.0,0.0,nm,0.0
90.1394259929657,2.3617214349719693,-28.859529747125126,-98.31054699606503,0.13187323928839698,0.030644487204732795,-0.021279287952907722,-0.036369778012272584,-0.0404904102344468,0.02127443482337851,nm,0.0
90.14742875099182,2.788607455690085,-28.876492421824832,-98.32679010443066,0.11394668156459213,0.03068535568870701,-0.01982067057993873,-0.035176169144844165,-0.05567568736481154,0.012814156300595474,nm,0.0
90.17570400238037,3.494299005346964,-28.906760503354185,-98.47095598400541,0.06998596389818218,0.06814191008597634,0.08605808214077831,-0.03221477807446453,-0.04216701666830797,-0.011361151469631214,nm,0.0
90.17744278907776,3.6157806173549365,-28.933234106650875,-98.48757079873809,0.027826892919926936,0.017474153226936816,0.09318225649791062,0.0,0.0,0.0,nm,0.0
90.19510793685913,3.653303692550826,-28.971027190558043,-98.44253108569188,0.0621886896060258,-0.07203934443990348,-0.045887509406131975,0.0,0.0,0.0,nm,0.0
90.2128677368164,3.553472052997225,-29.024707237456212,-98.43834839307867,0.08594050007214397,-0.03616413536736464,0.019265761554064186,0.0,0.0,0.0,nm,0.0
90.21464443206787,3.2908230317280767,-29.033809963874322,-98.41309595224652,0.1200097155830807,0.03338748007783909,0.09113397737524362,-0.007371691922205011,0.03824420363072032,-0.04277015922650285,nm,0.0
90.2238347530365,3.1631421413401233,-28.953451147080838,-98.55922177191154,0.12155306644872667,0.0151728171817746,-0.010860766353059255,0.0032622263391692994,0.039424060620456176,-0.06378722960111562,nm,0.0
90.24972081184387,3.0491974936104063,-28.90290741332402,-99.09513962541455,0.11942213314105563,0.010535545367943117,-0.009091819984117872,-0.013004963547740715,0.028853709976162267,-0.0877405280867964,nm,0.0
90.25139236450195,2.9781111518898626,-28.833292618461556,-99.33974816602317,0.10655635811596009,0.04240168717119412,0.022564260407881377,-0.005765679125600692,0.02591485668717568,-0.0803966289862667,nm,0.0
90.27921724319458,2.7655921516393662,-28.721394263387296,-99.48873590676514,0.08411425725928777,-0.012059515667516209,0.0035987939607287412,0.0,0.0,0.0,nm,0.0
90.28290033340454,2.6315487515380864,-28.645014351067065,-99.32707559435977,0.08541535762663569,-0.012102987853763375,0.003478895652018847,0.0,0.0,0.0,nm,0.0
90.30436754226685,2.410492268622272,-28.500990632998697,-98.86340009127653,0.08636313850933852,0.002604096703927354,0.029245688657973175,0.0,0.0,0.0,nm,0.0
90.31215834617615,2.361851236192238,-28.449545882180974,-98.62738432817554,0.08339890310186597,0.002245108701844444,0.027186715785521644,0.0,0.0,0.0,nm,0.0
90.33345437049866,2.320546803192254,-28.428425753417127,-98.37824458147847,0.05016401143947646,0.010813531569909232,0.03326452186278764,0.0,0.0,0.0,nm,0.0
90.33736681938171,2.2769541743831256,-28.444013574350684,-98.31115616799157,0.03383913166545564,0.015676921803512302,0.037666639776203575,0.0,0.0,0.0,nm,0.0
90.3611958026886,2.033786892713273,-28.421022533424434,-98.12517980908501,0.001033557734876995,0.015325719335803196,0.02830513437574898,0.0,0.0,0.0,nm,0.0
90.36614441871643,1.8512121032016104,-28.38825923876181,-97.99312965706324,0.00149281843212063,0.020804973192863424,0.03850694402586191,0.0,0.0,0.0,nm,0.0
90.39196467399597,1.483546216224039,-28.25710569300523,-97.73206992075666,0.05488961212342676,0.03405009115177073,0.014928703314615504,0.0,0.0,0.0,nm,0.0
90.39578676223755,1.3533173819628257,-28.219055905695033,-97.67414015528273,0.06281832641753925,0.00606992080902408,0.026842365566923206,0.0,0.0,0.0,nm,0.0
90.4041063785553,1.271637930672392,-28.19415371376429,-97.66550571213037,0.0658106921624958,-0.008155901398810263,0.001297309757779904,0.0,0.0,0.0,nm,0.0
90.43229842185974,1.2229820132902205,-28.225813567305376,-97.71708165997609,0.05904496967819672,-0.0073948458619895125,0.0011192426491659078,0.0,0.0,0.0,nm,0.0
90.43409395217896,1.2242750989799644,-28.263968665291184,-97.72371525406443,0.055604688195017134,0.006215278297393619,0.025355480187883535,0.0,0.0,0.0,nm,0.0
90.45725750923157,1.2268546667684777,-28.312271615200103,-97.57879287528773,0.05322530639867187,0.007676297759259946,0.027155251863308017,0.0,0.0,0.0,nm,0.0
90.46108889579773,1.2339309265147107,-28.301085953216674,-97.40980626106362,0.06030339729749647,0.04274445816636174,0.009650686819235412,0.0,0.0,0.0,nm,0.0
90.48608565330505,1.2892075548886013,-28.2312927398364,-97.06189163346514,0.05647281520494768,0.04147676012960043,0.01126046385755929,0.0,0.0,0.0,nm,0.0
90.49125123023987,1.3442423199944946,-28.212502956754268,-96.96888627171815,0.04623159581519586,0.009800653357903859,0.028589414736380665,0.0,0.0,0.0,nm,0.0
90.51562285423279,1.4625242937215177,-28.270438103789463,-96.86696206401972,0.025913674440238676,-0.01495648167361147,0.04031103907897605,0.0,0.0,0.0,nm,0.0
90.52123832702637,1.5011107460597548,-28.3491316389049,-96.82365945513507,-0.0031408686712186946,-0.019657326072703932,0.044685918831280674,0.0,0.0,0.0,nm,0.0
90.52785468101501,1.5190745569255961,-28.432070505305706,-96.63680279993017,-0.0023473947004371692,-0.013662256017972014,0.039768520358964846,0.0,0.0,0.0,nm,0.0
90.53870677947998,1.5229936736815026,-28.49733987765742,-96.42215771902717,0.03230582545930097,0.009017831656048534,0.023162379510887784,0.0,0.0,0.0,nm,0.0
90.56022667884827,1.5413036587535303,-28.545156166538355,-96.0837547101199,0.0541737726698861,0.026921968970483323,-0.016123015719180477,0.0,0.0,0.0,nm,0.0
90.5706238746643,1.5782133761247819,-28.534455550337544,-96.00272393404254,0.06128520043092169,0.0445872087265258,0.004996668121711825,0.0,0.0,0.0,nm,0.0
90.58923983573914,1.7104040197321084,-28.502126924433437,-95.9290590945232,0.056482245190181475,-0.0050535075987560765,0.0014879696486013894,0.0,0.0,0.0,nm,0.0
90.59444904327393,1.7861231463588692,-28.507914226011767,-95.91210762687415,0.051200384751250806,-0.004532957048171573,0.00140836734464637,0.0,0.0,0.0,nm,0.0
90.61331605911255,1.9183115486667106,-28.558302873182495,-95.730519229844,0.03934281392536993,-0.03654790505201752,0.019286473152822947,0.0,0.0,0.0,nm,0.0
90.62878322601318,1.9746966675231827,-28.592151806112437,-95.6033991466625,0.0402267752373336,-0.027010458672002385,0.014186226555079026,0.0,0.0,0.0,nm,0.0
90.63208436965942,2.0285971095364412,-28.618421754718323,-95.4758677931654,0.04148682387685124,-0.003267932056227049,0.001293765335653163,0.0,0.0,0.0,nm,0.0
90.65604019165039,2.1372875317226856,-28.601906457287352,-95.30566779581504,0.03511745755325344,0.037784278241975694,0.014204985099250392,0.0,0.0,0.0,nm,0.0
90.6609833240509,2.1897022847127636,-28.559774963794275,-95.26724381358328,0.002662773676569113,0.04270277520788582,0.014497374317573716,0.0,0.0,0.0,nm,0.0
90.67019367218018,2.2367983192364496,-28.50979324601176,-95.25376861139075,0.0001671199285460078,0.016636418023509444,0.030527486544354675,0.0,0.0,0.0,nm,0.0
90.6951253414154,2.288863540779906,-28.448181813208375,-95.196496753276,0.0001111615842377991,0.01591019750493157,0.02926412900280933,0.0,0.0,0.0,nm,0.0
90.69868612289429,2.2928375673371137,-28.442908016313382,-95.10621845698213,7.304144310604847e-05,0.013907098174896635,0.025584774263299023,0.0,0.0,0.0,nm,0.0
90.71045303344727,2.296169688620872,-28.449385217879456,-94.98652476064976,0.03493953198275346,-0.0023771704239783924,0.0012344151667072055,0.0,0.0,0.0,nm,0.0
90.73167181015015,2.358849673599482,-28.467019067179336,-94.73024949694621,0.05370917294076278,-0.0033841824614146503,0.0019484192735897108,0.0,0.0,0.0,nm,0.0
90.73633527755737,2.4314791365006356,-28.46596992141076,-94.64601199061782,0.056010168682477116,-0.0034125234683031937,0.0020942557558385226,0.0,0.0,0.0,nm,0.0
90.74651598930359,2.52655774908055,-28.461594000810422,-94.60062839987634,0.05236633189171189,-0.0031074135788992513,0.0020345299847639576,0.0,0.0,0.0,nm,0.0
90.75557732582092,2.62505464403824,-28.456127393126263,-94.58595123978851,0.04258305943292582,-0.002481030972752051,0.0017189679346182002,0.0,0.0,0.0,nm,0.0
90.78101682662964,2.7717441940541607,-28.429813456502533,-94.48747596016368,-0.00028252477830230903,0.012269442276299673,0.022553355945382783,0.0,0.0,0.0,nm,0.0
90.78413605690002,2.8026264075540266,-28.419104347281788,-94.41171786894841,0.0,0.0,0.0,0.0,0.0,0.0,nm,0.0
90.80807137489319,2.7980695141754355,-28.416385327869968,-94.21997935288663,-0.0003975309059116231,0.01385096718991527,0.025475859576944707,0.0,0.0,0.0,nm,0.0
90.81227326393127,2.7874116710790586,-28.42055150865859,-94.12860175787432,-0.0004040319691309571,0.013514988309995988,0.024855472600151925,0.0,0.0,0.0,nm,0.0
90.83667778968811,2.7991798006485635,-28.413850125032862,-94.05061825500643,0.029554790317704555,0.010670099754296444,0.02353213450159318,0.0,0.0,0.0,nm,0.0
90.84552907943726,2.8149082367906786,-28.405019775362415,-94.04457107984246,0.026871752848546773,0.010654626572910553,0.02315673535327702,0.0,0.0,0.0,nm,0.0
90.86483907699585,2.8443555463666126,-28.379377700781372,-93.98198091680615,0.026068271261165024,-0.0011970557926082228,0.0011404085894742685,0.0,0.0,0.0,nm,0.0
90.87320375442505,2.847118493515998,-28.36833458642003,-93.92532624754693,0.027288360827732786,0.011014894248131565,0.023810178612439347,0.0,0.0,0.0,nm,0.0
90.88081097602844,2.844716263115418,-28.35484395484388,-93.84298721831235,0.02822437515398553,0.012461858052901809,0.026544449297761834,0.0,0.0,0.0,nm,0.0
90.90265583992004,2.8670163962702504,-28.32109762549859,-93.66984234763478,0.02935651831908747,-0.0011836028712903656,0.0012949022372161067,0.0,0.0,0.0,nm,0.0
90.90850782394409,2.906667988577057,-28.311776621696385,-93.58569326670884,0.027469604119659433,0.011304398169866678,0.024132206693343646,0.0,0.0,0.0,nm,0.0
90.93306159973145,3.0164340793739672,-28.328680626991737,-93.46212332239496,-0.0006334304503510824,0.012615274973947984,0.02328737327845191,0.0,0.0,0.0,nm,0.0
90.93844699859619,3.0668966931484682,-28.345786136815608,-93.4262026581401,-0.0007238545942362648,0.013755952409998646,0.025372975381733227,0.0,0.0,0.0,nm,0.0
90.94745588302612,3.102953552131789,-28.358541631779328,-93.30345486251329,-0.0006704811783677425,0.011964437928945741,0.022057674068362544,0.0,0.0,0.0,nm,0.0
90.95530462265015,3.1245315181842885,-28.359215320447724,-93.15283321411118,0.0,0.0,0.0,0.0,0.0,0.0,nm,0.0
90.98369002342224,3.130841982811353,-28.323212379081387,-92.99071391252544,0.0,0.0,0.0,0.0,0.0,0.0,nm,0.0
90.98546957969666,3.141344828461307,-28.28518110942405,-92.88007048147816,0.026608277579161583,-0.0006458099317759134,0.0012858932791592402,0.0,0.0,0.0,nm,0.0
