timestamp,roll,pitch,yaw,acc_x,acc_y,acc_z,gyro_x,gyro_y,gyro_z,markers,motor_input
104.5209424495697,-33.75954338465708,-5.203845622739812,167.24507923333772,0.3320103063412706,-0.1525308648522276,0.6600056646676511,0.26116113193920937,0.5606975652871221,-0.09600915923430717,nm,0.0
104.52797436714172,-34.76328129544372,-8.512074042410786,166.86925166635916,0.5243650374734807,-0.12586840606324523,0.5818920768185982,0.3398024728004685,0.6137932663029534,-0.05907300280302414,nm,0.0
104.53583717346191,-36.15553250956036,-11.749917932482498,166.77180391460303,0.6557785899669091,-0.12349580480242124,0.4399596550785715,0.4121709729154245,0.5813560156090418,-0.028864665551048788,nm,0.0
104.55972576141357,-40.18514390763482,-16.971506992875177,167.22408963396305,0.49850407074127695,-0.07960807786697073,-0.07333339677619721,0.5184130068765921,0.3812075784590872,-0.01720490094817456,nm,0.0
104.56477618217468,-42.6807314661714,-18.93347108886283,167.63783600956089,0.18077737111411082,-0.12315777784584733,-0.22272305807678355,0.546727829495395,0.29202329234108965,-0.03912526020761558,nm,0.0
104.58679747581482,-47.887575508443604,-22.313334237301607,168.379426476064,-0.470419921471899,0.007351966152484732,-0.5313863980472516,0.535721613157375,0.24562279717761284,-0.11119980476505956,nm,0.0
104.59479689598083,-50.20937695156014,-24.159137480909855,168.56146937076272,-0.7861934917512267,0.1188651934725033,-0.5521711205222364,0.49039623878673155,0.28822947916877023,-0.12557779627981902,nm,0.0
104.62263464927673,-53.49780816765312,-28.063242074196467,168.60461908911506,-1.037157019285685,0.3555294270388446,-0.5193148133269054,0.3216597964761084,0.34624193325540753,-0.09222482564881195,nm,0.0
104.62605309486389,-54.36745041433589,-29.820237863011457,168.7426184782427,-1.0675644861495386,0.39801667895265824,-0.3932440301953355,0.21769688597158518,0.3259533264076954,-0.023313057919450732,nm,0.0
104.65090584754944,-54.42393698696259,-31.454069430654304,169.079178683624,-0.9146064401911961,0.4518599637165512,-0.3767939347734379,-0.01904085017392393,0.1042316514016175,0.08090052852625884,nm,0.0
104.65253019332886,-53.91238498320506,-31.16756331328287,169.4371301622101,-0.7938194978261606,0.4575807764090679,-0.3691806743942944,-0.09777453959215042,-0.02892951459920217,0.1296825739482906,nm,0.0
104.67201805114746,-51.6960648584018,-28.569856331020187,170.00775724147968,-0.5775569579295102,0.3268126724681314,-0.3701965639689672,-0.28364662988047323,-0.26471167543708557,0.16224909169384852,nm,0.0
104.69059109687805,-48.29030869888767,-24.570120025279763,170.05190498883925,-0.45017912024080387,0.2394736132863266,-0.23075101311128435,-0.39687134541044694,-0.3403078626070958,0.13680117626918145,nm,0.0
104.69924879074097,-46.314202174897986,-22.365692472126263,169.8384744412094,-0.3615929863879928,0.2358131077680073,-0.175898363461303,-0.43698721554647385,-0.35953876552024144,0.09617450763700328,nm,0.0
104.7209529876709,-42.476143986075535,-17.682309627235725,169.23718155316715,-0.08605059995650025,0.1619234391609541,-0.044295227444587096,-0.4357532765155711,-0.39290267518909056,0.04315257166009457,nm,0.0
104.72596216201782,-40.82622971609325,-15.090785171014627,169.08616299446712,0.11617460928429374,0.09329860653884567,-0.016527025823230287,-0.4119145880822696,-0.43796095515487066,0.02599649555924308,nm,0.0
104.74755501747131,-38.328813972625014,-9.345155200165397,169.08851228682178,0.6991318563121371,-0.24601877857871407,0.019388767190561575,-0.3275002555419602,-0.5203070526899721,0.018684267506707063,nm,0.0
104.7557544708252,-37.380772482275056,-6.490450810685657,169.28699641002873,1.0258902013227973,-0.60425162050289,0.31467989037930433,-0.29564268265272264,-0.5135571863486469,0.027786122084179892,nm,0.0
104.77818775177002,-35.674909928141794,-1.9609446377510082,169.7313427675994,1.3707525526891777,-0.8897646352497383,0.527932229244493,-0.24060196324750696,-0.3455054087378569,0.019801617707675228,nm,0.0
104.78458762168884,-34.939543871511184,-0.7081176310833798,169.61540497961508,1.1853497599670573,-0.9443725808706396,0.7106854548519076,-0.1947087498578732,-0.20723067619490332,-0.032729131124231814,nm,0.0
104.80285501480103,-34.47979570014183,-1.1488071168880467,168.22324516722404,0.43185207271064574,-0.6305206110705913,0.7595350646536249,0.022738444571565517,0.16832532172144962,-0.13799052861006492,nm,0.0
104.8114640712738,-34.85971304332806,-2.9553263031122685,167.3329604704705,0.09735538520339716,-0.3709151379171805,0.6310696737072578,0.1469578909773761,0.3506895497090406,-0.14388670112030583,nm,0.0
104.859450340271,-37.5407683422279,-11.401005793212791,166.30893190896586,0.268524338587883,-0.07619120885167444,0.3472925316263958,0.3484494265450703,0.5424920048433426,0.02237207899830783,nm,0.0
104.86163806915283,-38.778713062820174,-14.029455147952458,166.67654832641205,0.395843158791248,-0.07903991450531234,0.14125051315446885,0.35532222136173763,0.46783382712452004,0.061387856359242,nm,0.0
104.87123250961304,-40.16433925375683,-16.142143188026132,167.19921973240338,0.39960033027370784,-0.039835359894951905,-0.12793639361834747,0.35359466575100273,0.3641387431816331,0.06244793596458058,nm,0.0
104.8730480670929,-41.62930605753275,-17.773031284462313,167.58279057123002,0.20487472957272643,0.010035975542318902,-0.32989702888557576,0.3422817843529197,0.26971230693594694,0.032609236953713434,nm,0.0
104.87927913665771,-43.05932686696634,-18.987460004516546,167.7616666014241,-0.11187662033787626,0.0965018546209005,-0.4683992445902312,0.3144988093486792,0.19188802052094622,-0.025105251257796626,nm,0.0
104.89687848091125,-45.31075644045563,-20.66840050776004,167.48514352381196,-0.8243420320931034,0.3748592384092951,-0.5697012585866534,0.21150873242200552,0.12100181316464872,-0.11175834276984542,nm,0.0
104.90706753730774,-45.95907881205036,-21.299692867160825,167.18554417443616,-1.0991700180445347,0.47870444636849785,-0.5157826882917367,0.14344304961102758,0.10912635693393162,-0.09944720141517291,nm,0.0
104.92595505714417,-46.067018128508764,-21.803793717488624,166.97146135797573,-1.2067519690440585,0.5174682702704043,-0.44802890804088286,0.0,0.0,0.0,nm,0.0
104.93650412559509,-45.54249300652011,-21.518244207663308,167.2221669989825,-1.0770938195011945,0.4120572764908432,-0.42896917389552014,-0.1104523627784244,-0.021531366085442837,0.09593111304229264,nm,0.0
104.95767641067505,-43.5770044907496,-19.77942610355845,168.12653651551847,-0.6388502268486826,0.23501358279844983,-0.41501682569703213,-0.2546874033156384,-0.14896270185316737,0.1795795568864423,nm,0.0
104.96618700027466,-42.15227975125643,-18.442493015819846,168.6303308848512,-0.44389766882992576,0.17312973173730545,-0.3843513671876212,-0.3210996285347227,-0.19555793462908147,0.17479883405827745,nm,0.0
104.9866783618927,-38.712528198376994,-15.178459986676064,169.02598711276377,-0.18973101263594008,0.17400106474194751,-0.20030108874369976,-0.40830128782848496,-0.25930596608224266,0.09361136677773435,nm,0.0
104.99577832221985,-36.88274815327409,-13.284585535539437,168.9743215127956,-0.11299728644730431,0.17751719169279542,-0.08672062956095287,-0.42465326332419656,-0.2919921029594494,0.04878362373943055,nm,0.0
105.01429009437561,-33.7094071988518,-8.847112526681533,168.81927121956383,0.052520172721052555,0.23408927190079357,0.039398730389226,-0.3813104286835393,-0.39062871550674627,0.00473111142104367,nm,0.0
105.0255274772644,-32.52283678670739,-6.274808417058163,168.8717755998462,0.15298272281673406,0.184810651318144,0.054031606406887776,-0.33474794126900836,-0.4468099378104444,0.012031878606387283,nm,0.0
105.04392957687378,-31.00806535459676,-0.7023729355275088,169.49342268362912,0.5031093064181285,-0.11563240859403609,0.08687662634753501,-0.23599392322618232,-0.5205534292126647,0.05353420218759634,nm,0.0
105.05217099189758,-30.56296212476665,2.0863837195270856,169.97141645590358,0.7854069327913525,-0.35190631599979794,0.14875102043263624,-0.19185614578444096,-0.5203513741617415,0.07102819885534323,nm,0.0
105.07235336303711,-29.96330863369908,6.586345842665762,171.00290974634243,1.4554269463449476,-0.8096991767766133,0.5100036966864829,-0.12573252972955656,-0.37219052719891765,0.09288596913027021,nm,0.0
105.08298420906067,-29.64822191247595,8.053631691641069,171.32730463107794,1.4782649323653565,-1.0351569128812306,0.8886161098972624,-0.11252213180560147,-0.2673710642002234,0.05710416236716853,nm,0.0
105.10605597496033,-29.041500300047087,9.07563553452086,170.86234963783394,1.2566001864426382,-0.8041319752498486,0.7667077284565437,-0.06436547453985456,0.00857865323641629,-0.08944161749949052,nm,0.0
105.10777139663696,-29.039396518606186,8.123743290078071,170.2428277165369,0.6142645186801213,-0.7280815998903836,0.9755770495819506,0.025584326426106987,0.20153275572151025,-0.1240480054803123,nm,0.0
105.12858462333679,-30.29225906179565,4.4659209384667236,168.7726394832159,0.1154049030821796,-0.20807214759683348,0.6323560941887678,0.23039727053298176,0.4011111564662623,-0.11576616273969702,nm,0.0
105.13606667518616,-31.36785675080092,1.7438411524916786,168.59311472624023,-0.08783110519391518,-0.07567338613433934,0.5905283231321322,0.31298143929085553,0.505779458193811,-0.02291687360323553,nm,0.0
105.1578323841095,-34.30269521418695,-3.7631946018802362,169.24588228599015,0.10300862986334032,-0.04890366189333034,0.3054314021460275,0.4123222716539089,0.4785196694591275,0.11193133732147874,nm,0.0
105.16439580917358,-36.109848228147534,-6.374479676022328,169.92491744460193,0.20078350469743775,-0.08329489691352066,0.11528379911323454,0.44514235594571105,0.4613207719511063,0.15513060319429284,nm,0.0
105.18843483924866,-40.012051400772236,-10.789598645946509,171.1671323683701,0.20398228107929364,-0.11912222386720073,-0.3639067837648995,0.44644442896843467,0.35217676807102677,0.07608285798857646,nm,0.0
105.21293330192566,-43.64700242573506,-14.294369989598414,171.64052939428174,-0.25917245376595266,0.02615385282793038,-0.624051711332831,0.3763684482887345,0.2925763293125788,-0.032913659937269926,nm,0.0
105.2149167060852,-45.0832029050095,-15.663803194192687,171.57534240835795,-0.5161359594891696,0.1399471773101398,-0.6735841323382018,0.3107763950323309,0.2429137398148452,-0.0722704045513798,nm,0.0
105.22528052330017,-46.17852211284512,-16.76177905627098,171.48811337125568,-0.7442561373631624,0.2711999513566394,-0.7166700915177465,0.2367348407468045,0.1986075896577344,-0.06820384049840597,nm,0.0
105.23174118995667,-46.92528979431989,-17.59901708119695,171.55412321555463,-0.9244105427112318,0.3051056574589887,-0.6645182049375771,0.1621219904393093,0.1569089138470249,-0.029332676844944196,nm,0.0
105.24059700965881,-47.29126689233877,-18.087838212812187,171.70041415612346,-0.9802736162832751,0.3404390072544642,-0.6578009476140552,0.07943033442428694,0.0987707489238698,0.00817977487828767,nm,0.0
105.26618337631226,-46.77234141754056,-18.143303237398005,171.9889074119304,-0.7421510004669352,0.3450988612875172,-0.7082165976360568,-0.09428342936887402,0.0065240373519837745,0.07213382938638052,nm,0.0
105.28101801872253,-44.57012511858417,-17.2930221465646,171.85746104136808,-0.38965600539648143,0.2696631292410349,-0.5608442751679811,-0.26795606056616506,-0.06002026577484756,0.047053668049412335,nm,0.0
105.29045033454895,-42.899979231468954,-16.548052217834588,171.5105174008124,-0.28646406303159944,0.22094625562853482,-0.40404892145265503,-0.34221351807459355,-0.08915372969432153,0.012860448662857411,nm,0.0
105.31036376953125,-39.10492312029702,-14.235115392133174,170.16543083356976,-0.29156230448043124,0.16819511043089824,0.0017375761257590143,-0.41443645757304687,-0.18817947397348667,-0.06555537173214034,nm,0.0
105.34062218666077,-35.78382171748972,-10.60058953293204,168.90591581321627,-0.2843428115260068,0.20285331582774196,0.16537955782376798,-0.3749305357584134,-0.317101382410036,-0.07260723136810915,nm,0.0
105.34258723258972,-34.48783366260768,-8.356615792370011,168.60399179848832,-0.17919015190507506,0.12518129800205371,0.1792097639652295,-0.34250640798356363,-0.3779796329049718,-0.051075168120896616,nm,0.0
105.34976816177368,-33.46276124780313,-5.900644679611387,168.45472040954758,0.01432310091065625,-0.0034933416128277027,0.14254742775561843,-0.30139569553158013,-0.4284155741213448,-0.031779404184544044,nm,0.0
105.36302375793457,-32.69196544939521,-3.3651885385122227,168.47847069317234,0.32975585194670776,-0.23783670500666645,0.16085479540875197,-0.2562092202539181,-0.45360466696199253,-0.01630835991088262,nm,0.0
105.36487579345703,-32.15672352863685,-0.8821669366851413,168.6470801311151,0.6593462015718178,-0.5356814006277846,0.28629464457677,-0.2074939041906062,-0.45298296960321277,-0.004592304856640741,nm,0.0
105.38740253448486,-31.442334364411007,3.3208242251880113,169.19206376657436,1.3532423890195762,-0.9243632650982729,0.5721314122378558,-0.1490312750586428,-0.34967126897393674,0.03813956964684582,nm,0.0
105.39526224136353,-30.90462405991116,4.789606623109481,169.43377966809888,1.451817472795974,-1.0151278374150496,0.6773100599720288,-0.16520223799166545,-0.2556015204466844,0.04167430198961842,nm,0.0
105.4011013507843,-30.309671680100926,5.776620381821322,169.41075210691787,1.4237412741472826,-0.959622676462215,0.7730408286378059,-0.1581029858720135,-0.15891606478725223,-0.002029102527360629,nm,0.0
105.42381644248962,-29.161955331346675,5.06780560420952,168.54279629216677,0.986701845064894,-0.531660117307327,0.7596735378376317,-0.07725822260024041,0.211116236664677,-0.13026953276562964,nm,0.0
105.42965269088745,-28.938695025156633,3.2287957838853067,167.352873627078,0.690476933780608,-0.28250567708482255,0.7679344222599997,0.029345754316138718,0.3830646853201359,-0.20122012766338138,nm,0.0
105.45423698425293,-29.684053104509204,-2.4973617574358324,164.79394039448414,0.44091612641783723,0.0598978915148527,0.7793946404711333,0.2701484647512053,0.596916768654363,-0.2299716200513821,nm,0.0
105.45790982246399,-30.838085795768865,-5.9115204190178705,163.70903197518703,0.41569110312370355,0.15544906717900436,0.7406824471745581,0.40537135235359784,0.6082521784765869,-0.17583808687835184,nm,0.0
105.48134350776672,-34.85885938975242,-12.05624141610448,163.11151669856298,0.5497132337623478,-0.11125944048952068,0.43295751218773143,0.6017604963873824,0.4359181038518211,-0.05486302198842816,nm,0.0
105.48939204216003,-37.66305469872889,-14.500119458745887,163.38593415235252,0.5181516952405316,-0.41741833555319885,0.17773657448150382,0.6619931881959391,0.3235977674973966,-0.04240117527805124,nm,0.0
