timestamp,roll,pitch,yaw,acc_x,acc_y,acc_z,gyro_x,gyro_y,gyro_z,markers,motor_input
11.021459579467773,14.226776785662324,-22.2035916800512,84.86577652331037,-0.6234877070236945,0.30779671535593645,-0.457396558524126,0.021293850145156282,-0.179555711101043,-0.13943131023958633,nm,0.0
11.027169942855835,12.845843265204739,-22.19388179097157,84.91470575081237,-0.6574880207786462,0.25538030388933913,-0.4806658806930079,-0.013981869963774738,-0.24607417497611048,-0.09875307175926908,nm,0.0
11.0519118309021,9.338083805738595,-21.500906759479633,86.1153244312324,-0.7372230522691348,0.09524765053216916,-0.47741608201628194,-0.10982445695707867,-0.3283656985516964,-0.013518158810956395,nm,0.0
11.054746389389038,7.44941541725198,-20.75085676241027,86.86262824830428,-0.705805513815272,0.033166413457371625,-0.5117183843731905,-0.16041116367404942,-0.3342695345593904,0.009886529822024669,nm,0.0
11.078492164611816,3.984699775623012,-18.3694282164158,88.29184102194613,-0.4043969999972653,-0.11336314768814187,-0.43051807733686653,-0.26907438517556265,-0.29761302148591406,0.025016974897692033,nm,0.0
11.08372712135315,2.5452535116438377,-16.756225281266538,88.8199768288207,-0.13019264924700677,-0.22730643681259755,-0.3277734436000863,-0.3187788399623851,-0.25780947567517487,0.0363599591492129,nm,0.0
11.104623317718506,1.1935605567631085,-12.933451616993844,89.73832751280868,0.5150739326583824,-0.640608043488601,0.18102806129405286,-0.3884298920697402,-0.04124005167340536,0.10575361371030373,nm,0.0
11.111690044403076,1.565454095043926,-10.899505346717541,90.0249570547547,0.6175817220141485,-1.1284262705924957,1.585075640536951,-0.39574838110976307,0.08290734888220137,0.1202571984194446,nm,0.0
11.136986494064331,3.136541061087291,-7.686808387512174,89.83307428328928,1.3344767569918583,-0.7588119976751689,1.67443741763726,-0.2614200255123902,0.25307116390924816,0.04208734592254037,nm,0.0
11.140974521636963,4.246037399522453,-6.948220020922688,89.19906519855182,1.3661819501732275,-0.36734106808237144,2.5934004327424867,-0.13437820773101958,0.2298856538670402,-0.042543474193622,nm,0.0
11.163411855697632,5.677784464811678,-8.429721787170624,87.33556591395757,1.159900788380473,0.28622700611855073,2.049626192318996,0.2770930146159771,0.17184067205191797,-0.14733647284808218,nm,0.0
11.175161600112915,6.683317403810383,-10.602840650344746,86.5375716177375,0.7701348745222454,0.1847507793449529,1.7684569868587814,0.4563681980740419,0.1825968962646692,-0.11947913083644049,nm,0.0
11.177782535552979,7.753158232657029,-13.254045992309784,86.01555824668782,0.3934425394188685,0.0820584324785614,0.8925767382904,0.5545732606030722,0.18232164515944627,-0.0513225104594243,nm,0.0
11.202163457870483,10.685350777804679,-19.103248301141043,85.22284589031598,-0.012866983771008521,-0.41048910403819916,-0.3064685895022172,0.6361380550484975,0.28268228309232557,0.03147905660977093,nm,0.0
11.207568883895874,13.752304007909789,-21.947386041712416,84.2214688957131,-0.4385327456460017,-0.6854463515290526,-0.11207677542092939,0.6316465495568836,0.5277590378341954,0.057312688338420015,nm,0.0
11.225739002227783,21.397097554352463,-25.799958306846523,80.10619834111226,-0.41482315114159996,-0.46725262535864526,-0.7318485767760654,0.4456635126851414,0.6921095080301408,-0.10710442924268962,nm,0.0
11.239725589752197,26.071529502491284,-26.916866847236882,77.22798198684637,-0.2748784440638082,-0.3430249731025228,-0.29151932853404117,0.39572782133288126,0.78642889710045,-0.11905587788160255,nm,0.0
11.261406421661377,33.820440123160246,-27.72535944022799,72.7164947309964,0.012298297241252695,0.3460358389447143,-0.7650724971635632,0.24703710950358115,0.6067076345951269,-0.033673256372866535,nm,0.0
11.263277769088745,36.76187621909284,-28.26157933656231,71.60776296482156,-0.0036617444322403,0.4381435137921078,-0.6319610109729177,0.2709334257215706,0.47128906027241674,0.048483033691083734,nm,0.0
11.286662340164185,39.91608367090414,-29.78801815672087,71.24454598722431,-0.39724034629198085,0.48596550800960786,-0.8121690558559653,0.22645429926913355,0.16468108649773772,0.13300057573130805,nm,0.0
11.292969226837158,40.61204210551622,-30.436506450819184,71.56044591494997,-0.6621669643547481,0.3608674655830108,-0.7778301194848519,0.17027085282608945,0.08285694838082079,0.09041885350016442,nm,0.0
11.316786050796509,40.673123784246414,-30.31182478450361,71.65307885643098,-0.9104036509164697,0.28138554452923326,-0.7535414609984655,-0.06825272896139074,0.009892610781229815,-0.07988876843874546,nm,0.0
11.325363159179688,40.210927515914825,-29.486939810491098,71.5363755524304,-0.9594845007319184,0.3372159014309745,-0.740336928059422,-0.17306599305455087,-0.014879681260261556,-0.14066329228635238,nm,0.0
11.33021068572998,39.3328401275771,-28.4771599283921,71.53270199528389,-0.8621947267206016,0.39066754375608487,-0.5958111935102385,-0.23122770768142825,-0.07311592198774503,-0.15765401463322848,nm,0.0
11.349241495132446,36.06869170157504,-26.604908238257632,73.4374602388598,-0.8028380635493734,0.5322259495378191,-0.441468837626703,-0.25409348644952195,-0.26140780373662986,0.012975750024959685,nm,0.0
11.359385013580322,33.756189031015595,-25.983664096669624,75.5306115801985,-0.8514863758747167,0.5500404740909732,-0.4282804074060402,-0.22040176021037605,-0.3582604013516519,0.12866369947633544,nm,0.0
11.378949880599976,28.724025338385143,-24.923406097619047,80.97822927266115,-0.861817536421236,0.3178325939688138,-0.3846922426889534,-0.1832206816224664,-0.41621129254246575,0.26258935214015894,nm,0.0
11.404234647750854,24.375000878763558,-23.2116582047279,85.36639613058418,-0.5748183379323314,0.07312450102660735,-0.39808817836368515,-0.2190600923554764,-0.3436352378319168,0.13953915189922972,nm,0.0
11.408725261688232,22.599894451891018,-21.991464376721872,86.602574154659,-0.33801994641419175,0.05913357157828128,-0.3577338195779878,-0.2567182678758151,-0.301222699591809,0.043261420069850065,nm,0.0
11.417343854904175,20.9882960660585,-20.62649377690036,87.42401960174729,-0.03669167707444712,0.05936339360833893,-0.27774452483645073,-0.27844826900706116,-0.2772883744178802,-0.03147285862553797,nm,0.0
11.44326114654541,18.3394373208102,-18.14941216814917,88.43050423103891,0.7033318231579933,-0.006320022082858471,0.08527693488015986,-0.2293008565623767,-0.20577211436038242,-0.02443302598851805,nm,0.0
11.446532726287842,17.70426834870093,-17.235236945914835,88.9770371418447,0.913512107019612,-0.4233088026128269,0.9449308037855367,-0.17621098477326816,-0.1077821794630039,0.04770333903511001,nm,0.0
11.469469547271729,16.358716464414442,-16.42969824310547,89.9049142279042,1.430655706920667,-0.6811821072396965,0.876607710363337,-0.03219467067001502,-0.08426345685206432,0.024032553957704723,nm,0.0
11.473496198654175,16.480150430061347,-16.626668618052,89.74794407147155,1.4446630739996489,-1.015436058491754,1.7497171164416354,0.04899978452540982,0.03254852261950193,-0.03009549202370826,nm,0.0
11.49584412574768,16.78556430749579,-18.01108131005529,87.49122815715829,1.1633765372701828,-0.6910429465350444,1.0487493169813784,0.1799420981174986,0.07620260276823057,-0.24200022240751998,nm,0.0
11.50167465209961,17.69457808585247,-19.157861133352775,85.81866082357547,0.8055131676155518,-0.6409906214102087,0.964689334894233,0.24939108520222963,0.1676343288218806,-0.26360269222334476,nm,0.0
11.512584209442139,18.724284619154968,-20.524311455620207,84.15463061307365,0.6460445011025258,-0.4379182001135072,0.5404228316611659,0.2997495123151743,0.1779355195606072,-0.24808520454981609,nm,0.0
11.530547857284546,21.236968553725475,-23.337867864344357,81.90922732469231,0.21860588662833597,-0.2873449580895642,0.0006532953307074333,0.3168359127019877,0.18624338351710476,-0.08140933834070904,nm,0.0
11.539746046066284,22.702413097013423,-24.73345041453348,81.25228783374224,-0.009420579345972192,-0.13992163316240247,-0.30135694902307053,0.32590548842266,0.23294617944987767,0.006539815196195852,nm,0.0
11.564709663391113,26.17091806116186,-26.968528859432904,79.91582858789334,-0.40736084636370334,-0.024276532862450784,-0.4126233727867951,0.25355412813152267,0.2672732412650333,0.027820395028729055,nm,0.0
11.569396257400513,27.997143170905346,-27.70305208554932,78.98031093207136,-0.4790019588080707,0.10726494148095894,-0.4677693512653385,0.214003628358282,0.3016210671776259,-0.0006466211534539905,nm,0.0
11.579859256744385,29.884201348712214,-28.188126460515097,77.88379712053136,-0.5394793566454952,0.24481530103271265,-0.4301209208274608,0.17183573125796817,0.31687454225503936,-0.031086690646482024,nm,0.0
11.587095975875854,31.493196696004066,-28.433846763781947,76.63182805554047,-0.5243054159234944,0.43107823246739807,-0.5506845946792582,0.12056197062028752,0.27500721799887307,-0.057622832850299587,nm,0.0
11.596039295196533,32.85178162137581,-28.58427877509749,75.60395887671098,-0.537967155427178,0.535673684713235,-0.540539753254887,0.09640333463549978,0.23410561761363866,-0.04385533249558271,nm,0.0
11.619559288024902,34.07490021528484,-28.971499157735867,75.05361904142819,-0.673259003052835,0.6003990984790785,-0.5977319402903621,0.06593785034023904,0.05297709929475586,-0.004614339325149136,nm,0.0
11.62810492515564,33.890365217861365,-29.219559308520147,75.30952874051451,-0.801937592277318,0.5594386419003605,-0.6039046995434914,0.049126424233247944,-0.03434668238532495,0.009287324627912258,nm,0.0
11.648242712020874,32.08864678901535,-29.451295994923907,76.37033514864213,-1.009575990310459,0.42314660082119826,-0.6073195736344243,-0.02977771929612555,-0.1801230074523781,-0.03198554606695504,nm,0.0
11.65569806098938,30.673324895888207,-29.282414129263024,76.93987556472753,-1.0607248767325348,0.39649236212513506,-0.5724665295895478,-0.07994659122350112,-0.2231525453859843,-0.06772070599882525,nm,0.0
11.67782473564148,27.2166118227964,-28.43743789564635,77.86086031006414,-1.0069316673114572,0.4856306170065619,-0.48570080433943313,-0.15355262342011478,-0.2791095345403814,-0.10769510154275212,nm,0.0
11.683554649353027,25.320874989212964,-27.89476628760821,78.50096123155708,-0.9591076337676387,0.4772010689983355,-0.456241185158886,-0.16433664561166025,-0.29641902114624885,-0.08850985654941604,nm,0.0
11.703336954116821,21.256263350480385,-26.799649373203387,80.58323973026052,-0.7493850493526261,0.31113773513621856,-0.46069745746724855,-0.16321128759237513,-0.3340422576583168,0.002859272583106318,nm,0.0
11.710196733474731,19.210547119884183,-26.134441839802303,81.95353867776973,-0.5768010935264544,0.10738145280633891,-0.4683648942791357,-0.17650033803458534,-0.33340028377753905,0.06138241189577884,nm,0.0
11.732696294784546,15.70166530464388,-24.093321099005546,84.90071126140137,-0.022719176608977956,-0.4469710430914585,-0.3245407907122557,-0.25330131104437026,-0.257773972045397,0.15420976414994306,nm,0.0
11.740331411361694,14.492994706003685,-22.56235561256441,86.31338250175303,0.36710417071392343,-0.7070854772620546,-0.20438085667406272,-0.31233734629712884,-0.18894280061044486,0.18268387280174814,nm,0.0
11.76322317123413,14.066677073936413,-18.618913577340884,88.66066950869288,1.2048451364732684,-1.5503346937542652,1.4158911066806692,-0.4095919062761327,0.022306589604642855,0.2413957021339027,nm,0.0
11.769676685333252,13.705408193300636,-16.404145599795694,89.67201300022721,1.7836866557643485,-1.355351864137403,1.312289366671894,-0.43459880292413366,-0.05301935628090841,0.19184625711760556,nm,0.0
11.793246507644653,13.22410849539823,-12.814839761698236,90.85989316069526,1.6221617989364407,-0.23986498744948442,1.541945262775254,-0.300304884239195,-0.076808069044809,0.10097100555738923,nm,0.0
11.796399116516113,12.7432109184478,-12.16623740570822,90.94004317206088,1.4616672956776413,0.36820486968960103,1.0852305348135034,-0.11871394523416509,-0.0868833046174675,0.023454931131524775,nm,0.0
11.818257331848145,12.511573343201196,-14.568989839709925,90.45741436695131,0.6989442824211057,0.5295563791880202,1.2335273499899109,0.36012834683839784,-0.028914311806330285,-0.1054408213142241,nm,0.0
11.826842069625854,12.488794324636656,-16.95435758270661,89.8538394771831,0.4310137275085878,0.12553554955101753,0.9357653008614615,0.4876499807457346,0.006113774775773774,-0.12693325508428877,nm,0.0
11.844085931777954,12.800191795008955,-22.250660700349563,88.19030273650017,0.015558937923466958,-0.4815964971520124,-0.3234696601132256,0.5328212820418466,0.028495392233890037,-0.17618705338400664,nm,0.0
11.853754043579102,13.977207999214594,-24.50501697032332,87.04406472669673,-0.4110342726226251,-0.8224114818332807,-0.1183076433711281,0.47040334283823293,0.20647514597736377,-0.1252584999281086,nm,0.0
11.876159429550171,16.59042320305294,-27.41150144647478,84.09237936589827,-0.566739789465724,-0.01442312666462439,-0.8397907850730031,0.2730930979396816,0.2357272673758904,-0.1610773410452375,nm,0.0
11.8837411403656,18.598260902961627,-28.33082841731712,82.6049192993374,-0.6945519078415807,0.1982743227021619,-0.34648712651288993,0.2347545829123751,0.34068161874384373,-0.09003312868825147,nm,0.0
11.891001462936401,20.296818893303655,-29.133708081737954,81.21641072600886,-0.5857865377925262,0.6214561849599014,-0.4314377947881208,0.2119012298378141,0.281568788681706,-0.08825685452066158,nm,0.0
11.91318964958191,23.54497487820078,-31.027674950848507,79.24234727861662,-0.5575912879594873,0.5854255171791153,-0.21538579895798643,0.2599097107727029,0.24015047869103834,0.020293571901904353,nm,0.0
11.92997694015503,25.17538317499898,-32.96065868112247,78.50405177956877,-0.6650182068432227,0.2791515533629582,-0.6600843188258659,0.2095243326950957,0.08866378326757164,0.01759497793418089,nm,0.0
11.938998460769653,25.49667079636764,-33.51666783874454,78.3233771463688,-0.7833149004651816,0.07452744501893574,-0.7184542782419947,0.13007154804811483,0.03988962317828139,-0.010420226644188527,nm,0.0
11.94858455657959,25.35571243602319,-33.595360540722716,78.10938650139929,-0.7885261358880504,0.09403102391668579,-0.8829821496116786,0.020886510763106884,-0.016782514304442463,-0.06217807408413179,nm,0.0
11.972987413406372,24.10178714951207,-32.45259008247428,78.12440796165507,-0.7414780091535116,0.2013962914306151,-0.6039682647093162,-0.16828823903212084,-0.10374426336108733,-0.09897812175759006,nm,0.0
11.981184720993042,22.684031924103355,-31.490542665628855,78.55307699354928,-0.6656041804470744,0.3790429877354537,-0.5286046734799493,-0.2266121947909992,-0.18800349067614613,-0.08845412478990707,nm,0.0
11.99891972541809,18.43718349926093,-29.532243951772355,80.91035629827927,-0.6150385318019816,0.5195029301360851,-0.41187208348201937,-0.24925283910983073,-0.3634918108225317,0.012747076207432562,nm,0.0
