timestamp,roll,pitch,yaw,acc_x,acc_y,acc_z,gyro_x,gyro_y,gyro_z,markers,motor_input
62.01842427253723,-17.390111117477115,30.36610788336023,-77.87145532637098,-0.14313673156834314,-0.3517405215473419,-0.25984360499464204,0.3117148429370371,0.3604765136671942,-0.042489904314661556,nm,0.0
62.020289182662964,-18.996421380335192,32.10037807194307,-79.14568288717503,0.013830969712790284,-0.16303915019963872,-0.1607807445076085,0.2748396737550224,0.3304246933942984,-0.06650515055953699,nm,0.0
62.02934503555298,-21.005172625358103,33.54235589691251,-80.56174620264193,-0.10929592382933687,0.02827992058328668,-0.29202915909517146,0.21393448913321564,0.37549211090326573,-0.03803974608437222,nm,0.0
62.05055046081543,-24.778616590769147,36.122972251905885,-83.3051854070341,-0.1782165802948896,0.1897547356047832,-0.4569394574355719,0.21096298771911962,0.30466510630459864,-0.037610108400642585,nm,0.0
62.05474019050598,-26.325657975743272,37.318358983491706,-84.25249651259085,-0.35156909646486206,0.27299818433318707,-0.5855834419223753,0.19944452329791765,0.2652729792746372,0.0003793229762828917,nm,0.0
62.0729455947876,-27.34021986757085,38.34294987388506,-84.81812156984657,-0.375428010118713,0.24371368967759605,-0.6489474220096271,0.1772668482838861,0.17182086448082254,0.016730274478550827,nm,0.0
62.09235382080078,-28.2188229182568,39.86858032317039,-84.99320605915075,-0.5288538054109421,0.4502977197232226,-0.6827372169084772,0.10827713896901296,0.048417502664550256,0.04168836902864407,nm,0.0
62.095072507858276,-28.13939447976755,40.0639032353371,-84.72907518787885,-0.4933280641505486,0.4585872956528302,-0.5968687905589293,0.02829989159119833,-0.01600017417158262,0.03859564935361876,nm,0.0
62.11786866188049,-27.709760700368264,39.5096174038285,-83.91190481001996,-0.5970703545414632,0.5215926590222639,-0.4728318252767062,-0.09120647855714925,-0.05634660239957813,0.042602753837328,nm,0.0
62.121703147888184,-27.273012821300398,38.79194307372435,-83.30671591877237,-0.5417371946931743,0.4467650205044181,-0.39608066898437055,-0.1468331569725336,-0.09105246409211695,0.05570078420283285,nm,0.0
62.141623973846436,-25.972544772194535,36.95497579554906,-81.36687096892366,-0.4337466431465222,0.29199294873547543,-0.3445085634930746,-0.18328146266832063,-0.1525008297922002,0.11087511306658364,nm,0.0
62.1685950756073,-23.98734887525478,34.65257769908404,-78.50164888060947,-0.16484641143310297,0.14340422288643415,-0.34163626818889825,-0.2206047092025648,-0.22414331395416076,0.16628014231318292,nm,0.0
62.1720404624939,-22.849120723620974,33.25106787416413,-76.8468184600793,0.0010314621461851143,0.1026223267505545,-0.3373575834348121,-0.24414850442842287,-0.2536919288816629,0.16423176369294662,nm,0.0
62.19448971748352,-20.62239186005555,29.691559114075616,-74.06418251193043,0.3285278812307045,-0.06110593509884329,-0.2625210460263782,-0.32967398620452854,-0.2922953669506487,0.11227501674491523,nm,0.0
62.202099323272705,-19.573673542249548,27.584586850021793,-73.06346024967985,0.493311195248932,-0.1579011880111485,-0.15347685378641493,-0.3622173136991994,-0.30602987653718944,0.06865407141319707,nm,0.0
62.20833444595337,-18.58282021499909,25.375750186960694,-72.40742029379206,0.6786090129267057,-0.26447450105881026,0.10958821871450808,-0.37944886396490973,-0.31064372741365526,0.02995856441458789,nm,0.0
62.23181486129761,-16.83898613623461,21.22112285715579,-71.6118191513193,1.0700756863079572,-0.368542594145242,0.9930065458271075,-0.3370984415066944,-0.2746626347947425,-0.012292592464840603,nm,0.0
62.25600790977478,-15.672165701810274,18.600250196256496,-71.6381886107802,0.650247576743265,-0.002313323480689077,0.9805599284178719,-0.1723022866625465,-0.1980042330450117,-0.053586615183467134,nm,0.0
62.27094650268555,-14.98534615935196,18.149473640883198,-71.88311738370426,0.6932493906014977,0.11056459871888695,1.2145469330464358,-0.05457839796954785,-0.16212593775085848,-0.08812555393727423,nm,0.0
62.27285647392273,-14.659344163964272,18.52022713966478,-72.39826618359236,0.41011187403129556,0.09961753130426246,1.123831794223598,0.07990728057909184,-0.0460625646079455,-0.11389707743190422,nm,0.0
62.27481746673584,-14.235685309716734,19.677139397445156,-73.07632749255474,0.2338507255834539,0.032972070560741466,0.9636404553121289,0.23513937625783307,-0.017541492680939942,-0.15219176536812312,nm,0.0
62.28328824043274,-13.879882244186295,21.35828828150402,-73.79265003541381,0.6672403316475631,-0.23785113577836808,1.337808837206414,0.33168718404576325,0.022528568222906057,-0.15915846003458678,nm,0.0
62.30876302719116,-15.086854579494528,25.6735485246951,-75.32980391080214,0.06958236063808719,-0.5897403113083942,0.4306518692865146,0.402791319603653,0.2002090842132345,-0.07784833445922876,nm,0.0
62.33873176574707,-17.471326242659565,29.82148569831668,-76.6307057912461,-0.16051404519889712,-0.44433055681269046,-0.13258706221039485,0.3084422885905999,0.34670511953764477,0.039629964621458826,nm,0.0
62.35466265678406,-21.003109055309686,33.21134341794439,-78.50560833642561,-0.08141167514895008,0.015507148778693278,-0.21817744213118545,0.230171763639269,0.38857384208734164,0.04422936362436791,nm,0.0
62.3572416305542,-23.197376360690175,34.569608879031094,-79.74090372520168,-0.22810989369373944,0.21033307125389133,-0.3593194262446694,0.1879385600573513,0.40096119698357213,0.03952896686624273,nm,0.0
62.36182951927185,-25.273308344412374,35.83278784259616,-81.03606111554039,-0.1056115925903546,0.28196750725622605,-0.3470389692072536,0.18198467477045688,0.3687710482230802,0.013185101819801414,nm,0.0
62.38341236114502,-29.039203331515605,38.200691204307844,-83.17404391651979,-0.3310165381474048,0.42032232286047083,-0.5803294090086056,0.1830101663648818,0.28361160065265484,0.022040478579157183,nm,0.0
62.40598273277283,-31.083472548836863,40.19725029155649,-84.03824353835746,-0.46497760894248463,0.5475968713135155,-0.7017060749742232,0.1592531089890589,0.1398275143692239,0.04221839719876761,nm,0.0
62.4287314414978,-31.465152799727516,41.147750850103186,-83.93446892954144,-0.48749680944310275,0.6377480253883353,-0.6560325877146371,0.04713148525965595,0.005881534596723019,0.02958038687359216,nm,0.0
62.430787086486816,-31.276979197007115,41.055562939492454,-83.72149604373757,-0.5248733560873913,0.6310704727247864,-0.624143404293438,0.0,0.0,0.0,nm,0.0
62.45262408256531,-30.232145033351397,39.749633892338515,-82.90708128896198,-0.46675161360658424,0.48093694228307093,-0.5248175075527349,-0.16349089242391013,-0.1206372878238812,-0.008679501689627816,nm,0.0
62.45693230628967,-29.335590255508873,38.67160164914699,-82.31829173422106,-0.4093192042569124,0.37847704289915485,-0.46522685087356813,-0.2074767180369324,-0.17391753755531797,-0.012473579543037247,nm,0.0
62.47815680503845,-26.73965858969899,35.96645289674713,-80.37041624438865,-0.2459185459317054,0.2111156288797907,-0.4072002611549202,-0.2573671070689638,-0.2784751376511295,0.015273127363336747,nm,0.0
62.483503341674805,-25.100732619400333,34.395345472465344,-79.06096525182626,-0.11350680097976273,0.14606799122188396,-0.3620688094027704,-0.2720592075923827,-0.3290557614113365,0.02693538047864596,nm,0.0
62.49634671211243,-23.375547337037812,32.66130938793349,-77.79374684279864,0.02089874405176243,0.0626219667426225,-0.3291210767592817,-0.2928537709483918,-0.3607048048545182,0.035667024057278104,nm,0.0
62.50418496131897,-21.66768637218731,30.767289263332543,-76.6266925647613,0.1884640461223606,-0.06431096407951857,-0.26134261618759796,-0.3157864622104759,-0.37671473006475953,0.0311542769155839,nm,0.0
62.52513527870178,-18.706557906080672,26.609940524785596,-74.76521257497548,0.6112429585472684,-0.4330582018902288,0.18614376119500772,-0.35979458903065725,-0.35414610316279865,0.001364837655855318,nm,0.0
62.535338163375854,-17.5383825241526,24.440103342208364,-74.12615184567555,0.7905651956515528,-0.5972599635772861,0.5333783777389642,-0.37165745681888573,-0.3297179356175388,-0.011439511628193143,nm,0.0
62.54026412963867,-16.546556124528866,22.366672876269845,-73.70003175988448,0.875322058150684,-0.6377996172643473,0.836455590376396,-0.3582033757434697,-0.2999468312479059,-0.01910081488282532,nm,0.0
62.562840938568115,-15.083354083642973,19.31817129842267,-73.19691351243948,0.6642237921175799,-0.20629259336825204,1.1111097846690425,-0.21997192033517088,-0.19910138123770846,-0.0251178258773582,nm,0.0
62.57712745666504,-14.67967866200964,18.76506519986787,-73.19017607063734,0.5157240276494893,0.021083171596456122,1.256760592602666,-0.0938100946754983,-0.11481180830222522,-0.029292086793153847,nm,0.0
62.57968711853027,-14.603605538039208,19.155707616219164,-73.3295361125188,0.375495280390519,0.12201713448860624,1.3321670662768124,0.06914755688111245,-0.0008511317757395928,-0.03718272641164336,nm,0.0
62.603530168533325,-15.508990314466972,22.28486719110463,-74.1308679124953,0.306882057133145,-0.13495394958904292,1.1036194932669268,0.31605442905483583,0.20883225121948248,-0.035091378943434275,nm,0.0
62.608720541000366,-16.572675649054947,24.568650671563763,-74.80778365791241,0.3268798791762597,-0.38136007962252033,0.7786522093284953,0.378426638938542,0.3011108133359338,-0.022961546972348534,nm,0.0
62.63200402259827,-19.687142310106385,29.288550142405242,-76.57985160917653,0.29895328425375844,-0.47692796190051223,0.049404030062469004,0.36027635446799233,0.39044754213487515,0.0005978838320268477,nm,0.0
62.65664887428284,-23.575730793786136,32.87918461458839,-78.76046769781507,0.15535733108945352,-0.20498212395939133,-0.41570772276666057,0.24408901402243452,0.3901793011964302,0.004070034162301051,nm,0.0
62.658454179763794,-25.515119780852256,34.26126660410107,-79.9332781570854,0.0075015397255700535,0.056887843627054145,-0.5330051149024159,0.20135935593502652,0.36057203907655966,-0.004491881208883884,nm,0.0
62.66540050506592,-27.2350343235651,35.383353901043996,-80.99367830156022,-0.0861898627172675,0.2340131405132492,-0.526626593055397,0.16366074372888167,0.3076344659718124,-0.009100270269039248,nm,0.0
62.68928670883179,-29.78224753505679,37.44322744814551,-82.70417908387857,-0.2859951066140176,0.49833833889751294,-0.4786167491672646,0.17034671322641665,0.19653368091740203,-0.02427921534926356,nm,0.0
62.69785833358765,-30.585986080267453,38.42464098055332,-83.29653640244813,-0.37719109988305755,0.5456017370291614,-0.4752645104895185,0.1681415441973797,0.14184009663991098,-0.02313837603241313,nm,0.0
62.71591663360596,-31.3321500253278,40.02387632688373,-84.00014153527988,-0.4772826547027169,0.49474687408659695,-0.5159032822780131,0.12806454854515492,0.04589975124745317,-0.028679218916526306,nm,0.0
62.74100875854492,-31.26711161369122,40.556637453219345,-84.09614962607297,-0.5410196310899951,0.3761972267366249,-0.5570871249136375,0.0,0.0,0.0,nm,0.0
62.74263000488281,-30.99406619600192,40.33275306210766,-83.84015350820879,-0.5463213658837467,0.35052586517009054,-0.5220504470564818,-0.05172154773603448,-0.05402671794725453,0.00011968452965064111,nm,0.0
62.74949622154236,-30.577748826899583,39.80609724479391,-83.42345128613326,-0.5542202732958258,0.3729368090614808,-0.4479485412706136,-0.10919880510329107,-0.08311013960341464,0.017470715256893272,nm,0.0
62.777284383773804,-29.24907903807462,38.03522651537245,-82.12889636981627,-0.47836199688744796,0.41410335331439546,-0.2700999264467095,-0.18844562823413344,-0.14790457279072558,0.04920961419728205,nm,0.0
62.78017973899841,-28.387840203506503,36.995230437833726,-81.22361962680074,-0.4155698043514238,0.4230907752270057,-0.21640085060009862,-0.1973837433756582,-0.17392876999603935,0.05621695424982074,nm,0.0
62.80862069129944,-26.356358233316236,34.75896844741264,-79.0209833870433,-0.24587126734291753,0.28747873535236923,-0.23013562239493876,-0.20474734883626075,-0.22052682700069928,0.062281298452302285,nm,0.0
62.81016945838928,-25.225413842116588,33.540211595745966,-78.04549201356457,-0.11746478887128282,0.19900490559943151,-0.2746132352761374,-0.2126998932296732,-0.24098601101355707,0.059389325902409563,nm,0.0
62.82060790061951,-24.042850936379185,32.17691559840107,-77.02757246605668,0.005912388385716817,0.07806961733731248,-0.30196880836250933,-0.23416088560368134,-0.2621763607270743,0.057576215150492105,nm,0.0
62.82806444168091,-22.835055177082744,30.635323785568403,-75.99762571953761,0.15919257242596027,-0.07863579288326829,-0.2689825404736716,-0.26232086555540696,-0.28200642874024545,0.05600784433217639,nm,0.0
62.8349974155426,-21.634518614844694,28.93033091611645,-75.04616675492403,0.2939112668079489,-0.21338293355407872,-0.19483524774147026,-0.28861535099776475,-0.2967520662140053,0.054572076935086734,nm,0.0
62.8485689163208,-20.452357047019238,27.073754448601118,-74.13450223384649,0.44011380171184233,-0.34868752821931714,-0.0436707127217069,-0.3129095052152389,-0.3098295307633295,0.055643919988298804,nm,0.0
62.86995315551758,-18.304199672844447,23.193771804816496,-72.42511194825046,0.6809985540403011,-0.511721230392119,0.3990370927785375,-0.3245121551169082,-0.3024528016007359,0.06875131677335265,nm,0.0
62.87468123435974,-17.474640224865016,21.387333678163476,-71.63454987079709,0.8142041547983343,-0.5298177688509224,0.7508200900886374,-0.30625295559948906,-0.2678545287223296,0.08303399185596959,nm,0.0
62.88275671005249,-16.905563712150926,19.858659248748403,-70.9603180203233,0.8478811347626714,-0.433154667479753,0.9661838347081582,-0.26532951191461845,-0.20922380145908914,0.09654260579887802,nm,0.0
62.89310956001282,-16.580981907240123,18.737127569181286,-70.39557006594508,0.763713033207404,-0.1798855220702318,0.9635935025814706,-0.2011080565943682,-0.1423567982262104,0.098956470728215,nm,0.0
62.90178894996643,-16.499058061313487,18.072751742176717,-69.95681471585667,0.666463359996004,0.08556783213782357,0.9502854157014614,-0.12922142125967792,-0.07006171943794966,0.09045871378242416,nm,0.0
62.91106939315796,-16.664108579472888,17.98146144070344,-69.67919529187546,0.5676422202254673,0.24894605530490166,0.9121601345608865,-0.03726110380394685,0.012768375716181979,0.06652226091561762,nm,0.0
62.94627046585083,-17.43434811757005,19.901464414936637,-69.95362088376896,0.3837658271971513,0.2122155545845398,0.7264281899243261,0.2062844939662197,0.1533241138594104,-0.01741266333114079,nm,0.0
62.951690673828125,-18.009208876038098,23.870027333665718,-71.14105984153935,0.29115774395880517,-0.2682069510281999,0.3812673241635088,0.38378871393166264,0.17416155687536625,-0.08880985786415073,nm,0.0
62.96070146560669,-18.22028821877823,26.12092050050755,-71.82819183189439,0.19413735095708104,-0.4196374728815431,0.17368209223977338,0.40559151674502064,0.16937846814852053,-0.10079999431983819,nm,0.0
