timestamp,roll,pitch,yaw,acc_x,acc_y,acc_z,gyro_x,gyro_y,gyro_z,markers,motor_input
69.50192308425903,-22.729188520289412,29.570971611435166,-79.90705235686815,0.09054890777498323,0.3360879538096702,-0.4542077681698914,-0.25911920238763336,-0.22339042210315582,0.05515711065290368,nm,0.0
69.52879190444946,-20.29713100493529,25.964693266927647,-78.4777464421555,0.2235296582467344,0.09978939520603715,-0.4331907434632129,-0.3441694055043853,-0.3103543321182597,-0.02337290492212481,nm,0.0
69.53044629096985,-18.845829441317857,23.85278610243463,-77.86570525824038,0.27537904064255075,-0.0472043772102061,-0.3979592132977998,-0.3700799357404457,-0.3540159229727061,-0.03957318772537917,nm,0.0
69.55585765838623,-15.521596618380917,19.221038717595782,-76.22181718090343,0.41692019551326537,-0.30037393073749585,-0.19058887016610265,-0.3979746694462648,-0.43358975645417414,-0.012620974902548888,nm,0.0
69.55999612808228,-13.7780090927181,16.75783078983552,-75.47652049500071,0.5141498134652175,-0.39117816336884303,0.008668379483268476,-0.40676079174498514,-0.45233800055938655,0.01199028516453434,nm,0.0
69.5846095085144,-10.514968556365801,11.749417832079963,-74.1971836449739,0.6215387097102544,-0.3929957067067995,0.5952962166948507,-0.410034507593185,-0.4420128787887877,0.016881185927627676,nm,0.0
69.587317943573,-9.023120372467272,9.3418446169322,-73.96661322889857,0.5438373621243202,-0.26839478494994157,0.8241377195134325,-0.3926741237383997,-0.42448963169034826,-0.012870736325716255,nm,0.0
69.59861636161804,-7.620002787662683,7.2306614358434205,-74.00738502036957,0.34705376034742974,-0.05313001942508365,0.9024610745346985,-0.3391613588589511,-0.3937865707640908,-0.053044096471121065,nm,0.0
69.60629868507385,-6.3851863722782465,5.631746635874428,-74.37559588393056,0.15217578844263147,0.16507503967022508,1.1301546261992306,-0.25090189224386916,-0.333350275521728,-0.08525884027156097,nm,0.0
69.61511993408203,-5.52555585149465,4.747602427658244,-74.80823608110822,-0.061406419341463896,0.30661141650008245,1.2278740277058067,-0.13473774025082114,-0.22214217186414537,-0.09585714778600415,nm,0.0
69.62590789794922,-5.098199257425188,4.6779194933042945,-75.29418369578255,-0.2310285579907707,0.35730031707664506,1.1324395722756024,-0.0011504470345529627,-0.0958151489940132,-0.08151249953776164,nm,0.0
69.63611769676208,-5.1514299740845315,5.396960843009318,-75.69348142417293,-0.22838757817426147,0.2734034507066523,1.1032392307965346,0.1271520185801957,0.03643743759612558,-0.04680937127853356,nm,0.0
69.64748573303223,-5.832179371216715,6.837350798398466,-76.01895390242863,-0.14910836001192476,0.08027178493257707,0.9704025542541577,0.2372237610220987,0.19181751505820777,-0.004505208742217647,nm,0.0
69.66702246665955,-8.640273063330124,10.956369678542414,-76.6087193472066,0.20170091804098844,-0.2671297201898998,0.593821336355149,0.33842400398769823,0.3969116832311717,0.04435573282140279,nm,0.0
69.67277765274048,-10.55221473162326,13.13349906151086,-77.11846653412007,0.347567204589163,-0.3417561843343921,0.3367578354013004,0.3303386681212547,0.4537059936856841,0.03484750268004589,nm,0.0
69.70953845977783,-14.758083398078663,17.07651400947376,-78.80233484934716,0.43421245346190873,-0.15600885187973385,-0.1210695988877455,0.27303790473953127,0.4662113020788038,-0.023995636827288058,nm,0.0
69.72552680969238,-18.74259969840654,20.280192457483945,-80.80318115046087,0.3561411249065558,0.07529846116061054,-0.277091527124946,0.23575349856438735,0.4021591514836386,-0.03255922749557336,nm,0.0
69.72715258598328,-20.47474076890245,21.857350932276344,-81.56437646323901,0.08913204890000567,0.1986363132638306,-0.4572344300090697,0.25161661649387757,0.3595728351249365,-0.003442119203517869,nm,0.0
69.74869751930237,-22.456350317163718,25.159877222206237,-82.10873342835427,0.12078245766451244,0.3135635935917868,-0.4087643876211478,0.29871723528724886,0.18861660789282828,0.04116579623937622,nm,0.0
69.75051665306091,-23.071126243580917,26.771301214555027,-82.02083113695858,-0.06641927791185244,0.37648285199288667,-0.5304357594546811,0.2928023578376834,0.14621830363837715,0.04969661231131523,nm,0.0
69.76645994186401,-23.276822123257652,28.17175922280218,-81.88189537408037,-0.13179723539457536,0.41553859365851303,-0.589997154364538,0.26109869194434443,0.06760509165677607,0.017249869519499982,nm,0.0
69.78049755096436,-23.159988946026992,29.23339334948685,-81.77509667302154,0.04891660441371805,0.3526876140451255,-0.45918786333086303,0.20196418575677988,0.0021475136403308896,-0.02992140952124319,nm,0.0
69.7927360534668,-23.230591530932823,30.218833791460213,-82.10182557030755,-0.3717476680730154,0.29621129232632665,-0.591436092031217,0.04942714372361076,-0.00701034267027247,-0.06271393203701425,nm,0.0
69.79617595672607,-22.85735286378498,30.19438464980461,-82.05047581932958,-0.20357714380295647,0.1578327564802715,-0.3861246278262825,-0.007245695026115263,-0.07258448004008448,-0.07182739271448293,nm,0.0
69.82178354263306,-21.875768424902756,29.474225532528024,-81.08254938685532,-0.3267487589801548,0.1126629721792863,-0.37617760631689734,-0.08424443544176728,-0.13486866836952874,0.0198462614584107,nm,0.0
69.82786226272583,-21.050361836859455,28.839330031772192,-80.1144140749504,-0.20766356756277932,0.12401689747919588,-0.28662094797647275,-0.11274773014863851,-0.17154042916946627,0.07370385223378975,nm,0.0
69.8518488407135,-19.249723734466553,27.01804577600097,-77.91981061081796,-0.05013760700673754,0.22570813916914786,-0.24659693177332165,-0.17415265734241134,-0.21590459064608608,0.1205384001677629,nm,0.0
69.85348463058472,-18.393715466784233,25.791694738734734,-76.89768622234286,0.012519595460480329,0.25845258455115516,-0.2741152002375804,-0.21670746586153497,-0.21227565951500127,0.10999855746435308,nm,0.0
69.8798885345459,-16.71478493709732,22.72181302073634,-75.44953366164175,0.2075007487572973,0.14631006008464315,-0.2814083158240755,-0.28729556693173847,-0.24197602121878223,0.03960484150610286,nm,0.0
69.88154673576355,-15.854597054140543,20.93902717386309,-74.99991213826549,0.2572385930089889,0.0342785787015231,-0.3200078819989316,-0.31463722041866465,-0.2549095298167404,0.021691255484183797,nm,0.0
69.89586019515991,-14.858448590469758,19.023622741773888,-74.54313955304136,0.3641322548564271,-0.09593433700427278,-0.2693126450878545,-0.3309381838723403,-0.29102711307180024,0.019021898582841156,nm,0.0
69.90070629119873,-13.774161798171521,17.002034784252988,-73.93786048812247,0.5315811777957079,-0.20745985533409375,-0.08489370974864231,-0.3432514360303883,-0.3184497065895558,0.03500935224486241,nm,0.0
69.92489361763,-11.758847958941725,12.733598642867655,-72.71222185381679,0.5092338608848008,-0.32397264776740703,0.1694730670016845,-0.3624279405991397,-0.33719454982367214,0.06202656954775776,nm,0.0
69.93335056304932,-10.530888025927052,10.563800246162504,-72.25445711122074,0.7080912666380615,-0.26245023742731693,0.6310677607816967,-0.35126660453128855,-0.37054485576819174,0.03780737609549741,nm,0.0
69.93918132781982,-9.525791533977241,8.478548644707026,-72.07733358399749,0.6500901464181482,-0.14855516386087297,0.8813564662417661,-0.34600057128961986,-0.32707132397127,-0.0019784963863021736,nm,0.0
69.95187664031982,-8.558360339896035,6.618875987775159,-72.3057795111792,0.4569553270346735,0.0313244161036415,0.9397202575500916,-0.30524571367585507,-0.30683715064386274,-0.06154074796255041,nm,0.0
69.95794367790222,-7.512569623222444,5.180244801983614,-72.8945556496726,0.34439768019679246,0.21231684056359812,0.900232806324268,-0.22214758830598727,-0.2949700678009779,-0.12252425036354717,nm,0.0
69.96731853485107,-6.697486885771469,4.397188936788713,-73.60019031281666,0.06457673716681932,0.30472576517759287,0.899712128527563,-0.11258111546831057,-0.2111187057745507,-0.16372061140868643,nm,0.0
69.99325656890869,-4.8335615698297305,5.292604891963939,-75.0832137457317,0.14416664888550904,0.26099530073673693,1.3732983610588063,0.20600080875364882,-0.15234397542658504,-0.1480069809806737,nm,0.0
69.99677467346191,-5.064511232674857,6.815436482618226,-75.64859766275912,-0.24923513494174157,-0.06659494820295668,0.6861946756550201,0.27386493361293895,0.11169054503128124,-0.09151397436537849,nm,0.0
70.00577902793884,-5.3969887557839336,8.816223821108725,-76.02225131869167,-0.27010664418647506,-0.30170181022712383,0.556022155420115,0.3627700728723745,0.1520538331274285,-0.03518527924109995,nm,0.0
70.01422500610352,-6.007383911063284,11.051075146797128,-76.3325640052261,0.12403731799660295,-0.4068009757580068,0.7970846601455438,0.396335359084002,0.21379781761120462,0.0038290928457084656,nm,0.0
70.03758025169373,-9.319037902866842,15.401455509958174,-77.46645243831148,0.171627385550436,-0.31163918059277934,0.3000614370090445,0.3307076651399203,0.41019342716661295,0.0004086673134403626,nm,0.0
70.04361510276794,-11.540742741946795,17.40479076327093,-78.5108468442598,0.3083137582227624,-0.11740987357405841,0.18605190341710098,0.29414334985663404,0.491573358113562,-0.03008138668075488,nm,0.0
70.05354928970337,-14.136423740972878,19.24471742333961,-79.73074795468635,0.13869445785192344,0.06270948456916972,-0.10592380097541232,0.2585961447560949,0.5452574081327866,-0.04862191951074458,nm,0.0
70.06288886070251,-16.519748741373004,21.000293919277816,-81.01889157673672,0.3146199758110412,0.1278170709637237,-0.04631653475681081,0.2613009422470449,0.49192377235784857,-0.05907986715715022,nm,0.0
70.07192134857178,-18.88465945252176,22.84452898153121,-82.17931872420012,0.2659533236170823,0.17293811547042873,-0.20532459776225018,0.29060579668163206,0.4799725308871352,-0.0180409378542829,nm,0.0
70.08247780799866,-21.015860516557076,24.848339730323325,-82.95986487097211,0.1537019781216346,0.18860191450220695,-0.3635186916027144,0.3364609986161395,0.43052109364717434,0.044623487291378064,nm,0.0
70.09300661087036,-22.587445310711868,26.976476547532886,-83.28974043487365,0.04585493314428762,0.20966626115053077,-0.5418111395170078,0.3779656144308796,0.3237426579616994,0.09272777568470691,nm,0.0
70.10297846794128,-23.509491743588647,29.111211220510782,-83.23719655377555,0.14948105748573012,0.23727234649092793,-0.5686091750048134,0.39394484266693713,0.2039101803908873,0.10635191771596518,nm,0.0
70.12495279312134,-24.455578041594308,32.52154993218153,-82.89131632411868,-0.061799038369297274,0.3885759369918927,-0.711865675525417,0.2770813717595403,0.08396912666455614,0.05666938613773861,nm,0.0
70.13467192649841,-24.4866900284266,33.47506352785457,-82.91347960351855,-0.1707865321772396,0.43633024620961486,-0.744526482676291,0.17727644995367298,0.02112867085226975,-0.015059682876404063,nm,0.0
70.14091205596924,-24.322352608575937,33.91886155707368,-83.03564343586382,0.039739059243682595,0.33977903944913485,-0.4943915638740402,0.08000843589691403,-0.02385070126689355,-0.07452079765142249,nm,0.0
70.15292096138,-24.395698408538394,33.952117773980525,-83.22522333863031,-0.3655877585064731,0.35486008669445396,-0.5874253074212705,-0.006445015590348482,0.005272683424820472,-0.05876308492578021,nm,0.0
70.15740871429443,-24.01543391515615,33.73418911048111,-83.22211326291948,-0.374370960968236,0.25967259467480636,-0.45230691221798486,-0.047415402335368256,-0.07557195813902258,-0.06249875135731998,nm,0.0
70.18615984916687,-21.361828733785412,32.43247074261401,-80.87626905913223,-0.19540532945120595,0.18565864684547453,-0.2472620229472313,-0.09073710387819077,-0.21611704969096182,0.10722956365852757,nm,0.0
70.19787526130676,-20.24070383883828,31.672963789368414,-79.5592268894074,-0.08942556814792448,0.21458194229885463,-0.25546312961945045,-0.12866654894197388,-0.22136526666102793,0.13998519838145165,nm,0.0
70.21050071716309,-19.23358988981333,30.60852889977342,-78.25714933595711,-0.03908150044623086,0.2336327431173389,-0.30759992300337846,-0.18667574507012866,-0.2188007349090353,0.12937469458474063,nm,0.0
70.22872829437256,-17.584961582227372,27.463232534336523,-76.73336062523919,0.21226949076887913,0.15802910310619395,-0.29388935682699396,-0.32089116585528377,-0.20837482210474192,0.026373349549279064,nm,0.0
70.23461198806763,-16.902558449495835,25.48401403011789,-76.37538407935213,0.2909457578591553,0.07923646513709748,-0.2885892620907185,-0.3672574520712105,-0.2204011916130539,-0.026894180366292524,nm,0.0
70.25878143310547,-15.421893976120666,21.189338180264595,-76.00939101561391,0.498760364697986,-0.10775971836775801,-0.013618247716023981,-0.39993083748611774,-0.2424031113871072,-0.04665361943537412,nm,0.0
70.26209545135498,-14.674611080875954,19.07512387002926,-75.8613409983774,0.3240110535244641,-0.16419531286510936,-0.04945801573249537,-0.38683570767806086,-0.24831641348114059,-0.026168266201817343,nm,0.0
70.28926944732666,-12.260055943678669,15.200430998380886,-75.36466639963797,0.6290842894044097,-0.18129108801383292,0.582262969399633,-0.313930650766077,-0.3312882098104487,-0.023785876699891698,nm,0.0
70.29246807098389,-11.181045417941899,13.517264248749287,-75.25689160310499,0.47395626061315566,-0.15318060110056395,0.6773762067676138,-0.28296565729947104,-0.29736417434238427,-0.036397597761624705,nm,0.0
70.30041360855103,-10.001673901185697,12.14638902045026,-75.35862308790718,0.41063381546109834,-0.05180519163406263,0.8503197401471239,-0.21709563338161644,-0.301796777533794,-0.07729345758458947,nm,0.0
70.31036472320557,-8.917896340051193,11.209585919048388,-75.70568954959784,0.09765583076807255,0.057843364690644085,0.7139215712718451,-0.13850580157730497,-0.2620468363533877,-0.11800219933103988,nm,0.0
70.33356070518494,-6.761333412859878,11.058881271407039,-76.86291211150896,0.12435786543014632,0.08507398802716663,1.2176370469521036,0.07582287463159672,-0.1570266047302799,-0.1539245388732516,nm,0.0
70.3400993347168,-6.789103652695411,11.93770006143951,-77.5287555328929,-0.45940440285972933,-0.05062499290347215,0.5716126933224122,0.16027341413935256,0.035195849879618164,-0.10833573251409526,nm,0.0
70.35036754608154,-6.733997206954568,13.321367446270855,-77.95159786425812,-0.19974080801719418,-0.21069018961307218,0.8789976402055639,0.26283579875401286,0.039239052221395954,-0.06104183438080604,nm,0.0
70.35707330703735,-7.534983194965049,15.054243330657947,-78.22938667012697,-0.15809026804115972,-0.3569816875940129,0.6744056619917564,0.29745982967999124,0.21464797527470297,0.020893567162118074,nm,0.0
70.38068056106567,-10.554313138669498,18.94918730811525,-78.76884732886172,0.14709546265679047,-0.3783374163977903,0.42942320630491576,0.3163323104779979,0.3688851782387244,0.10044423579152463,nm,0.0
70.385746717453,-12.814482619247505,20.834424581542432,-79.24675965264669,0.13785726780827784,-0.22765086643827037,0.09562370406714364,0.2798559482884112,0.48073683289880437,0.11468462925685614,nm,0.0
70.39529013633728,-15.224054096329724,22.580347324117557,-79.92765304096098,0.20614712292909562,-0.07255128865278337,-0.029930042110510896,0.2529560257688822,0.4952884345563618,0.09159087163448787,nm,0.0
70.42563724517822,-17.69465808637972,24.200293243685483,-80.78523502541721,0.3573624559812611,0.062261776416908235,-0.07561116581054148,0.23363647511258018,0.4933231650819295,0.07227254219028104,nm,0.0
70.42757439613342,-22.407853937650348,27.262763327151067,-82.37004281456124,0.3033669466504283,0.20470866190823497,-0.31556729297043956,0.23816300526132422,0.41979282361192766,0.0942166606918331,nm,0.0
70.4446210861206,-25.81106878126838,30.40738165486371,-82.75935718295274,-0.0228379010710915,0.3807094540293368,-0.6484436289501446,0.2693388716425233,0.2820327891805836,0.16257400045863304,nm,0.0
70.46927118301392,-26.979323819083884,33.00750542219343,-81.77347903990945,0.022710678115450716,0.5114318948028549,-0.7064876107554411,0.2071582119567725,0.09656143887618453,0.13941677989510778,nm,0.0
70.47459888458252,-27.09457259859889,33.723435209316065,-81.21075708542136,-0.07017309949337734,0.5614247793319112,-0.7191880415259592,0.12763949674795236,0.032078562189006676,0.09523415462046023,nm,0.0
70.49532437324524,-26.64744320503795,33.69619978242305,-80.62526680101506,-0.12921382485641983,0.5179813502613618,-0.602692391472215,-0.05222962988248326,-0.061319078362374796,-0.010643939199243635,nm,0.0
