timestamp,roll,pitch,yaw,acc_x,acc_y,acc_z,gyro_x,gyro_y,gyro_z,markers,motor_input
46.513784408569336,0.7767110144840442,-19.767846778678418,54.75731260202138,0.29640595589286295,-1.1995391935694073,0.9967314601082932,-0.018391834587238868,0.2726286579809177,0.24944402651299646,nm,0.0
46.51687979698181,2.1037278150626397,-19.000278320577916,54.97859435652959,0.6372745003029687,-1.0613066179982846,0.689011335821918,0.033295249838546134,0.2941955855517942,0.1745645948632525,nm,0.0
46.51869320869446,3.8242298024760335,-18.418363184993357,54.62275024152487,0.718113116298304,-0.9235165159149281,0.525384050950578,0.10774646981059893,0.3344431961535132,0.09018380611919247,nm,0.0
46.520328998565674,7.58303065025874,-19.05128050240918,52.67899287074314,0.8871484505507877,-0.6387929768577743,0.6387047530681107,0.32882040752263386,0.21512908992862567,-0.09515507645929751,nm,0.0
46.52217173576355,9.625681385819465,-19.827446622631694,51.5166224043036,0.7071691231563308,-0.5560926172421814,0.5016836542904213,0.3734385790794686,0.20970834458697926,-0.10052077051768296,nm,0.0
46.52383756637573,11.579016521375406,-20.777022094095607,50.35813609803599,0.45396245492653836,-0.581889384515534,0.33101366925147924,0.39271752558509126,0.16563711861815128,-0.08613850635908357,nm,0.0
46.53965210914612,15.301907833240394,-23.09697613920133,48.513446833411116,0.09498603507276766,-0.39849933655121733,0.07729548513156294,0.40812747955897705,0.1141316882162668,-0.01999966655095378,nm,0.0
46.54509663581848,17.093019367969433,-23.99773930290595,47.82839141301479,-0.10225557837904939,-0.28921036651998633,-0.16582971184109752,0.3672769183653496,0.1261249159676032,-0.013660370684049898,nm,0.0
46.55435132980347,18.925052295599585,-24.86795811379166,46.932740505511056,-0.17259829632595475,-0.13317027615879376,-0.21273666864963658,0.36792938646230805,0.12933729727344664,-0.049220849656913805,nm,0.0
46.56715631484985,20.614905215229378,-25.593076510313004,45.69381195963667,-0.09674144750552786,0.01077311061549749,-0.2549121546151593,0.3299897369414739,0.12244590805140734,-0.11610686542538873,nm,0.0
46.58785128593445,24.28317303020419,-26.399781401753938,42.82034465790974,-0.19188197780920108,0.28723029514501824,-0.20549101320817012,0.3125763151900738,0.18868171858605653,-0.14670453584171367,nm,0.0
46.60248804092407,25.665876891776215,-26.734009243926085,41.328843401495384,-0.1448954605948498,0.42076619264428344,-0.33563969823197304,0.24212663829029266,0.11738253685242908,-0.17990715428427456,nm,0.0
46.60539221763611,26.625833503356553,-27.021838759378003,40.250473897522326,-0.14068969179939542,0.4752617323877681,-0.39156980068715397,0.18087756283562192,0.06950045072568564,-0.14554419412198472,nm,0.0
46.62616515159607,26.954119200986042,-27.54976723689287,39.43343095807944,-0.445268502947193,0.47187022173317084,-0.26334859500889934,0.01616741410843047,-0.06333330058447788,-0.06089292314807635,nm,0.0
46.633501052856445,26.10314003782898,-27.6810271051232,39.82114466245983,-0.527424948987035,0.471021252113545,-0.17103236529539034,-0.08582299692866487,-0.11577188629877894,-0.0393178031773335,nm,0.0
46.65850591659546,22.79467119879986,-27.323059175136272,41.26798078620752,-0.5628328634354741,0.6022367891975081,-0.035800086711653925,-0.2758316999765273,-0.18010296540660703,-0.06366525878552007,nm,0.0
46.66199207305908,20.597790019446503,-26.950500815466448,42.053893551068214,-0.4980900437123524,0.6522413101713072,0.12027424061266558,-0.32790546260199405,-0.20462617829435456,-0.09052936693249101,nm,0.0
46.682666540145874,15.703251660023724,-26.175081343420164,43.535885396824625,-0.30390210714900284,0.7470183569212661,0.08227192455972998,-0.35795536799963357,-0.251896198089685,-0.10427951256658376,nm,0.0
46.690758228302,13.227084434655064,-25.958092190008934,44.382469952207245,-0.2832950731210892,0.6932231173183071,0.05757842504520787,-0.3363648227263852,-0.2784606268575776,-0.08227067785664001,nm,0.0
46.71230888366699,8.294316497884038,-25.70436192295355,46.32198856400984,-0.2696674142876078,0.3782204065896653,-0.1813763528957186,-0.3086139495553446,-0.2974422800173409,-0.015586356179097099,nm,0.0
46.716450452804565,6.027533739737447,-25.523900836847204,47.30564280173922,-0.3006206183023358,0.15869192122159276,-0.277224675588562,-0.29240659211269,-0.2738664085075334,0.015873672773414227,nm,0.0
46.74049425125122,2.2343704240220936,-24.64510864025651,49.27683359243915,-0.16605733154986996,-0.17764780539887964,-0.3920952384229893,-0.2768012654125225,-0.1664792401209983,0.04814942793329327,nm,0.0
46.74617075920105,1.003538572454161,-23.88939503521325,50.175610245654354,0.1371062013252004,-0.3185001653167996,-0.5767822445142702,-0.24635345436885828,-0.07397694245231622,0.07687271696153236,nm,0.0
46.754128217697144,0.6490616577947863,-22.976441526880265,50.89419807221909,-0.05108074903004957,-0.4756456846015458,0.0008001054503201387,-0.16811005833338075,0.06589243788420708,0.14280664809833749,nm,0.0
46.76358127593994,0.35603717784505484,-21.946168507762543,51.525539764515976,0.31115098135505015,-0.7061976293390418,-0.04444315802715618,-0.18032004879861394,0.08710831981714955,0.13627489376390978,nm,0.0
46.78696632385254,2.3654314913089505,-20.04267700869006,52.407053232683545,0.3903961452894237,-1.092258817233496,0.9750209466201073,0.048549094284561084,0.3321100839656663,0.2136662909507806,nm,0.0
46.795132875442505,3.8263369548705533,-19.42800340022457,52.2344607437235,0.7082705271762583,-0.9910352753755695,0.7395339811941388,0.08562900479155039,0.2933227733690123,0.10793744000193713,nm,0.0
46.82072901725769,7.716752350075902,-19.72165168253191,50.179803997912536,0.8050670462157232,-0.8429655694634849,0.6910548108799552,0.33767183415176444,0.2587387578277692,-0.0919633078510314,nm,0.0
46.82270407676697,9.725430011166674,-20.584450676962764,48.61309383051871,0.8159355252372789,-0.8522988329242017,0.5916985917064607,0.3908290874630711,0.17442799695654856,-0.17891715631729802,nm,0.0
46.846593379974365,13.777864846151342,-22.681226175368323,45.58594471647073,0.36917499125705655,-0.6989848506366144,0.3414026869824663,0.42300723509450183,0.1189071171815017,-0.14696133704614453,nm,0.0
46.853440046310425,15.496265238674264,-23.7592232056483,44.39471180410462,0.23665334385355521,-0.5174774836018838,0.08860957439058624,0.3900159441988228,0.07120270039653168,-0.11826195413191505,nm,0.0
46.87554955482483,18.801494281893433,-25.592054157550884,42.076909427845564,-0.10575651029361272,-0.10841366898962863,-0.04113008138487024,0.3437317587684908,0.07668285018814755,-0.10701254152254172,nm,0.0
46.87771224975586,20.298024412072024,-26.280259722267264,40.52427690732869,-0.15935071790512023,0.0032131101210693025,-0.01506272358900033,0.30713402990228655,0.07436814051329663,-0.18427451820277832,nm,0.0
46.908793210983276,23.562313424432634,-27.067448705932073,36.45673776741094,-0.21031256165109571,0.3257553422642613,-0.3094986318256622,0.3088385665624341,0.15183241602381187,-0.29578633099563856,nm,0.0
46.910436153411865,25.033054453240908,-27.270503714878807,34.1248201896059,-0.3605752003188801,0.3075716558596316,-0.21100025247075985,0.25086332596646654,0.11761100917618197,-0.3470842385541841,nm,0.0
46.91748523712158,25.7474574436705,-27.39245037055105,32.109432957071924,-0.30742167476032006,0.31759435649508827,-0.4637866552758819,0.1332720994596433,0.048033830402301456,-0.3563122217609978,nm,0.0
46.92525362968445,25.905206900256893,-27.43084040811889,30.82878320271073,-0.5347810613178973,0.23877064489460917,-0.2928318464721743,0.04141896200215617,0.0068164133354934155,-0.25947976625695574,nm,0.0
46.96175765991211,20.704927883840885,-27.10924365355044,32.18758816767297,-0.7091439345634051,0.57132532360518,-0.11169230675242785,-0.3831457749082489,-0.18353518683416714,0.022113134915061648,nm,0.0
46.96480059623718,17.838042367454005,-26.642720499626275,33.77687840345787,-0.6815308577027619,0.7614025907435513,-0.01440407522394752,-0.46662504504078756,-0.20233476805241613,0.05459730621440857,nm,0.0
46.97451829910278,14.887289457152573,-26.07933677313148,35.251644918414144,-0.5033434127012676,0.9467895533176552,-0.06679679156264635,-0.48642110083111045,-0.20883109753468412,0.0413594590708701,nm,0.0
46.99576210975647,9.975194285327888,-25.015528079720653,37.36972464630922,-0.30824546216451904,1.0624899132806458,-0.030840087594767057,-0.37677672129387596,-0.17426018663088633,-0.015730499546291767,nm,0.0
47.002479791641235,8.021723759450945,-24.743385734154003,38.017288064626705,-0.19125292697474153,0.9405840460829514,-0.13114251789927764,-0.3002123127191042,-0.17620463833612132,-0.030235733675261247,nm,0.0
47.011045694351196,6.440018994029117,-24.64144952556877,38.7046037255748,-0.16370799439923425,0.7007911504871446,-0.15181403813590758,-0.22430652360925732,-0.16508434190793433,0.0026969928039646883,nm,0.0
47.03571581840515,4.089438049834519,-24.36630259268623,40.91957837209897,-0.21403684204590284,0.05058239652676899,-0.3234523139583772,-0.15527523933160664,-0.09708107315436296,0.1698531958638995,nm,0.0
47.03934097290039,3.2764047477499703,-23.972741724850895,42.479138831487155,-0.19487611981591027,-0.2864573673913285,-0.39795469268649636,-0.14920859845492596,-0.04181119122169494,0.265074227581535,nm,0.0
47.071449756622314,3.3149443350505754,-22.159325451811583,46.254096541698004,-0.28054428450946295,-0.8170272130375466,0.012052020492872531,-0.0846068235356465,0.20862229637498317,0.44825190102920953,nm,0.0
47.07547330856323,3.6667009094782252,-20.78852466079623,48.013300807462755,0.051686529711539655,-1.1127786267166007,0.16703682448296361,-0.14203430589848406,0.23436439083317046,0.4130462029335408,nm,0.0
47.09518218040466,5.882058743259051,-17.946025993936587,50.65430630930783,0.5846525122660418,-1.2873373499234921,0.8286805498209414,-0.01737949344209863,0.38827613800686145,0.3474749104132705,nm,0.0
47.096882820129395,6.9155097062460325,-16.892116013492256,51.312346276543465,0.9665036747167649,-1.1847380408777168,0.7182831020449602,-0.02555412698879661,0.2866143068362915,0.2058623033271164,nm,0.0
47.12081599235535,8.681043871260243,-16.277513819231682,51.199928101982266,1.0682934085237632,-0.8570800054727431,0.6707245173502545,0.11106797271703243,0.13598647786897447,-0.006653461278879768,nm,0.0
47.125717639923096,9.240839147579424,-16.699067344293095,50.738844603475435,0.9403683364658683,-0.821914310505465,0.6506479873772293,0.1470001204737525,0.03086161266198174,-0.08141882656313741,nm,0.0
47.137218713760376,9.786879066131345,-17.51878580532037,50.20706677797934,0.6487586245123922,-0.6746882757673259,0.6294110667262249,0.2069150014329393,-0.02323922215531435,-0.10359818848969317,nm,0.0
47.158987283706665,10.674408768875587,-19.486394350890794,49.21899739732953,0.14291185543366325,-0.4302464248077577,0.23903117539769445,0.21836888258084897,-0.06340352968442972,-0.09846221798741521,nm,0.0
47.16471791267395,11.381740661174286,-20.448501115157573,48.727962691418554,-0.09480991530165477,-0.28256055619168213,0.18208626926213178,0.24659223173716335,-0.025296722778609077,-0.08513562705055332,nm,0.0
47.17326211929321,12.117239911531321,-21.342915259379424,48.08710213973005,-0.17160436298016205,-0.13292731927375345,0.07471801442387367,0.23914918350794298,-0.015268701027467638,-0.11179404924513994,nm,0.0
47.182278871536255,13.122087362408942,-22.136892150884336,47.18010911388465,-0.02025338127196269,0.07043883694773286,-0.41077232414902237,0.2572199608556917,0.031545968045800954,-0.13272237154430605,nm,0.0
47.20529913902283,16.70394734889398,-23.61281622371073,44.557916642755906,-0.2559971931560299,0.3326730330197234,-0.1166739941802648,0.3421837845041284,0.13013857740902093,-0.1502730786132277,nm,0.0
47.21161961555481,18.58503844645123,-24.229862226730457,43.104777524812214,-0.13501334548083815,0.4258898598048942,-0.42762742645445234,0.34763116872648336,0.14959943477888105,-0.14280448214332706,nm,0.0
47.238415479660034,22.8268126145916,-25.38510222006816,40.44431688824691,-0.3205421715434937,0.4255955901279933,-0.2607627795130253,0.3508008220477837,0.14784211842950787,-0.062372450344301306,nm,0.0
47.24203681945801,24.570381701230925,-25.81188304001215,39.665074359946665,-0.30642889468060047,0.4550530652003668,-0.4617656043066125,0.3094861859592642,0.13770936980372303,-0.01030633437047491,nm,0.0
47.26274514198303,27.15664106426646,-26.32962827847421,39.01109943700064,-0.4023205693775488,0.4124199832726626,-0.31535319689253677,0.1730955345676612,0.07998010283169155,0.03110068240303813,nm,0.0
47.28623604774475,27.429410986805408,-26.27778291384145,39.28230653868078,-0.3502813364508018,0.3852583562482601,-0.11057631217781433,0.0,0.0,0.0,nm,0.0
47.28785729408264,26.48337165983063,-26.08047029230516,39.7673312396263,-0.2551733238622523,0.4065266601567803,-0.13055890221008776,-0.14277913138918608,-0.07701702415004394,-0.017582423553043174,nm,0.0
47.32712364196777,20.32574762138998,-25.322797939856287,42.69841261912673,-0.19883534251189952,0.4365688332823163,-0.044217788282466,-0.3659126816029611,-0.2676787023450027,0.01901997062088695,nm,0.0
47.32904624938965,17.537439256519146,-25.042933285856922,44.372871991705374,-0.24805753562501437,0.4115109750367172,-0.0398693591929176,-0.3904243098664115,-0.30776679970338294,0.04448872534459776,nm,0.0
47.335617542266846,15.16185035498422,-24.754985908027766,45.88117679735748,-0.29497529621240676,0.3653415151239268,-0.061295164971113196,-0.4109600285560634,-0.33022908298177006,0.05500203753915083,nm,0.0
47.35894703865051,9.87553844600995,-23.756124500004532,48.79455595825931,-0.2989556159031025,0.19102057891432528,-0.21714501297992322,-0.4184492512996237,-0.31632357983792314,0.04121621710893267,nm,0.0
47.365633487701416,7.130110976771546,-23.083156235693522,50.22655276982249,-0.23291095709887763,0.10192988481841865,-0.2698255454797923,-0.41537937593394086,-0.29648973701938824,0.02763737055726001,nm,0.0
47.390002727508545,2.146007386055771,-21.271385742349796,52.71853092742499,-0.039811715433716144,-0.10633823347295196,-0.363681940437192,-0.4150476527138283,-0.23341974952796476,0.038001553105894086,nm,0.0
47.39499378204346,0.06547061677124312,-20.157357765826184,53.86314967306623,0.19664463520132058,-0.2065653253311382,-0.5386656761091971,-0.397400038144131,-0.17884908765779853,0.07268046741471292,nm,0.0
47.40768766403198,-1.2180476128992954,-18.90736159499776,54.883599621771225,-0.013580076071816414,-0.3764772724578902,0.009890938273490394,-0.3303023567430184,-0.05027716404917539,0.1423396565027756,nm,0.0
47.421870708465576,-2.340759426035793,-17.58157664249912,55.84153696953214,0.1584342012966616,-0.6054426560817919,0.22352498315347716,-0.3255054623970182,-0.023939822553270457,0.14178582474188717,nm,0.0
47.437716245651245,-1.782832526807905,-15.410613075421217,57.095604607742466,0.34695812703618095,-0.8744426890885441,0.6866486775031025,-0.03988740346259838,0.2548195541189492,0.16732578370123263,nm,0.0
47.43959450721741,-0.630860930266265,-15.079153296283023,56.923250138268706,0.5504696671030856,-0.8399369686334872,0.7297069169271052,0.08005627537054026,0.2235319832239646,0.06395754989533269,nm,0.0
47.47135663032532,5.632354598953384,-17.20828696570048,54.14188434995926,0.6762305053529984,-1.0195044923217167,0.5611745076770417,0.47546746808849516,0.23930165083920335,-0.07631794526783457,nm,0.0
47.47676467895508,8.057101112013234,-18.347473126084942,53.25140716774035,0.6527530723259756,-0.9671128183946248,0.3441746346842553,0.47141280294496074,0.23855582866693092,-0.03391885310326047,nm,0.0
47.488030433654785,10.471713494993521,-19.266005305532413,52.72614276108601,0.38081710791807144,-0.8960837287049839,0.2056001781621495,0.4361389019625724,0.2559685804797235,0.046548809452163435,nm,0.0
47.4956419467926,12.551427202863804,-20.21729743569544,52.5070893440904,0.3406411399515811,-0.665086471660296,-0.08711603762442903,0.4030173691996073,0.1972746931562333,0.0924575214797138,nm,0.0
