timestamp,roll,pitch,yaw,acc_x,acc_y,acc_z,gyro_x,gyro_y,gyro_z,markers,motor_input
47.002479791641235,8.021723759450945,-24.743385734154003,38.017288064626705,-0.19125292697474153,0.9405840460829514,-0.13114251789927764,-0.3002123127191042,-0.17620463833612132,-0.030235733675261247,nm,0.0
47.011045694351196,6.440018994029117,-24.64144952556877,38.7046037255748,-0.16370799439923425,0.7007911504871446,-0.15181403813590758,-0.22430652360925732,-0.16508434190793433,0.0026969928039646883,nm,0.0
47.03571581840515,4.089438049834519,-24.36630259268623,40.91957837209897,-0.21403684204590284,0.05058239652676899,-0.3234523139583772,-0.15527523933160664,-0.09708107315436296,0.1698531958638995,nm,0.0
47.03934097290039,3.2764047477499703,-23.972741724850895,42.479138831487155,-0.19487611981591027,-0.2864573673913285,-0.39795469268649636,-0.14920859845492596,-0.04181119122169494,0.265074227581535,nm,0.0
47.071449756622314,3.3149443350505754,-22.159325451811583,46.254096541698004,-0.28054428450946295,-0.8170272130375466,0.012052020492872531,-0.0846068235356465,0.20862229637498317,0.44825190102920953,nm,0.0
47.07547330856323,3.6667009094782252,-20.78852466079623,48.013300807462755,0.051686529711539655,-1.1127786267166007,0.16703682448296361,-0.14203430589848406,0.23436439083317046,0.4130462029335408,nm,0.0
47.09518218040466,5.882058743259051,-17.946025993936587,50.65430630930783,0.5846525122660418,-1.2873373499234921,0.8286805498209414,-0.01737949344209863,0.38827613800686145,0.3474749104132705,nm,0.0
47.096882820129395,6.9155097062460325,-16.892116013492256,51.312346276543465,0.9665036747167649,-1.1847380408777168,0.7182831020449602,-0.02555412698879661,0.2866143068362915,0.2058623033271164,nm,0.0
47.12081599235535,8.681043871260243,-16.277513819231682,51.199928101982266,1.0682934085237632,-0.8570800054727431,0.6707245173502545,0.11106797271703243,0.13598647786897447,-0.006653461278879768,nm,0.0
47.125717639923096,9.240839147579424,-16.699067344293095,50.738844603475435,0.9403683364658683,-0.821914310505465,0.6506479873772293,0.1470001204737525,0.03086161266198174,-0.08141882656313741,nm,0.0
47.137218713760376,9.786879066131345,-17.51878580532037,50.20706677797934,0.6487586245123922,-0.6746882757673259,0.6294110667262249,0.2069150014329393,-0.02323922215531435,-0.10359818848969317,nm,0.0
47.158987283706665,10.674408768875587,-19.486394350890794,49.21899739732953,0.14291185543366325,-0.4302464248077577,0.23903117539769445,0.21836888258084897,-0.06340352968442972,-0.09846221798741521,nm,0.0
47.16471791267395,11.381740661174286,-20.448501115157573,48.727962691418554,-0.09480991530165477,-0.28256055619168213,0.18208626926213178,0.24659223173716335,-0.025296722778609077,-0.08513562705055332,nm,0.0
47.17326211929321,12.117239911531321,-21.342915259379424,48.08710213973005,-0.17160436298016205,-0.13292731927375345,0.07471801442387367,0.23914918350794298,-0.015268701027467638,-0.11179404924513994,nm,0.0
47.182278871536255,13.122087362408942,-22.136892150884336,47.18010911388465,-0.02025338127196269,0.07043883694773286,-0.41077232414902237,0.2572199608556917,0.031545968045800954,-0.13272237154430605,nm,0.0
47.20529913902283,16.70394734889398,-23.61281622371073,44.557916642755906,-0.2559971931560299,0.3326730330197234,-0.1166739941802648,0.3421837845041284,0.13013857740902093,-0.1502730786132277,nm,0.0
47.21161961555481,18.58503844645123,-24.229862226730457,43.104777524812214,-0.13501334548083815,0.4258898598048942,-0.42762742645445234,0.34763116872648336,0.14959943477888105,-0.14280448214332706,nm,0.0
47.238415479660034,22.8268126145916,-25.38510222006816,40.44431688824691,-0.3205421715434937,0.4255955901279933,-0.2607627795130253,0.3508008220477837,0.14784211842950787,-0.062372450344301306,nm,0.0
47.24203681945801,24.570381701230925,-25.81188304001215,39.665074359946665,-0.30642889468060047,0.4550530652003668,-0.4617656043066125,0.3094861859592642,0.13770936980372303,-0.01030633437047491,nm,0.0
47.26274514198303,27.15664106426646,-26.32962827847421,39.01109943700064,-0.4023205693775488,0.4124199832726626,-0.31535319689253677,0.1730955345676612,0.07998010283169155,0.03110068240303813,nm,0.0
47.28623604774475,27.429410986805408,-26.27778291384145,39.28230653868078,-0.3502813364508018,0.3852583562482601,-0.11057631217781433,0.0,0.0,0.0,nm,0.0
47.28785729408264,26.48337165983063,-26.08047029230516,39.7673312396263,-0.2551733238622523,0.4065266601567803,-0.13055890221008776,-0.14277913138918608,-0.07701702415004394,-0.017582423553043174,nm,0.0
47.32712364196777,20.32574762138998,-25.322797939856287,42.69841261912673,-0.19883534251189952,0.4365688332823163,-0.044217788282466,-0.3659126816029611,-0.2676787023450027,0.01901997062088695,nm,0.0
47.32904624938965,17.537439256519146,-25.042933285856922,44.372871991705374,-0.24805753562501437,0.4115109750367172,-0.0398693591929176,-0.3904243098664115,-0.30776679970338294,0.04448872534459776,nm,0.0
47.335617542266846,15.16185035498422,-24.754985908027766,45.88117679735748,-0.29497529621240676,0.3653415151239268,-0.061295164971113196,-0.4109600285560634,-0.33022908298177006,0.05500203753915083,nm,0.0
47.35894703865051,9.87553844600995,-23.756124500004532,48.79455595825931,-0.2989556159031025,0.19102057891432528,-0.21714501297992322,-0.4184492512996237,-0.31632357983792314,0.04121621710893267,nm,0.0
47.365633487701416,7.130110976771546,-23.083156235693522,50.22655276982249,-0.23291095709887763,0.10192988481841865,-0.2698255454797923,-0.41537937593394086,-0.29648973701938824,0.02763737055726001,nm,0.0
47.390002727508545,2.146007386055771,-21.271385742349796,52.71853092742499,-0.039811715433716144,-0.10633823347295196,-0.363681940437192,-0.4150476527138283,-0.23341974952796476,0.038001553105894086,nm,0.0
47.39499378204346,0.06547061677124312,-20.157357765826184,53.86314967306623,0.19664463520132058,-0.2065653253311382,-0.5386656761091971,-0.397400038144131,-0.17884908765779853,0.07268046741471292,nm,0.0
47.40768766403198,-1.2180476128992954,-18.90736159499776,54.883599621771225,-0.013580076071816414,-0.3764772724578902,0.009890938273490394,-0.3303023567430184,-0.05027716404917539,0.1423396565027756,nm,0.0
47.421870708465576,-2.340759426035793,-17.58157664249912,55.84153696953214,0.1584342012966616,-0.6054426560817919,0.22352498315347716,-0.3255054623970182,-0.023939822553270457,0.14178582474188717,nm,0.0
47.437716245651245,-1.782832526807905,-15.410613075421217,57.095604607742466,0.34695812703618095,-0.8744426890885441,0.6866486775031025,-0.03988740346259838,0.2548195541189492,0.16732578370123263,nm,0.0
47.43959450721741,-0.630860930266265,-15.079153296283023,56.923250138268706,0.5504696671030856,-0.8399369686334872,0.7297069169271052,0.08005627537054026,0.2235319832239646,0.06395754989533269,nm,0.0
47.47135663032532,5.632354598953384,-17.20828696570048,54.14188434995926,0.6762305053529984,-1.0195044923217167,0.5611745076770417,0.47546746808849516,0.23930165083920335,-0.07631794526783457,nm,0.0
47.47676467895508,8.057101112013234,-18.347473126084942,53.25140716774035,0.6527530723259756,-0.9671128183946248,0.3441746346842553,0.47141280294496074,0.23855582866693092,-0.03391885310326047,nm,0.0
47.488030433654785,10.471713494993521,-19.266005305532413,52.72614276108601,0.38081710791807144,-0.8960837287049839,0.2056001781621495,0.4361389019625724,0.2559685804797235,0.046548809452163435,nm,0.0
47.4956419467926,12.551427202863804,-20.21729743569544,52.5070893440904,0.3406411399515811,-0.665086471660296,-0.08711603762442903,0.4030173691996073,0.1972746931562333,0.0924575214797138,nm,0.0
47.50487470626831,14.474031684723803,-21.143884631610778,52.49559173187648,0.22230596132361766,-0.4671551741214879,-0.04073972140440682,0.38005213720499786,0.17458202913660112,0.12915205661082485,nm,0.0
47.5283625125885,17.22169798999838,-22.606901324868666,52.31736966704999,0.026716536060838736,-0.14933743025819624,-0.18358207249634925,0.2582162760794661,0.08632405019889078,0.0443344096023047,nm,0.0
47.533742904663086,18.13471761462629,-23.26191892799619,51.927376606866396,0.008839451519862934,0.05486346460412134,-0.27918508258886193,0.22034229736730757,0.05475212334688738,-0.02535704042080337,nm,0.0
47.5474534034729,18.733448582760314,-23.788431290645793,51.41373997641191,-0.061028171433576486,0.0690607851336786,-0.2855081160840406,0.1643337194848163,0.023227171468013636,-0.0791504779371841,nm,0.0
47.553828954696655,18.69391360214712,-24.290704404942815,50.90885472525261,-0.035859069756584816,0.09338293450704062,-0.4385545790525625,0.08740066353457941,-0.06646828437866253,-0.13281952574013192,nm,0.0
47.581559896469116,16.450421938108907,-25.34813405391006,51.71599593112225,-0.2734897322145846,0.04585391725727058,-0.4545115933647677,-0.10124749730199492,-0.20775951793436187,0.0005268933874659034,nm,0.0
47.59100317955017,14.820737839477824,-25.38050878760083,52.840971251197274,-0.26702962830691035,0.09046291841370316,-0.4750791550957706,-0.16118345702992268,-0.23529144601812793,0.04999508809871461,nm,0.0
47.615671157836914,11.354853432158878,-24.80484699086511,55.39178202950241,-0.3458988982122374,0.24294176036503454,-0.34637809001239905,-0.2377742060541822,-0.22200714713420547,0.06988572900054053,nm,0.0
47.62093949317932,9.77633962109182,-24.367479275557436,56.416604913800434,-0.28913770589919524,0.30979850444766643,-0.29777557856229725,-0.2195713641264843,-0.18683665287680903,0.050571191702057774,nm,0.0
47.63009548187256,8.476022604278397,-23.91983346924992,57.18258181490824,-0.2744550077964556,0.3288351925634911,-0.1564308321335412,-0.19105760249439419,-0.14759084333724157,0.027425674174628056,nm,0.0
47.638158082962036,7.322122015211417,-23.480391706751956,57.695088078726556,-0.16359531432472918,0.31714921764162135,-0.22663362840751472,-0.17405664415940258,-0.12870966591976354,0.0067858175784558305,nm,0.0
47.64800810813904,6.409050786267452,-23.10061810239949,58.182524334696716,-0.12580752183516292,0.22943318589601067,-0.1872116726809451,-0.1395987906058787,-0.09971575573798518,0.022445438780170204,nm,0.0
47.660985469818115,5.598802964845937,-22.737824129958724,58.78241716225339,-0.07995715719047695,0.1288693636428727,-0.16409275352192146,-0.1260445999023245,-0.087139991376273,0.05415291957665009,nm,0.0
47.683491706848145,4.13604898523609,-21.738643263920157,60.303517798031834,-0.08544633035649316,-0.13107110949149278,-0.20059058899131593,-0.1464264848498081,-0.05386958115183175,0.13453524093519487,nm,0.0
47.68824124336243,3.474483089905616,-21.08858369286724,61.12500946916997,-0.05617597884294042,-0.17265505227258884,-0.210841494519724,-0.1599356799960993,-0.041123251099138024,0.14368790851908744,nm,0.0
47.69550943374634,2.91350268486548,-20.31347082120519,61.88001234233264,-0.0271663392125248,-0.1591232460099277,-0.20755299185612358,-0.17259506065656524,-0.015499783140324847,0.12888222064767269,nm,0.0
47.70635771751404,2.4739566765323007,-19.466071772634173,62.40040258167692,0.02829123272983935,-0.10342310707011068,-0.24337183258713474,-0.1747463677322047,0.008981179556457082,0.09378920123140173,nm,0.0
47.714483976364136,2.183242659041567,-18.657899467593438,62.65123600923084,0.02750446487530782,-0.03739147360987229,-0.08493668951224671,-0.15500410568659667,0.028719469374478616,0.056216725661502716,nm,0.0
47.741865158081055,1.4776343900170736,-17.25166718832603,62.61251125838991,0.21415864657538194,0.05744350194584034,-0.09361211308098866,-0.13562673954309407,0.0030450026388309393,0.002618761373634171,nm,0.0
47.743457078933716,1.1391386873998124,-16.71628623385572,62.68956395072552,0.21105542833101212,0.03063985233615329,-0.00414752964977717,-0.11107218641196566,-0.005730059121682961,0.012014005550770162,nm,0.0
47.76602864265442,-0.26035952346169816,-15.946606074544167,63.24482286564824,0.16876653398051897,-0.08534888085454162,0.0008263226257309689,-0.10346191816238508,-0.053375585495986734,0.035935363403480955,nm,0.0
47.77462887763977,-1.0241408206545506,-15.444709796052068,63.556652830990934,0.08135980857730386,-0.18098615148873107,0.03069536265534911,-0.10332603482764227,-0.06667037873818378,0.03640163042047202,nm,0.0
47.79688024520874,-2.5503575426953757,-14.323069097343339,63.83193210919954,0.008395737070335387,-0.18751676412045004,0.04202891016086416,-0.11535395255942735,-0.07520594436505366,-0.009783048836701494,nm,0.0
47.80252695083618,-3.2586203602975026,-13.754037240708023,63.751465107708974,0.014035415866132571,-0.1317178535133752,0.05138784897429134,-0.12126225982418433,-0.06786678527658406,-0.03992330003424469,nm,0.0
47.82552170753479,-4.515458594949509,-12.882516377897934,63.39802035541243,0.08793373982796718,0.026238832362191274,0.13584329450799476,-0.1116154585484675,-0.06190154364864677,-0.059953356972274684,nm,0.0
47.83068490028381,-5.119531385927127,-12.495725496773613,63.28825430268929,0.0821230311511482,0.04723340328150089,0.1439374531168089,-0.10805047792282094,-0.06871785359136429,-0.043268967035081755,nm,0.0
47.838255167007446,-5.772284985804206,-12.188281940985192,63.29537431297691,0.02845296783739607,0.02057187120105792,0.17082441153513986,-0.0982689696024398,-0.08443683680587402,-0.017422778384766642,nm,0.0
47.84933257102966,-6.471164315393922,-11.942065350159208,63.39138339117886,-0.06448194470255258,-0.016326418145504177,0.20557112621886284,-0.09135412544147359,-0.09824198330575709,0.004171040961005885,nm,0.0
47.86101174354553,-7.213568929114993,-11.68792439210601,63.515857292809734,-0.17986306305365363,-0.07528506695547203,0.18190202840694017,-0.09643985031414319,-0.10549731981098623,0.009965727665211352,nm,0.0
47.87269425392151,-7.967851312649437,-11.421772591116506,63.57104617139746,-0.2721179032103855,-0.10245250993160257,0.11511857346286224,-0.09951602335498506,-0.10683506981631308,-0.000860766835032337,nm,0.0
47.89041614532471,-9.275076814234337,-10.887251675254388,63.31304995566255,-0.2739240968623247,0.03898037496816971,0.05398832251934902,-0.0896962470814541,-0.07791999097828728,-0.03593258800186364,nm,0.0
47.89623975753784,-9.729553989620376,-10.59835996634793,63.151716595317595,-0.2341739311744545,0.11808458207228403,0.0021599096074884448,-0.07768256510408973,-0.052139608958890624,-0.03329079147454384,nm,0.0
47.91945552825928,-10.368685938984793,-10.100375070084297,63.087503562921555,-0.07736819487443501,0.2346549872900541,0.047622695426590485,-0.05491362568413859,-0.022818612280598612,0.03952188614504306,nm,0.0
47.924187898635864,-10.248033428498227,-9.954506260225443,63.36630870290333,-0.08340822098337465,0.17312431923462213,0.056046488768640615,-0.03699405013314467,0.018466257456613202,0.10140321380664352,nm,0.0
47.93353843688965,-10.1151124198989,-9.702642143147564,63.888375348317055,-0.12741546742053944,0.07246864741872575,0.10407080520865086,-0.019194647370626657,0.04766324134714097,0.1492992626604988,nm,0.0
47.94273114204407,-9.78498862679074,-9.334497720915861,64.42851758061484,-0.10437361817610397,-0.0530052753563713,0.05527541341037746,-0.012236336731034348,0.07091022150766538,0.16459001902103493,nm,0.0
47.952505111694336,-9.330698627023038,-9.008318329219561,64.84326648712624,-0.1339523636306632,-0.14882614637710936,0.08258876053934412,-0.0061032040104429305,0.11113588518808593,0.149339990968393,nm,0.0
47.964191198349,-8.863039236209154,-8.639985901510341,65.04593660324002,-0.11613593464031487,-0.17877616143467326,0.1616793623623142,-0.013210246918664308,0.11714833994715304,0.103944123138437,nm,0.0
47.984480142593384,-7.988845348185209,-7.815900880613976,64.99993688030303,0.09704541157096203,-0.07756189033189886,0.21332094385055206,-0.022603485368903733,0.12173116156821993,0.024148553391003885,nm,0.0
47.992488622665405,-7.719655718956395,-7.453817994436955,64.85401879623436,0.18859450953791268,-0.009966632102546046,0.23563987784360765,-0.02880826212822347,0.0811754849864373,0.011528384977677183,nm,0.0
