timestamp,roll,pitch,yaw,acc_x,acc_y,acc_z,gyro_x,gyro_y,gyro_z,markers,motor_input
58.00346040725708,-29.053031719262677,39.25711721463389,-71.43498298600255,-0.20313403901064955,0.30548090958114116,-0.15536322947448308,-0.181464817481276,-0.42882074007376886,0.10564120077959663,nm,0.0
58.005035638809204,-27.025445296762225,37.69257906994321,-69.50003382035963,0.007740875084389235,0.28230237337894526,-0.2485581254951045,-0.19769968717590772,-0.4148181296699478,0.09141051927503223,nm,0.0
58.02748489379883,-24.055748552902692,33.67187644630636,-67.38965234649496,0.49947256129418227,0.035345840376836794,-0.36080098727842874,-0.33314873772688786,-0.37533349191291593,-0.022528724314769807,nm,0.0
58.03199100494385,-23.066110604401846,31.206392763258012,-67.24300435762407,0.8041842185666536,-0.19606388755288998,-0.2427475408419466,-0.39988360183765315,-0.3554214152453208,-0.09050070965665559,nm,0.0
58.05573558807373,-21.938490976683507,26.04255546145732,-67.81138891976708,1.2013527603713345,-0.7467437253558213,0.5219557559480114,-0.45635243583713114,-0.2734742777039847,-0.13279065576255053,nm,0.0
58.06094980239868,-20.939963658942382,23.732425558589696,-68.10645360253851,1.1849712050287493,-0.8387922325019449,0.7160738965081653,-0.3695737803476756,-0.35259261069017295,-0.1592079060772875,nm,0.0
58.07096767425537,-19.44380899357293,21.97673151284604,-68.20834607383793,1.3497306342956927,-0.7508736546380252,1.1470365017515967,-0.23245051331636926,-0.397806637109506,-0.15259547170024182,nm,0.0
58.09512543678284,-16.07720041187698,21.056006607897075,-67.94391292091224,0.5229710259423762,-0.4867761175306656,1.2326462413729562,0.1335809085748573,-0.35803045573817077,-0.0994996292503585,nm,0.0
58.101991176605225,-14.169119317435916,22.010087665597506,-67.62258237933416,1.056993241615575,-0.3944850723188996,2.0970418967758397,0.30223423582304276,-0.2670681539911326,-0.08063202240390197,nm,0.0
58.12771034240723,-13.792633803859161,26.198151102043315,-67.77027172339061,0.07196458500545784,-0.47165193876807404,1.144132410953615,0.44558750509721584,0.1438071643090807,-0.044727807411198243,nm,0.0
58.13039565086365,-14.60087228768386,28.89752648004863,-68.5578299458408,0.44647459296568587,-0.6002223702842618,1.1807445676579307,0.43966967142080576,0.32372658859697184,-0.04131865165061743,nm,0.0
58.152716636657715,-19.957792833230727,34.30765386768011,-71.64999653287319,0.17765015988569502,-0.5613349403123651,0.22069063422370802,0.33302864265023846,0.6259440114890967,0.024006241290873434,nm,0.0
58.15813088417053,-23.656678171711615,36.66870424469066,-73.58888068509663,0.19060684369654374,-0.3802660153976942,-0.09707639676096427,0.26256269880924654,0.7068111358316601,0.09831797885604854,nm,0.0
58.1826548576355,-31.319023461571405,40.59635795163162,-77.06348473784446,0.025531857936663623,0.03425362677351359,-0.5708059947569922,0.2244862696388894,0.6288301036961922,0.18765626544813876,nm,0.0
58.186224937438965,-34.88309499584677,42.40920092199807,-78.32153107841701,-0.30420228526933984,0.3436946424619631,-0.795628110702422,0.23071324683256045,0.5899212370637503,0.23967304784905555,nm,0.0
58.211023807525635,-39.90166771736446,45.46749822241525,-79.91788573524954,-0.36752873112347456,0.7199082371499612,-0.8180620570560687,0.21415740449933618,0.341048906718301,0.19209913761355077,nm,0.0
58.21534180641174,-41.66421703620695,46.60909736001979,-80.42666999231506,-0.666711911996393,0.8980634497299406,-0.886085246035119,0.17323652333116088,0.2706191562949022,0.16200261195601712,nm,0.0
58.23706817626953,-43.19601167987845,47.52046231821974,-80.91481710195818,-0.6587048123597325,0.8909772336177987,-0.814478579394711,0.0190149670526155,0.058611702527541415,0.04043867634286784,nm,0.0
58.24176597595215,-43.136295698968034,47.2876946896486,-80.8620746712695,-0.7691761230657654,0.7913920541639567,-0.791136983377854,-0.05503724917729814,-0.025154462542782845,-0.000917052694668211,nm,0.0
58.26235294342041,-41.01092819223629,45.86305535418648,-79.65332237429188,-0.6759821093465561,0.5495168047189448,-0.5966492308300212,-0.1452185083394666,-0.22455643179835916,-0.053408248098172705,nm,0.0
58.27927541732788,-36.7856728567017,43.76661352977232,-76.97057845487025,-0.541798659996583,0.3963969981859272,-0.32514141092672905,-0.15311456887479216,-0.38109449012893465,-0.05520477674351246,nm,0.0
58.299407958984375,-31.783447637442965,41.19913840261018,-73.62771409477895,-0.4162769898063499,0.2595886677440704,-0.13656523202967977,-0.1699528501721193,-0.4444355264209761,-0.03203404388621356,nm,0.0
58.31325364112854,-29.41633084801304,39.66436433386327,-72.00963678929128,-0.33512030621477196,0.1860688284805159,-0.13421059401180985,-0.19608025396335335,-0.4457009821990023,-0.023712933874338763,nm,0.0
58.31821274757385,-27.30034050653837,37.923030867681234,-70.56327416996125,-0.230645177520955,0.06426994609411281,-0.17629783431671683,-0.23323303061597642,-0.43502440642217305,-0.014441255393979684,nm,0.0
58.342472314834595,-23.756715567286573,33.88003783442684,-68.21878215331404,0.10987805928224213,-0.13067401119485295,-0.24961963062294662,-0.30453493666051984,-0.4180002001587039,-0.0008156178932233227,nm,0.0
58.34685730934143,-22.29395763676254,31.60705194759125,-67.19860650467008,0.36247116550691394,-0.24369009367107314,-0.20146172672175924,-0.33616158914020916,-0.41151037806248203,0.008945910077045144,nm,0.0
58.37080526351929,-20.037512466469195,26.925959421232545,-65.73151935107296,0.9786897148197461,-0.4599633075232079,0.3927929443856753,-0.3650637624281804,-0.3639495260831486,0.012128782464734306,nm,0.0
58.37505269050598,-19.168994533589945,24.671940908665444,-65.34055834649728,1.131734912275068,-0.562534484760157,0.6743026015880624,-0.3545851354336035,-0.34032194674980126,-0.0014487468814508918,nm,0.0
58.40194344520569,-17.460267230206366,21.299008153072684,-65.09135653655073,1.0701599336640317,-0.422615540045921,1.1062561016838903,-0.20328756861975364,-0.26928925381534746,-0.05859486568506457,nm,0.0
58.403796434402466,-16.652210153380604,20.583357166842244,-65.19923480786744,0.8428524709981374,-0.32413996554486096,1.2509132346627656,-0.07500315480245406,-0.20830990436431093,-0.0835043870631117,nm,0.0
58.4155707359314,-15.957200081226949,20.807353225394042,-65.5425818085746,0.6903088289300775,-0.26270655269297505,1.4555457209999703,0.08636936477601825,-0.1105732033019977,-0.10161064882407311,nm,0.0
58.436972856521606,-15.74760484506963,23.890170749228137,-66.58603318853669,0.3641670734924294,-0.3049129418082563,1.2988569602871782,0.33084110171048187,0.1617713419454242,-0.07913737396962361,nm,0.0
58.44229602813721,-16.51130596000121,26.322298845783124,-67.3014213201743,0.36913729110944055,-0.44715440082181934,1.0626414277646568,0.38533940911845993,0.30727523623459313,-0.04498939040540691,nm,0.0
58.46877384185791,-19.983246449033068,31.860922505028576,-69.39840015746687,0.26301933939395283,-0.4378971728851786,0.2409906054112608,0.3827142455216878,0.5134082345449915,0.018643052654316213,nm,0.0
58.47046399116516,-22.441357422701326,34.40868591909765,-70.74969786450065,0.2652750431323661,-0.3800601897790575,-0.028169272138038413,0.330497656970228,0.5509579006466667,0.041668483016853955,nm,0.0
58.4937903881073,-27.91405952253178,38.76212443608652,-73.94284234461084,-0.030887818707350273,-0.007873009014081101,-0.5851001746156602,0.2607491755205598,0.5278472530202971,0.050931131727523414,nm,0.0
58.499430894851685,-30.441943930826604,40.63631987089818,-75.56102292246874,-0.24678933695950828,0.23053656883563342,-0.7088893698759068,0.25037333707469916,0.46443490994644127,0.047015173480112034,nm,0.0
58.5246639251709,-34.323945437052934,43.96209173387427,-77.92336121220409,-0.445566512232739,0.4926866294436284,-0.6810411489208881,0.2514484744247064,0.31205910771981954,0.04655989299497402,nm,0.0
58.540178537368774,-35.654414075038,45.50152141386864,-78.7587582784337,-0.5519217926034544,0.6405922521739807,-0.637444023681305,0.25326142714661215,0.2382628203496738,0.03013702420615992,nm,0.0
58.5420925617218,-36.60457235503424,46.79048486378974,-79.42778065851317,-0.6206314327331134,0.7504974492236637,-0.6093194492550043,0.21804187459340854,0.1689523362379505,0.015187787503290277,nm,0.0
58.5459246635437,-37.28794923688034,47.711800525262205,-79.94855446329382,-0.7243382168967002,0.8057070143665043,-0.6304798238913217,0.1542900863760304,0.11525666320555118,-0.0014679143688901134,nm,0.0
58.57106876373291,-37.76560348127268,48.20545004382453,-80.74425105602542,-0.8011068677693763,0.8024831668143024,-0.6307068843807496,-0.013540833214895635,-0.00017743480320968756,-0.06058414964902936,nm,0.0
58.57858419418335,-37.35030732233082,47.72142791263414,-80.83046366038013,-0.7741816565548459,0.6664146565336528,-0.636371396854639,-0.09754431047175091,-0.07943377295396561,-0.08256657133968813,nm,0.0
58.59886717796326,-34.84411413359873,45.930200957455405,-79.65580957345101,-0.6635360961068428,0.44038673088392827,-0.6141738389105127,-0.1713357380777861,-0.2516236272201853,-0.10242458486247327,nm,0.0
58.6242356300354,-30.06723322544678,43.2860255965902,-76.6723223476844,-0.4269807928008337,0.17217891692098786,-0.49387124942477617,-0.20677170011030077,-0.4416772337387903,-0.0666923643555761,nm,0.0
58.62725567817688,-27.243503655242527,41.64853834725606,-74.74771674219893,-0.29981951339334484,0.0831048595842348,-0.4236937219365077,-0.2243436859639761,-0.49448482777449576,-0.038160355426270214,nm,0.0
58.632280111312866,-24.439748853846183,39.739352980881804,-72.81010064312005,-0.12398113212215474,-0.023757251996473154,-0.34742970774774196,-0.2575297995274674,-0.5250149395594544,-0.01593200131032452,nm,0.0
58.65532326698303,-19.60815736154866,35.09723081118778,-69.64852183799104,0.3211942872620685,-0.3212893053108201,-0.17654198873629143,-0.34816516459074626,-0.5136076339063119,-0.0019437739002626522,nm,0.0
58.685542345047,-16.371337452267944,29.711782084894544,-67.71432453442421,0.8881824763517803,-0.712903438903461,0.4930251066439387,-0.43177079059948587,-0.43997505198611053,0.005520742297162311,nm,0.0
58.70282006263733,-14.487970090515377,24.971830485752573,-66.34640443819185,1.1797816257032712,-0.809317352641945,1.393665654937395,-0.33823694766586004,-0.3121955910941862,0.01654046369076252,nm,0.0
58.70791029930115,-13.955537232569156,23.646879135216576,-65.79302494892941,0.878799751924921,-0.42720624766923176,1.3435472022203954,-0.2114389630901343,-0.20722197803786596,0.018731667716481496,nm,0.0
58.71812891960144,-13.656978950965515,23.179263102080697,-65.51562640792213,0.7032766674887492,-0.1347667941391363,1.557123928730153,-0.0712991707679302,-0.09907907571823825,0.015322628664756319,nm,0.0
58.73377299308777,-14.365804922916597,25.330044011633493,-65.8682215267693,0.4474402365762787,-0.14611921872091568,1.491957821738895,0.24427030079699574,0.2184123672505105,0.016275236033979696,nm,0.0
58.736567735672,-15.338395225225515,27.773342290584555,-66.39712982065463,0.45733114569051164,-0.33127001773358716,1.1613338423655917,0.36866050329741434,0.3463992803573871,0.021808716599820577,nm,0.0
58.77874040603638,-20.81564911416652,36.34169439274953,-69.01742712515652,0.3923004655943815,-0.4987860661608223,-0.2057836145106286,0.37213913130549253,0.5341531217607642,0.07742605253677079,nm,0.0
58.78100252151489,-23.33034239219214,38.645311812043694,-70.32603944400445,0.27699646798216404,-0.27291201914121044,-0.4440873311267351,0.28494017313053216,0.5247664861993057,0.08270427935256522,nm,0.0
58.79499077796936,-26.027358904881755,40.48251891080945,-71.81901340716887,0.072084631742844,0.009674000071314269,-0.5959058278221342,0.2037565129455736,0.5032921452259185,0.07555100560018514,nm,0.0
58.796923875808716,-28.71369453236589,41.9769252529337,-73.47720348818184,-0.1179470818099133,0.2909060072392379,-0.6144689291807721,0.15557182842234027,0.4656388300177918,0.05277948583004963,nm,0.0
58.80404496192932,-31.21019408519925,43.23023754235409,-75.10833354702467,-0.30206564597563396,0.5021302433968096,-0.5987876021417919,0.13219936869385643,0.4125450168626252,0.03257559009516309,nm,0.0
58.82578229904175,-34.96389583596412,45.53433807806078,-77.86750338357592,-0.5578041418314811,0.6746437752144797,-0.5850757025063278,0.16414242584303054,0.2674941545822626,-0.008698569468909519,nm,0.0
58.83156371116638,-36.066775731783586,46.6591774669844,-78.79000204125845,-0.651365558502452,0.6750686798334372,-0.6055071367684548,0.17915540912089523,0.1862545658770731,-0.021389184134653117,nm,0.0
58.85924696922302,-36.634428642583686,48.320505818990235,-79.53762818696734,-0.7208580134875279,0.5888969322724132,-0.6321371078702922,0.1239034804820911,0.020449372045608958,-0.041219397776945915,nm,0.0
58.86455988883972,-36.26110008614077,48.59706191087927,-79.47298686647495,-0.7281516545551966,0.5191720821504429,-0.6390504431114953,0.05282813279058095,-0.04764305436738983,-0.04681685038221096,nm,0.0
58.90918707847595,-33.581098351209725,46.81246595675568,-77.78231913529736,-0.6313037600765369,0.33016397010763493,-0.3702335135103086,-0.16908477119914034,-0.1945779928432354,-0.03525432884970177,nm,0.0
58.91187024116516,-32.31671178295233,45.611353711465156,-76.79696478083646,-0.5956292287022823,0.29516385132419504,-0.26731697251109043,-0.20636983648881496,-0.23309247398858748,-0.009507361793774819,nm,0.0
58.92312216758728,-30.854645519226192,44.26913884119842,-75.50007585289252,-0.5431619400127985,0.258112341630245,-0.20712762461173068,-0.22140585942953722,-0.27499425049445725,0.02385296772350144,nm,0.0
58.93876600265503,-25.585672265449862,39.92530311056917,-70.15438708369287,-0.1712120595582431,0.1067424738866484,-0.3261263017257684,-0.20911627021777446,-0.37582932335726393,0.10819228019220908,nm,0.0
58.94770789146423,-23.73085545538795,38.168588346667555,-68.19348786827096,0.020740749527751554,-0.0010358934744672888,-0.43788876645110936,-0.23494074646712937,-0.4050163442787399,0.11555160983286679,nm,0.0
58.955925941467285,-21.9374679551442,36.10874139537053,-66.4776226868551,0.20050832077899822,-0.12029535014146758,-0.5702635933465626,-0.27910504422700577,-0.43347181469527435,0.1068511806807481,nm,0.0
58.981974840164185,-18.580197394490497,30.77614619918079,-63.50908560213283,0.6561775856732138,-0.4067515571616075,-0.5974004681522692,-0.40717946526104576,-0.5109175137597219,0.06889254481857704,nm,0.0
58.983890533447266,-17.04957514278063,27.547637181711746,-62.213408244985864,0.9152105721882684,-0.5236672212346978,-0.27321509606726435,-0.46005562718034715,-0.5451129321923966,0.049857555178984284,nm,0.0
