timestamp,roll,pitch,yaw,acc_x,acc_y,acc_z,gyro_x,gyro_y,gyro_z,markers,motor_input
71.00123620033264,-9.959712642448693,12.423460390355407,-74.68415551117057,0.5507800495398895,-0.07082382440046836,0.8391542053148694,-0.28839213580732226,-0.2731012748630935,0.04667359086197666,nm,0.0
71.00421595573425,-9.119552915719796,11.225972867196127,-74.38384156728937,0.3582981679873033,0.1963903662730172,0.8315223192939124,-0.19667582004396703,-0.23250487702595163,-0.007000640230225043,nm,0.0
71.01516509056091,-8.37766718010851,10.667645108586497,-74.56490013114147,0.2519486906034195,0.38013172799895867,1.1079617001570057,-0.07837952901831208,-0.1800786430036996,-0.07521882935139232,nm,0.0
71.02330255508423,-7.854517263565906,10.856200981125182,-75.13976555877062,-0.053223718516426904,0.40609036182942415,0.8902949122205547,0.05346098425650438,-0.09897545228935245,-0.12573316701827006,nm,0.0
71.04695701599121,-7.809684522789543,13.520266650455095,-76.55862866276019,-0.04819451825568968,-0.016139669813698538,0.7855298540798583,0.2977509043392796,0.1606516268076494,-0.09185681755797287,nm,0.0
71.07291650772095,-9.341444441691609,18.09667109399217,-77.26811445442549,0.22536631783734123,-0.451295256905103,0.6096993667786306,0.42229256223619555,0.24744518041384148,0.04032404421925773,nm,0.0
71.07522082328796,-10.775251745845237,20.453329474675364,-77.38679498006367,0.09596727521553507,-0.42010185137131645,0.0729164717321111,0.3910501670057866,0.3588191894101745,0.10447121994344777,nm,0.0
71.08211994171143,-12.162491884852626,22.628861283594937,-77.57237332384518,0.2514515357358104,-0.2822051520550944,-0.023983703135778398,0.35910150997873536,0.33784126598716135,0.09061847977934472,nm,0.0
71.10450744628906,-15.619926155612657,26.082891714462377,-78.86170079073537,0.16614075193220115,0.19306256370282296,-0.40082130261105614,0.22884293574156112,0.3833645901283338,0.010091249004908561,nm,0.0
71.10874271392822,-17.252932377048193,27.365861071352352,-79.92215015278981,0.23375858532875832,0.3102314837016017,-0.37100977876114544,0.1879548084814619,0.32618616089921026,-0.04825914412793358,nm,0.0
71.13218021392822,-20.123239307166923,29.603627584640556,-81.83207864307502,-0.11730327822034589,0.3595139401724931,-0.6556797309271282,0.1728094673234304,0.2537657505599776,-0.03129731040169599,nm,0.0
71.14835977554321,-20.48384882443379,31.646223757309077,-81.99041204213063,-0.03675914082754288,0.3107314807149706,-0.6529068914353645,0.18270302506787753,-0.0033036344412612595,0.014872562894639221,nm,0.0
71.15853571891785,-20.005610629372605,32.37982908323583,-81.48161100892787,-0.2266741982897307,0.36127720369818517,-0.7667555227920593,0.1456593219662647,-0.06680837177451396,0.04641642450651985,nm,0.0
71.18310976028442,-17.58379006909013,32.611417559408586,-80.06075860888072,0.07075031516063843,0.32760130779903796,-0.3784107413714963,0.00021197302635567772,-0.2338935763583428,-0.032430953428756355,nm,0.0
71.1906509399414,-16.735826128689684,32.01142911497238,-79.5980240503183,-0.3883703518661429,0.39804191190596583,-0.5707435761995548,-0.10384508539894273,-0.17016308934097116,-0.03069743332920567,nm,0.0
71.19407916069031,-15.613587612624865,31.064101352568464,-79.32917262870744,-0.329077379477834,0.31560624153447403,-0.3318095449428938,-0.16231674709778285,-0.2307299650410345,-0.09126054054528966,nm,0.0
71.20323348045349,-14.597257083906939,29.860790209319873,-79.1141971337459,-0.2649327421094688,0.2566886515360011,-0.14629117818411144,-0.214714837257406,-0.22519101607379322,-0.084423096301184,nm,0.0
71.23099184036255,-12.913858736971427,27.12115177483744,-78.17978158875124,-0.2809218959498849,0.17117429540633242,-0.08541964795685045,-0.2487561005971099,-0.22524287766351303,0.019116443171729045,nm,0.0
71.23298907279968,-12.180879712841836,25.729330857041205,-77.30105885469116,-0.20476414788965427,0.1906575596625503,-0.1395314029784316,-0.254990564507624,-0.1958204814993914,0.09626035491732676,nm,0.0
71.24333786964417,-11.537823932665157,24.281587472372554,-76.28231057976264,-0.09469077919988439,0.17445500521576013,-0.18544474763144328,-0.2659634368299525,-0.18826812500595702,0.13926120112071366,nm,0.0
71.26587557792664,-10.56806507265256,21.189047813995074,-74.72501705161469,0.31677362954879973,0.13636705131486654,-0.12406650599163475,-0.30068348476726475,-0.1549961140385808,0.10247793590206992,nm,0.0
71.27021360397339,-10.395580077988665,19.46709310888696,-74.50319436132928,0.5955554919328031,-0.003544508467950619,0.12086071277941197,-0.33394847013063295,-0.1315312717975382,0.04139350262794665,nm,0.0
71.27920031547546,-10.618210425402408,17.661334574546185,-74.51310521335677,0.4498027001326415,-0.15055070565386428,-0.07955228240507053,-0.3696720814583295,-0.06533681830134769,-0.011261381419880395,nm,0.0
71.30630850791931,-10.028203382120564,14.006408654560023,-75.20747521809984,0.9640617640099873,-0.45969307034911466,0.5838643088001201,-0.34088727563131277,-0.18011106181816544,-0.1115477869629176,nm,0.0
71.31315922737122,-9.7856454866355,12.317430169546949,-75.67413289502656,0.782709802848444,-0.5263787108194182,0.5858091442341108,-0.32555024356591306,-0.1399745659064691,-0.095667485999925,nm,0.0
71.33196830749512,-8.235757789871425,9.952463655766486,-76.16554247231056,0.6637341108388922,-0.20245832713028752,0.9414032645763065,-0.15556332757866667,-0.22199112243094363,-0.06280290742939405,nm,0.0
71.33639478683472,-7.367355044706656,9.524635239364962,-76.26090742486633,0.3427448191160473,-0.00180297247183541,0.8815907432549501,-0.052311633253801365,-0.19621315783627924,-0.05322110374082465,nm,0.0
71.34585475921631,-6.401741034472435,9.703635824021493,-76.38495578260553,0.18061407186921585,0.09562764643478563,0.9835750488371573,0.0699736396327856,-0.18602760881270294,-0.06206017844364923,nm,0.0
71.37129259109497,-4.650501153022926,11.931709883169054,-76.97990967234341,0.22031884745289265,-0.06401461505562961,1.1137634775673204,0.2984138568619574,-0.09891322788625813,-0.0944619912827687,nm,0.0
71.37640261650085,-4.891263330250231,13.727478317813723,-77.52135914678657,-0.09148338567039346,-0.2948689235691067,0.5931449322245549,0.3304043504203659,0.11612870179088257,-0.07309105744521192,nm,0.0
71.40026521682739,-6.2030097782160905,17.784388204615087,-78.6512247985178,0.040466522044590565,-0.5520868935266465,0.4885473773603659,0.36139445094902867,0.22211491491827132,-0.026679716884692173,nm,0.0
71.40392208099365,-7.83312235769833,19.746666816831947,-79.24731529068427,-0.14031115689087476,-0.43379120026858214,0.048462736179195255,0.3166123072071705,0.36996810513364586,0.03256892182741102,nm,0.0
71.41487193107605,-9.623519309001985,21.600689629700376,-79.83594491744648,-0.009504978292364987,-0.2663997985409875,0.0681977995931677,0.2942045097662792,0.38879396562327206,0.05270920953619106,nm,0.0
71.43296360969543,-14.212300384328243,25.139165821107266,-81.24464718793946,0.06910971535117133,0.17610444583085308,-0.14185259807853268,0.26412672873012766,0.4914612470057139,0.08960578143900494,nm,0.0
71.44253706932068,-16.54731453200725,26.887829503869867,-82.01933651211708,0.22315232809045069,0.27066837040083863,-0.12312174946883375,0.2745728375954986,0.4587023531779545,0.08019969205912143,nm,0.0
71.45832538604736,-18.86517180160891,28.667581206152487,-82.83930285377626,0.23390822890526475,0.3318551379782571,-0.26880050962065904,0.2884499411673762,0.4459888568404254,0.09013923662769456,nm,0.0
71.47423028945923,-21.012753401052827,30.45743758830742,-83.58572360909412,0.21602689974761996,0.32259705070800965,-0.37880526902685613,0.300817259424918,0.4057635772536387,0.10318341096119038,nm,0.0
71.47909641265869,-24.135324153954393,33.780132743922934,-84.22229051612379,0.033226323048813955,0.3533648052051769,-0.6833549402259013,0.2824008349630255,0.2382716911919665,0.1014618681537081,nm,0.0
71.4916467666626,-24.92977051637087,35.09381937905509,-84.08956548530504,0.0866759882232206,0.3822373396847584,-0.6919940067468678,0.23642849244297082,0.15019189256231505,0.08320543341384481,nm,0.0
71.49912452697754,-25.47188782726611,36.01825884842086,-83.86735038071653,-0.08683531858465891,0.46716938024144583,-0.745955684557667,0.16300800092324716,0.10001356558698567,0.07137430779770257,nm,0.0
71.52668905258179,-24.839827058159262,36.366173988243624,-83.19855096489361,-0.0998779632077218,0.5172210067619926,-0.4025754615190881,-0.04641161678411916,-0.10812015415094654,-0.05063396531787181,nm,0.0
71.5365138053894,-24.309998708620416,35.90405221839063,-82.87481875318305,-0.19627536319447245,0.4929993161676183,-0.32388664868548384,-0.09291168291524997,-0.10391052812112948,-0.030262578894587368,nm,0.0
71.56073999404907,-22.535439414965186,34.5832357732041,-81.65609646848894,-0.19361198238729693,0.34228809514628095,-0.16249658308896345,-0.12651834269942258,-0.20563297881669781,-0.018119666755226676,nm,0.0
71.56626868247986,-21.60843236688489,33.76307424204471,-80.77869547682386,-0.30456789743022633,0.3407812022638711,-0.2631244186297086,-0.14990079982387786,-0.18483312845734678,0.03369053865738341,nm,0.0
71.57949423789978,-20.5961141879014,32.79135175158385,-79.82179308161477,-0.24397373170293143,0.2739410369473893,-0.2569456271258987,-0.1741495020914783,-0.20796752578633226,0.04585181357208146,nm,0.0
71.59864687919617,-18.86500390369887,30.218304471737927,-78.092881429392,-0.07149489181452923,0.17019121533658824,-0.311242342410208,-0.2610013580584232,-0.1906724059886856,0.051299154642834334,nm,0.0
71.60601830482483,-18.121145316281698,28.579571814024305,-77.43789952109539,0.10588450487083942,0.08554812997844624,-0.2470753117047877,-0.30371333677483897,-0.2051717717034237,0.02494295626665767,nm,0.0
71.63332295417786,-16.064164074081766,22.63979086886752,-76.15286089583707,0.4671394604951517,-0.35363349075696743,-0.11036674805818378,-0.3873575722316392,-0.24999354837105092,0.0004332733817365142,nm,0.0
71.64093494415283,-15.172356150760436,20.436439695185868,-75.62207575667135,0.5746807999809004,-0.5042752773682364,0.04181433605113088,-0.3974808204084404,-0.27811152897291197,0.018158066349760447,nm,0.0
71.65057349205017,-14.17549475893159,18.204901711223282,-75.01540311708025,0.6374083855304447,-0.5826798773794433,0.2573153586095404,-0.3944892807418448,-0.30502850149046856,0.03738107971418831,nm,0.0
71.67593908309937,-12.041874250565735,14.03953461969713,-73.98228993717147,0.5452699557478615,-0.3210959296652771,0.8146793572592288,-0.3389651889720173,-0.31370262408738026,0.034872903196466846,nm,0.0
71.6798791885376,-11.096789776892855,12.399015624973275,-73.73234429930666,0.32586683816362205,-0.018058661143769156,0.9382911037865213,-0.27406691235395064,-0.2780654193998281,0.002482362340340875,nm,0.0
71.70316290855408,-10.08592376948143,10.959891766904716,-74.28246997755116,-0.07265920047251671,0.3816327324596231,1.0914041417752505,-0.06354070505826762,-0.08591292499882475,-0.07388286247204702,nm,0.0
71.70769572257996,-10.305299767486218,11.381335900181961,-74.82948834608328,-0.1550050679359769,0.3177850078139458,1.1040141539979949,0.06003829648707639,0.054338437353441536,-0.08458772349538,nm,0.0
71.73503804206848,-12.33293703258965,14.317509999204898,-76.07352100295344,-0.039530940661686914,-0.11908936222605729,0.7514697404008364,0.2696068874138639,0.3148072273758391,-0.02654375767493259,nm,0.0
71.7366783618927,-14.055825132492046,16.367566458208508,-76.65372235682344,0.14811331881740558,-0.3505701430163316,0.5746904824182691,0.31108630639049656,0.41016928097409366,0.026503402023431544,nm,0.0
71.76002955436707,-18.3764404426143,20.403427556669804,-77.70555256352515,0.45617844358680887,-0.3325100889841132,0.0924742813818362,0.27643473584159955,0.4918314453852428,0.08960960960401315,nm,0.0
71.77430438995361,-23.119752718664916,23.547464322891756,-79.25920788546442,0.49821476437798407,0.09964154137778011,-0.26717820327496533,0.18975389050229385,0.472978795376458,0.057326982341610724,nm,0.0
71.78907012939453,-25.512970703776276,24.782042732346003,-80.25940959807485,0.5192103523085814,0.2248590909317032,-0.2897508698764751,0.15549106537239898,0.46496187662462324,0.04337020353144148,nm,0.0
71.79381108283997,-27.825819823380535,25.926292058771434,-81.1279254424332,0.027924806701207238,0.3620875435543821,-0.5635606087676298,0.147663011734798,0.4410469660335279,0.04239769292887498,nm,0.0
71.81895899772644,-30.312213931952268,28.387047080370767,-82.1119484577907,0.27072784566864816,0.40017886563533067,-0.49265657160308657,0.21401084189420616,0.21687325888457065,0.021137147671817125,nm,0.0
71.8229353427887,-31.068621439710814,29.698103172217746,-82.27390201313685,-0.05629512346188781,0.4010999783616353,-0.6577719462219946,0.23087664095913168,0.15806145147890574,0.038774109923896995,nm,0.0
71.865314245224,-30.382647633342728,32.73017915504912,-81.82167401548182,-0.2612675169652926,0.3910643645368779,-0.6600781243127449,0.14664198670195294,-0.09435500733385276,-0.05435485577195641,nm,0.0
71.86692023277283,-29.35290957817842,33.07532584613318,-81.70723223102867,0.31466752282220545,0.31111346756390157,-0.24424223760305303,0.08209738958921478,-0.16991448440790552,-0.11132975339394484,nm,0.0
71.86902332305908,-29.056205969680278,33.06758064651011,-81.6987901992552,-0.3976672303894365,0.3829441018161513,-0.4423001738600523,-0.005542307669030443,-0.05801181628144634,-0.05712842685237886,nm,0.0
71.88363146781921,-28.287093103338016,32.809334129233605,-81.58488432035381,-0.4716771119672202,0.3584969867662949,-0.31623617239693513,-0.04346522766510022,-0.14390891485086002,-0.09148458899465388,nm,0.0
71.88821244239807,-27.302098495726405,32.41090937565665,-81.25682795810098,-0.1660059082505202,0.31641884667038966,-0.051567970115427846,-0.06509271020534696,-0.18471009942530597,-0.07603141483873373,nm,0.0
71.90014553070068,-26.690356197049375,31.946036684759438,-80.7490149567616,-0.6423393869417898,0.3634977413259329,-0.2340483927685851,-0.08679665347474588,-0.12553554152793006,0.011901267310942515,nm,0.0
71.91197347640991,-25.698671411025728,31.459755121242885,-79.90313710561993,-0.41595476892063105,0.3170723230057191,-0.1002294406026742,-0.07847701006948869,-0.19156123703097286,0.03685816195626693,nm,0.0
71.92094469070435,-24.830410195883374,30.918237405862644,-78.81019954518132,-0.2968089797143181,0.28743171647754673,-0.11773649108972785,-0.08980968524971036,-0.17503443501551968,0.09527374492318208,nm,0.0
71.94210529327393,-23.342289213671805,29.423545061347987,-76.55397991441139,0.06643500259561005,0.14558898271818946,-0.2236656308137675,-0.14505517515831431,-0.17849799820601564,0.1140271749567732,nm,0.0
71.94657778739929,-22.853075538181013,28.288377779562897,-75.59418240479334,0.188067902231478,0.06969208084375772,-0.3265299060055117,-0.21019209292435717,-0.14758434989747402,0.10546479728497084,nm,0.0
71.96945023536682,-21.974324222207848,25.068160648616118,-74.48051435690648,0.7762930354054861,-0.16264949765549125,-0.19336351107829192,-0.3305044213409204,-0.1809315674912965,0.01856250196607566,nm,0.0
71.98126244544983,-21.961673741939997,23.027476453647765,-74.31198823027032,0.762940848276335,-0.3130043496825135,-0.19062950935399547,-0.4030230122398277,-0.1221265106007376,0.01614638053136403,nm,0.0
