timestamp,roll,pitch,yaw,acc_x,acc_y,acc_z,gyro_x,gyro_y,gyro_z,markers,motor_input
38.0179500579834,2.248656187064281,-11.42139036442029,65.1268374020857,0.7283190703144441,-0.8541528528729605,1.2540479940117444,-0.25228114207436436,0.11287087016157224,0.1078528143542576,nm,0.0
38.026097536087036,1.7067089733400975,-10.308536631382292,65.33464665444637,0.954642061282931,-0.5500830465288704,0.9992187964709538,-0.23337387508826218,-0.0005807672904240268,0.017191361644098836,nm,0.0
38.05063223838806,0.9476671772461971,-9.768632141577806,64.73163138842428,0.7155585727714195,0.03589066463436315,1.0322772530982527,0.007817824158166484,-0.04548611598560667,-0.12282676784735534,nm,0.0
38.053431272506714,0.7948005227540387,-10.595626947682893,63.903228830372825,0.5990097183027546,0.17381931059344885,0.691358843136493,0.14998037001831555,-0.09640213345054208,-0.18840375493586822,nm,0.0
38.062337160110474,1.222471473174598,-11.995733366739701,62.88223939386131,0.3644814023912718,0.10864178655527486,0.4395914445151805,0.30211652270599065,-0.047929246291402154,-0.2108008574658771,nm,0.0
38.08623123168945,3.8988087599903736,-15.633516615906718,60.243427535738476,-0.17559119026564,-0.2401535025375656,0.33343345223681387,0.48903042638787964,0.08399047817814492,-0.21278364589170282,nm,0.0
38.0956711769104,5.858048274227568,-17.31225296964513,58.62724804521362,-0.07937244357088022,-0.2605358472101212,-0.14403365844237448,0.4945573240008978,0.15502187721244892,-0.21597013693063202,nm,0.0
38.116132736206055,11.957166616741143,-19.833319041513658,54.479168506920274,-0.27365593415567063,-0.2098119155437502,0.131369923499621,0.557318039639621,0.3749843023250912,-0.1798851712462813,nm,0.0
38.11950945854187,14.913173382563668,-20.859218279162455,52.3283660532697,0.037066775201910894,0.00547289095691208,-0.16295035891651935,0.5094872653991293,0.3246247900938594,-0.21778433811911352,nm,0.0
38.14734244346619,20.45660172222019,-22.5234252193655,48.287970568641114,0.09283886988839382,0.09786266079781009,-0.1512777735373504,0.45262689328517475,0.2568741103068797,-0.19706222419855493,nm,0.0
38.15171146392822,22.470566371851397,-23.477580617490652,46.468699042576056,0.10669877812397087,0.10301615965654684,-0.3411450571308854,0.4053337904434822,0.14528772391638267,-0.20536935854758612,nm,0.0
38.171717405319214,24.69489227566055,-24.991600854345993,43.82999364876484,-0.38752427534412454,-0.1192087290719495,-0.48717406022493537,0.19271156176382045,-0.0012117792154057784,-0.19206559039593699,nm,0.0
38.180346965789795,24.641499302130775,-25.364783406872593,42.96384997901342,-0.49531411216734217,-0.10093587263377951,-0.6406530709412782,0.057771238390583526,-0.05964824479363948,-0.20278335150093182,nm,0.0
38.18614435195923,24.017814832459795,-25.352426587627708,42.51847849568785,-0.6255538757168886,-0.07672052016428896,-0.438407178502562,-0.07096283602636959,-0.07387409718488794,-0.19060841159920341,nm,0.0
38.19664549827576,22.592585210613393,-24.88721395016157,42.345217441546254,-0.6090975307973415,0.08995820167291982,-0.4078816876014115,-0.23990482713853606,-0.10516449385334016,-0.19166165128095813,nm,0.0
38.219950437545776,18.083025664655263,-23.336481521873758,43.00092212099468,-0.40187310691851574,0.4964755380145744,-0.10359755125306494,-0.42840954048678936,-0.1863287315368562,-0.14157330576428936,nm,0.0
38.22378635406494,15.211335865490893,-22.473367739096314,43.806471877613944,-0.32222072034282767,0.6811026907438515,-0.08913276262688527,-0.4894846339490399,-0.2391939750866565,-0.0963862424659722,nm,0.0
38.24885535240173,9.117524085597893,-20.96739722844582,46.24765615953499,-0.32088108899273204,0.7880525560076946,-0.18132976995251388,-0.48176171970342707,-0.30867863508875204,0.02820856147778614,nm,0.0
38.25557327270508,6.233955223925908,-20.305630902038,47.67048620839325,-0.36252132137163345,0.6926152628644741,-0.25183687375162156,-0.45163703339921774,-0.304844084811642,0.08457041917105794,nm,0.0
38.276336669921875,1.2309155728332166,-18.79432115276866,50.56130428429176,-0.3421644583310314,0.26228175875277177,-0.4226678325548208,-0.3958637774225157,-0.24013456027169935,0.1495490895900774,nm,0.0
38.298343896865845,-0.71561923904161,-17.861747826940565,51.946640848245345,-0.2294275115800862,0.036985909506265464,-0.4455922216539372,-0.3631072108769577,-0.17163849445875018,0.17439341468594496,nm,0.0
38.30217266082764,-3.2120291118457844,-15.383738784770667,54.48822506732377,0.1492212020421953,-0.374080751775106,-0.49170791226435046,-0.3139272443892107,0.0012000078103022215,0.22679067411414025,nm,0.0
38.356539249420166,-2.264051365281627,-9.864860561544626,59.132018058047656,0.4889241355124676,-0.8061666837396334,1.2275815800375345,-0.07594732977678822,0.3031821321716888,0.2867591021417775,nm,0.0
38.35942053794861,-0.6189783093422225,-8.86162676216498,60.07840326752974,0.9929510315262461,-0.4906546255897412,0.8203993658736575,0.061012417985342716,0.18047211031207228,0.1135455287125001,nm,0.0
38.37372970581055,0.6590427062132763,-9.19821949141955,59.85230704325439,0.7880330369980919,-0.3083918121641982,1.0693054837947238,0.19907152568449518,0.1860530911572458,0.03849119453520081,nm,0.0
38.377951860427856,1.8482118656239874,-10.03913461783222,59.34874196559485,0.7672244661700264,-0.2577335293538015,0.7191904865360711,0.2779933726929709,0.11832309946410338,-0.034227524419668316,nm,0.0
38.401939392089844,4.979770557570327,-12.599138936005737,58.3430240531278,0.2670090468919699,-0.3782712704623493,0.5305476597930373,0.4161947302651935,0.1337119654472362,-0.05113941730672834,nm,0.0
38.40627408027649,6.652754825053551,-13.9722617070956,57.784720876214905,0.1366000409539374,-0.4273373785131614,0.21691343345689257,0.4194601733475435,0.13292859980120653,-0.0391177751841321,nm,0.0
38.42831778526306,10.517794323024544,-16.15316236268599,56.58544391384732,-0.13055977392633825,-0.297151886350244,-0.15862021428971163,0.386054581715068,0.214632374919761,-0.017391078192385768,nm,0.0
38.43382287025452,12.598717672578328,-17.004926041458962,55.848647070468985,-0.13681530589318772,-0.147006121316819,-0.20431445206683607,0.37724182527594263,0.2391459187058656,-0.03350234264474335,nm,0.0
38.45790481567383,16.25712763715192,-18.35267744604326,54.04443352936439,0.09792501090799269,0.23369972210535864,-0.48206971440832347,0.3031086073858477,0.19844444529846855,-0.09657476709716845,nm,0.0
38.46160936355591,18.13420697845687,-18.963123375970635,53.204211444738235,0.010507021094692766,0.3510328277320187,-0.33776609903231836,0.3225183707505618,0.21687906678965335,-0.08324332237098753,nm,0.0
38.485515117645264,20.89073819174896,-20.297567952897968,51.745570504225014,-0.12196189539771395,0.4233305417872199,-0.40260466362124575,0.2519433492515501,0.09381610402940982,-0.09630467235074877,nm,0.0
38.510889530181885,22.315829453494132,-21.298344969343564,50.75130889444466,-0.454489511772648,0.34120793299319907,-0.35182316225704857,0.13649760425271176,0.019073893435345334,-0.08591339487963934,nm,0.0
38.512535572052,22.321541872674178,-21.50058118712312,50.22039536085314,-0.5199986353128242,0.3490604177220207,-0.36179357289806924,0.04500606225543855,-0.022641740185699488,-0.09363499666468247,nm,0.0
38.52783250808716,20.924329028050085,-21.162523528798424,49.95747589160024,-0.5467616382522174,0.4569723504769789,-0.27465503494477905,-0.14281234564026815,-0.09925333378988999,-0.08931809199874542,nm,0.0
38.567421674728394,17.777473428033712,-20.340792246985412,51.03321186961612,-0.43399757791580684,0.5624546042242111,-0.15614153514773796,-0.26382132649334894,-0.19871012148658238,-0.03451892966946169,nm,0.0
38.56924772262573,15.707706842719052,-19.87927522649002,51.988926117070875,-0.3882518474254724,0.5836103704274113,-0.17541781789352354,-0.30068124657105155,-0.24585342410447783,0.009108149483472501,nm,0.0
38.57109522819519,13.439953020502948,-19.404663420364706,52.93628727722989,-0.3668665221719147,0.5610639056511408,-0.192186079626487,-0.3225814121378332,-0.27927684674909287,0.05335256940012326,nm,0.0
38.57867980003357,11.046720608288902,-18.88108516911328,54.05234000660993,-0.3455016876794519,0.493459844880477,-0.24955869995629712,-0.34019318616798944,-0.2995797669884449,0.08592340428490497,nm,0.0
38.60306692123413,6.278053197813623,-17.59700402455651,56.91972059103171,-0.2788379277700998,0.22526611168664593,-0.32763963102171756,-0.34923076205054543,-0.2960034235856679,0.10014739068052278,nm,0.0
38.6053946018219,4.077026328963952,-16.815665716754165,58.16567252887469,-0.20772805230731017,0.07081203820518212,-0.32717027696934786,-0.34369039724012773,-0.27000565978350644,0.08963069363620868,nm,0.0
38.61473369598389,2.0817766344170674,-15.918224401588267,59.27433256676074,-0.11785149227463879,-0.08946572497324752,-0.2897786992238541,-0.3383019480727758,-0.2330647184132607,0.07612226358159105,nm,0.0
38.62684392929077,0.3503782144881889,-14.919238304287035,60.112179421618286,0.06492425809206649,-0.23916201484779762,-0.3404312226905052,-0.3272689368976178,-0.18596054358971556,0.06784985999434508,nm,0.0
38.646310806274414,-1.3052148817782994,-12.76642719327445,61.32879453930259,0.02838290772118436,-0.49225156733945463,0.6107773667827511,-0.2367285861926568,0.0013011378032411474,0.10192859424808391,nm,0.0
38.65259575843811,-1.9194077381696157,-11.708496401694228,61.82508941210478,0.5898451034554438,-0.6869867602279615,0.29799420519778536,-0.229499685224359,-0.002834461252422242,0.09307999143122397,nm,0.0
38.66610264778137,-1.4432013286055352,-10.85770701812971,62.32504603060374,0.5669115021383244,-0.7034604076737911,0.74042508992266,-0.09263759874821983,0.1644113074642562,0.1357080759941267,nm,0.0
38.670828342437744,-0.6145467183427319,-10.328890922681532,62.651587716300504,0.5504650795665766,-0.5810341020352945,1.0415232171564999,-0.004515485251385372,0.1956080590829696,0.11396172553604603,nm,0.0
38.67963242530823,0.18116172745239834,-10.191997105563539,62.64077426425746,0.8830986284089871,-0.4927612347261654,0.6798236831909448,0.061675012677431994,0.1538636759320138,0.04677136398950835,nm,0.0
38.704222202301025,3.15638431587903,-11.299534557535125,61.618891997300516,0.7437391558109159,-0.39272751851971177,0.8253100502655267,0.2973110372714792,0.20129299016910188,-0.07388414729851268,nm,0.0
38.70901918411255,4.838679445764228,-12.435243615407456,60.66179060889333,0.723340796291301,-0.43031138303674765,0.5566735320146592,0.3719250321485859,0.18105898200675274,-0.12657262953026396,nm,0.0
38.7325394153595,8.689069755980931,-15.15354191999806,58.36692112574501,0.3556973822366045,-0.5068975999347152,0.31069844761312454,0.43922191542429306,0.17278152990603285,-0.14510231439717883,nm,0.0
38.737534523010254,10.560702900444664,-16.44364355951727,57.24929605448787,0.23472402144260668,-0.450458185340313,0.10152712527132828,0.4242369072666869,0.16967663007820932,-0.12634543448223343,nm,0.0
38.7475483417511,12.394878365923384,-17.55153735927468,56.238551026328096,0.09156346153254619,-0.361072856989367,-0.07516027283148953,0.3915704892562267,0.17421684736459078,-0.0997525870401191,nm,0.0
38.76178860664368,14.127257437880612,-18.560316956047643,55.304480163114555,0.014072778910773588,-0.21459080794465313,-0.2631480595831269,0.3659272381375862,0.16127875998613092,-0.08437399927665515,nm,0.0
38.78209161758423,17.0283109041515,-20.323962914804635,53.54953454756562,-0.14405699307782174,0.009312365599883582,-0.08251808456136665,0.2841489277015782,0.09830759856565474,-0.09198904764943955,nm,0.0
38.78772830963135,17.742873483710806,-21.02098217966522,52.773581766607194,0.020875439565880956,0.21413363713788022,-0.6644724246496057,0.2053038813939344,0.025824598872246966,-0.1237772086984375,nm,0.0
38.80147647857666,18.778569043816464,-21.737612677820433,52.09584128961711,-0.16349690725753516,0.25980635636237903,-0.44340710294752567,0.24474969380052333,0.06809185470352776,-0.08702012591949093,nm,0.0
38.80455279350281,19.536083589446424,-22.393116274568833,51.465480029587084,-0.39251917096768146,0.2518843395945566,-0.08291509108776474,0.20340782850695924,0.0316445284095136,-0.08924630609253738,nm,0.0
38.81415843963623,19.560573108274088,-22.86113592338407,50.98082416881352,-0.33316851349334065,0.3836854919193095,-0.47919409411351455,0.08931018593501958,-0.052909074293782055,-0.11439721384108939,nm,0.0
38.83724617958069,19.147037353659805,-23.3663101294773,50.76672157895185,-0.6379376214852295,0.47104513465201847,-0.10230552773529226,-0.005471124651358469,-0.07752921177086809,-0.048838837933720444,nm,0.0
38.842140913009644,18.144083595549283,-23.343128188407924,51.08564440756239,-0.5862370351875918,0.6104593564538658,-0.2473354396844032,-0.10617752023110075,-0.1382493000986997,-0.042051901812497086,nm,0.0
38.85387301445007,16.938136142023474,-23.181212197716146,51.66653012943897,-0.6513267888208547,0.6754294178334355,-0.15219185691378742,-0.150107156691103,-0.1511858643489423,-0.0031673080082564938,nm,0.0
38.862581968307495,15.430632953224213,-22.96017296466576,52.480423321174705,-0.67441050357174,0.7401029721724088,-0.09074334742811453,-0.19175289671729998,-0.19008395974359124,0.014021591012359058,nm,0.0
38.88490962982178,11.8686093563101,-22.34279126673238,54.52389419978003,-0.6207898689554915,0.7091146936646233,-0.14918109832494986,-0.2342660574224565,-0.22495536505678157,0.043685520355274496,nm,0.0
38.889076709747314,9.972174606694452,-21.975150213022417,55.42482438602521,-0.557228572809623,0.617731871383091,-0.22041884688683455,-0.24837468360426204,-0.24369082121114902,0.04261161528027301,nm,0.0
38.90009522438049,8.067845972892691,-21.56910722710341,56.31398641189838,-0.42726348422565946,0.4868403813939301,-0.3023586895528716,-0.2521883897375548,-0.24545581367960462,0.04493138790640021,nm,0.0
38.90855956077576,6.263779277585724,-21.068622527244152,57.23821619436761,-0.3533231068180198,0.3594435603714125,-0.288304697556077,-0.2542852183750687,-0.22464421722940767,0.055559384303456937,nm,0.0
38.9361526966095,2.6966968142339973,-19.750606372138705,59.01835517303882,-0.12087843247541222,0.07790301104309391,-0.3781255359787762,-0.279310976803481,-0.20545152028438557,0.058340597099963656,nm,0.0
38.93833374977112,1.0330136349312935,-18.90975777166025,59.741087117412235,-0.02784858470750564,-0.035989908469459805,-0.36243140301450893,-0.29112415810963815,-0.1825251502333791,0.060900971346840034,nm,0.0
38.94696235656738,-0.3799240033837737,-17.940596345505053,60.50587593861754,0.14472354166942952,-0.15968252914799305,-0.4977971033942028,-0.2878986311347707,-0.1341020794683843,0.06991739154753004,nm,0.0
38.9564254283905,-1.4109556573482411,-16.899124756035942,61.21683324470314,-0.08919468149326887,-0.32406235675038403,0.08118952982849771,-0.2639344129893603,-0.06860523130527355,0.07814118280540516,nm,0.0
38.987234592437744,-3.5135629197295595,-13.540034823678514,62.31824886251419,0.4090041186452397,-0.8931666667307847,0.8908105983735701,-0.18264010786636012,0.0951444834197984,0.050832168042695844,nm,0.0
38.99580693244934,-3.4881315197013354,-12.619935388359648,62.374613383179216,0.6724164117404687,-0.8236333037826664,0.8197322081899117,-0.1467348941769642,0.09186796421128011,0.02572049529976498,nm,0.0
