timestamp,roll,pitch,yaw,acc_x,acc_y,acc_z,gyro_x,gyro_y,gyro_z,markers,motor_input
72.00166940689087,-20.747226813612613,18.69089326143122,-74.28105856823304,1.4240189780429942,-0.396302466514782,0.5575121308284242,-0.3790933190842899,-0.29756424505113305,-0.08883653395282384,nm,0.0
72.00478863716125,-20.012192072292752,16.67210043486766,-74.52507893666441,1.009633385655148,-0.22548878298669364,0.42261249604720924,-0.36158062940205404,-0.2539074442965568,-0.11201843481883811,nm,0.0
72.02598476409912,-16.687361945510315,13.63689921342328,-75.44949703791467,0.720662405809842,0.2308144582106087,1.0151851911726084,-0.16817960722594485,-0.4346345273214274,-0.2190223783020006,nm,0.0
72.0347192287445,-14.951111086664934,12.989265168908464,-76.00959710036464,0.060855027929653,0.17759108675980084,0.7200561535045729,-0.0522125024432686,-0.36943429530874156,-0.2154882400444544,nm,0.0
72.05655646324158,-10.880151314776159,14.197107071706554,-76.92129629095481,0.389525688441299,-0.07699872580279236,1.4773303394989519,0.2577462551293238,-0.2844679501584077,-0.17728663846821918,nm,0.0
72.05996012687683,-10.392795148433613,15.738420768236196,-77.4548029976712,-0.5388295275839465,-0.24775267599243192,0.44284494472283886,0.3114404348730075,-0.032554453077757624,-0.1192186287921135,nm,0.0
72.08410787582397,-9.79544254586755,19.634579114511368,-78.79297820629297,-0.18383122056581147,-0.29388432086005933,0.5239803653787954,0.3635287113862444,0.11968249437773293,-0.12587562426199225,nm,0.0
72.08845496177673,-11.106577971108258,21.309915681730672,-79.86027450493643,-0.5034314720335233,-0.29940586374189193,0.09290486927995331,0.27359079354076166,0.29555824514130086,-0.09994982182531677,nm,0.0
72.11479616165161,-15.141518330401055,24.38947962627165,-82.51280264981284,-0.21660898826021338,0.0017688412528906884,0.02101034683110247,0.22727254918900922,0.478628273758465,-0.03211258602890168,nm,0.0
72.11659455299377,-17.807308121347177,25.81603881651665,-83.76478856191741,-0.16908931525199905,0.13231961331540784,-0.08628071323613833,0.21561142753007453,0.5060171272657251,0.03379683244794774,nm,0.0
72.13063454627991,-20.417612541420173,27.335389920731842,-84.69209893633226,0.1018265982365835,0.1733222602736922,-0.0835159236852352,0.24497002708588064,0.48776366563981327,0.09453520008881816,nm,0.0
72.14130187034607,-23.02004919255003,29.036251661253512,-85.37053536449777,-0.024083960877790384,0.3582526744088607,-0.4121706190497855,0.28871213773107407,0.47905240918750974,0.15823608342812895,nm,0.0
72.16457009315491,-27.569661373030204,33.5183800817349,-85.72002367934883,0.014168606702593145,0.4420435234420877,-0.8408418150571408,0.22614240811402586,0.18902316930393678,0.1462288920052803,nm,0.0
72.18785810470581,-27.769263631636036,34.52560845081678,-85.05707386232919,-0.008471727112206107,0.38797412889961036,-0.7618622102658483,0.03642715573712606,-0.04540140657566765,0.05385840921000494,nm,0.0
72.19209909439087,-27.14215875376487,34.27434054340065,-84.46457208171901,-0.152961940056616,0.3796768695681018,-0.7322640608555916,-0.052351774034223,-0.1154428781216693,0.0440889658243329,nm,0.0
72.21643733978271,-24.543318269679446,33.06826909742561,-82.2054192448468,-0.07906370461602454,0.4610540191984629,-0.35915411429716987,-0.11330362021466026,-0.27716823567395066,0.021394321160918543,nm,0.0
72.23323512077332,-21.662101098223857,31.46500739807559,-79.8644278478082,-0.3526960721645901,0.5518151770302632,-0.27361943405997174,-0.13217672256742238,-0.28098542766659174,0.05715104334235226,nm,0.0
72.25945401191711,-18.9453531615191,29.572407563040542,-77.78681209675081,-0.2429805046257459,0.2900366529981903,-0.21185310871929774,-0.1635204743870015,-0.24586723668582808,0.04801841913703357,nm,0.0
72.26112651824951,-17.857541657068456,28.38499781679128,-77.00023015746922,-0.1999114782678062,0.13877778391214993,-0.2742031973977644,-0.20102977904002048,-0.24645696945708598,0.03618704879785667,nm,0.0
72.26945614814758,-16.875737515847902,26.909651239493538,-76.26200358540038,0.020589335146956593,-0.15373909753794401,-0.1393104652024052,-0.25760559755425577,-0.24651467080426218,0.04188161579634134,nm,0.0
72.294429063797,-15.351776220280236,23.359512050899188,-74.76579940710589,0.20644850742388565,-0.2329255089446231,-0.2538421653884009,-0.3379236442615617,-0.24250997821316672,0.07206326592182404,nm,0.0
72.29707431793213,-14.661606724003398,21.265666181556124,-73.95236355539757,0.419691669588935,-0.26204533027297566,-0.05090376836803605,-0.3791333734446193,-0.24580031738351743,0.08603440847288395,nm,0.0
72.30707430839539,-14.13527303306883,19.137155426983384,-73.27719026352867,0.5667269169881953,-0.2605329723645172,0.1725021456315172,-0.3908038153459543,-0.2248509139362299,0.0843670668276353,nm,0.0
72.3296890258789,-13.681963124522358,15.275405849404674,-72.60088506580382,0.63587558101926,-0.30017726054755317,0.39763977082165314,-0.3543759244418448,-0.12788001966986406,0.02947852928982219,nm,0.0
72.33547353744507,-13.278711126566073,13.770419193932568,-72.67083396654944,0.7344244132589484,-0.2633045372949559,0.8279049856148147,-0.2739523492617532,-0.17452479518041034,-0.03824277254906315,nm,0.0
72.34623599052429,-12.835436197780785,12.42925891896032,-72.92390159761291,0.8930437772639191,0.11451672100058011,1.034136080364621,-0.24063242584521097,-0.17201100653773813,-0.07471039109108357,nm,0.0
72.37205862998962,-12.532838572978456,10.682216029296429,-73.66880537504919,0.6612771415189975,-0.022285572362281948,1.0991350954411085,-0.07510686322479283,-0.09105168877088554,-0.08790278204909736,nm,0.0
72.37443494796753,-12.366104794765004,11.149549946416982,-74.16087318214427,0.4114021613813884,0.15630548118351367,0.6729051709357868,0.08915237186721456,-0.01552498100598105,-0.08462459212193711,nm,0.0
72.39723372459412,-11.911520976542294,12.97069630136453,-74.72698415387302,0.2718871143008291,-0.32955530957505336,0.5486976107500664,0.23270357392756044,-0.011984101619039482,-0.046946192398858305,nm,0.0
72.40203666687012,-11.481341927740734,14.740287134757693,-75.00744568283673,0.4366763058422324,-0.24596964974399957,0.6056476826374402,0.3538691951310664,0.0021301347324806114,-0.06621049512201352,nm,0.0
72.42738723754883,-12.210111102506364,17.93698899395842,-76.06837468476353,0.06450702811712526,-0.3911475195055428,0.2198840567146153,0.2577469346389879,0.16752242351515007,-0.07135395153057185,nm,0.0
72.43267250061035,-12.813274553476049,19.631970327665258,-76.96720377579169,0.20335872497059132,-0.24424351161298838,0.3525497434487558,0.29321961140742675,0.18108801234342742,-0.11014441153433388,nm,0.0
72.45534706115723,-15.489133233990101,22.72899387886742,-79.06612822239306,-0.06804006880540438,0.018473548258665474,0.09661472122627045,0.22238515808171286,0.3119955718094265,-0.07195869418524545,nm,0.0
72.45990324020386,-17.026605764853517,24.410085026445554,-80.01207619899957,0.06370370701832494,0.08726056564305172,0.1284904243084051,0.2690596411447277,0.33014475913494246,-0.047174091660086036,nm,0.0
72.4871039390564,-20.39257406758346,28.239493758714588,-81.4438394615122,0.015163867783593094,0.250430894285232,-0.18016229786431487,0.3222797774214885,0.32971793770450497,0.042263094547254035,nm,0.0
72.4909086227417,-21.858954834136288,30.178369746585386,-81.97291796162658,0.09684484293834865,0.2025770910075347,-0.32169558170680496,0.336184973501554,0.30131656291187214,0.06219814207795249,nm,0.0
72.51463031768799,-24.34037321423611,33.68179103743133,-83.04580037362484,0.009041424747831452,0.3845510327712262,-0.5711196656205915,0.2793775624887303,0.21618533569948162,0.026656810305146706,nm,0.0
72.51628613471985,-25.32420577415885,34.839143070361786,-83.6343547379012,-0.05183083858252762,0.41529369081781375,-0.6012367402004991,0.19974406818434226,0.18092689580763363,-0.002631199100145158,nm,0.0
72.55077743530273,-26.753153430282715,36.14042156672536,-84.81166663255914,-0.22324426900742292,0.5530962460018374,-0.5230483976285099,0.0721119322885801,0.09667941625098696,-0.06824346169519972,nm,0.0
72.5525951385498,-27.103392885522602,36.278060241464516,-85.27822637982828,-0.30651461643669675,0.5208784196303715,-0.4683408344465554,0.010744230420436846,0.051374616325631894,-0.05999542081946188,nm,0.0
72.55452513694763,-27.150283417918544,36.30788572205925,-85.44528595934308,-0.3448196128600152,0.5085812695520527,-0.41116607708275954,0.0,0.0,0.0,nm,0.0
72.5736141204834,-26.400215527481564,36.06553197240743,-84.91764498235217,-0.3336079641745297,0.473631422661898,-0.35844107474464243,-0.0461008486711128,-0.09292988034581776,0.008561689271543993,nm,0.0
72.58921766281128,-25.675446395118712,35.68606616390598,-84.25928918517502,-0.28429029717854787,0.36755380915756136,-0.34718767828055147,-0.07618618195528502,-0.13172475641413361,0.025706847557843922,nm,0.0
72.59504508972168,-24.877732859450358,35.10373611235969,-83.54182698101214,-0.23125755654700147,0.3355359235942484,-0.3866037659251378,-0.11366225726359105,-0.1494574400430697,0.03253346240679355,nm,0.0
72.61718463897705,-23.199673086230085,32.88890565039157,-82.00237105754447,-0.0589872268678926,0.15837223067470588,-0.4190934816219237,-0.24839207807649857,-0.18211586406772373,0.028669859403127197,nm,0.0
72.62053155899048,-22.360480146462844,31.325564204880845,-81.31127079038092,0.02296836797042166,0.1022517641318855,-0.42364898042104365,-0.30022332801382023,-0.19450675853447585,0.021269726105747833,nm,0.0
72.63056516647339,-21.465012452907235,29.512450839265885,-80.70471940085544,0.12310729765129412,0.050395273445133996,-0.40743781532585266,-0.345603728111492,-0.21767543475861603,0.01961631635478902,nm,0.0
72.6568820476532,-19.400696561717837,25.362779818496737,-79.28716552635258,0.4006568014436097,-0.11415504742405937,-0.27827187245598184,-0.3948053006648102,-0.27519644963731416,0.03333896763458627,nm,0.0
72.65852499008179,-18.2653477810987,23.180332750671294,-78.55162781789451,0.6184450524635218,-0.19384116768354123,-0.07262418887568611,-0.39972051047954327,-0.2962374118692695,0.03753468373754323,nm,0.0
72.67294144630432,-17.37088356272435,20.943685020542755,-77.89548531703834,0.6603843562220354,-0.3053585321925955,0.11039874867977859,-0.41516087231034837,-0.26293209022657,0.050645423085516554,nm,0.0
72.691974401474,-15.280485735888298,16.613282795031402,-76.91558988704936,0.9364506061723277,-0.39511770686695746,0.673466146026909,-0.37222572316192265,-0.3273334839262609,-0.022313361618111226,nm,0.0
72.6988410949707,-14.326988194002736,14.624450541228814,-76.78056963408511,0.803063518245833,-0.27333204474342737,0.7475955800414291,-0.35605721119960987,-0.2793007783018527,-0.0520577644843534,nm,0.0
72.72153639793396,-12.146237378862484,11.735018666114547,-77.16829821989474,0.47898915591542635,0.022718316326670242,1.1077222511648104,-0.18599537265082836,-0.2874802546705448,-0.11572939051486038,nm,0.0
72.73444056510925,-11.163807186558117,11.36027714984335,-77.50356312504927,0.06065803445035469,0.10201550009544821,0.8462582328014296,-0.041313355552651844,-0.21368492815080845,-0.11064977944468575,nm,0.0
72.75027799606323,-9.684209246935392,12.966509028823154,-77.99020542296182,0.14185053765586447,-0.03791579182694912,1.1497492871276287,0.22839815237804806,-0.014619569203408714,-0.05212949918880964,nm,0.0
72.75495433807373,-9.936430780863851,14.664585193173203,-78.26701888757977,-0.26860335953445874,-0.20070001128334802,0.542201768142288,0.312309317462819,0.10885192147576474,-0.021964370690796816,nm,0.0
72.7791166305542,-11.494674517337831,18.730555338392517,-79.17634327690133,0.04964680014555729,-0.45106711911941766,0.3742790921001066,0.34574679486670473,0.31908082952971145,-9.857790319905705e-05,nm,0.0
72.7928352355957,-15.200812384702825,22.44336449062971,-81.07443753980725,0.37534736152013415,-0.3322511666045813,0.18605240201768186,0.27865637608384375,0.41951142219459836,-0.025157321779009464,nm,0.0
72.80805444717407,-17.784456796652513,24.04540004551481,-82.3265127557351,0.16346794552852353,-0.11175926193952675,-0.1783704699406966,0.23844731490757087,0.5083350546349171,-0.002910144165625856,nm,0.0
72.83230113983154,-22.37295079435895,26.970657941604976,-84.46665473078576,0.3123636846351891,0.17279615324734313,-0.27879093681952755,0.2368749758758765,0.4177287837669266,0.028333692850360997,nm,0.0
72.83400678634644,-24.41120454925946,28.497623985443433,-85.19895669078062,0.20469228501435446,0.24215369415310145,-0.4129145448980916,0.26070575655471995,0.3793429231581526,0.07328394738655283,nm,0.0
72.83893704414368,-25.960974114563946,30.092952956469098,-85.57090798821093,-0.014551873500649772,0.3530176126935332,-0.6092800125073892,0.28503426331644466,0.2876354473498446,0.09422290635006172,nm,0.0
72.85904026031494,-27.24966407625476,33.043117122305915,-85.52008555703087,0.060511955811512995,0.40871159426684195,-0.6191390205735976,0.2580726800018329,0.09728000992301168,0.06368370753117984,nm,0.0
72.88388442993164,-27.198676109103037,34.72947095821215,-85.4697286408227,-0.16609326858347215,0.42797100984462,-0.6343864387305923,0.11853893849471321,-0.04293709017185472,-0.034660439372633925,nm,0.0
72.90755486488342,-26.624427596809515,34.91043880260033,-85.33363966299302,-0.48031980568100974,0.4065133369834361,-0.5000055501303761,0.0,0.0,0.0,nm,0.0
72.90923690795898,-25.939471691925313,34.67587010051051,-85.01099876024436,-0.38959624593206876,0.34038719313900173,-0.2586257603887961,-0.04905370888286807,-0.12360303441689274,-0.03237964901523498,nm,0.0
72.91629195213318,-25.163378181007037,34.34421568143986,-84.35419998646412,-0.3401744925737819,0.34718448025065046,-0.11494076682512426,-0.06590429069491009,-0.14114565108344868,0.024628199010730184,nm,0.0
72.9403715133667,-23.654832281637027,33.56182957013781,-82.09646870809762,-0.3626305949218009,0.3925490619768228,-0.038893501351855944,-0.07355793688868023,-0.1592324115854051,0.1362086904015035,nm,0.0
72.94375157356262,-23.086779408572443,33.06414704229449,-80.74624110086134,-0.3394682910966448,0.4321831297492785,-0.10411350830892951,-0.09554091796187918,-0.11694508711230653,0.18300531722099708,nm,0.0
72.9689610004425,-22.475504265046933,31.516712604059858,-78.64557516729228,-0.055250708895854414,0.3822337974186975,-0.19695126367444388,-0.17607733054340796,-0.08229409260733458,0.1591512776817611,nm,0.0
72.97174549102783,-22.496908886243595,30.37935396194284,-77.94897152921904,-0.026843366971972787,0.3528776728737055,-0.3328236897775192,-0.23459889669175568,-0.051276210870292535,0.13766426828912423,nm,0.0
72.9968593120575,-22.33100396562949,27.410678865032192,-76.95714013681369,0.24726596673562148,0.24767110181566437,-0.3576613465683812,-0.3132399575783917,-0.10414410045851322,0.07495316804962229,nm,0.0
