timestamp,roll,pitch,yaw,acc_x,acc_y,acc_z,gyro_x,gyro_y,gyro_z,markers,motor_input
97.00386905670166,-36.96184761305556,-16.562611876937368,179.89916666864346,-0.09159746238151223,0.09330442043841523,-0.30854316918724417,0.40300811578612633,0.3061080604181681,0.04603223795846058,nm,0.0
97.02723741531372,-40.77094137778678,-18.952633035773278,-179.08510153729426,-0.6048812326931843,0.13311291708879378,-0.6110263512308535,0.3341797969214196,0.25060253761097684,-0.008043236594304302,nm,0.0
97.03244113922119,-42.26460134472886,-20.166992601465104,-178.74485062232662,-0.8728370536286197,0.1729915775118442,-0.5984724519678466,0.27130383217978965,0.26010113357534986,-0.025823724310809454,nm,0.0
97.05528259277344,-43.9999898780204,-22.427128246536913,-178.43386967573323,-1.1116449008136842,0.30077368910584495,-0.5246729255838793,0.1101430832527627,0.2296247766278432,-0.006134064907683172,nm,0.0
97.0600197315216,-44.24542581816315,-23.25282723836118,-178.26057946278183,-1.0982043732795703,0.34009333254834057,-0.4509532142221192,0.03517093671559134,0.17802669893151588,0.03971887591775551,nm,0.0
97.08424806594849,-43.65964830717962,-23.50727980346109,-177.72539313410147,-0.7984125022122592,0.386785165174877,-0.4064642603626274,-0.0884022085424029,-0.01760927799273953,0.11564317878213295,nm,0.0
97.09026575088501,-42.9184370507783,-22.926066892706498,-177.30238903701692,-0.6339548597836675,0.3760103535359182,-0.39534226835841524,-0.13695877525944358,-0.11078326785478575,0.1375702402579251,nm,0.0
97.11280822753906,-40.7192591277066,-20.6469608653059,-176.91675898886464,-0.413157415689169,0.32324856020396514,-0.2794370139073554,-0.21587062792063674,-0.26117859930680976,0.09231685503172533,nm,0.0
97.11815476417542,-39.37827300130645,-19.131122652066033,-176.9845551367689,-0.38339185370531226,0.29690310979784446,-0.20718286731667168,-0.2420471478927741,-0.3052583800326909,0.048009491880759626,nm,0.0
97.14143180847168,-36.68684385813913,-15.652324148094365,-177.45270829164502,-0.3408883865740451,0.25375543717406496,-0.07352484308823545,-0.23984988607475555,-0.36405591478429716,-0.02307124568513813,nm,0.0
97.14683556556702,-35.4894725919212,-13.667344319463341,-177.6902831127056,-0.22184363041463237,0.21322584543122555,-0.05369813166121864,-0.2212066599314226,-0.39547937535336614,-0.027763513730641242,nm,0.0
97.15579676628113,-34.44089801909493,-11.490533863152422,-177.75494399284602,-0.014995591166850992,0.09776729332211508,-0.05487097055254548,-0.19374928532801514,-0.4321681733190803,-0.014389724568370177,nm,0.0
97.17717099189758,-32.928209501852656,-6.469615612635492,-177.5318846964278,0.5645016680661639,-0.1743386373051797,-0.08390750486731285,-0.11846446398849138,-0.51637634870088,0.010022017115055118,nm,0.0
97.1928973197937,-32.41105832446966,-3.844079669846817,-177.34697262251913,0.990391691330795,-0.4139442506905643,0.07413150365078221,-0.08674131656089608,-0.5179885642432269,0.020959357441996,nm,0.0
97.19630289077759,-31.9991676690458,-1.4789979512885165,-177.02480005271505,1.382552170646461,-0.6392888893138886,0.339739917117535,-0.06643240937470282,-0.4652406420306214,0.041433984123348415,nm,0.0
97.21681761741638,-30.873085541039746,1.9171226835947808,-176.2834135161579,1.667179408733092,-0.8628063082285877,0.7326276673089969,-0.12246400109258589,-0.28857156525358096,0.05996834447535506,nm,0.0
97.22275876998901,-30.195172895099546,2.9033086100718526,-176.21329841628045,1.4648923566294336,-0.7700486295968598,0.6343864205815688,-0.13067910543504657,-0.19410809642021196,0.009316877508584233,nm,0.0
97.24722909927368,-29.40793051157687,2.5429413559021277,-177.09746374735596,0.5969983745561832,-0.6639327354064493,0.8888372774525429,-0.070180912442367,0.13618079662491542,-0.12354023309636528,nm,0.0
97.25078344345093,-29.39497555042445,0.9943123160756503,-178.0751651836906,0.17167084547523617,-0.35982132578353954,0.6514516200217291,-0.023056613455963656,0.3218213455095045,-0.16266947612755436,nm,0.0
97.27445960044861,-30.0257448225486,-3.8537730798577168,-179.9912146040866,0.07246654569980013,0.07746517091531345,0.5477818439057142,0.07073971913457272,0.541394541577499,-0.12810528568537383,nm,0.0
97.27882742881775,-30.64297909016541,-6.571478380167391,179.52506504476406,0.12434889830702921,0.14046569059191416,0.5552770477263007,0.11928847959359612,0.5558113677199338,-0.0604404656563112,nm,0.0
97.30182981491089,-33.11105749252698,-11.108665160254898,179.77218056116124,0.16885609537228696,0.29211122734974293,0.10722506756791303,0.28099566316628083,0.4269199582285399,0.053277798439133266,nm,0.0
97.30792570114136,-34.852081439431544,-12.802949511169427,-179.69030876920988,0.01836911697326583,0.24479499960242482,-0.1283825436259616,0.3344905602241672,0.3511921076398446,0.069165517700628,nm,0.0
97.32052779197693,-36.75612139199524,-14.176200451331361,-179.1655905789031,-0.19788491339050143,0.24033975127204446,-0.3956700705914881,0.36150856573480916,0.29036906334732226,0.03821924412768165,nm,0.0
97.33961272239685,-40.24736395089027,-16.787384649069466,-178.85894458541543,-0.7259202639948464,0.24387465574623965,-0.649240379332754,0.3032943947588462,0.2864991959300494,-0.07519028174159541,nm,0.0
97.363041639328,-42.424091459991295,-19.589765330789547,-179.70629103553722,-1.0588470460298283,0.2640797998282467,-0.5344110268230708,0.16068484229543234,0.29200524288581053,-0.14749559658980338,nm,0.0
97.3650074005127,-42.93075076917926,-20.777398094360052,179.71742086393442,-1.1658001693290077,0.3554875527265887,-0.46416065162075987,0.08993775541581374,0.24950456105198962,-0.12750607013325335,nm,0.0
97.3745105266571,-43.03407611211862,-21.48534953356983,179.3050325569899,-1.1739205546202884,0.34890960987649766,-0.39630703005530366,0.015271383092486004,0.15337082578865333,-0.0794237150135609,nm,0.0
97.38329672813416,-42.87475691925129,-21.56854457966626,179.12904676893697,-1.1118515573401335,0.34930657699933265,-0.3758292656897476,0.0,0.0,0.0,nm,0.0
97.41501665115356,-41.82567345935449,-19.92543693974551,179.60431193431273,-0.8850853588155732,0.28509779246121786,-0.45007529005369423,-0.13076323310503218,-0.20681088878448678,0.11312975703694736,nm,0.0
97.43028092384338,-39.72117572690747,-16.73068303617084,-179.59039437907137,-0.5567693432747747,0.19232230470018044,-0.46426047574390295,-0.2330165779479876,-0.3296844655124993,0.13707297948619698,nm,0.0
97.43488073348999,-38.307286022757935,-14.962418873479645,-179.2921266805941,-0.3964421033178063,0.13379181071953142,-0.38772737007872043,-0.2748855460872546,-0.3451533539144352,0.10834698688975526,nm,0.0
97.4404866695404,-36.75736217082762,-13.152550622844533,-179.11903004527903,-0.25826804396405467,0.142346177461766,-0.3190344714854377,-0.30202347370356136,-0.3551476372518919,0.06669373688262267,nm,0.0
97.45077061653137,-35.14094955674737,-11.251090767800163,-179.09035589369833,-0.096000308314211,0.11901867964929938,-0.22755194615578417,-0.31661370209677403,-0.37416511756969933,0.03333318941685946,nm,0.0
97.48266291618347,-31.107959046982536,-4.553214738890457,-178.44375884765356,0.6820108722165678,-0.16904835564041806,0.17254103107792693,-0.22086890836652814,-0.476710407649983,0.05737767907736637,nm,0.0
97.50412774085999,-29.6167191763642,0.07220355329797816,-177.16881126740714,1.5174328472892396,-0.603232114519271,0.6887007107822504,-0.11179193614654166,-0.43404261717001696,0.1027345516610628,nm,0.0
97.50902009010315,-29.22655458841735,1.912068960072183,-176.65054325490507,1.7558092066909092,-0.6862763675261241,0.7812383225945774,-0.06597702819534161,-0.3602347203079971,0.0837388407784354,nm,0.0
97.5322859287262,-28.914324360462505,4.198059181617585,-176.81953507000887,1.4323089973030518,-0.7707775002513173,0.8712343252470678,-0.014137643073392677,-0.16243822218494758,-0.06346661000533194,nm,0.0
97.53682947158813,-29.00280759581794,4.261511188110484,-177.51622507887862,0.9871604131383239,-0.6888045759160936,0.7869354837760929,0.010269552548447575,0.00018927357057031973,-0.1252488853948643,nm,0.0
97.55943965911865,-29.400844606704624,1.8854223855440941,-179.30990213602675,0.21516866628105943,-0.39086935007262547,0.7055119825315068,0.0292743466719488,0.3212406881769666,-0.14422437981277358,nm,0.0
97.56860327720642,-29.744061591810112,-0.17281858309720524,179.94826207057594,0.13507154942588667,-0.18461769009706663,0.5573144287524873,0.0597514699629255,0.4247441048508949,-0.10607976075837415,nm,0.0
97.59294319152832,-31.053020664518673,-5.136451883581727,179.37089819443273,0.2187762446247196,0.0158813111178843,0.42870202427962456,0.15450985103974849,0.5152797862346846,0.009957473301715938,nm,0.0
97.59694051742554,-32.17680378767493,-7.488494548511394,179.46064817742158,0.37251523285590643,0.07786587306410503,0.18618672858967122,0.22223818427486713,0.4806221560552193,0.033832710135708294,nm,0.0
97.61631512641907,-35.37524445780295,-11.637725733613134,-179.98757574537174,0.15978937453337377,0.14873358130638983,-0.18782962419274649,0.328136021683983,0.40153458294998856,0.022399854278054455,nm,0.0
97.62194037437439,-37.11962359073133,-13.289840854234026,-179.84301405480866,-0.09314280206779604,0.18834322513944507,-0.39214784220270216,0.3342846957600529,0.3430514163170895,-0.021027137944093707,nm,0.0
97.646657705307,-40.34862400386893,-16.55155131754567,-179.83886673075455,-0.6809965812842494,0.26866332994543024,-0.5259019647389195,0.2884153280878165,0.3473600901466493,-0.05280426205046038,nm,0.0
97.68568229675293,-41.649906232438255,-18.22219482353133,-179.91139422035047,-0.884001147521893,0.28552665747233524,-0.4933470890142757,0.24240138866051722,0.3466154158969729,-0.06306517478575627,nm,0.0
97.6960506439209,-42.67777825575821,-19.835675423837397,179.97268884311868,-0.963384383249959,0.3684423119699913,-0.5188483159907356,0.18909533275002094,0.3347493183036149,-0.06244219339683113,nm,0.0
97.69838762283325,-44.100403817517616,-23.361580863797837,179.88093549132122,-0.8575348654545542,0.4154616302500525,-0.39192414842798795,0.03281209751582583,0.163491807215907,-0.0014286272699175443,nm,0.0
97.71239399909973,-44.06890487940484,-23.588608767291774,179.95789131677276,-0.7998228222054095,0.41231738948983254,-0.37829416901061247,-0.010792822897045293,0.05712213295238911,0.02479462023904203,nm,0.0
97.71442770957947,-43.83193045487769,-23.260689125799782,-179.9295919695757,-0.7737927981346093,0.3638449808403073,-0.323454974255185,-0.04867782562183645,-0.054013380975399795,0.048201849580460567,nm,0.0
97.71900343894958,-43.375796278197754,-22.37940006766746,-179.7380838800458,-0.745474230412185,0.32150078953968897,-0.3063888251223273,-0.08884749482857662,-0.16511360407900216,0.05988248072231506,nm,0.0
97.72611570358276,-42.70498268581142,-21.075598923818323,-179.56757851231322,-0.7096762650340892,0.2699572639516498,-0.30331421343117254,-0.12855046436937015,-0.2502185231986386,0.07168250254545448,nm,0.0
97.75017380714417,-40.75265453558676,-17.73981906139504,-179.1684844784906,-0.5703031929449219,0.1763685527204164,-0.2593265286674948,-0.20708550769937845,-0.34505165566341384,0.09004753390838029,nm,0.0
97.75473237037659,-39.51290990583371,-15.814862568280253,-178.97022013819517,-0.4103162063982383,0.13528265569069317,-0.2687484521080491,-0.23739067007189302,-0.37767041723265116,0.09088612324183985,nm,0.0
97.78073000907898,-36.91203911315505,-11.548390900032244,-178.40989545100607,0.08600169234758974,-0.01808497813635402,-0.20644517930523465,-0.2489108362451689,-0.4387695874400693,0.08700064992145777,nm,0.0
97.7891435623169,-35.68833458005302,-9.093387756796504,-178.05936822384578,0.40867077600672214,-0.13031984103757968,-0.1694740306733607,-0.23219616881442912,-0.4872867339414246,0.0740033766805187,nm,0.0
97.80725860595703,-33.72986926960346,-3.6538433783523456,-177.42208994596294,1.126412763505425,-0.513898009546888,0.18244631840174225,-0.1604883646829986,-0.5502952586662538,0.057872866352887985,nm,0.0
97.81241202354431,-32.93073579673537,-0.9410636120327412,-177.0827930178091,1.458774211695973,-0.658564490353835,0.4214525161126829,-0.1412823881902995,-0.5384644636645471,0.06025116406392826,nm,0.0
97.83857369422913,-31.091105569583153,3.4984744158100227,-176.35725305681274,1.6459493483354486,-0.7239599900317705,0.689841889104706,-0.17703033027055187,-0.3999284008783979,0.012992787290723607,nm,0.0
97.84430265426636,-30.151728212824427,4.873815988515324,-176.5573726400492,1.375387782006792,-0.7052884953599555,0.8483124731519844,-0.17822707019740036,-0.27473033232161315,-0.0707826657986958,nm,0.0
97.86601185798645,-29.022977863912217,4.9073597420730914,-178.38388493643436,0.4561513691366169,-0.484995344501703,0.8538091990074572,-0.08731624765069602,0.10204276203880906,-0.22709062941718486,nm,0.0
97.87162351608276,-29.004592527318657,3.5481432630563026,-179.7294300379355,0.2525280025199742,-0.25396275402487295,0.840911424575482,-0.015451989030405379,0.28439236400994605,-0.2503838017572161,nm,0.0
97.9081072807312,-29.19580768519381,1.5755143495209267,178.876932028451,0.10414577527111515,-0.17454158482775434,0.8493470556471927,0.03465614886230121,0.40712411494943995,-0.23793414201970742,nm,0.0
97.91071629524231,-32.325142548765534,-5.01630928446499,176.23573889199412,0.09933489456072733,0.15367264899992486,0.25697365666267485,0.29707054486026,0.4360832848481087,-0.06042797470851828,nm,0.0
97.9261257648468,-33.92494932550893,-6.94782804311031,176.07718699543744,0.13159674713041378,0.06896739571416531,0.004246246939268435,0.33816933259107906,0.37662668118545173,-0.024562526001549147,nm,0.0
97.92802405357361,-35.7405546938049,-8.697148523731617,176.03231088729345,0.13206507514678154,0.1179284102911011,-0.322892626792338,0.3778393749038504,0.33664921256807845,-0.01955215034602784,nm,0.0
97.93689727783203,-37.53200623125955,-10.46913464949325,176.02144693145277,-0.0763173504054981,0.04803081360882652,-0.4300527276973786,0.371989482619891,0.34142760519360815,-0.0270436001339396,nm,0.0
97.94948101043701,-39.181684573159615,-12.190069863127095,175.81679093911097,-0.3327397683717769,0.06636738726765769,-0.5457312672537663,0.34231597323908985,0.3326569668539403,-0.07402028190996593,nm,0.0
97.96803307533264,-41.76369224386536,-15.800810099331162,174.9969268201117,-0.7947293016363217,0.19387574600062027,-0.5742461280746947,0.25017902080402393,0.36530719683924756,-0.10673461102049851,nm,0.0
97.97778177261353,-42.626203405423034,-17.554853309515575,174.63332428865507,-0.9842311721683507,0.26667288811960244,-0.4641539552804592,0.19220641551710924,0.34682617013254274,-0.08644401178562722,nm,0.0
