timestamp,roll,pitch,yaw,acc_x,acc_y,acc_z,gyro_x,gyro_y,gyro_z,markers,motor_input
78.0061423778534,-23.827520522910305,24.4282924787414,-90.98796406434421,0.15789648611277682,0.17287364220279666,-0.17358544798093567,0.3203918184821089,0.4178286825001549,-0.004412856475811959,nm,0.0
78.00845885276794,-26.046035140774418,25.97392947267235,-92.27979684443387,0.1992657350521579,0.21634739534822106,-0.265080684022896,0.3086219295034977,0.386201888082156,-0.044328809742361544,nm,0.0
78.04657173156738,-28.205129537467556,27.5095936850461,-93.43872047436014,0.15998716291490003,0.27729915162031354,-0.394746209401784,0.3133540645300938,0.3642262522059755,-0.05435617625290637,nm,0.0
78.04881477355957,-32.63587811819289,31.803425031512376,-95.70488560109972,-0.10521159091444397,0.41035225944957043,-0.6916441793424691,0.28029884620880496,0.15300799292287048,0.02151049337847406,nm,0.0
78.05142712593079,-33.2887146545044,32.96413302427837,-95.85461839069944,-0.19884422590189416,0.5080732967750734,-0.7480750665385214,0.22943812061479574,0.08039719177804372,0.037699502361847104,nm,0.0
78.06424307823181,-33.55557135108762,33.751501188213545,-95.665716975118,-0.10321424747823095,0.5049198848185241,-0.6647710825504922,0.14842173997079774,0.02270625588105405,0.03729992786994108,nm,0.0
78.07180452346802,-33.737919733345635,34.15168890728506,-95.3310282860527,-0.20949738921259067,0.5990567637768003,-0.6710694012984822,0.0697636885159608,0.016517851480759613,0.030041602893437446,nm,0.0
78.08057117462158,-33.711031049451535,34.108700001365975,-95.13863198614266,-0.2237376854540136,0.6523559662861662,-0.5979542049559473,0.0,0.0,0.0,nm,0.0
78.08873105049133,-33.483750315777755,33.61808808731439,-95.04645295159943,-0.20295358084366583,0.6024475515716436,-0.5158517169195356,-0.11404309543734725,-0.0351258257640042,-0.009288609169539188,nm,0.0
78.11634922027588,-32.40787328622709,32.02747892023283,-94.46359693743614,-0.22057825855443766,0.49980841031115875,-0.36641883381844953,-0.19113037558371135,-0.10809270926077627,-0.004924889639331283,nm,0.0
78.12242722511292,-31.453966708184854,31.09849395054622,-93.70076158853522,-0.20387977637538562,0.42564062941677916,-0.3271350520453285,-0.2097590382180103,-0.1556226295769174,0.03175833051864964,nm,0.0
78.14594435691833,-28.90085473482224,29.1216863795202,-91.08824376932589,-0.07188812184637565,0.3078434086233985,-0.2871955913636376,-0.2211819785903154,-0.2370078397941097,0.09836525419680293,nm,0.0
78.14909100532532,-27.512920625578968,27.94488828907832,-89.72892046711405,-0.011665545449913762,0.27818076398625247,-0.3093451365951913,-0.24949705918578396,-0.2496604347829374,0.11444525516642247,nm,0.0
78.1554856300354,-26.13615247666798,26.51093336059101,-88.51129991759893,0.108746550828846,0.18180477389818558,-0.2928531175064497,-0.2954500720369045,-0.2567887968111391,0.10523999844787797,nm,0.0
78.1862096786499,-23.702457511987546,22.94026942722459,-86.81868062354624,0.3238674823678276,-0.053517621348721046,-0.2523310999033093,-0.38139588696094856,-0.23878329499934056,0.043293417267523136,nm,0.0
78.18785285949707,-22.5891886616507,20.83985874982264,-86.26633953911782,0.4588158985741963,-0.2395060887777792,-0.16894041508029395,-0.41922473646210007,-0.23953733324833526,0.019931541281724124,nm,0.0
78.1938648223877,-21.500995484174993,18.642183857648384,-85.75335173708721,0.6147840085393125,-0.42246228520073764,0.0027772363295535747,-0.43643727999965537,-0.24321291280343274,0.013388460590107204,nm,0.0
78.20413160324097,-20.467885377535428,16.453826033284834,-85.23031535171683,0.893510434098099,-0.5813809087736637,0.4309750467796958,-0.4329446224483264,-0.2392552352247396,0.024528339134653097,nm,0.0
78.22580146789551,-18.988459271595048,12.489340348157576,-84.30775361601167,0.6119458090909498,-0.46664429601410745,0.3740073374400635,-0.37028099288821814,-0.19775326558533707,0.05167691490463233,nm,0.0
78.23365354537964,-17.77471894238019,10.91735770505779,-83.96774553183171,0.9908085586665346,-0.2327501800570489,0.8195945838556858,-0.3003375488904665,-0.2771741474606201,0.016058106656790336,nm,0.0
78.25857305526733,-16.028525789531063,9.077853767049776,-84.21781242130872,0.5130924494698561,0.2507691060338822,0.9244971131532222,-0.12261057417890438,-0.20056018366236847,-0.09087637394402817,nm,0.0
78.26021194458008,-15.034940340386488,9.074169986805178,-84.77505881922609,0.34738682430868034,0.37645186230289074,0.9273423026713778,0.006542749157430001,-0.20373055594694053,-0.1460147877144919,nm,0.0
78.27137064933777,-14.050206436704503,9.682985468381835,-85.43419947238307,0.3746293305466018,0.24123348481075488,1.117886052102445,0.12643482546573964,-0.19133335590943437,-0.1674415394272533,nm,0.0
78.29378938674927,-14.068489489290393,12.746424277164001,-86.70397996300467,-0.1896798075295814,-0.19163622180034767,0.5206926535830629,0.3435935239102676,0.08239867617422131,-0.09154594827390333,nm,0.0
78.30242562294006,-14.399999262515005,14.7212847092135,-87.14249073523123,0.09805974340910024,-0.3636197648400967,0.6590117678097475,0.379652346028655,0.07777821084377252,-0.041169076563432966,nm,0.0
78.3212456703186,-17.05826071079271,18.56135137934807,-88.06768229863609,-0.002212419093854666,-0.2359869480987621,0.07995860683192531,0.3563241432409363,0.3027149471606514,0.028377246533120213,nm,0.0
78.32702612876892,-18.844924501582344,20.292842205868208,-88.9023127419571,0.2673530251482797,-0.03379544340144528,0.1052303551025937,0.3261644454922395,0.33890933569156495,-0.002096057359518539,nm,0.0
78.34922456741333,-23.45031190543645,23.114927214132337,-91.38186534024388,0.21491950653300923,0.23307022817413148,-0.17396285660994656,0.26279083229022615,0.4155417235080084,-0.06532088521748822,nm,0.0
78.36166477203369,-25.694767593356893,24.46065632536333,-92.75251130558507,0.25672477443627423,0.2952994874353502,-0.24721224503338146,0.27172972656527117,0.39470787803230606,-0.07616551909685981,nm,0.0
78.38044285774231,-29.348759350823723,27.355311553989463,-94.81684099693186,0.11587719664849543,0.28557769209328643,-0.49366941480745413,0.30915380893707023,0.2502044196153819,-0.01917498931037456,nm,0.0
78.38376665115356,-30.479744374395057,28.939789160789736,-95.25558504166871,0.05670618214756677,0.3377462298022689,-0.6176492520299569,0.32064881960132596,0.16504999265720524,0.016658879349664677,nm,0.0
78.392902135849,-31.12837794156597,30.38944628692351,-95.38221355200106,-0.04258770392351874,0.3828123336121733,-0.7388050776268822,0.28656754738261253,0.07947284163250615,0.036525791226650874,nm,0.0
78.40262722969055,-31.30425978323397,31.479962817623107,-95.31843069904909,-0.02099724568914674,0.38520743635227656,-0.7345972164158476,0.20732147716639493,0.0037374957669956744,0.02836349133029751,nm,0.0
78.42845726013184,-31.008081774107858,32.12172506499826,-95.19579036827422,-0.17083400458871384,0.4277089584526002,-0.6538117787076351,-0.008091427722314116,-0.04994559039687083,-0.02183787882600817,nm,0.0
78.43096733093262,-30.5866193461936,31.65790316367607,-95.16048557161226,-0.18242780235424141,0.40304593516075343,-0.5282756178045995,-0.11187389650998737,-0.0689040053237219,-0.0401783534827298,nm,0.0
78.4560911655426,-29.303167612213223,29.895822629738017,-94.58480825812418,-0.23276203789761807,0.36947605932773864,-0.3365025731220189,-0.21574742463295807,-0.11867760201463501,-0.00775740856180918,nm,0.0
78.48092031478882,-27.328335054825168,27.855299529257863,-92.75886047865961,-0.17151894115018423,0.3222838651142914,-0.2431660056193086,-0.22662928445298908,-0.18024317350647867,0.10011611982331477,nm,0.0
78.48300838470459,-26.175880830124544,26.82608545092009,-91.46969601969444,-0.06664569772894678,0.29712356974770493,-0.24210492225322594,-0.22598904098287614,-0.20385379378800875,0.13751172493672864,nm,0.0
78.49154949188232,-25.027792479529236,25.672642723563623,-90.11493167554426,0.0306894784035757,0.2581194589881063,-0.2891411370012285,-0.24609166477336983,-0.2098664225120088,0.151933471753869,nm,0.0
78.51682090759277,-22.912306175959372,22.64990668358996,-87.96497166270585,0.27693839996518976,0.04681206757694733,-0.2960132882071802,-0.3361077651503299,-0.2018772590654924,0.09923010925754186,nm,0.0
78.55302095413208,-21.06121591113632,18.587174808008122,-86.82554480876719,0.48941414041208803,-0.2087716172916103,-0.11746620662105928,-0.4321194418474004,-0.20391864388300654,0.03104078321637472,nm,0.0
78.5566246509552,-18.679299886248145,12.19300926473272,-85.39118882468382,0.6681574508965491,-0.3530753369536359,0.60096722511016,-0.3946511567778699,-0.15364136410874424,0.04660965146417239,nm,0.0
78.57166481018066,-17.874028457856262,10.593362107780345,-85.10375781191367,0.589242869019351,-0.2462450731552857,0.5912599859998321,-0.31794506808650563,-0.19189793985059292,0.04088164757175929,nm,0.0
78.57332301139832,-16.898497230626102,9.4365806050835,-84.86014238845296,0.7926322235112448,-0.0762352352048998,0.8840793979928825,-0.22561749903985825,-0.21994914567276916,0.019776828276285373,nm,0.0
78.59266448020935,-15.645963505018065,8.773869895567847,-85.12363523276453,0.41780341317829683,0.1444852820270304,0.923847822935069,-0.005641615062269305,-0.1312602353430427,-0.06673513023879203,nm,0.0
78.60808682441711,-14.908930172543641,9.36153901781294,-85.65891129547724,0.3948007479242314,0.14180758311678573,0.9335067276899297,0.11722998536242486,-0.14379659183224117,-0.11910195379371959,nm,0.0
78.61207580566406,-14.550962527920362,10.455289446174259,-86.35874444605022,0.5773586069250541,-0.02579364185613796,1.1721151764166555,0.21159016954538026,-0.06300529895543229,-0.14294711719935174,nm,0.0
78.64491200447083,-15.561969670827096,13.74674099520183,-87.9715276933916,0.16940325831991881,-0.31532036139396574,0.6369928790986625,0.34114718940560795,0.10327449953468903,-0.11237904848822823,nm,0.0
78.64723682403564,-16.605720768651636,15.629219229940832,-88.73827521829324,0.2325902058201769,-0.3637737287234637,0.4631255811165206,0.35916089121441425,0.20534400109387302,-0.06762569411855317,nm,0.0
78.65085053443909,-18.17418397013787,17.488272038424007,-89.50484538275849,0.054428878800724875,-0.2553322250455206,0.08618548921479503,0.3558201069993203,0.29928485675389366,-0.027679716402286513,nm,0.0
78.67781805992126,-21.785437225486906,20.974794931588423,-91.34474987869922,0.2557655250079613,0.030485261812951987,-0.09515669305064353,0.3315074741711173,0.36683708153307215,-0.024102779526851317,nm,0.0
78.68357586860657,-23.82172478921834,22.53159225550535,-92.49557478148073,0.20521094959921793,0.22022172671398807,-0.24471622096599532,0.31213715445585755,0.3612243304592848,-0.04420968844887023,nm,0.0
78.70137357711792,-27.61545397876741,25.434552970310307,-94.8964550599189,0.17147968970161775,0.29406247969002786,-0.39196006561603286,0.30004615924086464,0.314438610749663,-0.0648860248501561,nm,0.0
78.70787572860718,-29.119457675499852,26.88649489213324,-95.8600509865072,0.11945168693525103,0.30617355224975157,-0.49287058973381137,0.3016967460785212,0.23614163871352115,-0.0694622562754629,nm,0.0
78.72407674789429,-30.270758458465075,28.28959591011868,-96.68941741472496,0.07331074077078926,0.3125563507918541,-0.5398921279855008,0.2885932150169115,0.16657700099466896,-0.052470494542788244,nm,0.0
78.7390365600586,-31.430434540444395,30.599198976131863,-97.47432630260744,-0.07962395206344526,0.40357135092774377,-0.6046604691998415,0.20319308045895407,0.030641540476290002,-0.019903355503267457,nm,0.0
78.74521851539612,-31.582298052327747,31.360364567478825,-97.59276906095539,-0.11934671098665822,0.43770597694537733,-0.5646318861459684,0.14138447532600804,0.0003618805670467214,-0.010504522161746632,nm,0.0
78.77002501487732,-31.470419151875053,31.94565232748576,-97.61990442718468,-0.13514428469957077,0.48673530217942224,-0.41234245701519795,0.0,0.0,0.0,nm,0.0
78.77320551872253,-31.292170378378007,31.768859702238753,-97.63695883519391,-0.16089554149243032,0.47971253968045824,-0.35459961947057106,-0.052245887602908866,-0.030800464623581058,-0.03312272556040288,nm,0.0
78.79626965522766,-30.59680201294454,30.904122140228665,-97.51837294075504,-0.1229972977937566,0.413273310276915,-0.23532597037931569,-0.1185400822138196,-0.06174719852499312,-0.026425525359172863,nm,0.0
78.80250453948975,-30.044206960329472,30.34324109204042,-97.2439172061566,-0.09646273849345553,0.38328349476725476,-0.2238381764547956,-0.13674597839473443,-0.08544702593241937,-0.004018554543270125,nm,0.0
78.81192588806152,-29.32719360023205,29.723316164612015,-96.67288774643742,-0.01839809402686118,0.33197632052709036,-0.21021895235986804,-0.15127154142676222,-0.11398772652473861,0.01976104020791374,nm,0.0
78.83998012542725,-27.58506779208943,28.221206447544127,-95.15689665014764,0.1335329933101037,0.23485239804189512,-0.23695845523977246,-0.1907247749457743,-0.15031270383923057,0.044078899765687615,nm,0.0
78.84237670898438,-26.615021298806596,27.22709854685285,-94.42309762149073,0.2128394510695603,0.11814502215855552,-0.2608361123523992,-0.2255005946347223,-0.16074377413842,0.037185278807768125,nm,0.0
78.86299896240234,-24.603997933287292,24.670492120065628,-93.16951218807411,0.32938250908769134,-0.16952383059837872,-0.23983274958089254,-0.2987230027292975,-0.17402672448480394,0.00951584208288688,nm,0.0
78.8861951828003,-22.452819729819364,21.468147652040408,-91.93728723844781,0.4618768190960757,-0.5453339155325421,0.04338939716238104,-0.35037108309060494,-0.19584234727670832,0.022902313419546027,nm,0.0
78.88905882835388,-21.353241116002952,19.81438057986477,-91.24865739199647,0.5230887891209013,-0.6177631974788811,0.25986959348254113,-0.3492082345410313,-0.20340150868194462,0.04822182753764474,nm,0.0
78.91091918945312,-19.361815193151998,16.762360045036527,-89.62733578848277,0.5909098868588544,-0.3551706933419437,0.6241366071410634,-0.30110063350494015,-0.18600834625630935,0.09872402340488715,nm,0.0
78.91550135612488,-18.5796389611358,15.707476271547627,-89.03034406601346,0.5600942889208724,-0.04923143025159168,0.6533834194069862,-0.22175197805995428,-0.15978158531168427,0.08179847052589369,nm,0.0
78.92569160461426,-18.009904322847344,15.141137548215635,-88.78570213950773,0.4996593485816894,0.21488743986474698,0.7187153447449641,-0.12357769549502358,-0.11909570145720202,0.03504385227848663,nm,0.0
78.95573854446411,-17.50933784838601,15.592762557730657,-89.26245836940744,0.3151441170749205,0.255635487027655,0.847125767520145,0.090212704296052,-0.03383632173850404,-0.08674221492917569,nm,0.0
78.95750594139099,-17.660646182943477,16.63321525623158,-89.94357019431568,0.23464045547982104,0.11315073078906614,0.8032559927758528,0.1958302843370093,0.02369590442321123,-0.11730477655725702,nm,0.0
78.96362709999084,-18.177158878725233,18.03862004323588,-90.76170299447698,0.13829054150585773,-0.076798780721112,0.6909385616063861,0.2697210296065704,0.09011818683709519,-0.1057092000444394,nm,0.0
78.98718214035034,-20.308710929786024,21.422904416543016,-92.1512403611605,0.1363386854651791,-0.22627798290254109,0.3334055732292876,0.34617067197547846,0.21637909419856163,-0.01444725253549798,nm,0.0
78.99273467063904,-21.86664559474998,23.175645654076128,-92.75317538340371,0.1815632907635289,-0.1189922794645023,0.15677091229491785,0.3506045198871619,0.26688365863443736,0.02214428984973371,nm,0.0
