timestamp,roll,pitch,yaw,acc_x,acc_y,acc_z,gyro_x,gyro_y,gyro_z,markers,motor_input
17.011565446853638,21.63635997345881,-11.759704546019275,89.88015393543843,-0.14334360930059833,0.217749158619252,-0.4200020329476858,0.16514993499077424,0.20141923906973488,0.004833683476459332,nm,0.0
17.013634204864502,22.080888669289866,-12.290450361439186,89.7328179981792,-0.24972702588915216,0.08895737498759382,-0.40297261214186897,0.11520582393200494,0.09581977120663727,-0.023563387447337766,nm,0.0
17.029231071472168,21.497467649939313,-12.386019852765772,89.41277168469121,-0.47807700201524245,0.30404889478386343,-0.4795582975276595,-0.011855340682229511,-0.08341225358678449,-0.11096056850688504,nm,0.0
17.03775382041931,20.69031152747065,-12.136128593843765,89.26633722636134,-0.5583968307395308,0.4907383458501045,-0.4516470483384438,-0.042429812580982294,-0.14853971391337234,-0.13949444932675542,nm,0.0
17.0594482421875,18.264012261859026,-11.659202567783472,89.13833805057409,-0.6266489683569636,0.7271348781374624,-0.4681242195216161,-0.037473451514450536,-0.2472096421975387,-0.10736452599397389,nm,0.0
17.06519389152527,16.785980721017946,-11.511276106020809,89.3826466322598,-0.6647414750133375,0.6225151089986659,-0.4854035952325105,-0.023354865095118495,-0.28079626045780637,-0.056799001063868704,nm,0.0
17.09190583229065,13.526883707015106,-11.207121271950342,90.67691431497396,-0.6239923931480014,0.08601616607706294,-0.47130650201848834,-0.027970930988692373,-0.31550353363738964,0.029707890597994103,nm,0.0
17.09379291534424,11.83549681882514,-10.747757303570054,91.5092361948649,-0.5244023796967849,-0.27560711133517835,-0.44174308957327724,-0.07499440197462,-0.325471237358631,0.042617774560288736,nm,0.0
17.119884967803955,8.515250492256511,-8.77517161481153,92.8248038158229,-0.08972064427916777,-0.7639858694331974,-0.26152283274637544,-0.21030092219561888,-0.3222786649666845,0.015582567628863479,nm,0.0
17.138960361480713,5.829511903178275,-5.226887662796303,93.72484869208672,0.58428631146577,-0.8982920976416054,-0.13926814048914177,-0.36714497800180923,-0.25002028862974857,0.011053825397537076,nm,0.0
17.14217734336853,5.375060282096783,-2.9545925163288462,94.08622896777345,0.6459487380460578,-0.9987104840691432,0.9769173469712481,-0.43733836346831456,-0.11368459670153715,0.02944372795422043,nm,0.0
17.1654314994812,4.179525412353517,2.0887934962358417,94.18824029191362,1.4612627976670538,-0.706716904758313,1.2973321414125616,-0.48548358699278454,-0.11542682171217075,-0.02750867022629893,nm,0.0
17.170565366744995,4.000932065473317,4.297897240784463,93.82130831053003,1.148640708918884,-0.2724908457114997,1.8259939062664694,-0.42825592216872976,-0.05902848545982475,-0.08747573664110292,nm,0.0
17.192426443099976,1.161015533331935,6.421736600032142,92.33896586787637,0.9736618761723151,0.5010294786826385,0.9240349278665575,-0.07940290656731558,-0.31156500370712237,-0.15574870240608152,nm,0.0
17.20553493499756,-0.5150106754485531,5.726702565606915,91.6591679047154,0.42361207500504283,0.6129591551137011,1.1481784986718588,0.1620966052333161,-0.3213554649668575,-0.12019480262155996,nm,0.0
17.20714282989502,-2.5913496504758613,4.084652710283791,91.38396687381308,0.24282116564514197,0.37934655032809406,0.6863815492338554,0.35119421516177707,-0.3978728931157263,-0.03438276581531451,nm,0.0
17.23367977142334,-5.734206332617687,-0.7383351265008832,92.27649821775358,-0.19948299935838232,-0.5290364645151839,0.05687346968060689,0.5324598640032042,-0.2609711015121441,0.13245101213466592,nm,0.0
17.235676527023315,-6.175225322850276,-3.1906727145578797,92.95870636220873,-0.4990811433621067,-0.8412711608292598,-0.17816613709469112,0.5059094418831805,-0.05794813479556754,0.14933300453557571,nm,0.0
17.254703283309937,-4.784538937795811,-7.175710217730003,92.94788850151473,-0.790503276143517,-0.7382681578910009,-0.7095900102209785,0.37195026697451156,0.2156733623264169,-0.01443763531608805,nm,0.0
17.270576238632202,-2.7589642589334495,-8.736626779265713,91.97356274114239,-0.851927416816301,-0.2968573210130142,-0.5937339102568266,0.30694575318588246,0.42265170514661865,-0.10457973530012278,nm,0.0
17.275816202163696,-0.14221310010612245,-9.956892451183515,90.50163532159935,-0.7575388743139023,0.1697684902557436,-0.3255946631837759,0.24553381307522099,0.529898659129595,-0.16130247242292026,nm,0.0
17.28515124320984,2.625784779735645,-10.989517088117774,88.97789812030585,-0.40909561869914396,0.6719498861297237,-0.3429419924091634,0.2217120394309999,0.5517111318428977,-0.1548489136797818,nm,0.0
17.30624771118164,8.104833585618419,-13.226161319050856,87.09469867302063,-0.1191213810132345,0.9569902933825526,-0.08085563825645824,0.2757288350474062,0.49546018106302153,0.018275196094517457,nm,0.0
17.31345558166504,10.056049764970455,-14.745276452521445,86.82011876469481,-0.06582731782309248,0.7810703872207999,-0.19043694979377332,0.33522550154137115,0.37023982428947005,0.07367911080410756,nm,0.0
17.33484697341919,12.026766924320093,-18.092435039519412,86.42813313842674,-0.2542637711344633,0.14092368640981012,-0.38202497436089977,0.34246589158700796,0.10989994159558368,-0.01578619758720894,nm,0.0
17.339946269989014,12.108087239315442,-19.405677659896007,85.67196611778803,-0.37408830440435364,-0.041943375132127585,-0.5537213964929377,0.2741106574876482,0.005815790328601804,-0.14375515297451785,nm,0.0
17.363439559936523,11.057024255260892,-20.89346998933558,83.16106978146773,-0.5499321000352807,0.08259396210885936,-0.5849543459106106,0.10741086588822898,-0.14221654499082656,-0.3573435315354153,nm,0.0
17.3694965839386,9.881517254768099,-21.2067842707883,81.9039982893326,-0.5583696294446158,0.30127015270365454,-0.5660440990622236,0.04548542295622563,-0.21807199264547156,-0.37018339261246647,nm,0.0
17.39380168914795,6.286066767632901,-21.55306133333287,81.11805538344987,-0.6386609576812773,0.5469070176935735,-0.5177527269308707,-0.018764186554498984,-0.36499104120581,-0.19705739109039738,nm,0.0
17.399046659469604,4.0098555543805565,-21.532438268870028,81.71096272158078,-0.7168251199986505,0.5052102914086084,-0.5426498170230726,-0.054751430977323885,-0.4112852453112008,-0.07707458699414019,nm,0.0
17.42534303665161,-0.5425157040548441,-20.842186750186713,83.72523471963613,-0.7582914138511619,0.16093377038603254,-0.6100487584802402,-0.12961697238126996,-0.39004426018204025,0.05841116167048871,nm,0.0
17.4268958568573,-2.4806527186888454,-20.09653930997687,84.5589335811289,-0.6048137339350992,-0.06526854917071051,-0.6550945764377858,-0.17365019300961296,-0.3388699529292298,0.051924881200574334,nm,0.0
17.455402374267578,-5.065171528655128,-17.744019850678374,85.54357157358524,-0.0854606096090271,-0.5994325021634418,-0.3934748898586823,-0.2704494052536202,-0.17197354614207352,0.01918735232039838,nm,0.0
17.4643235206604,-5.660129823787478,-15.956168601683471,85.80441537120936,0.33633952944021556,-0.8201972239959541,-0.341190699485641,-0.35332651157940964,-0.07890683611849103,0.0457789063471568,nm,0.0
17.4791259765625,-5.411188065821505,-10.738717537262355,86.86753283428943,0.4816643887105846,-1.430294942986164,1.1142711741810913,-0.565029121284244,0.04181660278336625,0.1614386538375306,nm,0.0
17.48325800895691,-5.288836568204851,-7.378979207937548,87.60590669675994,1.1566673487605494,-1.1517080521879806,0.8818281808071414,-0.6585983756166434,0.06526809204425418,0.19334379536751334,nm,0.0
17.506083488464355,-3.558507402368498,-1.4345018411713455,88.85502149229313,0.8831912048655483,-0.1573957143756482,1.6162017200222791,-0.49606455154870727,0.13980555342736478,0.1414087982609043,nm,0.0
17.51170587539673,-3.3003394765913456,-0.06370338186485444,89.00377597325567,0.9895265036074224,0.5529219688937204,1.1419115865237617,-0.26163535459418635,0.06444421609409778,0.06165216507457638,nm,0.0
17.537244081497192,-2.8849305692907206,-1.0062889123153027,88.89461957649293,0.3513172742059203,0.47708587419605253,0.7730650996382179,0.24294487676459492,0.007127177827674692,-0.012506543130290789,nm,0.0
17.54017448425293,-2.7215540347535927,-3.284966100898901,88.94833343659275,0.20502409230266586,0.005757908181093456,0.6437694597122665,0.4685101763040958,0.031406858233325056,0.01455227173579258,nm,0.0
17.566301345825195,-1.585310341728196,-8.266211167538964,89.69301083205701,-0.04657596770761611,-1.175569886150975,-0.056815954159528316,0.4911947623020806,0.11554046777818815,0.09661211914249072,nm,0.0
17.592424154281616,2.521402289914741,-11.655711052693247,89.9814262363062,-0.5844757965627344,-0.8971545537787512,-0.21045041720674804,0.28611012654251106,0.4939157859130915,0.12104861889281411,nm,0.0
17.594193696975708,5.22363254002676,-12.407305873652922,89.52739223778372,-0.39172192950565543,-0.20629740220203027,-0.6064226647517027,0.16444129193459903,0.5367501456587679,0.052441181901567366,nm,0.0
17.597111701965332,8.597947988018474,-12.959076620024783,88.76520023391213,-0.36782706592352654,0.495313457061275,-0.3343565236073499,0.1316844892181475,0.6657816476376934,0.01809717129371499,nm,0.0
17.62830686569214,15.041009323253288,-14.686474501113025,87.01332982050918,-0.012696472080099636,1.3762816196040695,-0.277472765718933,0.24430327795007814,0.5926975514292099,-0.0025565326708526944,nm,0.0
17.62993597984314,17.74555218652134,-16.168093389487826,86.5155722594533,-0.012841862936500796,1.2001658223318283,-0.24768871799445616,0.33542824135042887,0.5132899630950333,0.03857758759256357,nm,0.0
17.63562822341919,19.68366980538362,-18.033612109116866,86.24143111897268,-0.02769493148369042,0.7590697265914486,-0.3858314092022785,0.40578667288601417,0.3556798773394689,0.05341555700059626,nm,0.0
17.661262035369873,21.446948250209353,-21.467746751620478,86.24924877325248,-0.32283823426151853,-0.270520269623425,-0.7146498802324222,0.31745059554345567,0.09280339129569802,0.013870146220616943,nm,0.0
17.662983179092407,21.278903643047904,-22.261243886605264,86.23474600794324,-0.474956441773279,-0.4638899768793165,-0.8925204259442063,0.1659603952569157,-0.03171392095884316,-0.05974686383834357,nm,0.0
17.68783402442932,19.195865948021297,-21.65066287081955,86.22734141572754,-0.5794587787955633,-0.04386049190353032,-0.5940457254303645,-0.1339484443239546,-0.22984213795268404,-0.18400855883156478,nm,0.0
17.692115545272827,17.205419890980068,-20.613779555089387,86.38678842614065,-0.6115549058633808,0.4236296335804263,-0.48095034574805956,-0.21988842943414305,-0.3492369449148307,-0.1986998270617549,nm,0.0
17.71077275276184,14.653580146143327,-19.51468891994915,86.83450611734104,-0.6379734232351899,0.8238603112715135,-0.3445660050714044,-0.23620996264453623,-0.4579404807701938,-0.16947665715738425,nm,0.0
17.71273422241211,11.728302608386297,-18.495417912518757,87.68703368858642,-0.6808039722183644,1.0062734943734721,-0.2940492073498708,-0.21788616057302684,-0.5353363585439372,-0.10665581324361179,nm,0.0
17.720553874969482,8.701388652442692,-17.592091002526764,88.8237953032902,-0.7603499230558876,0.9138070192245497,-0.3374618954028248,-0.18578934765000268,-0.5622806484645293,-0.03949708652299154,nm,0.0
17.730502367019653,5.755914744656573,-16.773031776755072,90.0344850176403,-0.808004698858029,0.589207527309385,-0.3988761081421641,-0.15709092964125457,-0.5534290538192244,-0.005312735293806854,nm,0.0
17.740966796875,3.0573804584432174,-15.921308747010526,91.00634167187002,-0.7369702718386343,0.12722848340154685,-0.49131496706059774,-0.1536656866697784,-0.5115418871576861,-0.014974144114049294,nm,0.0
17.763561487197876,-0.8937706016004929,-13.589206526239158,91.70620286186248,-0.2568472297607529,-0.7411574636160613,-0.3326213666423552,-0.24069604022776142,-0.3284105927429138,-0.09548180051610868,nm,0.0
17.775805711746216,-1.9578176172297783,-11.892606307128224,91.47236523739053,0.10014225041662264,-1.0409430982879835,0.06853824845140442,-0.32238739034133596,-0.20886449592772144,-0.11075505347674222,nm,0.0
17.792027711868286,-1.2893134597433984,-7.1481719465436795,90.919072945111,0.6051640826890949,-1.384292958264212,0.9097662229393988,-0.5061123266820756,0.18999611714028417,-0.0024153830703897493,nm,0.0
17.799343585968018,-0.32705181243158055,-4.328368146201916,90.7501873394632,0.9878188000507225,-1.216219451451661,1.6177181316244256,-0.555768419934805,0.19231388345867267,0.01821847995020931,nm,0.0
17.825356245040894,1.9950328383909064,0.9679604967860105,90.23155150788891,1.1798551047680625,0.4691510904648205,1.2231048346109716,-0.14969661394717035,0.03179769528254311,-0.05386905109081329,nm,0.0
17.850205659866333,2.4143096610142742,-1.2254969995105718,89.35253988658681,0.44060771036003726,0.1990563296800242,1.3961174424432958,0.3653941027783443,0.04885015031489754,-0.04693008493490684,nm,0.0
17.854089736938477,2.0755824320970717,-3.772215220548035,89.46506228040397,0.42110735130792903,-0.2933596876736378,0.7488277757976306,0.5204285998090623,-0.06537650259690114,0.014630520285871099,nm,0.0
17.874969959259033,2.3009609868739416,-8.809749487651922,90.87627278651352,-0.08451754694491456,-1.3412740002571275,-0.015014429375038295,0.4933954257686762,0.0472520686561347,0.16835539103774066,nm,0.0
17.897927045822144,4.631125932409557,-11.736155229579403,92.16951449579466,-0.5565471349513295,-0.8454051112592695,-0.41064004114012564,0.21161974680383974,0.30602894771110956,0.1608215640934866,nm,0.0
17.900819540023804,6.576357964021243,-12.407731352792357,92.09965701860945,-0.5262492696113467,-0.15526934629320677,-0.6379404801906552,0.13098435844771453,0.3944685426562937,0.0889747080479939,nm,0.0
17.926817178726196,11.609919909486758,-13.883426949129662,90.91376158801839,-0.3806112148731259,1.1771229018405116,-0.25356721690131384,0.1532131053997042,0.5063952199411628,0.00635057635917367,nm,0.0
17.945026397705078,16.349885875620938,-16.698081539519734,90.10843599486864,-0.22483873224626574,1.2412251509294985,-0.22487375510144936,0.3488840787291642,0.4487093486387518,0.05280081001154112,nm,0.0
17.948947191238403,18.154584236862906,-18.729852752428098,89.90364439117504,-0.16555054625567614,0.7910533114620125,-0.2692665478596348,0.41604840583241887,0.35387650298645434,0.06787218617991032,nm,0.0
17.9753634929657,20.430480130768455,-22.41613614941046,89.46307150262241,-0.3473443317241799,-0.2795764180807878,-0.7310038091202491,0.34968675742000366,0.1824876018601077,-0.011142132278751462,nm,0.0
17.978719234466553,20.914790281968337,-23.50509381877794,88.92623337889181,-0.4323205788956082,-0.44875839854145094,-0.8197686987768401,0.22816852249317074,0.09659125514419901,-0.10193567904133653,nm,0.0
17.987192630767822,20.90746312107345,-23.786282660004606,88.2615541301479,-0.495156489516629,-0.32748875043545295,-0.81681295241116,0.0653702989343709,0.007399898160151419,-0.17719658894305176,nm,0.0
