timestamp,roll,pitch,yaw,acc_x,acc_y,acc_z,gyro_x,gyro_y,gyro_z,markers,motor_input
80.00188565254211,-17.52886245535026,17.56787750153082,-92.36849123795568,0.06203998498999616,-0.33439351242146576,0.6048760807127312,0.25726387163469616,0.08801874729746886,-0.06637525690916297,nm,0.0
80.0133764743805,-18.53470138567331,19.02522977793831,-92.8666802118474,0.06912156137350106,-0.35558101914709667,0.4134962403319153,0.2877994793505043,0.17132432569189443,-0.01115154130206217,nm,0.0
80.01899003982544,-19.923804450222043,20.500391592928914,-93.3386328754832,0.09796462878450816,-0.2767867407418133,0.23435577857814213,0.29670428819429384,0.23907336727527692,0.027615200270005802,nm,0.0
80.03027844429016,-21.58969260852345,21.916495312352428,-93.90697815603508,0.2356914103218262,-0.14579976443430911,0.12362264781642918,0.2902740723021766,0.286136441336404,0.04049700216325013,nm,0.0
80.03898072242737,-23.521861954749458,23.234146508360382,-94.6187511430446,0.27948489345282257,0.021100556963256745,-0.020346833673961312,0.27725143553390974,0.33045614782773075,0.03791126261247873,nm,0.0
80.05140233039856,-25.53391613821443,24.472015774898313,-95.45487262081582,0.3141936206130724,0.15235912093244902,-0.12256763928141542,0.26667604459996797,0.3392651993150607,0.021432058471353377,nm,0.0
80.05716896057129,-27.494090697399493,25.688989633224413,-96.3525214559454,0.3209971869539758,0.23517788606317272,-0.21062369390584262,0.2662051035677489,0.3226485847514088,0.008242188198609456,nm,0.0
80.06905007362366,-29.272796713257293,26.947301164101674,-97.19118433711357,0.26692875921339326,0.277238416442625,-0.30659216354796925,0.27493069975811646,0.28154043583201666,0.0067078405649718086,nm,0.0
80.08378386497498,-30.707400204364298,28.28557153699639,-97.84665343543318,0.2263982461564561,0.2870501198473893,-0.3821158396682238,0.2859038403272577,0.21164362548075843,0.01244021676347052,nm,0.0
80.0854172706604,-31.756266209071832,29.673592012423956,-98.14448230161936,0.16369321627213124,0.31354486485566474,-0.4573672311077466,0.2874986480103924,0.13802066690477177,0.024588927898911376,nm,0.0
80.1224455833435,-32.41029425111228,31.00484911691557,-98.21322497626109,0.0927319759071635,0.3436463539418705,-0.5005196336788157,0.26670561709840274,0.068683972515176,0.03402420816764468,nm,0.0
80.12561368942261,-32.70482007216796,33.47070650729029,-97.62400890565789,-0.08319442258112462,0.47751997136788027,-0.4339595265601889,0.07926619753463905,-0.03183292089386854,0.0037932376371961726,nm,0.0
80.14829874038696,-32.33577766513405,33.40850633586813,-97.366762346807,-0.1773629637593316,0.4962139319469377,-0.3087140598584788,-0.05234475319927097,-0.03651693966294409,-0.017431197134654453,nm,0.0
80.15324020385742,-32.0318550539024,33.04522264021065,-97.17754334166855,-0.17715746273438782,0.4605474674023595,-0.2455695933766914,-0.09166914767526509,-0.04689929428863373,-0.009083639354819015,nm,0.0
80.17564058303833,-31.07559397969115,32.10191128875673,-96.22823008100325,-0.10715201162746246,0.40882103320284874,-0.21478464370731434,-0.12073560601393467,-0.0868451530310436,0.04091442137345971,nm,0.0
80.18117785453796,-30.379512892691224,31.568935806150705,-95.45593031170426,-0.014296793733038379,0.38891377757590717,-0.2330124033196059,-0.1310928389583391,-0.11285262918773564,0.06136490455555193,nm,0.0
80.21042680740356,-27.74036397129826,29.14344875697187,-93.30936223776781,0.29883770873358123,0.23205912368031967,-0.3417683252108377,-0.22692415488474718,-0.15801597534534545,0.016696027323914855,nm,0.0
80.23355412483215,-25.67034940734768,26.37776209150062,-92.58635510049409,0.5019083117594181,-0.04743306884695708,-0.28240846078508136,-0.3192713728456869,-0.1823234757361419,-0.05798913439183518,nm,0.0
80.23842167854309,-24.530450284984106,24.74303784204195,-92.35477887463247,0.5970968239837527,-0.20455772063974015,-0.1603870075068685,-0.34836774825234823,-0.19825262736056826,-0.0802627877727887,nm,0.0
80.24829173088074,-23.41151439872859,23.024192283684226,-92.14887731698605,0.7067261676128488,-0.38821975588462126,0.10930775951188962,-0.3643966793671514,-0.1978929457774266,-0.07819873542319315,nm,0.0
80.2726616859436,-20.82988289018009,19.712572028990145,-91.69321355293182,0.66317272437599,-0.4795717376740793,0.38001842727059276,-0.34164199899054415,-0.2732949219104148,-0.07561877616448696,nm,0.0
80.29641532897949,-18.17478195778142,17.13756245811483,-91.39929710315042,0.3202973892133116,-0.2547040070035653,0.47100540248559886,-0.25036332330810135,-0.24431534306645586,-0.06751433554444218,nm,0.0
80.29803442955017,-16.609735035180925,16.312634424326202,-91.14933033209782,0.29563395081170263,-0.17013840451446335,0.560973004918629,-0.18363805759169752,-0.30314892937224946,-0.09066697514736287,nm,0.0
80.30640268325806,-15.35696575520696,15.835039549127082,-91.00188263414418,0.4169401192916925,-0.2692499755737789,0.9234444614635197,-0.1121690112805701,-0.24576319209630068,-0.07737678334721565,nm,0.0
80.32733058929443,-14.5807725036581,15.994743449939016,-91.04012254011907,0.13446014833370457,-0.2580481922434069,0.8915693458633562,0.03994016123518072,-0.074898031265059,0.0029409048426365524,nm,0.0
80.35113143920898,-15.896322528472577,17.411546323959733,-91.23296983433956,-0.01637255254111927,0.08657908093221696,0.41536164784167295,0.16301277532247882,0.16649702973849048,0.06176876888677241,nm,0.0
80.35277104377747,-16.97036727920822,18.497008606653772,-91.5917699112666,0.2937845091204298,0.14822312594019435,0.5260995138361046,0.21018210101727694,0.1925766152748776,0.031164540497514763,nm,0.0
80.37542223930359,-20.42294228896168,20.985737252190926,-93.07803004754895,0.2527442021985209,0.15536208941267618,0.144780673792151,0.2621931929797912,0.31524757609679527,0.001229685256455013,nm,0.0
80.3991470336914,-24.029540401296774,23.830585276671858,-94.62010705134443,0.22990391265869653,0.14050995560224713,-0.2098784385639907,0.3032785373975374,0.3068392037367199,0.03673895562294627,nm,0.0
80.4019684791565,-25.504198066685817,25.362475841953405,-95.17344125680782,0.28834361135940756,0.14623917911345527,-0.2662200559805182,0.31605106462566956,0.23497162296291213,0.055537238500128365,nm,0.0
80.4235486984253,-27.713340606629025,28.407405896362004,-95.7687747860451,0.1796020472074364,0.38169245498381743,-0.4364745902933047,0.29941040075044806,0.13705653616076577,0.07142866594147211,nm,0.0
80.4283938407898,-28.37299347166101,29.715234647352613,-95.97066155124801,0.1982961864769578,0.44051587380181983,-0.4024733530885581,0.2593598138140962,0.08228963424131425,0.03725824997157377,nm,0.0
80.45307469367981,-29.355629176280377,31.617180994688237,-96.66200848609293,-0.009574165806868819,0.5411348177458332,-0.4122425324824697,0.15844197546880293,0.047638499583989684,-0.043691922072702075,nm,0.0
80.45618391036987,-29.659055596114968,32.19743995846018,-97.16984917504915,-0.054823336489103314,0.5067240208055814,-0.3818628826808855,0.10845157300833483,0.03186866326793757,-0.072462834625406,nm,0.0
80.46595406532288,-29.885853563743208,32.595231510499524,-97.55970811804256,-0.15879922240231997,0.48765829994305343,-0.38367433152608055,0.07075005925386,0.022629345730561214,-0.07585619711323092,nm,0.0
80.47623348236084,-29.926536919989502,32.85397375834963,-97.8450823942162,-0.18210458404244756,0.4389536932393988,-0.3630234440321923,0.039097487553339604,-0.00531771062809424,-0.06395912523058861,nm,0.0
80.48584222793579,-29.79438846175309,32.97984958159724,-97.89281343376618,-0.18669983669721907,0.397613323069295,-0.35951425037394047,0.0,0.0,0.0,nm,0.0
80.507009267807,-28.990118733513025,32.731475704207966,-96.85337747743367,-0.10125721437481251,0.3351205320968372,-0.35274582557629414,-0.06782621028837128,-0.08196365598977891,0.02585231717726592,nm,0.0
80.52853202819824,-27.71669390076657,31.480011227270275,-95.58060295289648,0.023674643243488402,0.31599401167905516,-0.34841486318828874,-0.17802796820353875,-0.10496237357324853,0.03712340556225993,nm,0.0
80.53248739242554,-26.97515104287206,30.441639425756183,-94.9996575250206,0.08551643397188405,0.2835382159189657,-0.33810783926149235,-0.23165799810908214,-0.11334139005733147,0.024794612866045916,nm,0.0
80.55615472793579,-25.226295321225766,27.75355637999665,-94.00500294259882,0.16161350404520108,0.15556905367558999,-0.31637271696128483,-0.3098550699962645,-0.14930236405503508,0.009165108534316211,nm,0.0
80.56206488609314,-24.152417013370606,26.230201871468132,-93.40326870884337,0.209642641151043,0.007366265800829468,-0.3016302763387387,-0.3295596604288366,-0.17741994519704854,0.019640320750258386,nm,0.0
80.58528232574463,-21.647168555665857,23.026412620050873,-91.68862953711475,0.35899995796532347,-0.2752800076116207,-0.12370750153567359,-0.34745121182832944,-0.2330529856766848,0.06774461455116645,nm,0.0
80.59029984474182,-20.317775486630293,21.31801265841806,-90.61270761636858,0.4817408582825452,-0.4094225899844413,0.09751883233187314,-0.3592015528940505,-0.24639221147982063,0.09073227953441906,nm,0.0
80.6176426410675,-17.95312400748699,17.813897081312437,-88.75350433923218,0.6103219746338381,-0.4035047058695732,0.470508063419589,-0.3577795229669668,-0.22360429520812913,0.08921498680300281,nm,0.0
80.61969065666199,-17.012132527658643,16.20964773322753,-88.17415604590632,0.6060615775030125,-0.2651650672730968,0.592457043390496,-0.32838316506331655,-0.19581358710508756,0.05735585611612167,nm,0.0
80.62962555885315,-16.26221148928756,14.877827607221151,-87.8895149970315,0.5561077288931214,-0.10957259122170634,0.7121928429149944,-0.27359522347978327,-0.16093017594838285,0.013245141752062529,nm,0.0
80.63714551925659,-15.708522980149663,13.951869289273985,-87.98023639153169,0.4884824229222088,0.0037566354559176052,0.8301384473581916,-0.19355621089670524,-0.12102377069666476,-0.02910111232915731,nm,0.0
80.66154551506042,-15.381280840804653,13.668160467066715,-88.64450813540086,0.35552009671794277,-0.01500852621598154,0.8877235968473897,0.015138452976201824,-0.010294533452357785,-0.05544067128144916,nm,0.0
80.66900515556335,-15.68313248823613,14.324627441603965,-89.03568367071733,0.32820817068988123,-0.10301228887867772,0.7897689033743763,0.1181554054992296,0.05417912190385322,-0.03688377605044018,nm,0.0
80.68932390213013,-17.172718021080264,16.668761374866275,-89.72152338914171,0.359943081290612,-0.24385481706993548,0.4513332353474974,0.24507447625684675,0.1632967525958363,0.008090369732014874,nm,0.0
80.71548247337341,-19.521784183326016,19.434138267444443,-90.73153431709041,0.40770122242560036,-0.16027838584589754,0.09938094102236088,0.26520194569792943,0.2288976590260232,-0.00840708091210979,nm,0.0
80.71714735031128,-20.87065542680291,20.726883623977585,-91.54470290398427,0.39705411624390174,-0.05828294153715297,-0.0236661380834557,0.2516832421975383,0.2416929614379262,-0.03564470118614078,nm,0.0
80.72301864624023,-22.242665962843706,21.93957936601689,-92.49417219180232,0.3443613307175804,0.03736953034407543,-0.12989065669292543,0.2393687571252906,0.24063194951780803,-0.05999817459151084,nm,0.0
80.73300194740295,-23.5535662923428,23.14015743817983,-93.46038787921847,0.2904712721786554,0.13113850412105643,-0.15406899495868015,0.2401107191390463,0.22334649531711184,-0.07245933103600376,nm,0.0
80.74821066856384,-24.742990885384607,24.405865373074874,-94.33833451036938,0.22066455258755102,0.19654855104394728,-0.17913879180538966,0.25492764149916153,0.1941764801119291,-0.06745773122234743,nm,0.0
80.76413321495056,-26.62621782335152,27.25144117245771,-95.70520923551551,0.08963217078675506,0.2815106197176986,-0.2264097311303807,0.29501608427248677,0.1189658306807668,-0.02780982823859087,nm,0.0
80.77056384086609,-27.333507314607253,28.742720207097396,-96.17007611972195,0.038361100810948026,0.317445695168606,-0.264326904304667,0.2969707623887154,0.08778880569293451,-0.013143822548465888,nm,0.0
80.78402614593506,-27.945118540195725,30.12645710625847,-96.59922735505604,-0.010179360552533276,0.3461376145572251,-0.3115827538644271,0.2742113885940048,0.06956839352186775,-0.009613854570135128,nm,0.0
80.80298495292664,-29.107157043582927,32.121274528356736,-97.4714671629115,-0.10140673339022059,0.4074749781627773,-0.40334870793729344,0.16638811069246676,0.07262516245029288,-0.025628007405106023,nm,0.0
80.80858731269836,-29.69198485079936,32.61676992495768,-97.99268772111868,-0.13510989492021108,0.42959763441278526,-0.4106006239697806,0.09850097225492203,0.0794532542473298,-0.02966494865045436,nm,0.0
80.82710480690002,-30.63106829366096,32.81079468024201,-98.72723157856029,-0.1670925304200717,0.4933246933022269,-0.3860259744667121,-0.0041632751123602384,0.06282574464285395,-0.0058397456494046025,nm,0.0
80.84243631362915,-30.824620979977123,32.67339331838478,-98.72512851077957,-0.14772659840383495,0.5288680331887863,-0.35291688678568334,-0.035492464041984605,0.03130464598286651,0.01863807286918956,nm,0.0
80.84627604484558,-30.76433738540393,32.462108390683596,-98.38591702840037,-0.11569775187663645,0.5514018927626952,-0.33094621152726605,-0.05656623784107269,-0.00896335038122435,0.043290431387750884,nm,0.0
80.87008714675903,-29.953393050419756,31.85924252423581,-97.21856957477799,-0.017161033274616887,0.5195592909169098,-0.3038020166736771,-0.09243864167764072,-0.08141052603843306,0.06358873344889684,nm,0.0
80.87510442733765,-29.296825726252507,31.36296928041137,-96.57448544522619,0.018520918973599584,0.4541480552906056,-0.31623424232799585,-0.1251717763515661,-0.10468259961197474,0.05717678944017545,nm,0.0
80.9022536277771,-27.68083941356745,29.715444211263296,-95.21192967027112,0.056517037169148326,0.25909699357155175,-0.34921758693844096,-0.21493003640522246,-0.13404595817726014,0.031304340040823796,nm,0.0
80.90569519996643,-26.747232981749956,28.545141720549967,-94.38636164508584,0.0787150454997553,0.150180568291755,-0.3474178910213244,-0.25978406339878357,-0.14942929466293983,0.026586582873546823,nm,0.0
80.92719531059265,-24.662112684689674,25.720756559368283,-92.69351978623203,0.19043985535462646,-0.05684521655710838,-0.2621172975952923,-0.3180784412321378,-0.18272399765644892,0.05136189429557876,nm,0.0
80.9327027797699,-23.543151129868697,24.150859001653256,-91.7912619136873,0.29546155826025916,-0.15179469784768024,-0.17601729502224267,-0.33460273447007355,-0.19717671141517487,0.07404723869819482,nm,0.0
80.94172787666321,-22.430184391459374,22.50755228807936,-90.77409021789545,0.4357111589942079,-0.25312041593983403,-0.045930417076367296,-0.34588877909540744,-0.2040432630629621,0.09366255372991103,nm,0.0
80.95275402069092,-21.38834903036899,20.81586613382222,-89.83981687803681,0.6007929517211197,-0.3504846476809794,0.13149186351400546,-0.35210029115215685,-0.19892661738074052,0.10037283025446037,nm,0.0
80.97486329078674,-19.646474989320662,17.36761426712021,-88.5047550059198,0.8600913287554736,-0.4068908197425405,0.4204006961928534,-0.35413522600253994,-0.16904168611957782,0.05772433192799314,nm,0.0
80.98123502731323,-19.184473795834162,15.732921276284358,-88.2526774185045,0.7575086249365577,-0.3575509946902152,0.5061969798682598,-0.3368418446807796,-0.10513204883428962,0.02111628515913096,nm,0.0
80.9906599521637,-18.686841574671618,14.31518947594121,-88.30276552647186,0.5969073679675472,-0.24993491389316938,0.4922660103675875,-0.2930091589191807,-0.11199187904366327,-0.03879076678066828,nm,0.0
