timestamp,roll,pitch,yaw,acc_x,acc_y,acc_z,gyro_x,gyro_y,gyro_z,markers,motor_input
15.512296915054321,-0.7338800435904961,-10.27446913004396,84.61243059715376,-0.31872420638102816,-0.0676477301562105,-0.33348788295540127,-0.18154024741355046,-0.4202699919683211,-0.054504747570972296,nm,0.0
15.514964818954468,-2.8713981729991938,-9.491883831363024,84.2820218818717,-0.07037393306908588,-0.35016229348494354,-0.48258929338904655,-0.1836578731656851,-0.39803883863820544,-0.18624374487164935,nm,0.0
15.538392305374146,-5.5941687108153655,-7.41642711665729,81.9961578235904,-0.03356381188411313,-0.8008908010686316,0.35936814455261745,-0.24638387743367893,-0.19961450464669722,-0.3100716254042133,nm,0.0
15.54367470741272,-7.274395143320731,-5.949886479849383,80.87836036617792,0.6167066303940999,-0.8137359058547531,0.2770107810149918,-0.3267670159275207,-0.28142781723081545,-0.2967712338492408,nm,0.0
15.56983494758606,-9.241076722353501,-2.2474093088902722,79.82758912934726,0.3190928709310541,-0.6603635587219325,1.7254208849513128,-0.39275795175719497,-0.09927433142780326,-0.0812374134478712,nm,0.0
15.571535110473633,-10.952150426088943,-0.5934731447802118,79.76739216477188,0.45789224019656566,-0.28507658290040594,1.1518601268982651,-0.37335911040403863,-0.27327465408652285,-0.023248239884100602,nm,0.0
15.594468832015991,-14.439588740077813,1.3717173747047662,80.11253777092448,0.11443453785963946,0.29290340634758677,0.8729828095069831,-0.1837322259205551,-0.2958257637716857,0.0416293619003117,nm,0.0
15.602969646453857,-15.523773291215694,1.2675281273020265,80.43168420886738,-0.0035058640243863987,0.36112293051915195,0.22073806851224453,-0.0027349607104065793,-0.21221358227118878,0.062099955515248294,nm,0.0
15.626172065734863,-15.972292791578196,-1.3971705046215797,80.90512892652727,-0.392947990959074,0.034765442387206476,-0.06102960670596587,0.35047058011892646,-0.055763729121222676,0.05725345719297983,nm,0.0
15.62893271446228,-15.172196430200874,-3.514302280462839,80.91605909766247,-0.2932359503821365,-0.17989466177789104,-0.19185736328510866,0.45727147091691966,0.09606497423338235,0.0336614708300308,nm,0.0
15.651946067810059,-10.236722798197265,-7.307141465783981,80.31847021498821,-0.6426337225703717,-0.3859984869230845,-0.2804958517408537,0.44632837237817596,0.4807746652328119,0.020852115820110723,nm,0.0
15.65931749343872,-6.838910612082229,-8.685500253252881,79.89618531178769,-0.4662870628371236,-0.27118876625092325,-0.38922294279475805,0.40193790223521525,0.621166657071951,0.05685391367019995,nm,0.0
15.666916847229004,-2.7980991323311795,-9.668334972283805,79.57995999735965,-0.48759736641238055,-0.10712289569350934,-0.05578849815024407,0.35059950267527923,0.7559069985186704,0.12057847225013858,nm,0.0
15.692192792892456,5.247922792237915,-11.017729204838783,79.34404145738911,0.05077456530880801,0.23413551886579226,-0.18987423952694912,0.2937594684997163,0.7696628669951253,0.2232058825458625,nm,0.0
15.695609092712402,9.257278828837674,-11.783150245133058,79.69583066341443,0.09053817805258653,0.34723535083539503,-0.16918506285701185,0.3065689565427504,0.7522251223264302,0.2552192792693118,nm,0.0
15.717162370681763,14.902469703373303,-13.356490104772387,80.46320402481513,0.20422059099614975,0.24646521826675216,-0.3083648652518443,0.2365024518126646,0.40581596243807955,0.1714316196209773,nm,0.0
15.72397494316101,16.453694594169562,-14.094489459846594,80.7828120085829,0.20474079476671567,0.20879812358267144,-0.5147340540676496,0.2056035613521118,0.2812419539227624,0.11998354646039484,nm,0.0
15.733822107315063,17.343520605901272,-14.670284024603468,80.96435106275368,0.054317194394752015,0.09572837279990273,-0.2318669306454766,0.15183873905348627,0.15980330448790964,0.07044668724682794,nm,0.0
15.757998943328857,16.211779975286024,-14.976438880317643,81.65852353477737,-0.20518731523901965,0.163979460170001,-0.11111585714726552,-0.01078870173965356,-0.1769605766821625,-0.02893350653477368,nm,0.0
15.761979579925537,14.265987239046744,-14.828630654429672,82.25007831217435,-0.1999634538692881,0.44902836407229463,-0.592891146507218,-0.06981563422142636,-0.3612122697148861,-0.06754744459642041,nm,0.0
15.771435976028442,12.369564090962163,-14.580031558148894,82.97800262707354,-0.4803082293268512,0.48493102131755633,-0.2518806852937943,-0.0843430841286012,-0.35043290626123164,-0.03315049160459162,nm,0.0
15.782288551330566,10.059848809310216,-14.24189607244504,83.77060478058199,-0.8375279206507757,0.5001717491772094,-0.0074175415704512675,-0.10643170575130866,-0.4297547196348576,-0.029758035696592623,nm,0.0
15.792457818984985,7.190692044075222,-13.826499334821186,84.66613950396966,-0.7969289471325736,0.6125406486615205,-0.5930029672616627,-0.12559731030197066,-0.5389099158050786,-0.04415269702743671,nm,0.0
15.815573692321777,2.7830657132812666,-12.7525072016218,86.35318984708945,-1.0915612176796314,0.2906123721240027,-0.49135302845668655,-0.13477857322340567,-0.38525169796874553,0.0020040190906149146,nm,0.0
15.819883108139038,0.953554990026388,-11.996347097690519,86.99480456570859,-0.8867034650401127,0.1483225692821029,-0.8045305798338722,-0.15943047133551924,-0.34108889848676394,-0.005680531552498228,nm,0.0
15.82805061340332,-0.18576095395746375,-11.061159071161965,87.39338115762197,-0.7716048062285107,-0.08548201494608039,-0.6330160371934219,-0.18600316202774606,-0.2066120658766884,0.004657440205445307,nm,0.0
15.83780574798584,-0.9538596775391133,-9.884679321797572,87.61660325200674,-0.48098241616235643,-0.28414720352404005,-0.5793254263914557,-0.2300604354439686,-0.13338664026197714,-0.005281411776670028,nm,0.0
15.86263632774353,-0.951894476884678,-6.763359175674461,87.70599178754178,0.337554881364731,-0.7109425708098204,-0.4280053232450997,-0.3228214873579947,0.08800953345040524,-0.0058179841336804886,nm,0.0
15.86653733253479,0.07463574291020973,-4.829216799837237,87.54884685339304,0.3615499321030511,-1.0511399041847442,0.5377391054329845,-0.3667385254993743,0.22779695704646993,-0.007678044864746462,nm,0.0
15.88975214958191,1.26817619809483,-0.39807226013552344,86.59187720227976,1.4981217262375721,-1.2956745963019414,1.1643946515059642,-0.4352042012876329,0.15969414607077742,-0.12064587701219039,nm,0.0
15.898397445678711,1.8783631840879875,1.8754503123887136,85.63765715965431,1.2343221439958207,-0.9126899471750465,1.9887295043107722,-0.4342189446281805,0.1591008797754293,-0.19824006582258763,nm,0.0
15.918293714523315,-1.4535362526174598,5.615240248376506,83.0603800444791,1.288432105763969,0.23892997111090702,1.0605077470926465,-0.3510726460696915,-0.3954355717651662,-0.2505472096637741,nm,0.0
15.940356731414795,-6.448286551310483,4.895301892883439,82.04616300370732,0.3947409788238936,0.5152587356885445,0.857957265348844,0.1418160708185331,-0.5468680531807759,-0.029013563882668663,nm,0.0
15.949202537536621,-8.643316844560337,3.34979195634068,82.54211178638961,-0.07165245502884633,0.1967994568664655,0.6256350041757417,0.2612503198175507,-0.4700183433914986,0.09819046780269802,nm,0.0
15.96762490272522,-11.826623542228454,0.1695363579405511,84.41280335995307,-0.5157196028855098,-0.6063359428125424,-0.33607540358283405,0.3005681245799028,-0.2727257904978927,0.19659746311720136,nm,0.0
15.974767208099365,-11.467358600171005,-1.0994765133327058,85.06995318736,-1.0184511223071286,-0.6498427531858146,-0.3694637419195683,0.27238546158190796,0.05446140027906127,0.15377288020751223,nm,0.0
15.995498418807983,-7.876703822516751,-2.7021614164161214,84.7640749635032,-0.7634123493549622,-0.17965150112408015,-0.8055175208401661,0.19870656402396822,0.46308879714226364,-0.015341244577802768,nm,0.0
15.999670028686523,-4.362320165981957,-3.317836606744544,84.03403741484226,-0.7721009523012354,0.24634576264966324,-0.1784564481543287,0.20596241322587316,0.6930743074410459,-0.03591476797975103,nm,0.0
16.01159691810608,-0.6733077746333473,-3.728113274785346,83.40714385914363,-0.348930257572675,0.5231218894987719,-0.12353713331248545,0.1768815030278344,0.7296648439026125,-0.00831253259776402,nm,0.0
16.032862901687622,6.912453452734896,-4.736490489361231,83.82227270721471,0.01515930161792567,0.4643915959213434,-0.032011796311301674,0.21998610583270903,0.7383925074894676,0.2044844713620139,nm,0.0
16.03712296485901,9.948117449033438,-5.454134843539971,84.99362060511636,0.10095286886321098,0.2343138093066416,-0.2357215158011329,0.2129398772935116,0.5956766918172783,0.2822748774905163,nm,0.0
16.058912992477417,13.893098856128978,-6.481755965586435,87.32730108697567,-0.11099969665883835,-0.2539924137011159,-0.12846545820438696,0.10778161073167059,0.30014378328171043,0.2331520840932591,nm,0.0
16.06740403175354,14.34577323337391,-6.478074326234438,87.93821006503488,-0.06140752859339914,-0.11769248972977327,-0.45950694121220886,0.012958451293336786,0.09789035993134079,0.11212132402631197,nm,0.0
16.090694189071655,13.269923531612132,-5.306899446933773,88.00781145640899,-0.299556728481181,0.43407812741172114,-0.08680578276693136,-0.1371335286092227,-0.20227405382409405,-0.0814961859805038,nm,0.0
16.093806266784668,11.40043772144774,-4.682448932180686,87.83205963794029,-0.1230506786062272,0.8627377219633249,-0.8370964538664413,-0.12759147369117968,-0.36072170777878115,-0.10343331213440274,nm,0.0
16.11689257621765,7.701923118283642,-4.021104386597791,88.6373194485778,-0.758832349208646,0.9129938272839419,-0.2823651031278981,-0.049098998948273825,-0.44119814020031306,0.03263670686537571,nm,0.0
16.123507976531982,5.24630744754352,-3.951563998981872,89.59019714128134,-0.7093838698955504,0.7298326900284698,-0.7316407760723894,-0.0094846880203654,-0.4825465700186877,0.09797619568335637,nm,0.0
16.133097887039185,3.4098675468182424,-3.887597713092231,90.70799936047285,-1.0257470423398485,0.34697824745533495,-0.3900251148387605,-0.00010128770268642665,-0.3589987039658212,0.1417583485222855,nm,0.0
16.156010389328003,0.025553659306359788,-3.2677784011813396,92.14736797004481,-0.7996363150167491,-0.28420431853003864,-0.7626578384114489,-0.057839597454852384,-0.2948373492163378,0.05979829563892903,nm,0.0
16.162460565567017,-0.9548712380710012,-2.6304017269884983,92.3263882257116,-0.7070258613891443,-0.41808279585656705,-0.4697828819949789,-0.10856185260505942,-0.19292555109055767,-0.002057043071423884,nm,0.0
16.18370485305786,-2.2328553223473198,-0.49604891683722624,91.93189888840577,0.030504668542204356,-0.4074585119858487,-0.4331754824093948,-0.22064991822014351,-0.08184411454374474,-0.060018280471626044,nm,0.0
16.193996906280518,-2.1224786263468514,0.7540947961403844,91.78031355992495,0.34453509873257204,-0.4327489487566332,-0.2847417558868862,-0.23961691765268317,0.02168408487265769,-0.035102103237211316,nm,0.0
16.198912620544434,-1.434524957883473,2.0121045911367883,91.79368682680166,0.3757502018856316,-0.5787847845110108,0.46892438462497926,-0.24483074239647615,0.13738379297697256,-0.00565008574562854,nm,0.0
16.20868945121765,-0.9372799240973564,3.2100997714942743,91.79201679530082,0.7949864076976866,-0.7519506319116681,0.7204118626246407,-0.23167581324080538,0.09938889962068635,-0.010121664159471114,nm,0.0
16.23359727859497,0.48598782929495016,5.1642099022520815,90.80439598118778,0.9752602494377524,-0.659289707873652,1.790257117422333,-0.17052224087784865,0.15227378342693337,-0.15087069185256075,nm,0.0
16.239014148712158,0.3718503852820334,5.693721878849833,89.65010739337215,1.0322892937251225,-0.2739594692287649,1.3080427741122223,-0.09457319487562608,-0.016430820215420566,-0.2471337683720947,nm,0.0
16.246583223342896,-0.13603996464361687,5.589064973232945,88.23898949590605,0.9392568855096883,0.19002267870053818,0.7697932503236307,0.030720776862539458,-0.09502441877855426,-0.29473192066216214,nm,0.0
16.27003049850464,-1.3959878137593253,3.102651677342758,86.4984275226479,0.4675326844176242,0.4982433819531048,0.6635810365437613,0.3266129030301265,-0.15220461414115605,-0.11839684204826935,nm,0.0
16.27876091003418,-1.6971393617134707,0.8575578091973605,86.81204084822423,0.2275821813571251,0.25883881616815535,0.6941006796070827,0.45716363399761994,-0.0795396735428582,0.051523956988619196,nm,0.0
16.299127101898193,-1.5968333133951629,-4.403560727742448,88.83325338672616,-0.23514785886230233,-0.4136398573525476,-0.16602362084568326,0.5389073385808386,0.008257503321446183,0.22574616682097715,nm,0.0
16.304499864578247,-0.7554799548018472,-6.724468418061178,89.57748632589811,-0.6059665789899844,-0.7923323852826364,-0.10191309858170171,0.4786320107234755,0.16857660298825997,0.18561671727626308,nm,0.0
16.3253173828125,1.9906785217274554,-10.70304473376713,89.08367248415863,-0.6162915366684045,-0.5625018120984756,-0.4369349867123506,0.39177290645414986,0.3118484370293796,-0.03360838886576479,nm,0.0
16.334766626358032,4.122503676344321,-12.120909186894586,88.09606553761405,-0.5947411389146139,-0.1594468671068287,-0.29619591231719816,0.30620347643850665,0.41877288328842865,-0.06731497526636102,nm,0.0
16.354556798934937,8.530193629004831,-14.301449016736465,86.67722011807741,-0.2808921086289428,0.6596708163043535,-0.34491651560861625,0.25591648267132827,0.4209201029330727,0.07596808391131352,nm,0.0
16.362801551818848,10.569490083185357,-15.496598751834464,86.97688803817243,-0.2576723152106442,0.7682798236033157,-0.1656763884891293,0.2722359153010113,0.38869179466160003,0.20779147025798017,nm,0.0
16.37486171722412,12.168876121740146,-16.761300042564446,87.79924982789838,-0.2658563371190153,0.6354436932348348,-0.24259623971371366,0.2778351209133625,0.3041734240486654,0.2863799919358444,nm,0.0
16.380692720413208,13.386803551723485,-18.142502806730587,88.85013087481487,-0.33251808138938344,0.3977116515548204,-0.3854400313020862,0.2932506815656177,0.23370855305910612,0.2744419011475408,nm,0.0
16.389230012893677,14.306046550863115,-19.404509213114533,89.48315985875426,-0.3819933766045017,0.14663217890121877,-0.4064808576851437,0.26494265962594743,0.1801643928100801,0.16950007621052474,nm,0.0
16.410724639892578,15.209958056609763,-20.49119240380207,88.69176045444442,-0.34988000448822004,-0.07619684386144857,-0.6626395969398624,0.06999523515013172,0.06751769625688417,-0.1738609193560622,nm,0.0
16.419734716415405,15.158234043598194,-20.340612852064027,87.57101337944682,-0.26730579860398357,0.02234681459790686,-0.5811917377471557,-0.02039174258123372,0.000441867301711296,-0.2939918148838766,nm,0.0
16.44230055809021,13.106767734204219,-18.990449105057834,86.00725436122435,-0.11667816250321292,0.28025602295023155,-0.5239042907231052,-0.16187463507939562,-0.2427037712641303,-0.25616120582196455,nm,0.0
16.446842908859253,11.007443509602174,-18.151544386083525,86.29239873379382,-0.1699546703988993,0.32213850930958066,-0.4425054213713873,-0.18270430212719813,-0.3781555858473437,-0.1335549772035086,nm,0.0
16.4564266204834,8.3318060266301,-17.1429456561203,87.38699542474043,-0.2719765609239128,0.25817823987570204,-0.4317787113590571,-0.2176948460188298,-0.490619389757858,-0.0011817834538103552,nm,0.0
16.48055148124695,2.3332553096258994,-14.240189533973302,90.4880437309395,-0.41703033007020485,-0.19474753419062568,-0.5691027735465586,-0.3100020035452061,-0.573232691855325,0.09693560834712836,nm,0.0
16.49780297279358,-2.957077264224518,-10.196137723161819,91.83118895190067,-0.09357972654285751,-0.6756676704030146,-0.4184712589552881,-0.40705464068679376,-0.49162833371722486,-0.04830423442829732,nm,0.0
