timestamp,roll,pitch,yaw,acc_x,acc_y,acc_z,gyro_x,gyro_y,gyro_z,markers,motor_input
11.50167465209961,17.69457808585247,-19.157861133352775,85.81866082357547,0.8055131676155518,-0.6409906214102087,0.964689334894233,0.24939108520222963,0.1676343288218806,-0.26360269222334476,nm,0.0
11.512584209442139,18.724284619154968,-20.524311455620207,84.15463061307365,0.6460445011025258,-0.4379182001135072,0.5404228316611659,0.2997495123151743,0.1779355195606072,-0.24808520454981609,nm,0.0
11.530547857284546,21.236968553725475,-23.337867864344357,81.90922732469231,0.21860588662833597,-0.2873449580895642,0.0006532953307074333,0.3168359127019877,0.18624338351710476,-0.08140933834070904,nm,0.0
11.539746046066284,22.702413097013423,-24.73345041453348,81.25228783374224,-0.009420579345972192,-0.13992163316240247,-0.30135694902307053,0.32590548842266,0.23294617944987767,0.006539815196195852,nm,0.0
11.564709663391113,26.17091806116186,-26.968528859432904,79.91582858789334,-0.40736084636370334,-0.024276532862450784,-0.4126233727867951,0.25355412813152267,0.2672732412650333,0.027820395028729055,nm,0.0
11.569396257400513,27.997143170905346,-27.70305208554932,78.98031093207136,-0.4790019588080707,0.10726494148095894,-0.4677693512653385,0.214003628358282,0.3016210671776259,-0.0006466211534539905,nm,0.0
11.579859256744385,29.884201348712214,-28.188126460515097,77.88379712053136,-0.5394793566454952,0.24481530103271265,-0.4301209208274608,0.17183573125796817,0.31687454225503936,-0.031086690646482024,nm,0.0
11.587095975875854,31.493196696004066,-28.433846763781947,76.63182805554047,-0.5243054159234944,0.43107823246739807,-0.5506845946792582,0.12056197062028752,0.27500721799887307,-0.057622832850299587,nm,0.0
11.596039295196533,32.85178162137581,-28.58427877509749,75.60395887671098,-0.537967155427178,0.535673684713235,-0.540539753254887,0.09640333463549978,0.23410561761363866,-0.04385533249558271,nm,0.0
11.619559288024902,34.07490021528484,-28.971499157735867,75.05361904142819,-0.673259003052835,0.6003990984790785,-0.5977319402903621,0.06593785034023904,0.05297709929475586,-0.004614339325149136,nm,0.0
11.62810492515564,33.890365217861365,-29.219559308520147,75.30952874051451,-0.801937592277318,0.5594386419003605,-0.6039046995434914,0.049126424233247944,-0.03434668238532495,0.009287324627912258,nm,0.0
11.648242712020874,32.08864678901535,-29.451295994923907,76.37033514864213,-1.009575990310459,0.42314660082119826,-0.6073195736344243,-0.02977771929612555,-0.1801230074523781,-0.03198554606695504,nm,0.0
11.65569806098938,30.673324895888207,-29.282414129263024,76.93987556472753,-1.0607248767325348,0.39649236212513506,-0.5724665295895478,-0.07994659122350112,-0.2231525453859843,-0.06772070599882525,nm,0.0
11.67782473564148,27.2166118227964,-28.43743789564635,77.86086031006414,-1.0069316673114572,0.4856306170065619,-0.48570080433943313,-0.15355262342011478,-0.2791095345403814,-0.10769510154275212,nm,0.0
11.683554649353027,25.320874989212964,-27.89476628760821,78.50096123155708,-0.9591076337676387,0.4772010689983355,-0.456241185158886,-0.16433664561166025,-0.29641902114624885,-0.08850985654941604,nm,0.0
11.703336954116821,21.256263350480385,-26.799649373203387,80.58323973026052,-0.7493850493526261,0.31113773513621856,-0.46069745746724855,-0.16321128759237513,-0.3340422576583168,0.002859272583106318,nm,0.0
11.710196733474731,19.210547119884183,-26.134441839802303,81.95353867776973,-0.5768010935264544,0.10738145280633891,-0.4683648942791357,-0.17650033803458534,-0.33340028377753905,0.06138241189577884,nm,0.0
11.732696294784546,15.70166530464388,-24.093321099005546,84.90071126140137,-0.022719176608977956,-0.4469710430914585,-0.3245407907122557,-0.25330131104437026,-0.257773972045397,0.15420976414994306,nm,0.0
11.740331411361694,14.492994706003685,-22.56235561256441,86.31338250175303,0.36710417071392343,-0.7070854772620546,-0.20438085667406272,-0.31233734629712884,-0.18894280061044486,0.18268387280174814,nm,0.0
11.76322317123413,14.066677073936413,-18.618913577340884,88.66066950869288,1.2048451364732684,-1.5503346937542652,1.4158911066806692,-0.4095919062761327,0.022306589604642855,0.2413957021339027,nm,0.0
11.769676685333252,13.705408193300636,-16.404145599795694,89.67201300022721,1.7836866557643485,-1.355351864137403,1.312289366671894,-0.43459880292413366,-0.05301935628090841,0.19184625711760556,nm,0.0
11.793246507644653,13.22410849539823,-12.814839761698236,90.85989316069526,1.6221617989364407,-0.23986498744948442,1.541945262775254,-0.300304884239195,-0.076808069044809,0.10097100555738923,nm,0.0
11.796399116516113,12.7432109184478,-12.16623740570822,90.94004317206088,1.4616672956776413,0.36820486968960103,1.0852305348135034,-0.11871394523416509,-0.0868833046174675,0.023454931131524775,nm,0.0
11.818257331848145,12.511573343201196,-14.568989839709925,90.45741436695131,0.6989442824211057,0.5295563791880202,1.2335273499899109,0.36012834683839784,-0.028914311806330285,-0.1054408213142241,nm,0.0
11.826842069625854,12.488794324636656,-16.95435758270661,89.8538394771831,0.4310137275085878,0.12553554955101753,0.9357653008614615,0.4876499807457346,0.006113774775773774,-0.12693325508428877,nm,0.0
11.844085931777954,12.800191795008955,-22.250660700349563,88.19030273650017,0.015558937923466958,-0.4815964971520124,-0.3234696601132256,0.5328212820418466,0.028495392233890037,-0.17618705338400664,nm,0.0
11.853754043579102,13.977207999214594,-24.50501697032332,87.04406472669673,-0.4110342726226251,-0.8224114818332807,-0.1183076433711281,0.47040334283823293,0.20647514597736377,-0.1252584999281086,nm,0.0
11.876159429550171,16.59042320305294,-27.41150144647478,84.09237936589827,-0.566739789465724,-0.01442312666462439,-0.8397907850730031,0.2730930979396816,0.2357272673758904,-0.1610773410452375,nm,0.0
11.8837411403656,18.598260902961627,-28.33082841731712,82.6049192993374,-0.6945519078415807,0.1982743227021619,-0.34648712651288993,0.2347545829123751,0.34068161874384373,-0.09003312868825147,nm,0.0
11.891001462936401,20.296818893303655,-29.133708081737954,81.21641072600886,-0.5857865377925262,0.6214561849599014,-0.4314377947881208,0.2119012298378141,0.281568788681706,-0.08825685452066158,nm,0.0
11.91318964958191,23.54497487820078,-31.027674950848507,79.24234727861662,-0.5575912879594873,0.5854255171791153,-0.21538579895798643,0.2599097107727029,0.24015047869103834,0.020293571901904353,nm,0.0
11.92997694015503,25.17538317499898,-32.96065868112247,78.50405177956877,-0.6650182068432227,0.2791515533629582,-0.6600843188258659,0.2095243326950957,0.08866378326757164,0.01759497793418089,nm,0.0
11.938998460769653,25.49667079636764,-33.51666783874454,78.3233771463688,-0.7833149004651816,0.07452744501893574,-0.7184542782419947,0.13007154804811483,0.03988962317828139,-0.010420226644188527,nm,0.0
11.94858455657959,25.35571243602319,-33.595360540722716,78.10938650139929,-0.7885261358880504,0.09403102391668579,-0.8829821496116786,0.020886510763106884,-0.016782514304442463,-0.06217807408413179,nm,0.0
11.972987413406372,24.10178714951207,-32.45259008247428,78.12440796165507,-0.7414780091535116,0.2013962914306151,-0.6039682647093162,-0.16828823903212084,-0.10374426336108733,-0.09897812175759006,nm,0.0
11.981184720993042,22.684031924103355,-31.490542665628855,78.55307699354928,-0.6656041804470744,0.3790429877354537,-0.5286046734799493,-0.2266121947909992,-0.18800349067614613,-0.08845412478990707,nm,0.0
11.99891972541809,18.43718349926093,-29.532243951772355,80.91035629827927,-0.6150385318019816,0.5195029301360851,-0.41187208348201937,-0.24925283910983073,-0.3634918108225317,0.012747076207432562,nm,0.0
12.00553822517395,15.807394593885437,-28.554915870977307,82.84459877361938,-0.5996737365503612,0.4255025124886858,-0.4665996543668302,-0.24708493068148377,-0.4195894782862092,0.07960630860560372,nm,0.0
12.027631521224976,10.39560549235692,-26.26460570889169,87.05907094948358,-0.39191001412461074,-0.08940390808856032,-0.5236442330586226,-0.26883373215013795,-0.45416387565986294,0.14232523545020176,nm,0.0
12.034109592437744,8.039132827000165,-24.691878855542686,88.99881049016072,-0.165630162065109,-0.37879867884370616,-0.561374396780662,-0.31817138838420567,-0.40595769201159004,0.15624903412949784,nm,0.0
12.054571151733398,5.138869935919633,-20.355052141162858,91.92820881458064,0.5063869907936638,-0.9740140056286449,-0.10923732391043338,-0.4579401129189166,-0.19245971491139535,0.1900403007249262,nm,0.0
12.062604904174805,4.752621981411671,-17.633939540813856,92.81590161406854,0.6768207056213955,-1.4633887243795152,1.1679269213185703,-0.5311223532774259,-0.0851433606497616,0.19512245744803364,nm,0.0
12.082984447479248,4.814063116686247,-12.112046227992398,93.84124037809914,1.4735709325485744,-0.8015247661855217,1.7573107696730454,-0.523613173677034,0.08249832183414459,0.14191976851660218,nm,0.0
12.091654062271118,5.440722846575815,-10.135515880445686,93.89911879016822,1.143568997221015,-0.10039859548059349,1.7103963906211996,-0.3927846821256305,0.10590355097511724,0.07039896798521,nm,0.0
12.101220846176147,5.413460302825826,-9.218645989489756,93.61755658224861,1.3226471707847054,0.44291473760273264,1.1038981038391351,-0.1725839832360865,-0.008270674774750518,-0.03952287223945795,nm,0.0
12.122228384017944,6.646803329652909,-11.137096037062454,92.29656197886155,0.6404834327064909,0.20761662826308272,1.128466648606178,0.30607062671218593,0.15848593111973844,-0.12684115526012033,nm,0.0
12.129449844360352,7.381511646234825,-13.44704768646357,91.3158994397244,0.5632848080026811,-0.3136943467628849,0.5807502481019111,0.46826600584396105,0.16689817892626174,-0.15442027697327954,nm,0.0
12.148961305618286,10.60150471521399,-18.168077780468163,89.27226101957392,-0.0009684782714825998,-1.1761602342907442,0.39964995250673846,0.4392422885010089,0.34091192573859047,-0.08495453817323372,nm,0.0
12.15779709815979,12.357121331076213,-19.597548256472837,88.2507167840579,0.1280585844624787,-0.6967595184431464,-0.7448726667579862,0.30405154738136786,0.3350882022358744,-0.06431649339580618,nm,0.0
12.170249700546265,15.391891544984071,-20.503538766458508,87.28480904336293,-0.17941432238077912,-0.39567759562655985,-0.39832225173253927,0.2145723404376114,0.5721670356407788,0.053469702130689405,nm,0.0
12.191917419433594,21.0995423283895,-21.58865904208093,85.27165654151254,-0.13100798794374505,0.733828256720077,-0.49663812707763433,0.15101815700321333,0.48878426468270725,0.03599196667969288,nm,0.0
12.19570279121399,23.980166104385738,-22.405875876108738,84.52954307697824,-0.23097229274553469,0.8814174967942416,-0.07827932654038455,0.21975654681261025,0.5276551939587966,0.061812730462182025,nm,0.0
12.21985387802124,27.998039478690085,-25.002928169203045,82.63106947484992,-0.3592043424594577,0.8340982654097686,-0.5297968389048453,0.3330989755715009,0.2959212862264027,-0.027723450242540044,nm,0.0
12.24002981185913,30.47316452350767,-27.728522370742493,80.91243300272092,-0.6401137521022674,0.1349863326627536,-0.7466639855813373,0.2727086526237732,0.13257330969558168,-0.1185184910247109,nm,0.0
12.24471378326416,30.955126230847455,-28.40595110885497,80.10962289375932,-0.7367410883931648,-0.0628276670547535,-0.9455459577787724,0.1567339463096342,0.07175937497305312,-0.1502416711300624,nm,0.0
12.261418104171753,31.02546165105783,-28.5431555538995,79.43044778672682,-0.7966023156266475,-0.1832338074889774,-0.7955265794181618,0.03831672839831108,0.017203228644792797,-0.17060175602358207,nm,0.0
12.271051168441772,30.292279454696057,-28.179360528917826,78.9947890006234,-0.7787153855100208,-0.01024687990696228,-0.7492850285344173,-0.08627541494085571,-0.1037375111085695,-0.1992730250455582,nm,0.0
12.286800146102905,26.800560808350774,-26.68459777096408,79.5365199918015,-0.7495768517393171,0.3455760990732985,-0.405283226536943,-0.21213233104349996,-0.3210142211911166,-0.1393228886839633,nm,0.0
12.291553497314453,24.172955781246237,-25.956482886581686,80.6216801340746,-0.7720788180316187,0.5285163137541232,-0.2675013449405564,-0.21354173650921188,-0.43089841201596196,-0.09286148869564397,nm,0.0
12.314023733139038,18.120553442042144,-24.413990898211388,83.82475233222704,-0.8977682305987018,0.506264614416803,-0.28102683967382097,-0.21627765447083583,-0.5261151027432945,0.007391437181941548,nm,0.0
12.320250272750854,15.174731499898535,-23.53231226086927,85.42995602653801,-0.8829791333169505,0.34633388902207707,-0.30758815236340986,-0.2145120810964714,-0.5114989145853296,0.02046300144794709,nm,0.0
12.34307861328125,10.185679462307174,-21.230146556909368,87.98908286419736,-0.5293785449781941,-0.07587630254695688,-0.3918493754919584,-0.2602124254172345,-0.40777540802571066,0.009959065951289653,nm,0.0
12.360338687896729,7.086213476292206,-18.140416211058078,89.8347768871397,0.20839048315790518,-0.5875919771779912,0.01568655746963138,-0.32038743868363184,-0.22571887018277692,0.0853974696372444,nm,0.0
12.367510795593262,6.5495025795274735,-16.255369325663786,90.84928199614643,0.5969190356174466,-0.7321397287213504,0.1698248091687761,-0.3663363296850677,-0.09564475521324203,0.18181087336368923,nm,0.0
12.37720775604248,6.988451887360256,-14.250522408678162,91.8618492700583,0.678852324104012,-0.9514038303387641,0.9653405569897011,-0.3927479144879601,0.08563621369705347,0.2930865541390078,nm,0.0
12.398722648620605,8.015436891992643,-10.778372060770335,93.7712602835445,1.3123746593320182,-0.43893756954201246,0.8316357396607573,-0.3085775758710134,0.10753238995422609,0.25874942186961875,nm,0.0
12.404076337814331,9.279204185036145,-9.882457057560632,94.304358081456,1.1415472486506542,-0.2100043592958445,1.1856842841983286,-0.18649081634470174,0.24514029818406513,0.17229890349853452,nm,0.0
12.426850080490112,10.709742512646809,-10.79632250167552,93.00170203350022,1.2818045088829122,0.11478726639426175,0.8935696798185147,0.18759891821285565,0.14218186219783158,-0.18167159396026034,nm,0.0
12.433718204498291,11.644598469518623,-12.461058003684908,91.45516224641364,1.0141836409075646,-0.08448233172055315,0.9279911888178527,0.33585523344587537,0.20516095652476837,-0.2732952915496651,nm,0.0
12.455874919891357,13.029289620451298,-16.490896002018683,88.21214529751452,0.6650441919164697,-0.44915740187427416,0.34059072957876946,0.41971561255047124,0.13167483947186584,-0.2649222430307725,nm,0.0
12.462416887283325,13.883149855486824,-18.36467368309779,87.02516950970899,0.32674668768989007,-0.40367083325347913,0.047798392149435036,0.3920959065386278,0.15585288542921416,-0.16435829632468643,nm,0.0
12.483958005905151,15.386649487125439,-21.379848026988217,85.59868988278389,-0.09586348991401283,-0.15989473665234383,-0.25278514320658013,0.30116214768032085,0.1144070509799789,-0.0576682273632612,nm,0.0
12.494718551635742,16.122178656396194,-22.728220182586853,84.88451645668029,-0.13941413736439615,0.12612154667972708,-0.5155997937667341,0.2908118360011117,0.12244636157031885,-0.07442212025009401,nm,0.0
