timestamp,roll,pitch,yaw,acc_x,acc_y,acc_z,gyro_x,gyro_y,gyro_z,markers,motor_input
70.00577902793884,-5.3969887557839336,8.816223821108725,-76.02225131869167,-0.27010664418647506,-0.30170181022712383,0.556022155420115,0.3627700728723745,0.1520538331274285,-0.03518527924109995,nm,0.0
70.01422500610352,-6.007383911063284,11.051075146797128,-76.3325640052261,0.12403731799660295,-0.4068009757580068,0.7970846601455438,0.396335359084002,0.21379781761120462,0.0038290928457084656,nm,0.0
70.03758025169373,-9.319037902866842,15.401455509958174,-77.46645243831148,0.171627385550436,-0.31163918059277934,0.3000614370090445,0.3307076651399203,0.41019342716661295,0.0004086673134403626,nm,0.0
70.04361510276794,-11.540742741946795,17.40479076327093,-78.5108468442598,0.3083137582227624,-0.11740987357405841,0.18605190341710098,0.29414334985663404,0.491573358113562,-0.03008138668075488,nm,0.0
70.05354928970337,-14.136423740972878,19.24471742333961,-79.73074795468635,0.13869445785192344,0.06270948456916972,-0.10592380097541232,0.2585961447560949,0.5452574081327866,-0.04862191951074458,nm,0.0
70.06288886070251,-16.519748741373004,21.000293919277816,-81.01889157673672,0.3146199758110412,0.1278170709637237,-0.04631653475681081,0.2613009422470449,0.49192377235784857,-0.05907986715715022,nm,0.0
70.07192134857178,-18.88465945252176,22.84452898153121,-82.17931872420012,0.2659533236170823,0.17293811547042873,-0.20532459776225018,0.29060579668163206,0.4799725308871352,-0.0180409378542829,nm,0.0
70.08247780799866,-21.015860516557076,24.848339730323325,-82.95986487097211,0.1537019781216346,0.18860191450220695,-0.3635186916027144,0.3364609986161395,0.43052109364717434,0.044623487291378064,nm,0.0
70.09300661087036,-22.587445310711868,26.976476547532886,-83.28974043487365,0.04585493314428762,0.20966626115053077,-0.5418111395170078,0.3779656144308796,0.3237426579616994,0.09272777568470691,nm,0.0
70.10297846794128,-23.509491743588647,29.111211220510782,-83.23719655377555,0.14948105748573012,0.23727234649092793,-0.5686091750048134,0.39394484266693713,0.2039101803908873,0.10635191771596518,nm,0.0
70.12495279312134,-24.455578041594308,32.52154993218153,-82.89131632411868,-0.061799038369297274,0.3885759369918927,-0.711865675525417,0.2770813717595403,0.08396912666455614,0.05666938613773861,nm,0.0
70.13467192649841,-24.4866900284266,33.47506352785457,-82.91347960351855,-0.1707865321772396,0.43633024620961486,-0.744526482676291,0.17727644995367298,0.02112867085226975,-0.015059682876404063,nm,0.0
70.14091205596924,-24.322352608575937,33.91886155707368,-83.03564343586382,0.039739059243682595,0.33977903944913485,-0.4943915638740402,0.08000843589691403,-0.02385070126689355,-0.07452079765142249,nm,0.0
70.15292096138,-24.395698408538394,33.952117773980525,-83.22522333863031,-0.3655877585064731,0.35486008669445396,-0.5874253074212705,-0.006445015590348482,0.005272683424820472,-0.05876308492578021,nm,0.0
70.15740871429443,-24.01543391515615,33.73418911048111,-83.22211326291948,-0.374370960968236,0.25967259467480636,-0.45230691221798486,-0.047415402335368256,-0.07557195813902258,-0.06249875135731998,nm,0.0
70.18615984916687,-21.361828733785412,32.43247074261401,-80.87626905913223,-0.19540532945120595,0.18565864684547453,-0.2472620229472313,-0.09073710387819077,-0.21611704969096182,0.10722956365852757,nm,0.0
70.19787526130676,-20.24070383883828,31.672963789368414,-79.5592268894074,-0.08942556814792448,0.21458194229885463,-0.25546312961945045,-0.12866654894197388,-0.22136526666102793,0.13998519838145165,nm,0.0
70.21050071716309,-19.23358988981333,30.60852889977342,-78.25714933595711,-0.03908150044623086,0.2336327431173389,-0.30759992300337846,-0.18667574507012866,-0.2188007349090353,0.12937469458474063,nm,0.0
70.22872829437256,-17.584961582227372,27.463232534336523,-76.73336062523919,0.21226949076887913,0.15802910310619395,-0.29388935682699396,-0.32089116585528377,-0.20837482210474192,0.026373349549279064,nm,0.0
70.23461198806763,-16.902558449495835,25.48401403011789,-76.37538407935213,0.2909457578591553,0.07923646513709748,-0.2885892620907185,-0.3672574520712105,-0.2204011916130539,-0.026894180366292524,nm,0.0
70.25878143310547,-15.421893976120666,21.189338180264595,-76.00939101561391,0.498760364697986,-0.10775971836775801,-0.013618247716023981,-0.39993083748611774,-0.2424031113871072,-0.04665361943537412,nm,0.0
70.26209545135498,-14.674611080875954,19.07512387002926,-75.8613409983774,0.3240110535244641,-0.16419531286510936,-0.04945801573249537,-0.38683570767806086,-0.24831641348114059,-0.026168266201817343,nm,0.0
70.28926944732666,-12.260055943678669,15.200430998380886,-75.36466639963797,0.6290842894044097,-0.18129108801383292,0.582262969399633,-0.313930650766077,-0.3312882098104487,-0.023785876699891698,nm,0.0
70.29246807098389,-11.181045417941899,13.517264248749287,-75.25689160310499,0.47395626061315566,-0.15318060110056395,0.6773762067676138,-0.28296565729947104,-0.29736417434238427,-0.036397597761624705,nm,0.0
70.30041360855103,-10.001673901185697,12.14638902045026,-75.35862308790718,0.41063381546109834,-0.05180519163406263,0.8503197401471239,-0.21709563338161644,-0.301796777533794,-0.07729345758458947,nm,0.0
70.31036472320557,-8.917896340051193,11.209585919048388,-75.70568954959784,0.09765583076807255,0.057843364690644085,0.7139215712718451,-0.13850580157730497,-0.2620468363533877,-0.11800219933103988,nm,0.0
70.33356070518494,-6.761333412859878,11.058881271407039,-76.86291211150896,0.12435786543014632,0.08507398802716663,1.2176370469521036,0.07582287463159672,-0.1570266047302799,-0.1539245388732516,nm,0.0
70.3400993347168,-6.789103652695411,11.93770006143951,-77.5287555328929,-0.45940440285972933,-0.05062499290347215,0.5716126933224122,0.16027341413935256,0.035195849879618164,-0.10833573251409526,nm,0.0
70.35036754608154,-6.733997206954568,13.321367446270855,-77.95159786425812,-0.19974080801719418,-0.21069018961307218,0.8789976402055639,0.26283579875401286,0.039239052221395954,-0.06104183438080604,nm,0.0
70.35707330703735,-7.534983194965049,15.054243330657947,-78.22938667012697,-0.15809026804115972,-0.3569816875940129,0.6744056619917564,0.29745982967999124,0.21464797527470297,0.020893567162118074,nm,0.0
70.38068056106567,-10.554313138669498,18.94918730811525,-78.76884732886172,0.14709546265679047,-0.3783374163977903,0.42942320630491576,0.3163323104779979,0.3688851782387244,0.10044423579152463,nm,0.0
70.385746717453,-12.814482619247505,20.834424581542432,-79.24675965264669,0.13785726780827784,-0.22765086643827037,0.09562370406714364,0.2798559482884112,0.48073683289880437,0.11468462925685614,nm,0.0
70.39529013633728,-15.224054096329724,22.580347324117557,-79.92765304096098,0.20614712292909562,-0.07255128865278337,-0.029930042110510896,0.2529560257688822,0.4952884345563618,0.09159087163448787,nm,0.0
70.42563724517822,-17.69465808637972,24.200293243685483,-80.78523502541721,0.3573624559812611,0.062261776416908235,-0.07561116581054148,0.23363647511258018,0.4933231650819295,0.07227254219028104,nm,0.0
70.42757439613342,-22.407853937650348,27.262763327151067,-82.37004281456124,0.3033669466504283,0.20470866190823497,-0.31556729297043956,0.23816300526132422,0.41979282361192766,0.0942166606918331,nm,0.0
70.4446210861206,-25.81106878126838,30.40738165486371,-82.75935718295274,-0.0228379010710915,0.3807094540293368,-0.6484436289501446,0.2693388716425233,0.2820327891805836,0.16257400045863304,nm,0.0
70.46927118301392,-26.979323819083884,33.00750542219343,-81.77347903990945,0.022710678115450716,0.5114318948028549,-0.7064876107554411,0.2071582119567725,0.09656143887618453,0.13941677989510778,nm,0.0
70.47459888458252,-27.09457259859889,33.723435209316065,-81.21075708542136,-0.07017309949337734,0.5614247793319112,-0.7191880415259592,0.12763949674795236,0.032078562189006676,0.09523415462046023,nm,0.0
70.49532437324524,-26.64744320503795,33.69619978242305,-80.62526680101506,-0.12921382485641983,0.5179813502613618,-0.602692391472215,-0.05222962988248326,-0.061319078362374796,-0.010643939199243635,nm,0.0
70.50330471992493,-26.10690403417093,33.09350736845842,-80.4424608182953,-0.18090336519282704,0.4719135643726196,-0.5442732618944175,-0.11521413465085943,-0.11753081426310807,-0.05160742965732015,nm,0.0
70.53021144866943,-22.463679121942512,30.331960164739915,-79.05058286362147,-0.09596620287047584,0.4346999648461348,-0.25370731881431785,-0.16137969310269532,-0.27891977033044735,-0.04552025031790626,nm,0.0
70.5544970035553,-19.15943815938308,28.25022792779443,-77.48270553818529,-0.0619884834683649,0.4102673974336164,-0.12191562723302242,-0.15597640653093497,-0.3511974188493309,-0.046355117276264075,nm,0.0
70.55877089500427,-17.573207303489497,27.063123011179428,-76.84752767218055,-0.10721701948176207,0.3470510280825237,-0.16370448539996715,-0.17946108698934143,-0.33596060376961595,-0.056315607852465525,nm,0.0
70.59341096878052,-13.660342465898712,22.583052609723378,-76.0122995202923,0.008874916513182568,-0.15792242902263245,-0.19635367423432015,-0.2810618409904377,-0.2873023367053488,-0.09845459333168692,nm,0.0
70.59543895721436,-12.61361013005864,20.78875847223174,-75.88653648524195,0.1408250882985927,-0.3493718281288838,-0.15396722541457203,-0.3113449387492259,-0.28525703701477495,-0.07563136564869434,nm,0.0
70.61014795303345,-11.675562573709355,18.866271115793488,-75.6374231063826,0.27306654051835216,-0.511434775326166,-0.07187319539863879,-0.3397667031377077,-0.275075635356048,-0.028819519043544604,nm,0.0
70.61519455909729,-10.815150012035664,16.831082493970978,-75.21461760984076,0.41242731319291936,-0.6193634777393684,0.06257541405263867,-0.36317115989110305,-0.2704889396938852,0.022577586514435092,nm,0.0
70.63785552978516,-9.424730776674625,12.515311378221847,-74.03187212689363,0.7602956204197039,-0.6181350211785058,0.7840723670124203,-0.3982198606056899,-0.24098703306994593,0.08481266307974351,nm,0.0
70.64317965507507,-9.186020921587371,10.435892348305261,-73.62494122006306,0.7454362699174654,-0.43586065458917217,1.0279656822209082,-0.3965663778631494,-0.17057379585918897,0.07999632233124279,nm,0.0
70.66670489311218,-8.612608067831577,7.396688541576267,-73.67572572975695,0.4790935878688778,0.12477686645362936,0.9058523552344184,-0.22622916993502354,-0.17367881283983927,-0.03174029863441745,nm,0.0
70.67292213439941,-8.303643467710856,6.803535806487254,-74.12077402002916,0.3617613200419704,0.27456872219190875,1.0082561244862316,-0.10672257867149906,-0.101836495367787,-0.0884118519059992,nm,0.0
70.69838953018188,-7.9306482397045865,7.956891391044614,-75.39485144476147,0.08227516656128557,0.08451532286622708,0.7400738968282957,0.18866593563931902,-0.005776111472727869,-0.11820466482770747,nm,0.0
70.7029972076416,-7.735789849244438,9.529084019092078,-75.88623707117233,0.21588680022979895,-0.11868619172800877,0.74498382903545,0.3046779808532166,0.030907891631563565,-0.08203505152889957,nm,0.0
70.72390604019165,-8.887007145898155,13.621684226951931,-76.41204915810233,0.030587438233598295,-0.4209437768139964,0.23315439006307548,0.3680932343168157,0.23937586574889055,0.02237327488343868,nm,0.0
70.72836470603943,-9.645127127775956,15.694249598874432,-76.63444212354491,0.2500317534633189,-0.3665196136745598,0.3682662492176807,0.35950063929734294,0.23002050887551506,0.026796311611242653,nm,0.0
70.75260043144226,-12.520157427152599,19.33645762289377,-77.7860492556555,0.11580133106315922,0.01623916208024131,0.024586600600210062,0.26397973649377154,0.358973781350619,-0.017017510539136776,nm,0.0
70.76068139076233,-14.248344639804648,20.96229753895797,-78.74345371778253,0.22904132594902638,0.17722803394843253,0.07674750578309528,0.24222297288314085,0.37561693422190473,-0.055729997896233716,nm,0.0
70.766592502594,-16.251133731329904,22.55718470696004,-79.91520549924509,0.10049189377291197,0.2903849813912649,-0.09146209545238064,0.23442896905382143,0.4165365545922458,-0.05768570898365825,nm,0.0
70.7755606174469,-18.100174659013835,24.224178465225222,-81.03494476463264,0.1152568208171018,0.3152110777269034,-0.1387635445775901,0.2623388920460043,0.3818514966553077,-0.045122050013912465,nm,0.0
70.80252242088318,-21.12395309499109,27.9704499136378,-82.29796392613395,0.04795728386126954,0.33150369526772716,-0.41006694331284016,0.33826999896897747,0.2883238114005235,0.04416460129596272,nm,0.0
70.80472826957703,-22.032738029377686,29.90715006135262,-82.45763784120648,0.06834459145288399,0.3565571395983636,-0.5121377117496982,0.35185973021282235,0.20135418305175848,0.06112902899273915,nm,0.0
70.83015418052673,-22.967665583667426,33.03989907331725,-82.63348223558839,-0.08435841969555988,0.44939174949672683,-0.7018758148607682,0.25487785377026234,0.0852457644958493,0.014339017667034847,nm,0.0
70.832834482193,-23.12183135276448,33.923416490347705,-82.91096225685311,-0.1290828192244241,0.4404751764279818,-0.6735972965329999,0.16071464070472682,0.040263209362396045,-0.04280873208532479,nm,0.0
70.85902571678162,-23.094589312494804,34.285139376875144,-83.78542772262654,-0.33463315739686206,0.3750130845136654,-0.5500982879732103,-0.015027930802651253,-0.02416911951107741,-0.11401943959808654,nm,0.0
70.86276626586914,-22.784964298106782,33.97293189944445,-83.99998616801896,-0.3545796105482337,0.29273360830603223,-0.48706339131105886,-0.06836020315555194,-0.06500370070285458,-0.10158673924830927,nm,0.0
70.88520121574402,-21.385267049880987,32.90578484577839,-82.94811072578574,-0.33711029666184594,0.22687492454940034,-0.3385823467578203,-0.11229857185426328,-0.16125472484544628,0.001861948060376205,nm,0.0
70.89544367790222,-20.3682422698384,32.18185659811656,-81.98650654397154,-0.26337042150531165,0.2236837060968285,-0.30681315774153545,-0.13249243735335756,-0.19681772371225068,0.05847404881516266,nm,0.0
70.90278220176697,-19.283921422729684,31.271563655875074,-80.80465008234533,-0.17272414707934391,0.22979855178202874,-0.2928275150069746,-0.1636132675609497,-0.21776775495899425,0.08838316556918403,nm,0.0
70.9119484424591,-18.24288821064036,30.108237403763923,-79.70056460210255,-0.035768599781501965,0.22514214706045477,-0.2870440120704258,-0.21010286756188756,-0.22423881079658037,0.08356271689850886,nm,0.0
70.93620371818542,-16.503164370281326,26.89889654441672,-78.44417187891115,0.1731666595979385,0.08714751844450035,-0.3153109713442453,-0.3258405325481427,-0.219727371568196,0.007966616761181036,nm,0.0
70.94303917884827,-15.721362589345016,24.914223422593444,-78.08165701838807,0.26727599830889126,-0.043242036148439876,-0.3111706353163755,-0.37098848864277983,-0.22750799518086273,-0.026636704448319448,nm,0.0
70.9601879119873,-13.903403815815514,20.528056151432306,-77.34580509949964,0.4817675246359622,-0.31885704032216283,-0.07594907161104697,-0.4081694071558924,-0.2831162089428933,-0.023478018628891036,nm,0.0
70.9743869304657,-12.945398317690266,18.286440835297626,-76.70239692329673,0.5786725825137436,-0.40276954128954817,0.21477647672398564,-0.4066406860000325,-0.2867862317880744,0.016761513451658164,nm,0.0
70.98633074760437,-12.023176002749919,16.114670596861846,-75.93652957947866,0.47942484827876486,-0.41556525029553626,0.3913747033863809,-0.39055782034776215,-0.2840719332431464,0.05503783562763379,nm,0.0
