timestamp,roll,pitch,yaw,acc_x,acc_y,acc_z,gyro_x,gyro_y,gyro_z,markers,motor_input
60.523486614227295,-27.294952274336573,40.55548825510232,-76.71588655397981,-0.6672837164360406,0.2704124863128339,-0.48670984159464553,-0.16170246705857616,-0.13969085486002156,-0.009137181592294215,nm,0.0
60.5253689289093,-26.38535959842546,39.52209446942613,-75.83659913171675,-0.6053403535136729,0.29327716920736074,-0.3901763485377286,-0.17835629662508187,-0.19357440357487196,0.03768645460708368,nm,0.0
60.551294803619385,-23.971429844533045,37.00399959788142,-73.19962649431412,-0.3718445800735121,0.26787233861519144,-0.3498690509658331,-0.21200625122549632,-0.27783902308862585,0.09673382416256077,nm,0.0
60.55290365219116,-22.655669915356167,35.46575413292253,-71.84630969512871,-0.23091370110005013,0.21865490413766217,-0.3926439460382044,-0.23970062730211195,-0.3048354476060568,0.09166567153217403,nm,0.0
60.57627820968628,-20.076611935086685,31.54186210920909,-69.54561713809944,0.11004389989817151,-0.05229736578796252,-0.46115858836291695,-0.33407959858593705,-0.3577739011239361,0.04393500016623094,nm,0.0
60.58285117149353,-18.799112291671157,29.145505950135718,-68.64899458193904,0.33816706489609377,-0.22819270696394892,-0.38566067780601593,-0.3784146427676755,-0.3878852763448995,0.01944220288631161,nm,0.0
60.606581687927246,-16.39198520434801,23.86604115493065,-67.15870995820805,0.8210069495599126,-0.4781719455598136,0.19943697158086302,-0.42580057977914837,-0.4136064621754928,0.0032373430316539344,nm,0.0
60.642478227615356,-14.45854941216986,18.621442231054477,-66.11559987631067,1.2531217133371535,-0.4776669816709739,1.2646945637707268,-0.4081948583454245,-0.3583271912460313,0.0003681837510061046,nm,0.0
60.6449077129364,-13.032257981245866,15.098778106651434,-66.06026255422087,0.5987902971816411,0.015962372928218737,1.1999567208447726,-0.2019606746153265,-0.29633636485151565,-0.07731666655279018,nm,0.0
60.647916316986084,-12.180540368795771,14.459559262820449,-66.38714173167268,0.4756521905753938,0.20012031621533488,1.4022215988519948,-0.059154401906084,-0.21337495486229335,-0.11324995411807541,nm,0.0
60.66220498085022,-11.618258361302422,14.964061570088374,-66.90149243141366,0.22451946428692215,0.22045294876438193,1.505792573594165,0.12730870083089607,-0.07064141637705346,-0.1360459579357095,nm,0.0
60.686073541641235,-11.891815132187295,18.818751360390124,-68.25083350870887,0.01685222791226154,-0.16892549262681555,1.07313187894935,0.37384636202358673,0.27050895329029734,-0.08213621097095593,nm,0.0
60.691691637039185,-12.590716303351273,21.71360453668357,-68.94191710950786,0.13614267357045878,-0.48629617605535946,0.9205434284363941,0.4830782291526111,0.32307307025312815,-0.05978316030487429,nm,0.0
60.71721124649048,-15.505747600101579,27.85198826285588,-70.6243105359471,0.06522889542579233,-0.5858021938486846,0.0668460254915333,0.4415787902256123,0.4948505613281145,0.02002986336992115,nm,0.0
60.71888875961304,-17.45518267247869,30.447042562269555,-71.72184866335729,0.30604924052327165,-0.5250757182023741,-0.03770495802775271,0.37274113580212664,0.48041481424950877,0.007275590821338162,nm,0.0
60.72490835189819,-20.036656751623486,32.74321996363948,-73.16943772631825,0.16677485169683676,-0.2630212503557651,-0.3823902815705337,0.2962684190804097,0.5488250381977116,0.014576383876526485,nm,0.0
60.73349618911743,-22.83030133277748,34.647318026373135,-74.76831198460893,-0.0793752672080975,0.06338160961514754,-0.5981775772424467,0.22777229034923505,0.5434402919576621,-0.0012228628036411889,nm,0.0
60.744264125823975,-25.425754655905592,36.10775148702411,-76.35512062845342,0.02443639739866418,0.22872443318777896,-0.5603349006812117,0.16692398596192135,0.4743223280968201,-0.020869825963145825,nm,0.0
60.76744508743286,-29.886798878688506,38.66496154965645,-79.35007304718819,-0.30333600543934336,0.5375127896702455,-0.7302563714423682,0.17956659088345422,0.3432688515244692,-0.022949320277980318,nm,0.0
60.771283864974976,-31.19169480006134,39.86831360507081,-80.27246801495389,-0.2757326207312291,0.5919955195703162,-0.7544058688395278,0.19038907121493345,0.23304036718290339,-0.022837835686554085,nm,0.0
60.780986309051514,-31.962772985757535,40.94739652602787,-80.8454314562624,-0.4124763725304174,0.6299835326428328,-0.83086929110365,0.1828242008453951,0.1428123074276774,-0.0181777030187464,nm,0.0
60.790444135665894,-32.09536639705265,41.83493477194822,-81.18519765783432,-0.4121140856963314,0.6463264024957133,-0.8241920813596028,0.16133619114838835,0.03892568287321193,-0.05410307231505787,nm,0.0
60.813963651657104,-31.112292565911353,42.27911675905133,-81.34795083815501,-0.5067090195747034,0.5228672265297101,-0.8051858610596359,-0.00387290948769191,-0.10642813257237524,-0.11029570313100916,nm,0.0
60.81935000419617,-30.144116727363503,41.7824271746249,-81.25555056348105,-0.49944121021578386,0.429498554194083,-0.7080122797091648,-0.08755665013404182,-0.1657073379973436,-0.1441351185294322,nm,0.0
60.84783101081848,-27.533519434917554,39.68027553379965,-80.68127045960583,-0.5651356274959924,0.2637081595280305,-0.42396777128710783,-0.2149902240364275,-0.2628675222295224,-0.13326497500141044,nm,0.0
60.84968161582947,-25.874514134263542,38.31809252208719,-79.94044251917043,-0.537086838266507,0.19120890768944057,-0.2653979796828174,-0.2361604908144417,-0.3088429223472044,-0.09629731203572023,nm,0.0
60.857571840286255,-24.111194672915126,36.91640099309692,-78.78222115320374,-0.5268854818701088,0.17042782805396894,-0.1574410356375458,-0.23447155745608628,-0.3354457986767971,-0.04107824985660556,nm,0.0
60.88052010536194,-20.637298600941122,33.98526963632011,-75.91957669988032,-0.3347424056258726,0.04452504828359189,-0.09762725905311437,-0.23701074121841118,-0.34773013606415576,0.06679951893304036,nm,0.0
60.886658906936646,-19.15749894890227,32.4067857197686,-74.46236545199783,-0.180394090437524,-0.04148088640987607,-0.13775694134381664,-0.25220520430639537,-0.3295948399085809,0.09724050436450424,nm,0.0
60.9089560508728,-16.95650908693282,28.66560446428878,-72.09153221432403,0.2362528063023799,-0.2977930841919106,-0.14748244073976302,-0.3399188091175928,-0.28972767556821494,0.10644816666640025,nm,0.0
60.91445350646973,-16.206918040214017,26.446907034624132,-71.25021377393522,0.4643284593534651,-0.4345620485273067,-0.04811200270550718,-0.38964052626327184,-0.2755640663680533,0.09420476875510206,nm,0.0
60.9379460811615,-15.247831317286058,21.630807479226483,-70.0543688886021,0.9789394121725569,-0.6121565100676316,0.6053900045807971,-0.4419981566429646,-0.2410929640066293,0.07056612176589475,nm,0.0
60.95583128929138,-15.545674877081193,17.646183388208048,-69.75465214417177,0.7051273475354041,-0.27704415976783237,0.7901120050909515,-0.3670315914106736,-0.06897240740699796,0.06171475429867842,nm,0.0
60.97170901298523,-15.280317732278213,16.357124043293908,-69.69983757504554,0.6722950583018825,0.07841128545631723,0.9285389258228675,-0.23383098193714355,-0.14739246573795836,0.005829734115386395,nm,0.0
60.98076248168945,-14.846339201247687,16.118582084207777,-70.0804177800879,0.2752946548359469,0.3640461264977092,1.0122644026628709,0.0639769702582086,0.0049133467624113214,-0.057173403006715535,nm,0.0
60.995967864990234,-14.488062434928832,17.44647071507846,-70.5276186558988,0.19127678070152254,0.3014577411747759,1.0109390859932335,0.26412553666546873,0.014549991159204866,-0.09543876328902014,nm,0.0
60.9999635219574,-13.94444927751749,19.42439700396299,-70.9746580908157,0.3730570811536597,0.07376882583939186,1.0391954638840128,0.39848791295269337,0.022789643450321004,-0.10776388417657923,nm,0.0
61.00946664810181,-13.915062942976341,21.836763107316425,-71.4139265176728,0.42863791733129564,-0.2758772856311899,0.8881409425155741,0.4495161315731356,0.14049825944414115,-0.07722790522600827,nm,0.0
61.051631450653076,-14.828398976412343,26.957365729201214,-72.46753589706995,0.15669616019477875,-0.4981780277558781,0.21081434514829148,0.4422100901009261,0.21303497140584093,-0.048437096883990255,nm,0.0
61.053629636764526,-17.33426253312724,30.891221057680987,-74.10476712056308,-0.17524111963073555,-0.2905970959115547,-0.3071152660690121,0.2664271457509189,0.34206061005101096,-0.010375030201181938,nm,0.0
61.06829833984375,-18.99563970979455,32.43013180799346,-75.24577516136426,-0.12701321964006548,-0.036039146707168325,-0.2836446672659466,0.21227515243266,0.3456117611862067,-0.030766298812613384,nm,0.0
61.06989026069641,-21.003883323603734,33.61600773952089,-76.50226843770454,-0.2761500062717219,0.174701861205312,-0.3524839544390296,0.13775627834462947,0.3761786774486512,-0.009481166831690356,nm,0.0
61.07639408111572,-22.956881583778806,34.64244990578351,-77.72476329682056,-0.3063956991927061,0.25569176212101485,-0.3936285946187973,0.11770772606184535,0.35276655740919227,-0.004459765710377276,nm,0.0
61.08533239364624,-24.73070148167559,35.70439843327983,-78.79747565244753,-0.266622360080056,0.3838231536327166,-0.3898689034327785,0.1384490711298152,0.3189631158994434,0.006829067414991293,nm,0.0
61.094494104385376,-26.265180547306848,36.73209515794681,-79.54076045795401,-0.39175685176604325,0.4687313976091321,-0.5226127448316626,0.14463439296578112,0.2736650744408862,0.04100865136147182,nm,0.0
61.10368609428406,-27.28021397148152,37.70169330029876,-79.91868277657828,-0.3237312058027835,0.44482036451659634,-0.569551705386006,0.151168483495522,0.18544495100887623,0.05138523518690877,nm,0.0
61.13505554199219,-28.145387099852236,39.23945468852484,-79.93448693443499,-0.38734200915393824,0.5113505813024753,-0.6993490248333785,0.10878305278853431,0.05088138241446197,0.04534466841261769,nm,0.0
61.136789083480835,-27.997602981820823,39.474599109308635,-79.73017614924785,-0.3087139712686394,0.43922396510040224,-0.6720908647106105,0.0,0.0,0.0,nm,0.0
61.142651319503784,-27.671362716101175,39.314544822526045,-79.53630410456218,-0.328768984010286,0.3840986938388292,-0.6311577127420015,-0.03348667440301384,-0.0638152265851311,-0.0067082816072057,nm,0.0
61.153406858444214,-27.126952455860813,38.78635555717274,-79.26104909731443,-0.34446542939708424,0.36494909382131896,-0.5260431314518331,-0.09932359667183357,-0.1111508629477807,-0.03623477033795843,nm,0.0
61.17534589767456,-25.428130506780565,36.839178902811135,-78.28372688465878,-0.3460439772486028,0.26540562456071004,-0.2980548495237561,-0.19208144379754236,-0.19702675251880242,-0.03898046907125099,nm,0.0
61.18192648887634,-24.290510079346728,35.71255659813038,-77.49480611080152,-0.31832808573378385,0.26670208956314123,-0.17613189091652087,-0.19241520597978834,-0.2358376282372013,-0.025274577270873174,nm,0.0
61.21064329147339,-21.754739174231354,33.4346845954262,-75.50750614968543,-0.22460620492216143,0.19102620228374848,-0.09439943739092362,-0.17950938762122806,-0.2717642427256733,0.02966756159068366,nm,0.0
61.212462186813354,-20.48480391947948,32.307768518113676,-74.47163246610565,-0.09823295018193977,0.13483953713935348,-0.08664303482584837,-0.17272155645965148,-0.27386511257947466,0.04003051079979519,nm,0.0
61.228047132492065,-19.34212814592037,31.09718654797233,-73.55109023104073,0.03392481208383244,-0.0043819714446943795,-0.0800897591279968,-0.1894534032547533,-0.2631188009620914,0.04387694442237284,nm,0.0
61.24867367744446,-17.538991211272226,28.375132355776152,-72.13162320790455,0.39877276690412444,-0.3137513063225934,0.13353699006535444,-0.23546473706633392,-0.23116822464828712,0.017904386445475772,nm,0.0
61.25028991699219,-16.912571480902965,26.873281642264185,-71.61041005519365,0.5364288385867385,-0.4259055004953882,0.2863307802687581,-0.2607748067077236,-0.2090371298420421,0.010690765720604695,nm,0.0
61.27610802650452,-16.043539454485735,24.070467051422952,-71.09049982422599,0.7147142300223768,-0.411194973882118,0.6704115658127034,-0.23593318819482328,-0.15901964487821357,0.011425054877350696,nm,0.0
61.278104305267334,-15.780624225882503,23.039934504201863,-70.86451898694739,0.673393574264121,-0.24253353743297837,0.7521974174823046,-0.18895313702473845,-0.12269996600840184,0.019692573275922505,nm,0.0
61.28815197944641,-15.58673756499565,22.389404620722033,-70.662917366761,0.6555349330853952,-0.10112992129928439,0.8448859486801821,-0.1207347622376126,-0.0866110202701143,0.02088872452708966,nm,0.0
61.309077501297,-15.47813699710375,22.714340752452674,-70.81660675902137,0.5055930491310419,0.09733109009233985,0.8207407345553123,0.0735932615486286,0.017537996158982258,-0.02458567513380371,nm,0.0
61.31361413002014,-15.56986411474558,23.584887327173792,-71.23488974921271,0.4376894719106456,0.0373610406125423,0.7537693917702482,0.1497507158621191,0.06281606028801204,-0.061522034222531545,nm,0.0
61.33697032928467,-16.15038346772476,26.161371257661425,-72.68495550742122,0.2809520863210898,-0.24277735476214193,0.41008725398916884,0.23473326707409609,0.13775178940609795,-0.11582625311716323,nm,0.0
61.34481763839722,-16.67657071372214,27.61901737594972,-73.56124412695507,0.20016298442141017,-0.32890042393076907,0.17793232284253152,0.24202170357286779,0.16537498577998563,-0.11448876461849275,nm,0.0
61.35123252868652,-17.338233170207214,29.02247029954318,-74.39950834126728,0.08857786433938374,-0.3528000666354003,0.016892344356259397,0.2277514705516303,0.18060155576014247,-0.09410429618732823,nm,0.0
61.37506318092346,-19.037303272488995,31.475419695562497,-75.89734172884214,-0.10854525573136156,-0.1184725424710823,-0.16633553825666528,0.17702420042955466,0.20007620822064393,-0.034970104326625846,nm,0.0
61.38048458099365,-20.036184947294092,32.53452611954773,-76.60913870016465,-0.177184968550266,0.06598035297732255,-0.16494491156481794,0.1552183944117734,0.2064760207223437,-0.017974830546834894,nm,0.0
61.40399885177612,-22.264508600718127,34.44142855181572,-78.11315106811479,-0.269765884363259,0.29615494822218574,-0.1891642652265499,0.13112957308640727,0.21614702933834593,-0.018627243196865293,nm,0.0
61.40916109085083,-23.408447811184537,35.34533836006294,-78.94982345635971,-0.3012620484925232,0.3349068459092579,-0.2265019869728645,0.12913929055260023,0.21177826659245996,-0.026943266208748165,nm,0.0
61.418251276016235,-24.483665322281933,36.18891526438408,-79.7443024229977,-0.3296867369554734,0.31957929888075315,-0.29359549724421474,0.12267256731988148,0.19468446766141564,-0.028248875660619625,nm,0.0
61.44458889961243,-26.111681678993932,37.59583929575359,-80.89704810959262,-0.3963704712820561,0.27392625710083485,-0.4327154320799148,0.09813551115297237,0.12347377431310284,-0.00452574122560849,nm,0.0
61.44878792762756,-26.572183655307033,38.090314701796196,-81.0502990922114,-0.4363718272121352,0.295293557419468,-0.45875370479757244,0.07506772485379998,0.07943139129295086,0.01629961236220376,nm,0.0
61.47040343284607,-26.814306631947932,38.47239019876848,-80.73602154609173,-0.46415566009339987,0.36216644005279275,-0.40814832653749467,0.0,0.0,0.0,nm,0.0
61.47735333442688,-26.711356111213444,38.357928407596965,-80.379082722092,-0.47293552004042694,0.41090320475741016,-0.3556649939986428,-0.03114951600817842,-0.02785644980855576,0.05453284736493211,nm,0.0
61.49978828430176,-26.241561988130474,37.58999006785685,-79.4807155982663,-0.4323316425771689,0.36112568591250155,-0.2614664389514952,-0.09335343139889905,-0.0677878566257801,0.05679284720066404,nm,0.0
