timestamp,roll,pitch,yaw,acc_x,acc_y,acc_z,gyro_x,gyro_y,gyro_z,markers,motor_input
21.015148162841797,-24.190396220752252,5.688350179585031,80.07794941932889,-0.1292319933721305,0.5666650606434543,0.30608001745294444,-0.0027589417146169117,-0.4035729292114714,0.06496718178916452,nm,0.0
21.02100419998169,-25.49402251731525,4.902466202230863,80.89118233651223,-0.3401633809855683,0.4530391728859361,0.10686956993224504,0.12554477860208033,-0.27704132018804717,0.19481577454068835,nm,0.0
21.0480854511261,-24.85528469588335,2.1925881693050395,83.62506722034642,-0.5667288469204141,-0.23406224548691132,-0.4538153857396441,0.3438749654922662,0.1870020394755853,0.32477965002769293,nm,0.0
21.04991579055786,-22.8675758581129,0.2123844694922398,84.9096898417431,-1.008214948480371,-0.6786686327973155,-0.27963036819525156,0.44813573994914785,0.3615590586762055,0.30497260226513573,nm,0.0
21.058903217315674,-20.40765429602774,-2.1515812751755945,85.73555618191757,-0.8435641250757295,-0.982006218419762,-0.3531360890623795,0.5258637135752399,0.457542894305623,0.22864213377985418,nm,0.0
21.068265199661255,-16.891633597972437,-4.4678977548955645,85.90778995640522,-0.9179633490244786,-1.0767749084018026,-0.14798369112910853,0.5280012346858332,0.6726583259830521,0.1272812099106449,nm,0.0
21.092272520065308,-8.560444872023766,-7.796500454516341,84.64892604245239,-0.2983080886320175,-0.5937777839490613,-0.12146764135216158,0.3682429800345068,0.8204097797568513,0.0032844161568992168,nm,0.0
21.0979425907135,-4.187555860737462,-8.602221195090527,83.89455109568367,-0.09232358985155703,-0.17364759719515133,0.14748717601922273,0.26247793099240957,0.8519836886652775,0.05420001825589085,nm,0.0
21.12064003944397,3.3912039598697237,-9.07761344205085,84.06671622817576,0.061755101028309466,0.5784286312038825,0.12083107406489094,0.12038854296391288,0.7022302965223083,0.262537439309218,nm,0.0
21.12472701072693,5.818840287085785,-9.223775468544835,85.00765218927586,0.17822012009564497,0.8052574817308387,-0.111008377856983,0.08724403819969336,0.4821320793585556,0.30781442405307197,nm,0.0
21.148888111114502,8.590789404320802,-9.780808501879873,86.95495479641923,0.03408675582630705,0.5952422325251673,-0.20145348303856025,0.09307379132600728,0.22969332115984048,0.1998846696338905,nm,0.0
21.155155897140503,8.730003889683179,-10.06195088138978,87.07531586264419,0.01822783503869209,0.34119551767837186,-0.3545705563928494,0.06851104431963499,0.03241063021811268,0.02360438277753123,nm,0.0
21.163317441940308,8.143326769981133,-10.068971198258621,86.56908830882043,0.011309135357699708,0.05391303396975264,-0.4835494699836709,0.006135699783651913,-0.10776973913888481,-0.15523430388417253,nm,0.0
21.1871976852417,4.85294486139148,-9.130213589288424,84.4100569201123,-0.008482027297386724,-0.2938021837457966,-0.3303446500057913,-0.14706839702139923,-0.3915668407350142,-0.371847632895913,nm,0.0
21.192379236221313,2.2073638104852584,-8.190071297328537,83.44317892898052,0.003061869936885261,-0.28497262139213875,-0.2361201795339854,-0.22911073132018187,-0.4947859137911144,-0.3449344711132785,nm,0.0
21.201838731765747,-0.9474311707667795,-6.920799941857265,82.92156026340672,-0.06684337911233953,-0.23672851147235463,-0.11861598529934114,-0.31273630997371665,-0.5860405938927278,-0.2526591531021832,nm,0.0
21.226789474487305,-8.05818738621868,-3.5228627822463197,83.0396642085045,-0.13125721621907954,-0.16695224958597973,-0.07894282178474749,-0.4374366636548912,-0.6539277638557891,-0.06512909320982678,nm,0.0
21.23211932182312,-11.53963251580552,-1.5240305113262838,83.02992443931075,-0.15426526731904602,-0.2726881691304779,-0.003588315023183265,-0.46797271559471243,-0.6373695831429695,-0.060148833170836274,nm,0.0
21.25415325164795,-17.687877427594298,2.1843702342696583,81.42479669401455,-0.15977826566989356,-0.5918064779389182,0.778629006127542,-0.4142618428114905,-0.5163429847656597,-0.22273237966671278,nm,0.0
21.25914740562439,-20.232393851923625,3.6700200670580663,79.75682805906526,-0.12997973221883227,-0.5644307256838189,1.244222059664166,-0.36314098122784205,-0.4483563412335551,-0.30912977849404305,nm,0.0
21.284200191497803,-24.44781835941705,5.8181232551978,76.52545611922643,0.02987426159678763,0.016747181859803128,1.1103458417301457,-0.2516611906705808,-0.346818783636922,-0.235667832875596,nm,0.0
21.308398485183716,-27.113289422753763,6.853594454933762,76.7207779416384,0.006700756006830425,0.6139018301832723,0.4915028910120998,-0.11300533186793593,-0.15688081721834277,0.16605355118334017,nm,0.0
21.310233116149902,-27.031035730683456,6.905148402881388,78.38259840460479,-0.23643183285692815,0.49673950093656355,0.18502410415622111,0.007115276155803321,0.02298477389333004,0.36396225384987074,nm,0.0
21.316487312316895,-26.08716529596418,6.389211006738503,80.53839739266282,-0.5554930168054605,0.14614384739992492,0.08574323409102026,0.14987816326523581,0.17052469463846925,0.47942287554877244,nm,0.0
21.34053874015808,-21.465942936228863,3.4228529494222775,84.48244464994238,-0.922250764180067,-0.9383962166239603,-0.007036448618151158,0.4425919475404926,0.5450363105334034,0.3716089431131782,nm,0.0
21.344104290008545,-18.022150072631536,1.1333090886880612,85.38689462390755,-0.9114431528731197,-1.19550405599095,0.059025096434171254,0.5320772163272123,0.6508125826634343,0.21684122374008669,nm,0.0
21.368492126464844,-9.082377867728386,-2.794578135485186,84.83275302569277,-0.5228136468692108,-0.9421432744036348,0.27471708509993653,0.4417964304639068,0.9436510201139618,-0.021665870441128852,nm,0.0
21.373300790786743,-4.270696090997396,-3.9788775570553936,84.19823414736483,0.055994511949246414,-0.48759096160803594,-0.025487927012697656,0.3425839419923772,0.9403632702388125,-0.016037414184617193,nm,0.0
21.382313013076782,1.0017725721166806,-4.74164600252166,83.991673203702,0.28765170788576494,-0.02985535305401191,-0.005039588177308767,0.2747316064016473,1.0373150646919331,0.09241975251435001,nm,0.0
21.392236948013306,6.180646210259939,-5.380045924572893,84.4299866032037,0.14526305347656776,0.3597250022031805,1.052163551734925,0.24508735979145535,1.021143123799759,0.2267657629809265,nm,0.0
21.40167760848999,9.683626161027288,-6.084965091102965,85.43573292311555,0.622238567397888,0.93878128670138,-0.12180730089103597,0.21397605315680146,0.6897337990512744,0.2934027418312479,nm,0.0
21.422080516815186,15.921162182019577,-8.831511365635613,87.37578879938299,0.3362586458218116,0.9767298281691628,0.0699292652525598,0.3791406466208643,0.5598003362636313,0.2644173982469286,nm,0.0
21.430051565170288,17.528935607431944,-10.843317807493493,87.74109671814765,0.42173606509595357,0.7848984953510845,-0.4771405242366451,0.42519718492243924,0.3087554306795922,0.09147342411559174,nm,0.0
21.45375633239746,19.34246981394139,-14.327754992112595,86.3628455350159,0.05817510803775049,-0.17371079680033527,-0.4107121931865168,0.3319325143413171,0.09486313067176458,-0.23721705168028773,nm,0.0
21.458264589309692,18.94582001740332,-15.45876753771685,85.04357283951457,0.020310871316478775,-0.28073546969541974,-0.8052269627495328,0.23026135561147584,-0.08424648647258845,-0.3637579437283141,nm,0.0
21.482383728027344,15.920503408585212,-16.2048000060082,83.16499620182444,-0.2823777092751342,-0.30932992911310647,-0.3338525923004269,-0.006588545479623289,-0.4057666461053154,-0.3482944892483905,nm,0.0
21.486647129058838,12.651320496489804,-16.018380861533842,83.24060684881337,-0.14644501081482492,0.1347487777262793,-0.9259938657401442,-0.09769807564566066,-0.6126320080332842,-0.2757064604667209,nm,0.0
21.500550270080566,9.539636453022572,-15.54332230068765,84.04692411162317,-0.600915254453883,0.1204350826637532,-0.09943086511264584,-0.14685801653311573,-0.5782744433268552,-0.12268948768960551,nm,0.0
21.529469966888428,1.4989991869328376,-13.768642017804098,86.22104662387008,-0.7433771797630095,0.4362277300762644,-0.7013779953759376,-0.2442821156793224,-0.7753242543603812,-0.10174383973402928,nm,0.0
21.531270027160645,-1.7747497893534738,-12.635134594042288,86.79645899471701,-1.0022964650842223,0.27471516403780516,-0.43219337930363305,-0.2512667977852619,-0.6165022552605707,-0.11631363774684346,nm,0.0
21.534254789352417,-4.8396744026293455,-11.465470633077715,86.72555311607219,-0.8775757098658663,0.1787606008762401,-0.632776258498603,-0.2540165617927673,-0.5793014951915454,-0.2036937894356053,nm,0.0
21.558475255966187,-9.280360948038012,-9.067629996846069,85.418248045853,-0.3547470931734704,-0.19637598718192387,-0.47227381781908556,-0.2633290666680561,-0.34207526318368336,-0.27030625381924556,nm,0.0
21.562750339508057,-10.903381695139311,-7.547419471605419,84.50417477121982,0.028003892874835516,-0.39926961546255907,-0.3985206302573939,-0.3184786757574838,-0.2873195068795866,-0.24750922058536787,nm,0.0
21.58586812019348,-12.286789611696904,-3.471703646606356,83.2867247628207,-0.08281826027777438,-0.8663389581280417,0.8709936294041238,-0.4363861891973656,-0.013767092250501678,-0.0932194696729385,nm,0.0
21.601492881774902,-14.162142150676113,1.633418451296185,82.28141442045053,0.5771539372905854,-0.7730132180579741,1.2550805731876014,-0.520997068520015,-0.0893004195869334,-0.08374204259884226,nm,0.0
21.615913152694702,-14.894301678989414,3.866602040925198,81.6219101144401,0.2436330605009791,-0.2673565997600302,1.4987384751037036,-0.4501296546247545,-0.07666177813789678,-0.11087633192096863,nm,0.0
21.620104551315308,-16.467232186219267,5.435090593458847,80.72418222519339,0.5782748833054567,0.21814933335521472,0.8487412232133178,-0.3456099578288165,-0.256297604701542,-0.1199338615953767,nm,0.0
21.64691686630249,-19.09879993859646,5.963322835696454,80.1903842653943,0.06503091982982102,0.7507521215488608,0.5209299669426728,0.01670544881078263,-0.2317791349707746,0.05678902970524629,nm,0.0
21.649988651275635,-19.978805216641458,4.968408027258036,81.1048356300129,0.003368825801525342,0.6204159150958216,0.20235201535023506,0.18120788142327232,-0.20032299617599583,0.22246036861497126,nm,0.0
21.672257661819458,-19.274441426909608,2.1544804018230423,84.71846074332704,-0.4091543566924398,-0.4985458237395938,-0.16510560637016342,0.3300632542977399,0.13371742338042594,0.43435396553886524,nm,0.0
21.676905632019043,-17.421676724866305,0.3868037141493199,86.61185803944299,-0.8879002898346173,-1.028838836953897,-0.029341241282392617,0.39455791957626146,0.34882676378236804,0.4260169144040282,nm,0.0
21.706138372421265,-7.480481876100721,-4.089713460590901,87.60071138041532,-0.6044187923824142,-0.8826382869578989,-0.07143122185901299,0.28388271712442825,0.8224286376244996,-0.0014906541465737897,nm,0.0
21.729429244995117,1.2708351157542372,-5.225662249249268,85.69376542752144,0.18772087108833888,0.44149600910361275,0.07063937972997014,0.14185304626134534,0.8758374599407711,-0.05211267912083778,nm,0.0
21.738296508789062,5.643424597364953,-5.533957868830586,85.41753722744231,0.26134636783781023,0.8983661363571134,0.10022808168222268,0.14226463622755528,0.871078175920376,0.06944983585809476,nm,0.0
21.759589910507202,11.66895346656805,-7.330900804186617,86.8474662473928,0.4466078806816583,1.0039122220951107,-0.3774985160832906,0.2642119475270912,0.4763623795063895,0.27666406179249997,nm,0.0
21.76383948326111,13.723983873648168,-8.808634132861473,87.97773801916776,0.23423365449555786,0.5834096140476305,-0.18718139177270826,0.3242278632599042,0.40166468639390357,0.2868980140512188,nm,0.0
21.785861253738403,14.979442592519378,-11.57602838048609,88.72195981620747,-0.018936134919490272,-0.12745644230230188,-0.5643987599139363,0.251360242518598,0.03396819237407169,-0.03315220663915101,nm,0.0
21.795027494430542,14.737448485696195,-12.171814101861594,88.0269596416622,-0.21932516824119128,-0.309916455561147,-0.4733965398314234,0.12803455502790756,-0.041926758745227145,-0.2179454115016551,nm,0.0
21.815848112106323,11.546626998421706,-11.854120705733306,85.52366934198258,-0.11524992444624262,0.050831458420091166,-0.5857488360481264,-0.08600657920420741,-0.4071398242312996,-0.43201526653914624,nm,0.0
21.819588899612427,9.055026392957043,-11.276350800783819,84.65001787235343,-0.046734195202521714,0.27746003309932527,-0.6629259141041757,-0.14477144869091155,-0.4698933378302528,-0.33651154667205135,nm,0.0
21.844502210617065,2.8293872688570327,-9.768183865315365,85.21718165286488,-0.42916174054176676,0.33368027402189393,-0.40971136714959533,-0.21452069943504948,-0.6733573308743522,-0.04653574825556293,nm,0.0
21.853118181228638,-0.5338268492730341,-8.666320602778212,86.29155723538672,-0.5326525993866847,0.14049907777634588,-0.5182722653476011,-0.25583307032327357,-0.6398710997871997,0.05191607295209757,nm,0.0
21.8576180934906,-3.469764079211948,-7.331826603803467,87.3465830746223,-0.7849084695257497,-0.17412847263572317,-0.32179521662881944,-0.28521503317104446,-0.5600558386716383,0.05125180020002991,nm,0.0
21.866936445236206,-6.219069125475632,-5.881492089805343,87.72201493889818,-0.5985596541741185,-0.3634072455066101,-0.4491823471049478,-0.30014269717396724,-0.5273662267033692,-0.04888439478127901,nm,0.0
21.890475511550903,-9.856918860466523,-2.775238363391694,86.22686856829634,-0.32255858912805724,-0.4982517499859583,0.16952702047617427,-0.3200427953082212,-0.29024680644620604,-0.2610283027798074,nm,0.0
21.89590811729431,-11.106310702074643,-1.2658051616509678,85.02137555807833,0.007392050245277663,-0.39768168669048615,0.34380479544152504,-0.30749903616101015,-0.22017511150858574,-0.2762750620754052,nm,0.0
21.91626000404358,-11.857842049942006,1.5685559064584538,83.79661067683519,-0.02989176681912242,0.18797144990489467,0.892731759816966,-0.26655770637909587,0.01960761852687884,-0.052854797420797406,nm,0.0
21.92558717727661,-12.111414747259161,2.6448222981618916,84.10002887018244,0.18930721765750852,0.39076807145236025,0.4751730577386884,-0.20685956025375232,-0.021436848098707897,0.09151087312565089,nm,0.0
21.948001623153687,-11.194835792220175,2.7940468882566503,85.85505973980143,-0.08488379103251124,0.2852452176371294,0.5189984506065162,0.08240443895803955,0.15228977499730534,0.21689335102353305,nm,0.0
21.956069946289062,-10.67722376624968,1.8379938015031092,86.5189115895763,-0.060731897918065054,-0.11261054154301868,0.28912810957117147,0.21051612291047261,0.09690560127444496,0.1558765228862665,nm,0.0
21.981016635894775,-9.141453386659768,-1.3040790094919892,86.37769798243478,-0.22005866648666755,-0.7924147850684206,0.28903997569465634,0.3540750691915182,0.1586094771257663,-0.04482758346961732,nm,0.0
21.983824253082275,-8.257047957141841,-2.7256818530411904,85.78332773003669,-0.0830963418057656,-0.8808104777763737,0.08280280996828737,0.30864206227533975,0.16358990485449734,-0.101694545928259,nm,0.0
21.99146342277527,-7.1404436203658275,-3.653671492096216,85.21718630768919,-0.052728106403793704,-0.751957889940265,0.10190002524896703,0.21534339238269812,0.21445599834845364,-0.09048549496366547,nm,0.0
