timestamp,roll,pitch,yaw,acc_x,acc_y,acc_z,gyro_x,gyro_y,gyro_z,markers,motor_input
81.50273871421814,-28.69333486341186,27.776168826676024,-96.02070468164112,0.23124335352671918,0.46518105330156134,-0.49875271353879735,0.3253923016159753,0.12844758429117295,0.07863365514561593,nm,0.0
81.52805185317993,-29.780066895747623,30.300058166794788,-96.36299048567534,0.14660732672544738,0.525327020400675,-0.5232194234686782,0.21347921447412613,0.0503165824362292,-0.010136670181146475,nm,0.0
81.53115797042847,-30.18357327845524,30.956946675028306,-96.75953424225024,0.008284109778140569,0.5204489495226973,-0.551315609944841,0.12551991753360725,0.04856036053127644,-0.05348076965240295,nm,0.0
81.54322385787964,-30.45075340263481,31.182223213235524,-97.32955017490922,-0.06487512034298752,0.4704754836486583,-0.5354981723837402,0.03727481859397376,0.034490993572777226,-0.08496890056477155,nm,0.0
81.55031847953796,-30.58795383719975,31.064277798199438,-97.84269309903692,-0.1506732184179274,0.43431051834958,-0.511284600594963,-0.03346941235258575,0.021088323176875673,-0.08364474929477987,nm,0.0
81.5642158985138,-30.51336263933317,30.721763762158172,-98.07373949415955,-0.21278963966936026,0.4191303472398468,-0.47031119879246547,-0.08289861073612145,-0.008495911146061031,-0.05648782448528016,nm,0.0
81.58319973945618,-29.613420346305137,29.705507187165026,-97.45037822274571,-0.15332761329741465,0.42205114171776775,-0.33929639560104013,-0.13449188475985996,-0.08613858552035242,0.031865541358168326,nm,0.0
81.5912275314331,-28.868959633220058,29.08279134117504,-96.70029859869108,-0.0814261088641479,0.4389519967685431,-0.30606902252900764,-0.15276668538135785,-0.11911725305278201,0.05945675803849216,nm,0.0
81.61371850967407,-27.143535350438246,27.367462633503003,-95.21160690754614,0.05172537716707806,0.4204828115097505,-0.32345709793850724,-0.21931623354215393,-0.1420671304907831,0.05009593418479716,nm,0.0
81.61797523498535,-26.236009306943483,26.172053026230596,-94.60771931756574,0.11829615121577708,0.3428817114363486,-0.33408467394143426,-0.2651907520192606,-0.1471891142769665,0.02017734531737583,nm,0.0
81.62868022918701,-25.31824889214562,24.75478180900695,-94.23030419646443,0.1591153680902571,0.23756389008785367,-0.34889370800227815,-0.3086119954215717,-0.14948060010872494,-0.006282266655369538,nm,0.0
81.6376748085022,-24.349696956670513,23.168205499088206,-93.92035458115221,0.20999993528636807,0.12127917640997905,-0.3162868840633443,-0.34233361549850844,-0.16018692827957176,-0.019546285843618855,nm,0.0
81.65906739234924,-22.20191926521449,19.761152474869583,-93.13132618976663,0.38904038012003556,-0.19459893004546946,-0.1467353364197201,-0.3693061196441701,-0.19256291108974435,0.008543631629009087,nm,0.0
81.67197608947754,-21.07985138832011,18.032106824327432,-92.58717231791334,0.5384515122613623,-0.3264739840830765,0.032701652463600996,-0.3690803851471447,-0.20132864672335637,0.03328738279844516,nm,0.0
81.6766586303711,-20.036369704592087,16.307963080575906,-92.0287459509867,0.7089229462310717,-0.4544041065153862,0.29074991248905957,-0.36561149992461767,-0.1920036663435779,0.0472192868478929,nm,0.0
81.68362045288086,-19.17856125753532,14.604122132480093,-91.57500426417299,0.863650413912291,-0.5651059945837414,0.6142317793007213,-0.35876145730392633,-0.1613163978728073,0.0421977090375756,nm,0.0
81.7208456993103,-17.787705992748382,11.579061070347906,-91.31221613263304,0.6654284526770197,-0.4725349192069254,0.7327938782377101,-0.29747845413277885,-0.15890319303753753,-0.03371965443961742,nm,0.0
81.72280383110046,-16.496723735692402,10.067921031593023,-91.80546450354477,0.40649166960474503,-0.14174987062796293,0.9512050150517227,-0.11392254572712794,-0.1012425847587212,-0.09270988250307934,nm,0.0
81.73630356788635,-15.861710048044701,10.194151530586597,-92.14971469906054,0.3301762606039685,-0.01729878707149921,0.9848350389533461,0.008405624349069832,-0.13248891170589705,-0.0943151105822193,nm,0.0
81.74046993255615,-15.495215856594593,10.9782606411063,-92.46653670512529,0.6436438338142514,-0.057076134478191806,1.3445813647939762,0.1413782358076386,-0.08487362038843435,-0.06858230255681895,nm,0.0
81.75076365470886,-16.115896437760334,12.381673737868661,-92.72835973406151,0.07029880947811926,0.0035345415949229303,0.6868514958609007,0.27369599045704773,0.10241782112116624,-0.01833166790394171,nm,0.0
81.77203679084778,-16.639910566608137,14.26552485587512,-92.9386170055221,0.2707201891619251,-0.1231767286215533,0.7599499229261485,0.36923403084958395,0.07687493739946379,-0.002796711364000322,nm,0.0
81.77361536026001,-17.686646789769576,16.413762746645002,-93.28300818750019,0.38604009150637786,-0.23405962270198596,0.571234068442341,0.428026425911564,0.17190467495006584,0.013606161145832173,nm,0.0
81.77789187431335,-19.26860785478751,18.6275219254229,-93.84967436976474,0.16032937863744504,-0.2117819740967696,0.11199543097568149,0.4487973308730684,0.267412735936841,0.011674336919488371,nm,0.0
81.78970646858215,-20.848571743206243,20.767794036451193,-94.6506429108463,0.4303293032808719,-0.26537689722938534,0.09050882889671448,0.43685925476068554,0.25910365484466985,-0.030435897083878446,nm,0.0
81.79802203178406,-22.864043133692665,22.687407513907505,-95.73554683686446,0.30781007897128315,-0.12380936900415557,-0.2299113117272287,0.4040878446028594,0.33262082557524225,-0.04404605560072054,nm,0.0
81.8265027999878,-26.688763228712457,25.826088355488224,-98.18576006844361,0.29279564956133763,0.024338952131745806,-0.4241446909927314,0.32766996702506274,0.28317237956013996,-0.06631723381720404,nm,0.0
81.83079504966736,-28.398173098271165,27.275403178738344,-99.11504112960866,0.04503286711633724,0.2595992916694038,-0.6027409478130009,0.3195798129950504,0.2541351966125883,-0.03974959890062172,nm,0.0
81.84865069389343,-30.57244347319197,30.066165973676558,-100.2513606105692,0.13722812316319413,0.3750134876298787,-0.38817612527429396,0.2893767139579506,0.11405232538635694,0.013676953805009143,nm,0.0
81.8583574295044,-31.320107622898608,31.436493135151906,-100.53247133075914,0.010957005433006206,0.5420869290937503,-0.4432170459289085,0.27970344200003266,0.0722683645167006,0.01777003941954302,nm,0.0
81.88127779960632,-32.292441869230885,33.53772990085306,-101.00541135388401,-0.0655226175849809,0.6384308653584845,-0.4516318643221503,0.1757037491100546,0.04252078001674938,-0.025555262395778745,nm,0.0
81.88500356674194,-32.701646926455794,34.058811687782146,-101.28979723851204,-0.14091340212476577,0.571187108116304,-0.4521023204490891,0.10202528973497905,0.04217809531177337,-0.056238006088302164,nm,0.0
81.90665912628174,-33.24802563859278,34.11650517801265,-102.13905382918338,-0.3267422715016077,0.5378752645966048,-0.4872440342810249,-0.032511025774764245,0.0347110114442304,-0.053063931452313626,nm,0.0
81.91207909584045,-33.167599001338026,33.76744956951519,-102.12570137135782,-0.36163434411752254,0.4617444142280983,-0.4146060469858971,-0.08464504129840175,-0.0029378414358705728,-0.01968841891750691,nm,0.0
81.9357476234436,-32.3985072564814,32.857057931917126,-100.95058702369087,-0.3172327711357436,0.4588461948405342,-0.2771443746369147,-0.12358193688458793,-0.06419777591696839,0.0919439826018473,nm,0.0
81.93964958190918,-31.78095912266763,32.28810165834153,-99.96188790065611,-0.186069135417854,0.4537651338087044,-0.23770634417716072,-0.14433963524977692,-0.08666393687321985,0.13843537613836934,nm,0.0
81.98057460784912,-30.001944585497153,29.624467156729217,-96.6421763753946,0.07209835956558346,0.3604951903834263,-0.32850042354668507,-0.2459406364983161,-0.07414074348383616,0.14665107488911508,nm,0.0
81.98243260383606,-29.44172259992052,28.260095655180283,-95.66166028454325,0.1409627882360577,0.23519180375621712,-0.38276972819560257,-0.2951193741473493,-0.0742944337598032,0.12810397352231084,nm,0.0
81.99695158004761,-28.792775457649284,26.68950261100746,-94.67586689245998,0.23960692824865576,0.08120690892430918,-0.40356896738834436,-0.336435851016547,-0.09284041417723382,0.11373769268159242,nm,0.0
81.99893164634705,-28.012485207386813,24.955840732439963,-93.72652519583364,0.3338783339305257,-0.058701678502443545,-0.41311108554710085,-0.3693143638500416,-0.12118159325730009,0.11438405818842283,nm,0.0
82.00706934928894,-27.056803880312565,23.09348122757052,-92.70712168618753,0.4783054047664447,-0.208316243739265,-0.3498505029651386,-0.39485651500071806,-0.160070741026471,0.12387930802692824,nm,0.0
82.03020691871643,-25.371076607211954,19.109094555305422,-90.59937573424206,0.618072237341543,-0.3873415796909213,-0.0528801346616555,-0.4211248468551059,-0.1312678426324207,0.15553227453168797,nm,0.0
82.03557848930359,-24.3625083373813,17.036875432569246,-89.70026498647424,0.7890449993333365,-0.4238829127806673,0.17009347087862858,-0.4278113953008787,-0.19808498120971643,0.11525251458452856,nm,0.0
82.0583221912384,-22.56467851152172,13.080103092360888,-88.86930157300326,0.9581168397076418,-0.2665641243160648,0.5992212534272897,-0.3906281801150927,-0.1503949755052196,0.005868873648852531,nm,0.0
82.06351661682129,-21.611966996711946,11.528828818140337,-89.05853531529431,0.8673751458059845,-0.09693525516680895,0.6900797279791959,-0.31947466727420637,-0.19934110747152442,-0.08051811428658753,nm,0.0
82.11225748062134,-19.620144918997347,10.194888712492794,-90.25070331534408,0.502070092228734,0.11267858794996564,0.8990377786846765,-0.07792982061956245,-0.18294951355573746,-0.1866787590153102,nm,0.0
82.11562776565552,-17.110229479920733,13.219022227828056,-91.91536813196113,0.13237553727989862,-0.14840106773483472,0.7488461023105943,0.2989483927924156,-0.04081260876402805,-0.11417309033256905,nm,0.0
82.12916946411133,-17.122336193023436,15.10489123982114,-92.2398674512437,-0.09479572145665208,-0.21518453321701517,0.5031429915130005,0.364901388163585,-0.017311048665135633,-0.08691517928460693,nm,0.0
82.1349573135376,-17.290673911805158,17.086665448206926,-92.63172418329796,0.26246972928702117,-0.3565769832007611,0.6642644786227311,0.38522936317458234,0.009553244569550015,-0.08133523087459414,nm,0.0
82.1401309967041,-18.45436768187149,18.96365350310517,-93.40782472861889,-0.07983137694303966,-0.24327753149385922,0.15892758184099215,0.3745072251413508,0.19514550710714543,-0.05977047288357901,nm,0.0
82.16604232788086,-21.640654187088266,22.19925693644709,-95.7031054453717,0.18481685396144548,-0.09427057704308173,0.039784342791134825,0.32158893370199937,0.30684883421887454,-0.09695068531846386,nm,0.0
82.16806221008301,-23.855580846434528,23.519016864580173,-97.06706972410423,0.012937843938937703,0.0964833556047897,-0.22366848621190139,0.295300236918083,0.37122453665407007,-0.07995507249711782,nm,0.0
82.1780252456665,-25.89852910750027,24.75924560603994,-98.48208721733161,0.21053292938304294,0.054629954753806144,-0.18448763223059972,0.28402165934618695,0.33060069906381157,-0.06686670878192351,nm,0.0
82.20145559310913,-29.660550273963736,27.530913992914996,-100.52885530553758,0.06762426921363834,0.30452007725009833,-0.49861639192522555,0.3236862882202605,0.2439769605074611,0.020408172360746803,nm,0.0
82.20966219902039,-30.84262617194427,28.977000618668487,-100.9203951150964,0.1810788263032606,0.32075855664268316,-0.5222342395995293,0.30994117363826207,0.14602810565320026,0.0456464702436598,nm,0.0
82.23199129104614,-32.251200125059874,31.51684066102125,-101.24837551363339,0.07125077144415326,0.5143777262974657,-0.6165098910997908,0.23216650548520434,0.03621038348792152,0.0318546933239589,nm,0.0
82.23517727851868,-32.517765226748246,32.285067953742974,-101.23510363009028,0.04000852732506129,0.5334551181544056,-0.5875512023304068,0.1462547589724395,0.009923380700289938,0.0006046902746107856,nm,0.0
82.25966382026672,-32.57078654829982,32.59274941593346,-101.41622029094196,-0.12092683029164052,0.48191140429617924,-0.4485926846430388,-0.020494745529325648,-0.015553739876257777,-0.052171903348035634,nm,0.0
82.26502990722656,-32.37588047011827,32.317480644169535,-101.50605899264609,-0.22600893133213956,0.48374808383775003,-0.38608595855963257,-0.07403536198096343,-0.025966843635397575,-0.04135056694793126,nm,0.0
82.28565812110901,-31.4207032714252,31.44213332148066,-100.82294827421777,-0.24179153243501939,0.44818182627894043,-0.22759814772702155,-0.12196648040315305,-0.08095176020105133,0.03954368862359667,nm,0.0
82.29500460624695,-30.768514128238866,30.951161401262425,-99.94201253270275,-0.22217868150145584,0.4550300409332412,-0.203308690849308,-0.13015083529200205,-0.09710390148541193,0.09204360713875959,nm,0.0
82.30277156829834,-30.041288543295384,30.378139231191366,-98.89977685938702,-0.14908141900763586,0.4237839009892539,-0.1947199270076189,-0.14696857257565032,-0.10986395448247822,0.12726549567740184,nm,0.0
82.3109176158905,-29.34073553223746,29.662212073997978,-97.82590573954572,-0.041071144270080163,0.38084033033346315,-0.23231417501412585,-0.1727028011139475,-0.10457403508069821,0.1421657226831658,nm,0.0
82.32022213935852,-28.706778096059274,28.733445091271825,-96.82153995535538,0.03385887647435583,0.3231668748251614,-0.29948079662588056,-0.21170520187587116,-0.0916658937987456,0.13649967708879499,nm,0.0
82.34257960319519,-27.53498256812906,26.07603885640947,-95.16481892618805,0.21367855448450712,0.08624727542719786,-0.3861821021960891,-0.31387470627791736,-0.07992339557406214,0.10006085166769281,nm,0.0
82.34935855865479,-26.904480781532712,24.40424765329293,-94.44996899309498,0.3075878610022385,-0.043057819116051006,-0.39352664342258387,-0.35605880798637535,-0.09176721270018015,0.08679903430091322,nm,0.0
82.37142205238342,-25.33882432308621,20.615370278597858,-92.94124261332963,0.7160034136477627,-0.3651704606980117,-0.08120000903388634,-0.4112087217805468,-0.13574177211761787,0.0925466350561855,nm,0.0
82.37968254089355,-24.806840496369595,18.62736890195539,-92.19018163323136,0.7115460054557696,-0.43096051514380534,0.0486365022725917,-0.4148463291143827,-0.08901937676316517,0.11239400409944042,nm,0.0
82.38774538040161,-24.15842683368033,16.62648468794553,-91.51118652704577,0.6308798083956784,-0.42801539714914527,0.10753327320867304,-0.4170394380559754,-0.11752329969259943,0.09453419220402888,nm,0.0
82.409991979599,-22.26816575880824,12.759995988024198,-90.8298538442023,0.9461246412419431,-0.2833135791833084,0.467589209852653,-0.3886486921746067,-0.16102039391373393,-0.008557908770778106,nm,0.0
82.42392015457153,-21.259563998288638,11.209708106063493,-91.084948023151,0.8058851565274446,-0.06576950902379186,0.5198802048081904,-0.3262047293469976,-0.19927094133562093,-0.0950189940715299,nm,0.0
82.43940210342407,-18.89777692434865,9.489081290721462,-92.55830206569114,0.4801281473402427,0.2015578833564985,0.7617785880584887,-0.14110874975544294,-0.22191386637358676,-0.21106480730952815,nm,0.0
82.44405221939087,-17.596772616399047,9.505558808847232,-93.42569566303352,0.1854742464375273,0.2059016307574772,0.5888227911440642,-0.022843891695927602,-0.26310071800596335,-0.21921510603914118,nm,0.0
82.45398354530334,-16.049583963128963,10.109053547106368,-94.05873021454047,0.5727123440347229,0.007497341543599971,1.032650290651066,0.08808625960795342,-0.3185715271811057,-0.19581876213363436,nm,0.0
82.46356916427612,-15.558180768182382,11.125517147706942,-94.65408928121282,0.18035096599972766,-0.09225136123654812,0.6701954120674792,0.18275875619432355,-0.11788756258031412,-0.13040691181141403,nm,0.0
82.48746824264526,-15.222007807106346,13.6927371239861,-95.53260545020817,0.24603287853117511,-0.2753358042737684,0.6437644921166532,0.24957914516374632,-0.05883426604680031,-0.08297744701486899,nm,0.0
82.49588680267334,-15.975935053318043,14.953252907760449,-96.20898505013484,-0.058751398212906245,-0.09879768701188014,0.16022820584583497,0.2532272641875535,0.11405929849026038,-0.07738013281350374,nm,0.0
