timestamp,roll,pitch,yaw,acc_x,acc_y,acc_z,gyro_x,gyro_y,gyro_z,markers,motor_input
105.01429009437561,-33.7094071988518,-8.847112526681533,168.81927121956383,0.052520172721052555,0.23408927190079357,0.039398730389226,-0.3813104286835393,-0.39062871550674627,0.00473111142104367,nm,0.0
105.0255274772644,-32.52283678670739,-6.274808417058163,168.8717755998462,0.15298272281673406,0.184810651318144,0.054031606406887776,-0.33474794126900836,-0.4468099378104444,0.012031878606387283,nm,0.0
105.04392957687378,-31.00806535459676,-0.7023729355275088,169.49342268362912,0.5031093064181285,-0.11563240859403609,0.08687662634753501,-0.23599392322618232,-0.5205534292126647,0.05353420218759634,nm,0.0
105.05217099189758,-30.56296212476665,2.0863837195270856,169.97141645590358,0.7854069327913525,-0.35190631599979794,0.14875102043263624,-0.19185614578444096,-0.5203513741617415,0.07102819885534323,nm,0.0
105.07235336303711,-29.96330863369908,6.586345842665762,171.00290974634243,1.4554269463449476,-0.8096991767766133,0.5100036966864829,-0.12573252972955656,-0.37219052719891765,0.09288596913027021,nm,0.0
105.08298420906067,-29.64822191247595,8.053631691641069,171.32730463107794,1.4782649323653565,-1.0351569128812306,0.8886161098972624,-0.11252213180560147,-0.2673710642002234,0.05710416236716853,nm,0.0
105.10605597496033,-29.041500300047087,9.07563553452086,170.86234963783394,1.2566001864426382,-0.8041319752498486,0.7667077284565437,-0.06436547453985456,0.00857865323641629,-0.08944161749949052,nm,0.0
105.10777139663696,-29.039396518606186,8.123743290078071,170.2428277165369,0.6142645186801213,-0.7280815998903836,0.9755770495819506,0.025584326426106987,0.20153275572151025,-0.1240480054803123,nm,0.0
105.12858462333679,-30.29225906179565,4.4659209384667236,168.7726394832159,0.1154049030821796,-0.20807214759683348,0.6323560941887678,0.23039727053298176,0.4011111564662623,-0.11576616273969702,nm,0.0
105.13606667518616,-31.36785675080092,1.7438411524916786,168.59311472624023,-0.08783110519391518,-0.07567338613433934,0.5905283231321322,0.31298143929085553,0.505779458193811,-0.02291687360323553,nm,0.0
105.1578323841095,-34.30269521418695,-3.7631946018802362,169.24588228599015,0.10300862986334032,-0.04890366189333034,0.3054314021460275,0.4123222716539089,0.4785196694591275,0.11193133732147874,nm,0.0
105.16439580917358,-36.109848228147534,-6.374479676022328,169.92491744460193,0.20078350469743775,-0.08329489691352066,0.11528379911323454,0.44514235594571105,0.4613207719511063,0.15513060319429284,nm,0.0
105.18843483924866,-40.012051400772236,-10.789598645946509,171.1671323683701,0.20398228107929364,-0.11912222386720073,-0.3639067837648995,0.44644442896843467,0.35217676807102677,0.07608285798857646,nm,0.0
105.21293330192566,-43.64700242573506,-14.294369989598414,171.64052939428174,-0.25917245376595266,0.02615385282793038,-0.624051711332831,0.3763684482887345,0.2925763293125788,-0.032913659937269926,nm,0.0
105.2149167060852,-45.0832029050095,-15.663803194192687,171.57534240835795,-0.5161359594891696,0.1399471773101398,-0.6735841323382018,0.3107763950323309,0.2429137398148452,-0.0722704045513798,nm,0.0
105.22528052330017,-46.17852211284512,-16.76177905627098,171.48811337125568,-0.7442561373631624,0.2711999513566394,-0.7166700915177465,0.2367348407468045,0.1986075896577344,-0.06820384049840597,nm,0.0
105.23174118995667,-46.92528979431989,-17.59901708119695,171.55412321555463,-0.9244105427112318,0.3051056574589887,-0.6645182049375771,0.1621219904393093,0.1569089138470249,-0.029332676844944196,nm,0.0
105.24059700965881,-47.29126689233877,-18.087838212812187,171.70041415612346,-0.9802736162832751,0.3404390072544642,-0.6578009476140552,0.07943033442428694,0.0987707489238698,0.00817977487828767,nm,0.0
105.26618337631226,-46.77234141754056,-18.143303237398005,171.9889074119304,-0.7421510004669352,0.3450988612875172,-0.7082165976360568,-0.09428342936887402,0.0065240373519837745,0.07213382938638052,nm,0.0
105.28101801872253,-44.57012511858417,-17.2930221465646,171.85746104136808,-0.38965600539648143,0.2696631292410349,-0.5608442751679811,-0.26795606056616506,-0.06002026577484756,0.047053668049412335,nm,0.0
105.29045033454895,-42.899979231468954,-16.548052217834588,171.5105174008124,-0.28646406303159944,0.22094625562853482,-0.40404892145265503,-0.34221351807459355,-0.08915372969432153,0.012860448662857411,nm,0.0
105.31036376953125,-39.10492312029702,-14.235115392133174,170.16543083356976,-0.29156230448043124,0.16819511043089824,0.0017375761257590143,-0.41443645757304687,-0.18817947397348667,-0.06555537173214034,nm,0.0
105.34062218666077,-35.78382171748972,-10.60058953293204,168.90591581321627,-0.2843428115260068,0.20285331582774196,0.16537955782376798,-0.3749305357584134,-0.317101382410036,-0.07260723136810915,nm,0.0
105.34258723258972,-34.48783366260768,-8.356615792370011,168.60399179848832,-0.17919015190507506,0.12518129800205371,0.1792097639652295,-0.34250640798356363,-0.3779796329049718,-0.051075168120896616,nm,0.0
105.34976816177368,-33.46276124780313,-5.900644679611387,168.45472040954758,0.01432310091065625,-0.0034933416128277027,0.14254742775561843,-0.30139569553158013,-0.4284155741213448,-0.031779404184544044,nm,0.0
105.36302375793457,-32.69196544939521,-3.3651885385122227,168.47847069317234,0.32975585194670776,-0.23783670500666645,0.16085479540875197,-0.2562092202539181,-0.45360466696199253,-0.01630835991088262,nm,0.0
105.36487579345703,-32.15672352863685,-0.8821669366851413,168.6470801311151,0.6593462015718178,-0.5356814006277846,0.28629464457677,-0.2074939041906062,-0.45298296960321277,-0.004592304856640741,nm,0.0
105.38740253448486,-31.442334364411007,3.3208242251880113,169.19206376657436,1.3532423890195762,-0.9243632650982729,0.5721314122378558,-0.1490312750586428,-0.34967126897393674,0.03813956964684582,nm,0.0
105.39526224136353,-30.90462405991116,4.789606623109481,169.43377966809888,1.451817472795974,-1.0151278374150496,0.6773100599720288,-0.16520223799166545,-0.2556015204466844,0.04167430198961842,nm,0.0
105.4011013507843,-30.309671680100926,5.776620381821322,169.41075210691787,1.4237412741472826,-0.959622676462215,0.7730408286378059,-0.1581029858720135,-0.15891606478725223,-0.002029102527360629,nm,0.0
105.42381644248962,-29.161955331346675,5.06780560420952,168.54279629216677,0.986701845064894,-0.531660117307327,0.7596735378376317,-0.07725822260024041,0.211116236664677,-0.13026953276562964,nm,0.0
105.42965269088745,-28.938695025156633,3.2287957838853067,167.352873627078,0.690476933780608,-0.28250567708482255,0.7679344222599997,0.029345754316138718,0.3830646853201359,-0.20122012766338138,nm,0.0
105.45423698425293,-29.684053104509204,-2.4973617574358324,164.79394039448414,0.44091612641783723,0.0598978915148527,0.7793946404711333,0.2701484647512053,0.596916768654363,-0.2299716200513821,nm,0.0
105.45790982246399,-30.838085795768865,-5.9115204190178705,163.70903197518703,0.41569110312370355,0.15544906717900436,0.7406824471745581,0.40537135235359784,0.6082521784765869,-0.17583808687835184,nm,0.0
105.48134350776672,-34.85885938975242,-12.05624141610448,163.11151669856298,0.5497132337623478,-0.11125944048952068,0.43295751218773143,0.6017604963873824,0.4359181038518211,-0.05486302198842816,nm,0.0
105.48939204216003,-37.66305469872889,-14.500119458745887,163.38593415235252,0.5181516952405316,-0.41741833555319885,0.17773657448150382,0.6619931881959391,0.3235977674973966,-0.04240117527805124,nm,0.0
105.50988507270813,-44.125624032632906,-18.459010777127226,163.86355447630072,0.07093728687346003,-0.36461205053514495,-0.5447947922012893,0.7020663964837461,0.19847385157234254,-0.14526744923736093,nm,0.0
105.5150306224823,-47.15186671916674,-20.258747514221337,163.67507154427142,-0.28880969318340366,-0.3115945477158491,-0.7357978890609552,0.6479280798965995,0.1981144740997541,-0.21574711977191172,nm,0.0
105.53655076026917,-52.607387665661506,-24.221085770747393,162.90067333382322,-1.0103524650543236,0.13925851990701468,-0.7350871944877972,0.5913585220388489,0.25876061257617056,-0.25715742173839184,nm,0.0
105.54422640800476,-54.79427620470748,-26.145902016078644,162.72748867601555,-1.1380442554953454,0.6649241744095542,-0.6487144729672039,0.49215521053980077,0.2619997283442668,-0.19340395922887932,nm,0.0
105.56297898292542,-57.14488448252367,-28.888477721141555,163.7717599884272,-1.2970891058008536,0.46793630758213167,-0.6062839347776411,0.25261223411558775,0.17639540728373865,0.05184555138047347,nm,0.0
105.57679104804993,-57.6633071318462,-29.49769114090193,164.65493982796426,-1.1296989376756505,0.6238866553420913,-0.6359055651030057,0.12028805352848812,0.10336219438847603,0.1656266817716866,nm,0.0
105.5967435836792,-56.41232196471787,-29.433676983233884,166.5102517063344,-0.8186520802813977,0.4499381394483206,-0.6540793208203614,-0.15621201325625036,0.012010252792616279,0.30302993649075866,nm,0.0
105.60222482681274,-54.70053836842222,-29.07271029903439,167.17281758223243,-0.7047937652585139,0.6273423621286903,-0.594607387666652,-0.3085996666819544,0.00919260807850371,0.33414899126695347,nm,0.0
105.62411403656006,-49.147828937436586,-27.97380733873841,167.6711796335717,-0.7040559487686402,0.04185520591292097,-0.12981131455887965,-0.49839789059922784,-0.0039062509602130115,0.3024803009567852,nm,0.0
105.63046288490295,-46.547571166158846,-27.121084119376793,167.66609755248882,-0.5986228130575606,0.8045397010295127,-0.05547307010258507,-0.48931607222626233,-0.05606390372354166,0.24742271465085364,nm,0.0
105.65066051483154,-40.878320588380895,-24.414638288729584,167.97315631804602,-0.4488068984862728,0.432612977028795,0.27052347739682886,-0.5104029716828767,-0.18770149789258053,0.2583463643091246,nm,0.0
105.65831518173218,-38.920636477156044,-22.610710924537443,168.40111846568,-0.27599362285670426,0.7594508402172123,0.12602511608087713,-0.42864767905961937,-0.2674364743684025,0.22877664025275596,nm,0.0
105.67820596694946,-35.985147815587204,-18.502720876016767,169.3488614736072,0.05437592647640166,0.4500090719710812,0.035883283891747476,-0.29499533441231923,-0.3611446037363068,0.13080843799802663,nm,0.0
105.68875646591187,-35.07591222444317,-16.31171658044168,169.474720579043,0.22248909148993634,0.37840747884276066,-0.1117969201824402,-0.2548092190663467,-0.3866160540623916,0.044625794104624604,nm,0.0
105.7094235420227,-33.896094964192386,-11.965095024729532,168.72221331480063,0.5418111342945218,0.03370778009465416,-0.2293086861303137,-0.16572973888109496,-0.3936908915385915,-0.12343424445221446,nm,0.0
105.72858548164368,-33.20084539997389,-7.721304526664148,167.39382290878268,1.0196313586952375,-0.713042194272855,0.3076702792523388,-0.15182494129791763,-0.3901721495246654,-0.1563343861112251,nm,0.0
105.73814821243286,-33.05073527414176,-5.629680965287174,166.89086186489175,1.500828276638699,-0.8360399536755275,0.4478083980098735,-0.12583475567884053,-0.3883414030843147,-0.1338146293161908,nm,0.0
105.74696612358093,-32.58246151099839,-3.7874094795959885,166.55208697634498,1.8879697973592633,-0.867468418007074,0.499581502611848,-0.1795314371547971,-0.3241457386714585,-0.08296475120755706,nm,0.0
105.7646553516388,-31.251647499260162,-0.3555010137734553,165.3646033371446,1.5085273973660522,-0.8463265257326071,0.8932132526032786,-0.20147812664105946,-0.2994090587394318,-0.17915322478639795,nm,0.0
105.77173233032227,-31.002561667616117,0.9046822098943835,164.35461840374606,1.2664064850276782,-0.48861054699380824,0.4951965488699629,-0.11767291062386998,-0.21681670851321494,-0.22298867467089994,nm,0.0
105.79340291023254,-31.538183888883893,0.5838219217749062,162.1863291911106,0.4681173141208595,-0.29971854937327697,0.4797634116492839,0.11577495051617193,0.0913373176853773,-0.20341346445605488,nm,0.0
105.80099248886108,-32.63091369876133,-0.6933520440058438,161.041793323653,0.25755385553802385,-0.2905250401854826,0.3713140490723936,0.2855248247768087,0.18727887011968414,-0.1977213709262274,nm,0.0
105.82421398162842,-35.71852100669071,-5.38947744872554,159.4569867457206,-0.3269360888651593,-0.24537049782991083,0.15635449231318027,0.4772699666732646,0.39494849569058116,-0.11489126870091405,nm,0.0
105.84163403511047,-39.80482004274631,-11.623201122372482,159.67333408249058,-0.30370007234557433,-0.2423742360633917,-0.012180835378288497,0.6082351904419859,0.4780729163260253,0.03853232202712183,nm,0.0
105.84844207763672,-41.74321549599277,-14.68796653285983,160.48528236800104,-0.27700202261624574,-0.5276500493739789,0.0052191798318667925,0.5629251967039536,0.4608714981852693,0.09907101550062149,nm,0.0
105.8762104511261,-45.615286074686956,-19.471190249808384,162.37184579755527,-0.18977453632918811,-0.33306919379873745,-0.37799155864589573,0.4711097216191155,0.31492529353624993,0.11685409221168432,nm,0.0
105.87786722183228,-47.150478650106436,-21.12569786427341,163.26728912884124,-0.4067350311662556,-0.29050281929837435,-0.41812521478754444,0.37187714566198377,0.24340347287936182,0.10156316638420815,nm,0.0
105.89524459838867,-49.26145185468213,-23.212808181374644,164.51020286241845,-0.7756951510643304,0.2619812245850326,-0.5643822753348882,0.19960537255271826,0.14387013413860394,0.06518673910037869,nm,0.0
105.90587067604065,-49.650772631522436,-23.912647958258653,164.97984565378752,-0.9314724127417723,0.3341603414137286,-0.4565803736001617,0.10433787059291368,0.1283341768273487,0.08389674841938786,nm,0.0
105.92783451080322,-49.06317369914055,-24.649499158678143,165.59430465807185,-0.8826583016720732,0.4935362251578618,-0.3786884829464441,-0.07871297590938917,0.08778126452811871,0.1271213152165391,nm,0.0
105.93407583236694,-48.239064547432704,-24.728892190681364,165.89550846265374,-0.7614421028020746,0.47073519358192173,-0.28972008744469124,-0.14307139139783798,0.06449539392466148,0.14933019061371483,nm,0.0
105.95426034927368,-45.832018382921056,-24.033152883831796,166.16611076165927,-0.5247980298595623,0.3810517362462645,-0.17957323446311596,-0.25591981659368707,-0.030447164083091567,0.13067304033098137,nm,0.0
105.96383881568909,-44.4859205534096,-23.220946609758254,166.07864626394064,-0.4505707901640283,0.39460168066967344,-0.14345634157168172,-0.2808872993444483,-0.08615649998497717,0.09745635299377786,nm,0.0
105.9868733882904,-41.811569462781804,-20.702620257430983,165.53758750342018,-0.46285452716108755,0.38620112826061626,-0.02277903335229351,-0.3106615271588475,-0.20194769056919806,0.022630511991819684,nm,0.0
105.9941086769104,-40.5743259539907,-19.00861940130587,165.1768985855132,-0.4588830863866243,0.3965828168175396,-0.03304867395591427,-0.3135412158326543,-0.2566023374102389,-0.0049555588616731205,nm,0.0
