timestamp,roll,pitch,yaw,acc_x,acc_y,acc_z,gyro_x,gyro_y,gyro_z,markers,motor_input
28.522923469543457,26.225683352747613,-14.827210774443985,59.533361746193684,-0.4636637782327913,0.5073762691694785,-0.8849023724959247,0.2782198396462496,0.015267343122746233,-0.16454078620775411,nm,0.0
28.532975673675537,27.430924286667185,-16.76066693334245,58.8500200477269,-0.633601079166685,0.7810009604488537,-0.7536735272870511,0.1957964467599034,-0.03510696533803299,-0.06605254340317074,nm,0.0
28.549349784851074,27.437090508070263,-17.593190842249818,58.97857942449105,-0.6443874545823526,0.9885954363634526,-0.9188484008252789,0.1553311044793642,-0.08020133161465004,-0.027327087146235402,nm,0.0
28.552406787872314,27.313037161408687,-18.39200721868184,59.198188449090054,-0.7313657480603505,1.0950113098109802,-0.6972094234977172,0.13709288000254274,-0.09755752763261658,-0.0068278671373506695,nm,0.0
28.57842445373535,25.606097348351515,-19.555473243417918,59.75559035592423,-0.7390030651917335,1.1328649386720275,-0.780690730896869,0.0034570737612727677,-0.21352406650629976,-0.09101792164075559,nm,0.0
28.58393383026123,24.355203376236332,-19.956859153359122,59.942026573272436,-0.7832107211520362,0.9932956935456322,-0.6166494221424448,-0.0357806522049472,-0.23975826156679736,-0.1387833762382186,nm,0.0
28.605764150619507,20.63470131805421,-20.21762263811664,60.316765557772634,-0.7297637966271442,0.6978813165573189,-0.6650433089493666,-0.16916337386315441,-0.32815489133333914,-0.17849061554962492,nm,0.0
28.609740734100342,18.333328116609092,-20.040585407063215,60.83782492841072,-0.7207854220163749,0.5301253341857332,-0.6526741411129222,-0.22937441506941636,-0.3561840705646836,-0.1386717560699748,nm,0.0
28.635452032089233,13.082637689706742,-18.849627920199794,62.93503268079327,-0.5771591832314121,0.2874907342974665,-0.6001252860719158,-0.35360332397715494,-0.3756665347443464,0.007857777629627463,nm,0.0
28.63871192932129,10.447649998669048,-17.84106925558535,64.39951344566444,-0.47631493865762753,0.14100067251069257,-0.5374959867017027,-0.3891994688988981,-0.3561764107336184,0.07806821620779565,nm,0.0
28.668073892593384,6.189279046216367,-15.193544391441876,67.43902438990068,-0.1729971551120665,-0.2708611881235134,-0.16793491689819973,-0.3927676597434309,-0.21772319152853997,0.164141619211756,nm,0.0
28.67173147201538,4.950122515895619,-13.588514562540466,68.72415446641249,0.04104656747224829,-0.5232391426334118,0.10283340020394313,-0.37459338812404636,-0.09900033227954376,0.18696297856872907,nm,0.0
28.676716566085815,4.688225566454935,-11.881305776350233,69.825680788431,0.3953395977114147,-0.7547790470703076,0.11814371479643082,-0.3246571246191671,0.07744826088714059,0.21253739510222142,nm,0.0
28.685587882995605,5.9103431308898955,-10.248505680596281,70.68771839780874,0.47965608398476717,-1.0139781320947723,0.9562256132523048,-0.21315425869003182,0.34119419711808774,0.2489209216462985,nm,0.0
28.695005178451538,7.697070874966297,-8.837374162564943,71.35011974289407,0.912319685052219,-1.054001118319342,1.0944350413725652,-0.13907229686059275,0.4302885096710373,0.22297880965765515,nm,0.0
28.718278884887695,12.945706482326095,-7.3764841663234115,71.82990499410916,1.5391474685383064,-0.8397265222151271,1.605537659385419,0.11179993130837432,0.5738070689707134,0.11234903776293492,nm,0.0
28.725058794021606,15.379856438334448,-7.68375014345374,71.63286400097944,1.8160205360131796,-0.8801708364103377,1.6580408791640748,0.22152219028428305,0.4445535152451847,0.011451526479786851,nm,0.0
28.748712301254272,19.259440536468567,-10.316329455209617,70.28218151864586,1.340872010728968,-0.9637762755873258,1.3026623017935401,0.4153536468184319,0.22941116489282806,-0.12688502346946276,nm,0.0
28.75210428237915,20.152533185570285,-11.83007962247756,69.56883134960232,0.9213254428491968,-1.0213128077714781,0.6566205108667722,0.3563235173146893,0.06675448408467982,-0.15618533736202647,nm,0.0
28.782660007476807,21.14656328672179,-15.027049962874596,68.3558338142627,0.09152847979836787,-0.8044302552274566,0.1677762757172141,0.33929762571412253,-0.03961482085306535,-0.14453695495612034,nm,0.0
28.78438401222229,20.965730262482438,-16.2110630282786,68.13013868723652,-0.10238935590916104,-0.5905322354804572,0.1691757798570651,0.21937144204493247,-0.1140108457859313,-0.13475813497108893,nm,0.0
28.789594888687134,20.517646326582398,-16.96893281134072,68.02427882952244,-0.16468436333505115,-0.033146155256138586,-0.7433696176055502,0.12094566947224673,-0.13045970282455333,-0.12937191406931764,nm,0.0
28.816518783569336,20.59178284321122,-18.37517426867305,67.12990824090457,-0.4967383699846265,0.6864343500548589,-0.19284234597354785,0.13054726422651777,-0.07019832083026693,-0.1803303275096613,nm,0.0
28.818238973617554,20.313386846001382,-19.031740312573884,66.29359276986786,-0.44922699073273875,1.0212568415883772,-0.6372332848913796,0.11215517030471324,-0.09488421696668031,-0.23186782578161125,nm,0.0
28.846282958984375,20.27740568925361,-21.772353128006063,63.00025133502524,-0.7735551163022327,0.9320978733565788,-0.41022046692253983,0.1554836711869625,-0.10515634452786612,-0.27727138979999727,nm,0.0
28.87404751777649,19.6041143881335,-22.79035282675963,61.20857639088432,-1.0064713848326932,0.8173558507129591,-0.551152680755994,0.03586172547179966,-0.11293056628890401,-0.2437440090747523,nm,0.0
28.876147747039795,18.791945132691236,-22.87306464857864,60.5433847646933,-0.9835270696806172,0.7717766238398609,-0.4464585263048746,-0.04538105812467602,-0.13477529685738854,-0.2334628013434752,nm,0.0
28.885929822921753,17.586623408668387,-22.61225485535767,59.86392056396974,-0.9472287865699243,0.7442752527623981,-0.2392168757015659,-0.14299571301259006,-0.16311046427794496,-0.2166302001185837,nm,0.0
28.91057062149048,13.742293026294604,-21.539987754606578,59.60578183860076,-0.8274862053457249,0.7918874554248522,-0.15865987573455195,-0.2823126705748043,-0.28284046609103014,-0.15694883790496755,nm,0.0
28.914027214050293,11.204137468972965,-21.042791074466113,60.04704490749953,-0.7630470113760178,0.8392349460870391,-0.1194601243299727,-0.31047540791166917,-0.35625143455071984,-0.10418518749297662,nm,0.0
28.94059658050537,5.4325233581651045,-19.904135282911987,62.08363319706322,-0.6687798355646952,0.6381305032525549,-0.08150151671168938,-0.35340388574852666,-0.42354057556750985,0.034026647564234826,nm,0.0
28.946290731430054,2.726723171052434,-19.246868143717762,63.540719964834835,-0.6348241440878561,0.5014529467563207,-0.003465615988735546,-0.33642360078367306,-0.39098473002661593,0.10734727532668023,nm,0.0
28.967586755752563,-1.5048577334641997,-17.190557187372058,66.74970517540166,-0.12254708344449143,0.004965719182181259,-0.17406369844264785,-0.33297405219176296,-0.2091366860812548,0.21336308819226987,nm,0.0
28.981874465942383,-1.950081248654027,-16.055812059018617,68.10796248032094,0.1905116669439143,-0.4326252657470186,0.19731647684105608,-0.22877486198155092,0.012355509296692324,0.29220129754231067,nm,0.0
29.001766204833984,2.626645612436733,-13.927598947510788,70.44151538025507,0.4173146674700142,-1.276691260174112,1.2744770080444499,0.028626905713169944,0.6289329116040473,0.4327055261535216,nm,0.0
29.003334760665894,6.089179861022814,-13.413024472039243,70.9894128997767,1.0807451560538117,-1.4382986338862627,1.2316453838339538,0.14029902408172354,0.6742089357149598,0.33967042472632086,nm,0.0
29.011374950408936,10.35401558836838,-13.518830915872343,70.79509488989967,1.5845564369056386,-1.532262213993285,2.073802505396009,0.30650597194258117,0.7820046200513382,0.21538019439286657,nm,0.0
29.019056797027588,14.850264691522206,-13.967081836236394,69.75870658634202,1.8634443164183954,-1.4575996727865088,2.1044789977554696,0.39380309687247467,0.7971256376609268,0.059084673095429176,nm,0.0
29.047101974487305,25.967059986252742,-17.004526990641597,64.59479043748365,1.4948433948060345,-1.045598825443142,0.3291710283796206,0.5081695568333103,0.4575403882572211,-0.19101373105936437,nm,0.0
29.071146488189697,30.137336967948073,-19.40500888963645,62.71467153048772,0.6721634553801922,-0.6229414635067081,-0.3876159395645505,0.35589424555029253,0.1961966601968437,-0.07515038881180082,nm,0.0
29.07874846458435,31.37077285004608,-20.517317541111126,62.40842798594859,0.3281544403111544,-0.2791035743579075,-0.5698039812121961,0.3154342270480045,0.11040287884174765,-0.056580087364054135,nm,0.0
29.100376844406128,32.841031525706335,-22.131265721657456,61.81839730566098,-0.04771205519583972,0.10730222608319807,-0.46868415886911885,0.17544749483856542,0.0419968921681579,-0.12359130477014943,nm,0.0
29.10579252243042,33.08777162528813,-22.611027808297774,61.13110729089292,-0.1450324413958303,0.3089046941722461,-0.6716857577814277,0.11740206901152662,0.0009376730759824242,-0.22331508309576314,nm,0.0
29.129997730255127,33.84072947828812,-23.445944694908253,58.97882019214215,-0.3292040366640287,0.3641532351741093,-0.3963315205370565,0.11705443164061662,0.03751525465374222,-0.2741688261447228,nm,0.0
29.135639667510986,33.67431866572924,-23.810104746305115,58.07598536488033,-0.47000045707253413,0.43879109164763214,-0.6601318851641749,0.05794100658512808,-0.05813831586814421,-0.2787173713360789,nm,0.0
29.14219570159912,33.284126744666885,-24.321217542110023,57.565780267674654,-0.5495552661995398,0.4519662676886192,-0.7162255129485996,0.06063566722739899,-0.10900463602088845,-0.2216509268842954,nm,0.0
29.16597580909729,31.715889520399333,-25.247581982901274,58.22623952296832,-0.8762664192472243,0.3718504751202014,-0.5804430916894993,-0.019866911733038648,-0.19601024153770347,-0.06301517252904994,nm,0.0
29.191231727600098,29.426121339911298,-25.6666413667277,60.02438149506971,-0.9600592424808291,0.4448618368857719,-0.3627208058708839,-0.0685095565512483,-0.1821975018662445,0.015160674010140957,nm,0.0
29.19291377067566,28.23068816787751,-25.549063099371107,60.90598860391206,-0.8957988066820883,0.5595322433587194,-0.3547249125151434,-0.11448492373702122,-0.17068273154214297,0.008946802783804294,nm,0.0
29.216681480407715,26.058567663752374,-25.06200559256517,62.429916564257624,-0.662047128567932,0.7257811142443793,-0.2345134685600859,-0.1210847534868757,-0.14042071003728215,-0.005236208544160844,nm,0.0
29.239924907684326,23.615224983557628,-24.67631113718029,64.37396813471405,-0.434169376290686,0.6076229415651621,-0.28821652708812734,-0.11720719998570685,-0.18830712033408745,0.032780143039833606,nm,0.0
29.24159574508667,22.23686402430015,-24.580024740865127,65.56362832904796,-0.3689659920594098,0.43962883397058167,-0.2573734045232144,-0.1110481970443128,-0.21342757446144497,0.07361380546144838,nm,0.0
29.249964237213135,20.732056266530634,-24.43183768836799,67.04709506269838,-0.3306344147911588,0.2779178839801314,-0.2795018585260014,-0.12457921418472857,-0.23338209102658386,0.10873860055652754,nm,0.0
29.271111488342285,17.609696018240992,-23.801915356918126,69.99125019451704,-0.27508009672624,-0.02313851386810692,-0.3819087504819184,-0.1570781682226458,-0.2346883848076147,0.11273941960550539,nm,0.0
29.277709245681763,16.144277839255476,-23.32312816442853,71.20689490937063,-0.19999248902263814,-0.12029689688901678,-0.39730961400876247,-0.16721142316489052,-0.2157501130213262,0.08481571628645233,nm,0.0
29.30242419242859,13.604709254971402,-21.918358146149483,72.78200672284422,0.03615681038874835,-0.2881636934387396,-0.3066627479103371,-0.20192456249528967,-0.16028465038350806,0.03222153748509534,nm,0.0
29.33372187614441,12.134262943917992,-20.255321991279214,73.76004139779795,0.3119031403483828,-0.3686183690428934,-0.06668615496143505,-0.17189508580827975,-0.0275389089217621,0.07145808112651357,nm,0.0
29.33735680580139,11.606979352772749,-18.81252339030614,74.70526931029525,0.7617327964179718,-0.5049252944343678,0.04707316148611381,-0.1287301750700563,-0.009891813601816452,0.06860322041539609,nm,0.0
29.357914924621582,13.356815301524348,-18.055062963852098,75.056315172009,1.0345147344724785,-0.7874622545336154,1.1665913027017327,0.0038303711778736177,0.22443952072592158,0.06941750335508003,nm,0.0
29.36059594154358,14.69472880579418,-17.740807066401413,74.60488973840613,1.2685843720165324,-0.5285456237828758,0.7259745890291119,0.017980660740604015,0.2690125161313451,0.00033318846488207136,nm,0.0
29.386348962783813,18.643509893387282,-18.039436412382067,72.08407203547861,1.2632442876030514,-0.592193821118586,0.9370262434882561,0.19647863235602137,0.3418250012167603,-0.18482548258966383,nm,0.0
29.389143466949463,20.346952695399622,-18.688612917705882,70.17463129433706,1.2565134224142844,-0.5672755074426198,0.6373812230127633,0.2394598547690284,0.2704048238577488,-0.2740338278620797,nm,0.0
29.409040212631226,23.169449305705072,-20.25156050340297,66.5038567145608,0.611188930055364,-0.7645203576977231,0.14746095951660118,0.2605512992780834,0.15100613449611358,-0.2908594483100008,nm,0.0
29.424227952957153,24.003181270189565,-21.148612158338057,65.09807493125447,0.396715111946845,-0.6814431239082016,0.01168414308482693,0.23961470324315534,0.07489324289661267,-0.25953074087415523,nm,0.0
29.447245836257935,24.680371974188787,-22.21401631242223,63.50099464281531,-0.19317665215023985,-0.48372402607954307,-0.11103678453499387,0.10620483473036688,-0.012265736284790786,-0.14589316995995807,nm,0.0
29.44886803627014,24.163794503707635,-22.60993200149348,63.10050357510789,-0.13155394898795003,0.003479280918156158,-0.6145650806338452,0.0401404325336035,-0.11549487781880631,-0.1608553645876771,nm,0.0
29.457770109176636,24.04815010357502,-22.832950894934367,62.85968521109501,-0.35674312667802466,0.16720576196986717,-0.3098885081444389,0.04225220541142223,-0.033822191078319824,-0.08278759013065172,nm,0.0
29.483181953430176,22.860712559110816,-23.187843501275093,62.60413714964467,-0.5679820651427653,0.6739310064586025,-0.46999185566015017,-0.022514359687694097,-0.15846723159673468,-0.11430412770498558,nm,0.0
29.485416650772095,22.354815236476256,-23.436045519608857,62.71611879102267,-0.7328262540895671,0.7159214209380963,-0.16965442067978564,0.013908893653422601,-0.10017974897630562,-0.047824605600303195,nm,0.0
