timestamp,roll,pitch,yaw,acc_x,acc_y,acc_z,gyro_x,gyro_y,gyro_z,markers,motor_input
24.551201343536377,-3.5244551965809836,10.51358355607332,62.68158803617218,0.0010253143024555845,0.006726643410074198,0.034738784611044085,0.0,0.0,0.0,nm,0.0
24.55650782585144,-3.497475410240448,10.524868013766502,62.745935341809975,0.0008218075871345361,0.005336930573258526,0.027562517275034802,0.0,0.0,0.0,nm,0.0
24.579933643341064,-3.528570792050936,10.43665478465787,62.40699399467397,0.0008058089892128119,0.0052086015816095775,0.02708758306366954,0.0,0.0,0.0,nm,0.0
24.582033157348633,-3.5614569989843083,10.37996817701181,62.38047747499371,0.0007569019004126463,0.005026924626572151,0.02623194340042868,0.0,0.0,0.0,nm,0.0
24.605210542678833,-3.630771005950882,10.288383162209353,62.38443860637292,0.0009744368564283517,0.006884227722694786,0.03609298678571333,0.0,0.0,0.0,marker_3,0.0
24.60745620727539,-3.662762778761046,10.268525557764402,62.41687932618441,-0.012218699171231263,-0.018355153240043103,0.04097618664182412,0.0,0.0,0.0,nm,0.0
24.62905240058899,-3.6926467136757037,10.263098763590923,62.45322864888272,-0.012914940038261467,-0.02018641991613896,0.037628756759418944,0.0,0.0,0.0,nm,0.0
24.644434690475464,-3.7552161472686474,10.238229470535222,62.37908253167097,0.0007945149269523069,0.006156840077138316,0.03224233891205612,0.0,0.0,0.0,nm,0.0
24.646095991134644,-3.7957474170747165,10.202655947408845,62.314825319083816,0.0007470294008382872,0.005953960619078208,0.03122297574167273,0.0,0.0,0.0,nm,0.0
24.662984371185303,-3.847178440386347,10.149586003697022,62.2251412620022,0.0006600964051931297,0.0054647832078813996,0.0287272945092396,0.0,0.0,0.0,nm,0.0
24.67549753189087,-3.958296635039231,10.001795250042717,62.14998647270198,0.0005661988759026816,0.005274365007733052,0.027942722255423005,0.0,0.0,0.0,nm,0.0
24.69229769706726,-4.009254310420221,9.930135028756553,62.16140407129864,0.0004918896957550318,0.004910844528066425,0.02611641384298528,0.0,0.0,0.0,nm,0.0
24.69565725326538,-4.054990120143832,9.879436810658055,62.19375148577484,0.0004915719813435886,0.005242390602752039,0.027942205252424752,0.0,0.0,0.0,nm,0.0
24.716830730438232,-4.150080702665558,9.825870317324869,62.26360658383482,-0.011435164061088621,-0.016763290622783415,0.03593471618435174,0.0,0.0,0.0,nm,0.0
24.72011661529541,-4.196964821496099,9.804264365690367,62.2789090443964,0.00044504566822372194,0.005773587391799863,0.030773876093449486,0.0,0.0,0.0,nm,0.0
24.745965242385864,-4.2679164880159774,9.721635887341606,62.14401381136049,0.00035119747349955747,0.0050056996676375795,0.026790288666505593,0.0,0.0,0.0,nm,0.0
24.748586893081665,-4.292801171569248,9.658946007693242,62.09176244464351,0.00034453362428629725,0.0051802345289562145,0.027844560166715646,0.0,0.0,0.0,nm,0.0
24.788998126983643,-4.31977255387974,9.541189937626028,62.05507506275962,0.00032449955780671955,0.005389562921550724,0.02923101411563007,0.0,0.0,0.0,nm,0.0
24.790693044662476,-4.332035543882919,9.505199558733283,62.04647365622047,0.00031780142372377123,0.005492710127107011,0.029867168515695652,0.0,0.0,0.0,nm,0.0
24.7923846244812,-4.345787382239009,9.47939506745588,62.03531705489715,0.0003620998284881213,0.006487372524085997,0.03533317901307953,0.0,0.0,0.0,nm,0.0
24.796159982681274,-4.362004161403167,9.46246321130506,61.95175351807531,0.00036465934012975924,0.006609442606965624,0.03602732179233838,0.0,0.0,0.0,nm,0.0
24.821460485458374,-4.389194520200116,9.428378254255023,61.8555675870894,0.00028900683804962895,0.005444091656069693,0.029728876089926356,0.0,0.0,0.0,nm,0.0
24.830053091049194,-4.396765330890829,9.410769186888768,61.85582903550289,0.00024444981951625026,0.0047282454654490255,0.025850406731003677,0.0,0.0,0.0,nm,0.0
24.833883047103882,-4.396893657716735,9.401368890559453,61.8627450935069,0.00024382769499727613,0.004763651848888804,0.02606499070575222,0.0,0.0,0.0,nm,0.0
24.8433940410614,-4.3909492684665645,9.391844779761982,61.87267739983527,0.00027893270394589476,0.005453456476526579,0.0298720223264005,0.0,0.0,0.0,nm,0.0
24.85366725921631,-4.380671869778297,9.383527498470665,61.88065451506467,0.0003099554771983624,0.006009503681778796,0.03295707273779712,0.0,0.0,0.0,nm,0.0
24.877554655075073,-4.357032806853152,9.384853281391935,61.86899911015971,0.00031879147207794744,0.005911403017432841,0.032450952244969876,0.0,0.0,0.0,nm,0.0
24.885379314422607,-4.350658713292063,9.386288891357571,61.846414122658324,0.0003511358264273174,0.0063904606724798675,0.03508741928738438,0.0,0.0,0.0,nm,0.0
24.906545639038086,-4.354271057386616,9.407629857631976,61.54127580023663,0.00035548919045909463,0.00584349343472504,0.03202912256759338,0.0,0.0,0.0,nm,0.0
24.91030526161194,-4.359120274855121,9.419783301864488,61.50063032953927,0.0003635977253347024,0.0059016639100878485,0.032307927737434856,0.0,0.0,0.0,nm,0.0
24.936238288879395,-4.355569420122338,9.449620749551945,61.51862248996436,0.00029794596753056877,0.004743564226416619,0.025904671131055587,0.0,0.0,0.0,nm,0.0
24.939026832580566,-4.346712443763663,9.469019606511905,61.53928632587176,0.0,0.0,0.0,0.0,0.0,0.0,nm,0.0
24.97036099433899,-4.322802015993549,9.509527281173037,61.56091873410684,0.0003400322291646236,0.005048565890586314,0.027467965134293275,0.0,0.0,0.0,nm,0.0
24.972098112106323,-4.315544972972884,9.516269107404945,61.554289520914125,0.00037556656044283724,0.005492691917606416,0.02987716844646868,0.0,0.0,0.0,nm,0.0
24.97628927230835,-4.31192081412625,9.518428862485276,61.53942180219925,0.00034269529317132214,0.004963601858796731,0.026999171512839523,0.0,0.0,0.0,nm,0.0
25.00184655189514,-4.304990387522806,9.499049560442524,61.516285167995534,0.0004706034347478629,0.006791412669523171,0.03701625520531938,0.0,0.0,0.0,nm,0.0
25.00616216659546,-4.300521857909151,9.481400575993232,61.51926404210658,0.000463672352432648,0.0067259343689296735,0.03672290922761838,0.0,0.0,0.0,nm,0.0
25.030133485794067,-4.289707128533359,9.451629006505701,61.55769719870124,0.0003238749304402553,0.004760032106792117,0.02606841596380368,0.0,0.0,0.0,nm,0.0
25.049561500549316,-4.277590902989329,9.433735018735858,61.61348619768677,0.00037554678151545965,0.00556966730014653,0.030565122979362248,0.0,0.0,0.0,nm,0.0
25.05236577987671,-4.271562102885183,9.420478442605626,61.635734615218304,0.00036943674159064567,0.005510240928577011,0.030281676775983507,0.0,0.0,0.0,nm,0.0
25.06778621673584,-4.266992580150977,9.40214295843877,61.650683429711385,0.0003330006548816309,0.005010660428845594,0.02758574627014283,0.0,0.0,0.0,nm,0.0
25.073026657104492,-4.264039049848718,9.380650657682436,61.656953883404235,0.0003480868562681275,0.005294001005425773,0.02920434200861199,0.0,0.0,0.0,nm,0.0
25.0967755317688,-4.2730724866624605,9.332742258752573,61.65071567373321,0.00043827831120290693,0.006943616054333858,0.03844990459144707,0.0,0.0,0.0,nm,0.0
25.106047868728638,-4.286108556344654,9.31107482543683,61.643128749649144,0.0004292569769381234,0.00701360397037939,0.038888145968547866,0.0,0.0,0.0,nm,0.0
25.11313009262085,-4.306153890871963,9.29176102998309,61.63700162484986,0.00040364974399356815,0.006873584072430011,0.03814104836616187,0.0,0.0,0.0,nm,0.0
25.134461879730225,-4.3605288159893485,9.249381258508715,61.640062722336076,0.0002804501171292249,0.005387657205860385,0.029931066478752166,0.0,0.0,0.0,nm,0.0
25.140411376953125,-4.393848368705321,9.233279005210113,61.6497639615206,0.0002286320713504974,0.004739831240694427,0.026328063237225755,0.0,0.0,0.0,nm,0.0
25.164404153823853,-4.457933178750464,9.202158387917597,61.67786392692101,0.0002054018869193048,0.005043603324940762,0.02800746874877902,0.0,0.0,0.0,nm,0.0
25.167046785354614,-4.485199225996894,9.181300536215069,61.68615431681366,0.0002102795327097726,0.005642211452089966,0.031348985803880375,0.0,0.0,0.0,nm,0.0
25.17881417274475,-4.509322559366565,9.15288861967645,61.68585045698406,0.00019666379462848096,0.005799191060482133,0.032265549343514915,0.0,0.0,0.0,nm,0.0
25.19439387321472,-4.538403641459658,9.119006292121139,61.67394279914321,0.00016605203482221407,0.005521914307186256,0.03077307894690691,0.0,0.0,0.0,nm,0.0
25.211249589920044,-4.605414853822146,9.052307386018025,61.63600047206153,0.00013038103868831134,0.005963911093052659,0.03332823038105477,0.0,0.0,0.0,nm,0.0
25.214704751968384,-4.649439687285842,9.024388765579287,61.624330831160876,8.777128806583441e-05,0.005185634302736132,0.028990508681897332,0.0,0.0,0.0,nm,0.0
25.24658727645874,-4.733228161206291,8.996991710129334,61.642422177675485,3.8136364951492165e-05,0.004770761100765398,0.026630261737415718,0.0,0.0,0.0,nm,0.0
25.248351573944092,-4.764372252124024,8.983100456605603,61.6673147337827,1.965362438459375e-05,0.00468700909882339,0.026156436692944065,0.0,0.0,0.0,nm,0.0
25.253591775894165,-4.784929506909012,8.965112912074673,61.68932195018036,5.480703917737654e-06,0.004637764514417566,0.025897739871597856,0.0,0.0,0.0,nm,0.0
25.277928590774536,-4.8098463156687865,8.922813115066434,61.6828422964769,0.0,0.0,0.0,0.0,0.0,0.0,nm,0.0
25.28389573097229,-4.819122892026506,8.888743255650475,61.65325852814734,-2.6593192438781487e-05,0.005614237928550739,0.0315126709410146,0.0,0.0,0.0,nm,0.0
25.30806040763855,-4.837423540809398,8.825336030833162,61.545346508769434,-3.924744900628374e-05,0.005265166126184017,0.02969454599449993,0.0,0.0,0.0,nm,0.0
25.309895277023315,-4.837577850537293,8.801090769268917,61.51505919235333,-4.3126186271985765e-05,0.005327971416465872,0.030113559978525887,0.0,0.0,0.0,nm,0.0
25.335331678390503,-4.806456355955486,8.793492862094565,61.59173920435689,-4.130506352865929e-05,0.005856806269233361,0.0331748401397558,0.0,0.0,0.0,nm,0.0
25.33832812309265,-4.778331394162921,8.799602533354873,61.650849744547564,-2.7217435003919435e-05,0.005127432178002833,0.029066832667410666,0.0,0.0,0.0,nm,0.0
25.364924669265747,-4.701577603127813,8.811828390320764,61.69956170491397,5.966683633643373e-06,0.0048476327552678476,0.02755163001913901,0.0,0.0,0.0,nm,0.0
25.383578300476074,-4.631974636852392,8.808471330477296,61.652641642485406,4.244844528712389e-05,0.005233390225412657,0.029852845954284554,0.0,0.0,0.0,nm,0.0
25.386008977890015,-4.598745511397984,8.815048958629005,61.62898640045352,6.169845793972346e-05,0.005223328027066808,0.029825589809787254,0.0,0.0,0.0,nm,0.0
25.402717351913452,-4.562142453365799,8.824107258141302,61.62593134648234,9.039726037157648e-05,0.005802738159482278,0.03316548464559012,0.0,0.0,0.0,nm,0.0
25.40440273284912,-4.522886476945778,8.84283626603581,61.54105588360194,0.00014254300266538323,0.006641642646588063,0.03796901349362995,0.0,0.0,0.0,nm,0.0
25.43121027946472,-4.433480759271601,8.90919403967438,61.48358581064779,0.00021367549491060003,0.00636733295472977,0.036341242886284764,0.0,0.0,0.0,nm,0.0
25.43596053123474,-4.391425596355172,8.941667733700474,61.538372471875284,0.00021756737989504413,0.005746380565148263,0.032766663444921976,0.0,0.0,0.0,nm,0.0
25.460749626159668,-4.311971333199406,8.998551082352757,61.619170873248386,0.00021734854152736494,0.004707596321449345,0.026806840838455765,0.0,0.0,0.0,nm,0.0
25.4659481048584,-4.274578512142544,9.013538132102573,61.646258954057636,0.0002403725354945602,0.004830896275836153,0.027520600369555816,0.0,0.0,0.0,nm,0.0
25.4719820022583,-4.238274830372016,9.035537142235059,61.66804126590169,0.00023894622665723603,0.004454693519914027,0.025370830154678004,0.0,0.0,0.0,nm,0.0
25.482202529907227,-4.1983786101978815,9.063102058760562,61.688248990953674,0.0002911539191520071,0.005010354977024139,0.028518583504364984,0.0,0.0,0.0,nm,0.0
