timestamp,roll,pitch,yaw,acc_x,acc_y,acc_z,gyro_x,gyro_y,gyro_z,markers,motor_input
61.505489349365234,-25.84915928253434,36.98844820304733,-78.9158418574332,-0.3884611824022618,0.32961547691702014,-0.2954157724653469,-0.11759784305309134,-0.09241078776692756,0.06137251838383362,nm,0.0
61.51301026344299,-25.354781737321872,36.20943436528251,-78.19091350927684,-0.3190917774404919,0.22393792583575614,-0.3292398961514439,-0.14800986917475045,-0.1174131999359756,0.0819983830884564,nm,0.0
61.538923263549805,-23.840354883284654,34.140807062960555,-76.19847095988351,-0.0747246430558329,0.07971531708714012,-0.41233609230362533,-0.1988390793580226,-0.19543132555182996,0.1166384942985564,nm,0.0
61.56293702125549,-21.836905317704012,31.06639594212981,-73.7011704461514,0.22189052522642008,-0.033766587385768314,-0.4282608257449308,-0.28565534462513925,-0.27379348932564646,0.12808810446612676,nm,0.0
61.56445837020874,-20.758588693228575,29.096714369716853,-72.45264893732762,0.39346168855593244,-0.07949761539730955,-0.36072791633153234,-0.3325688401660701,-0.3035198583136728,0.11079845310964552,nm,0.0
61.58462619781494,-18.596029441644884,24.468300075135325,-70.63331952371917,0.9837170035719132,-0.2807072189662373,0.2939958974235806,-0.39910722140767824,-0.3491613326071574,0.024515824301017116,nm,0.0
61.59915351867676,-17.95137527164139,22.067629964504647,-70.2755687489158,1.0639541865335769,-0.39545216788465215,0.7019030288845478,-0.42253133177692087,-0.2831554584008587,-0.005636891420398768,nm,0.0
61.60348987579346,-17.292830191287344,19.815782141398586,-70.29501701586601,0.7587799580474163,-0.3949574591886788,0.5381203312899417,-0.3922652506096078,-0.2784259416666293,-0.06171392404354371,nm,0.0
61.62392783164978,-15.250515780110801,16.42902164311432,-70.71868720692561,0.6756435972419504,-0.0730442844162143,0.9904451367397102,-0.22673183394861549,-0.26188257119805125,-0.12736882493598678,nm,0.0
61.645076751708984,-12.925505615620592,16.245626213632388,-71.30378945736524,0.1981045776508742,0.17279952702350515,1.1322445610826248,0.1515667005806342,-0.21804242612101393,-0.1326722328600096,nm,0.0
61.660353660583496,-11.817474002125941,17.54840827085089,-71.52019931968323,0.3851545764002772,0.1332989616773308,1.4940446940891752,0.3053776600543346,-0.12796186841452986,-0.1059422819289126,nm,0.0
61.661937952041626,-11.656074689797633,19.501244175886967,-71.68737097719946,-0.035711605619603105,-0.10694161308782667,0.9922789010534174,0.3711334544120487,0.08472152911501786,-0.04869894074501037,nm,0.0
61.68476867675781,-13.601940545388375,26.74974010087347,-73.15173112843752,-0.06624550447104616,-0.519262705081328,0.10445810671199293,0.3580318799235172,0.3758575917680213,-0.001338315802571238,nm,0.0
61.7099027633667,-17.572521815785024,30.640224888801207,-75.528084168976,0.008873981960364003,-0.27064481608514634,-0.27148608306209443,0.23828811844414222,0.45683208367608386,-0.0015620706643360025,nm,0.0
61.71275877952576,-19.979435265905536,32.04826871770644,-76.82573707580731,-0.15257564569178686,-0.058474717238994944,-0.4423424447277781,0.16545968663559352,0.4582592487351521,0.024416926972060573,nm,0.0
61.73701810836792,-24.167583608038612,34.434141114719566,-78.81040978348118,-0.1840571987216754,0.31902305715562546,-0.5085780839699161,0.15594042354339,0.3684526892610101,0.06615232171183213,nm,0.0
61.74139046669006,-25.731272340504074,35.626213631784935,-79.37683441158835,-0.26846516066184267,0.46976766525869457,-0.5807909146306611,0.17504315073957774,0.28836451455538076,0.0779339878718955,nm,0.0
61.76677584648132,-27.371497753262123,37.819195783032015,-79.8814439833614,-0.30835613485082347,0.5874429489496472,-0.6597366737552158,0.17847369303891858,0.12707427464072388,0.052187944604377354,nm,0.0
61.769792795181274,-27.579959465789155,38.61485141363232,-80.00005503911609,-0.3326459087157569,0.6046491671526242,-0.6520688024335772,0.14008433724344688,0.05169816717398487,0.011116672979471763,nm,0.0
61.79353618621826,-27.2394937376988,38.9864830867816,-80.08920620228533,-0.43855166295462583,0.45935596683639673,-0.652318241649074,-0.006579287402491404,-0.04912006024968741,-0.04898371199293423,nm,0.0
61.808244705200195,-26.75274337149602,38.626811135873446,-79.99816973446696,-0.4546344048659853,0.3962674738826449,-0.587200211992404,-0.06887821871440496,-0.09553169176016124,-0.06327915156946227,nm,0.0
61.825661420822144,-25.147225382079537,37.06878675006173,-79.08189836229174,-0.4793721307175911,0.23126954660797025,-0.42078780849160174,-0.1588433791337141,-0.18438163140056443,-0.015012725989341178,nm,0.0
61.82744836807251,-24.016341335110788,36.044776173613556,-78.15022765924984,-0.42641957490811516,0.19306770492100045,-0.3338576996612148,-0.17579653998219982,-0.2273829913717536,0.02274666972864269,nm,0.0
61.85321593284607,-21.44894982258469,33.514209561127366,-75.65887269652725,-0.24595818596619806,0.11280179722276366,-0.2570195066653981,-0.22150111470676845,-0.2837596870806859,0.08929696670276707,nm,0.0
61.8549599647522,-20.187572650859977,31.981185126833783,-74.38518855294357,-0.11554771243149442,0.06226138586359524,-0.24622073285021692,-0.25177462279461815,-0.2937039172933955,0.09594292345668325,nm,0.0
61.866403102874756,-19.038118736362964,30.215172600310463,-73.27341274689394,0.05684665423965595,-0.017848933977560287,-0.25174973697959474,-0.2947530763431813,-0.29709926500403155,0.08716438799036048,nm,0.0
61.889843225479126,-17.094708050987563,26.0124487858231,-71.68240359276112,0.5076706187398964,-0.29493051432277717,-0.039884217677882874,-0.3774571031536405,-0.298919960758021,0.04160914471073015,nm,0.0
61.89347004890442,-16.3343855504558,23.721735800718335,-71.21833758907663,0.7501271835166969,-0.4204957844507118,0.2868722368970212,-0.4005442895866037,-0.2867045859071241,0.020549388713569625,nm,0.0
61.918179988861084,-15.406165454400826,19.441457068015612,-70.79891377943363,1.0845222106779102,-0.37971846754605143,1.095995617217415,-0.372380505750416,-0.19405822255560057,-0.0062936672040773975,nm,0.0
61.941856384277344,-14.681975360050211,16.83252629157124,-71.10319378468742,0.7030658230984959,0.14553337286086812,1.125035202514759,-0.1651367417416273,-0.19721617259625446,-0.08592316321562583,nm,0.0
61.94455623626709,-14.29816817800777,16.595786853523073,-71.5324696463143,0.6151082948120565,0.26333045908609964,1.228970944741608,-0.030867744794049454,-0.09496185129230811,-0.11215740481074679,nm,0.0
61.968337059020996,-13.73696201651469,19.018674823105965,-72.91299360616298,0.23717844713151043,0.13985715424814343,0.9773750133250588,0.32976061357628494,0.0019835387209097164,-0.1802614971152385,nm,0.0
61.97103834152222,-13.467141098489556,21.146018704399296,-73.72276572946338,0.6591645149614395,-0.18047284453517803,1.2545197143952638,0.4126623322448207,0.0641800708122267,-0.17379967457479087,nm,0.0
61.99463486671448,-14.774252643628683,26.110014814876777,-75.66804000308326,0.13395499164795113,-0.5090381180289928,0.3200073560451415,0.45165510183085716,0.21895939105222553,-0.11996877151072237,nm,0.0
62.01842427253723,-17.390111117477115,30.36610788336023,-77.87145532637098,-0.14313673156834314,-0.3517405215473419,-0.25984360499464204,0.3117148429370371,0.3604765136671942,-0.042489904314661556,nm,0.0
62.020289182662964,-18.996421380335192,32.10037807194307,-79.14568288717503,0.013830969712790284,-0.16303915019963872,-0.1607807445076085,0.2748396737550224,0.3304246933942984,-0.06650515055953699,nm,0.0
62.02934503555298,-21.005172625358103,33.54235589691251,-80.56174620264193,-0.10929592382933687,0.02827992058328668,-0.29202915909517146,0.21393448913321564,0.37549211090326573,-0.03803974608437222,nm,0.0
62.05055046081543,-24.778616590769147,36.122972251905885,-83.3051854070341,-0.1782165802948896,0.1897547356047832,-0.4569394574355719,0.21096298771911962,0.30466510630459864,-0.037610108400642585,nm,0.0
62.05474019050598,-26.325657975743272,37.318358983491706,-84.25249651259085,-0.35156909646486206,0.27299818433318707,-0.5855834419223753,0.19944452329791765,0.2652729792746372,0.0003793229762828917,nm,0.0
62.0729455947876,-27.34021986757085,38.34294987388506,-84.81812156984657,-0.375428010118713,0.24371368967759605,-0.6489474220096271,0.1772668482838861,0.17182086448082254,0.016730274478550827,nm,0.0
62.09235382080078,-28.2188229182568,39.86858032317039,-84.99320605915075,-0.5288538054109421,0.4502977197232226,-0.6827372169084772,0.10827713896901296,0.048417502664550256,0.04168836902864407,nm,0.0
62.095072507858276,-28.13939447976755,40.0639032353371,-84.72907518787885,-0.4933280641505486,0.4585872956528302,-0.5968687905589293,0.02829989159119833,-0.01600017417158262,0.03859564935361876,nm,0.0
62.11786866188049,-27.709760700368264,39.5096174038285,-83.91190481001996,-0.5970703545414632,0.5215926590222639,-0.4728318252767062,-0.09120647855714925,-0.05634660239957813,0.042602753837328,nm,0.0
62.121703147888184,-27.273012821300398,38.79194307372435,-83.30671591877237,-0.5417371946931743,0.4467650205044181,-0.39608066898437055,-0.1468331569725336,-0.09105246409211695,0.05570078420283285,nm,0.0
62.141623973846436,-25.972544772194535,36.95497579554906,-81.36687096892366,-0.4337466431465222,0.29199294873547543,-0.3445085634930746,-0.18328146266832063,-0.1525008297922002,0.11087511306658364,nm,0.0
62.1685950756073,-23.98734887525478,34.65257769908404,-78.50164888060947,-0.16484641143310297,0.14340422288643415,-0.34163626818889825,-0.2206047092025648,-0.22414331395416076,0.16628014231318292,nm,0.0
62.1720404624939,-22.849120723620974,33.25106787416413,-76.8468184600793,0.0010314621461851143,0.1026223267505545,-0.3373575834348121,-0.24414850442842287,-0.2536919288816629,0.16423176369294662,nm,0.0
62.19448971748352,-20.62239186005555,29.691559114075616,-74.06418251193043,0.3285278812307045,-0.06110593509884329,-0.2625210460263782,-0.32967398620452854,-0.2922953669506487,0.11227501674491523,nm,0.0
62.202099323272705,-19.573673542249548,27.584586850021793,-73.06346024967985,0.493311195248932,-0.1579011880111485,-0.15347685378641493,-0.3622173136991994,-0.30602987653718944,0.06865407141319707,nm,0.0
62.20833444595337,-18.58282021499909,25.375750186960694,-72.40742029379206,0.6786090129267057,-0.26447450105881026,0.10958821871450808,-0.37944886396490973,-0.31064372741365526,0.02995856441458789,nm,0.0
62.23181486129761,-16.83898613623461,21.22112285715579,-71.6118191513193,1.0700756863079572,-0.368542594145242,0.9930065458271075,-0.3370984415066944,-0.2746626347947425,-0.012292592464840603,nm,0.0
62.25600790977478,-15.672165701810274,18.600250196256496,-71.6381886107802,0.650247576743265,-0.002313323480689077,0.9805599284178719,-0.1723022866625465,-0.1980042330450117,-0.053586615183467134,nm,0.0
62.27094650268555,-14.98534615935196,18.149473640883198,-71.88311738370426,0.6932493906014977,0.11056459871888695,1.2145469330464358,-0.05457839796954785,-0.16212593775085848,-0.08812555393727423,nm,0.0
62.27285647392273,-14.659344163964272,18.52022713966478,-72.39826618359236,0.41011187403129556,0.09961753130426246,1.123831794223598,0.07990728057909184,-0.0460625646079455,-0.11389707743190422,nm,0.0
62.27481746673584,-14.235685309716734,19.677139397445156,-73.07632749255474,0.2338507255834539,0.032972070560741466,0.9636404553121289,0.23513937625783307,-0.017541492680939942,-0.15219176536812312,nm,0.0
62.28328824043274,-13.879882244186295,21.35828828150402,-73.79265003541381,0.6672403316475631,-0.23785113577836808,1.337808837206414,0.33168718404576325,0.022528568222906057,-0.15915846003458678,nm,0.0
62.30876302719116,-15.086854579494528,25.6735485246951,-75.32980391080214,0.06958236063808719,-0.5897403113083942,0.4306518692865146,0.402791319603653,0.2002090842132345,-0.07784833445922876,nm,0.0
62.33873176574707,-17.471326242659565,29.82148569831668,-76.6307057912461,-0.16051404519889712,-0.44433055681269046,-0.13258706221039485,0.3084422885905999,0.34670511953764477,0.039629964621458826,nm,0.0
62.35466265678406,-21.003109055309686,33.21134341794439,-78.50560833642561,-0.08141167514895008,0.015507148778693278,-0.21817744213118545,0.230171763639269,0.38857384208734164,0.04422936362436791,nm,0.0
62.3572416305542,-23.197376360690175,34.569608879031094,-79.74090372520168,-0.22810989369373944,0.21033307125389133,-0.3593194262446694,0.1879385600573513,0.40096119698357213,0.03952896686624273,nm,0.0
62.36182951927185,-25.273308344412374,35.83278784259616,-81.03606111554039,-0.1056115925903546,0.28196750725622605,-0.3470389692072536,0.18198467477045688,0.3687710482230802,0.013185101819801414,nm,0.0
62.38341236114502,-29.039203331515605,38.200691204307844,-83.17404391651979,-0.3310165381474048,0.42032232286047083,-0.5803294090086056,0.1830101663648818,0.28361160065265484,0.022040478579157183,nm,0.0
62.40598273277283,-31.083472548836863,40.19725029155649,-84.03824353835746,-0.46497760894248463,0.5475968713135155,-0.7017060749742232,0.1592531089890589,0.1398275143692239,0.04221839719876761,nm,0.0
62.4287314414978,-31.465152799727516,41.147750850103186,-83.93446892954144,-0.48749680944310275,0.6377480253883353,-0.6560325877146371,0.04713148525965595,0.005881534596723019,0.02958038687359216,nm,0.0
62.430787086486816,-31.276979197007115,41.055562939492454,-83.72149604373757,-0.5248733560873913,0.6310704727247864,-0.624143404293438,0.0,0.0,0.0,nm,0.0
62.45262408256531,-30.232145033351397,39.749633892338515,-82.90708128896198,-0.46675161360658424,0.48093694228307093,-0.5248175075527349,-0.16349089242391013,-0.1206372878238812,-0.008679501689627816,nm,0.0
62.45693230628967,-29.335590255508873,38.67160164914699,-82.31829173422106,-0.4093192042569124,0.37847704289915485,-0.46522685087356813,-0.2074767180369324,-0.17391753755531797,-0.012473579543037247,nm,0.0
62.47815680503845,-26.73965858969899,35.96645289674713,-80.37041624438865,-0.2459185459317054,0.2111156288797907,-0.4072002611549202,-0.2573671070689638,-0.2784751376511295,0.015273127363336747,nm,0.0
62.483503341674805,-25.100732619400333,34.395345472465344,-79.06096525182626,-0.11350680097976273,0.14606799122188396,-0.3620688094027704,-0.2720592075923827,-0.3290557614113365,0.02693538047864596,nm,0.0
62.49634671211243,-23.375547337037812,32.66130938793349,-77.79374684279864,0.02089874405176243,0.0626219667426225,-0.3291210767592817,-0.2928537709483918,-0.3607048048545182,0.035667024057278104,nm,0.0
