timestamp,roll,pitch,yaw,acc_x,acc_y,acc_z,gyro_x,gyro_y,gyro_z,markers,motor_input
83.005286693573,-25.189467625577713,26.20449444849884,-97.97025572629607,-0.12312410760117448,0.3985580646607571,-0.2340448003955646,-0.20783464281818162,-0.14592719940986215,0.0833647227570675,nm,0.0
83.028000831604,-23.538361843776983,23.86374149988679,-96.50502795116238,-0.010871055443896034,0.24710075479342644,-0.2966027269744918,-0.28688674856148827,-0.11648978531167072,0.06406640020541243,nm,0.0
83.03670525550842,-22.828696848748574,22.33859985404965,-95.94689767710571,0.03239999546527518,0.1196677392543692,-0.2978230369682036,-0.3308118514709101,-0.1022561834974977,0.052944293614437594,nm,0.0
83.06006932258606,-21.47993741455849,18.81191479545163,-94.79363406491274,0.16939977439589682,-0.1951727884871717,-0.2308773596514408,-0.38833929435545467,-0.09934654922067572,0.07558379462245503,nm,0.0
83.0619101524353,-20.822618624092556,16.900424723566147,-93.85115083823247,0.2985910179998744,-0.36857293892303017,-0.10924824969922951,-0.4038026884901715,-0.102677805317077,0.11296931298749936,nm,0.0
83.08479356765747,-19.739007404469138,12.990774547276446,-91.83571577660145,0.6822313113997298,-0.624903052225594,0.32192503735044975,-0.4077809672486677,-0.08380619535570631,0.1778937498011451,nm,0.0
83.09326434135437,-19.491610017021266,11.070271366693909,-90.9666856798033,0.9914876000480004,-0.675603946650927,0.6832255512437474,-0.39815712018663835,-0.045627082438938406,0.1779944209713819,nm,0.0
83.1250216960907,-20.29959690937473,7.793475648752255,-90.3458815237878,0.9443230169472051,-0.36978223789419273,0.774661984184307,-0.31256207768339583,0.08043731245044329,0.06668972871922667,nm,0.0
83.14497065544128,-21.064990661008036,5.960778901081165,-92.6304336710478,0.9676279163793943,0.055236363527871375,0.7904389575813606,-0.01822976511794319,0.026233394558173757,-0.2108971845906885,nm,0.0
83.15359854698181,-20.97505695635868,6.574548435316544,-93.80812294618744,0.996673526396665,0.004006424275286696,0.9076754291816344,0.10886524949382165,-0.031226065493114304,-0.23923439503453475,nm,0.0
83.15748906135559,-21.00281472230446,7.7935299032980465,-94.70915581003372,0.715037935641994,-0.10691422189232325,0.7188127157803232,0.2309114398039927,-0.018428040038007208,-0.22047254806848438,nm,0.0
83.16612839698792,-20.942986754789683,9.552882794149172,-95.45373967257424,0.6156901522946231,-0.22324570228093973,0.6137475152299976,0.3369106698139954,-0.048498320317525476,-0.18517663027335426,nm,0.0
83.19093251228333,-21.061596723753876,13.741446316824211,-96.93638133045565,0.34277938813281894,-0.2629912192927916,0.17347433456167347,0.4102648568157178,-0.031733682036952704,-0.13548849472212388,nm,0.0
83.1959183216095,-21.041289735981227,15.773313834575507,-97.80202068498501,0.26620546989421223,-0.19997315867545054,-0.039778691600455704,0.3897549550931494,-0.061512267863801165,-0.16515868306404302,nm,0.0
83.20528841018677,-20.972813038729406,17.6318372390626,-98.84954868682065,0.4022282954395624,-0.17571070628055707,-0.02746163540339091,0.3530398976676781,-0.0717725517539734,-0.2165010413560518,nm,0.0
83.22953414916992,-21.6916230622522,20.6667697390521,-101.53362484396331,-0.09791986986688532,0.04837800414315612,-0.3610877678272991,0.28054392840443854,0.014991691560955686,-0.25408722344953405,nm,0.0
83.23384237289429,-21.89619637823796,21.99686716054869,-102.78806497863609,-0.11462298090635023,0.10455444493747539,-0.3311108302523225,0.2548385611675935,-0.022613203319008048,-0.23942087617093483,nm,0.0
83.25783967971802,-22.276160939073122,24.551704171415455,-104.2153538882602,-0.4249054686131453,0.2961137509949415,-0.39995004507866927,0.24167532322513086,-0.042941011353872204,-0.09298168900690003,nm,0.0
83.26189756393433,-22.257597196383202,25.84511614469113,-104.31456958077273,-0.37744686631037366,0.3739964791249804,-0.3521999522403128,0.23655592179074794,-0.07032219130285063,-0.025000819057650208,nm,0.0
83.28596878051758,-22.453807020134576,27.88413154088312,-103.87336794835899,-0.3678550811271631,0.5018177552479733,-0.3642903482192036,0.16644557920088768,-0.02285658739616162,0.062227984259583875,nm,0.0
83.29168891906738,-22.788326396572504,28.51121455168229,-103.68910456961854,-0.3260117174303023,0.5307773598750442,-0.35927734828736574,0.12245224314937501,0.024149399030202474,0.06478839534544817,nm,0.0
83.31429147720337,-23.935601101676465,28.7328950453101,-103.66044929711144,-0.2804670208990391,0.5287969016264695,-0.37862706378629285,-0.0006646909021809231,0.10279706246400173,0.06779137098963946,nm,0.0
83.31946206092834,-24.538869544607252,28.44777268260903,-103.59888188072419,-0.24646004610550276,0.5284425257931096,-0.39058677498193317,-0.04397775544297099,0.11309301960607224,0.09028655969092376,nm,0.0
83.32950901985168,-25.008826356737003,28.041934357598713,-103.25314528885308,-0.1921977592134523,0.5534985986475783,-0.3920403953086997,-0.07332167447071908,0.09592838088491412,0.1286047387879615,nm,0.0
83.33803725242615,-25.248771955858395,27.55884751049718,-102.58882460266415,-0.10636668013186147,0.5524846130872564,-0.39988031274784097,-0.09828962007550618,0.05931671761917338,0.17546956672431785,nm,0.0
83.36271595954895,-25.036962201408297,26.44823118286402,-100.46088510387987,0.10294227528900517,0.5211331629479226,-0.43477338760081086,-0.13650849296589326,-0.019191546420717513,0.22715883408047416,nm,0.0
83.37146043777466,-24.664048356321423,25.674592060772895,-99.19923349707803,0.2079411244210757,0.44764694023224516,-0.4583434349329563,-0.17743045456916842,-0.04430912908046379,0.21672214703628054,nm,0.0
83.37537813186646,-24.191710164928143,24.62237668368289,-98.12079758018994,0.29097378322274775,0.3187607168105978,-0.49109260503966046,-0.23446204990614816,-0.05773133829158972,0.1841782157026394,nm,0.0
83.39889621734619,-23.073433340025698,21.5462179629442,-96.49491581299748,0.5735286156686478,-0.10197027004243475,-0.3490619661762936,-0.3648231711105701,-0.06949320954273763,0.10126318538029785,nm,0.0
83.40528345108032,-22.81339436333787,19.561995729675616,-95.91048262661738,0.5540952139902018,-0.3113439263859369,-0.2629134921572278,-0.41332086546726277,-0.011124643116962206,0.09600713892867037,nm,0.0
83.42711400985718,-21.76791425975737,15.205340914325378,-94.90103424229821,1.047541549968861,-0.6746976512640558,0.2582656560488127,-0.46682060357242944,-0.10326216683021519,0.05590887142365347,nm,0.0
83.43361806869507,-21.355231986590272,12.9963211166343,-94.53296565493731,1.1194024227671473,-0.6543426974521364,0.40447834751646183,-0.46034511629548114,-0.04959378616700525,0.051334390284524606,nm,0.0
83.44408512115479,-20.822092382001305,10.928050614240737,-94.37308899134375,1.142161824871964,-0.55757253800456,0.5748990629275941,-0.43390441529015694,-0.07815241178504753,0.007805497458206615,nm,0.0
83.46534514427185,-18.752990629682454,8.070106740859169,-95.15477526106933,1.0600616292905976,-0.06670626033065936,0.7590195286988416,-0.2626718323991082,-0.20729622477050308,-0.15691776866420917,nm,0.0
83.47146558761597,-17.261197625163444,7.507334073172786,-95.98603763581744,0.8028173774261662,0.10169751407974818,0.8484709280509447,-0.1536584358203306,-0.28957294212448953,-0.22706844361984743,nm,0.0
83.48082184791565,-15.513774867701857,7.608003041909635,-96.90906608891375,0.5373387232775847,0.12469168188981093,0.9102498330926528,-0.031653386094203144,-0.35253309350220424,-0.2535777750925962,nm,0.0
83.490163564682,-13.830832380626118,8.383340667320095,-97.63854194081097,0.1990095122257212,0.01294772058589898,0.8085471588463775,0.09911138994600727,-0.35589198179078313,-0.22259231401295473,nm,0.0
83.51304244995117,-11.621323653408727,11.656523360131354,-98.2366239566041,0.1634526520948482,-0.30546502162036415,0.9628743027403663,0.34049670539623716,-0.17113370906415865,-0.06828975248320253,nm,0.0
83.52278590202332,-11.600640587543069,13.772178222211277,-98.36744502531707,-0.2504307451509784,-0.17179427108976278,0.3606202625930641,0.4056391635753417,-0.07008719402659253,-0.02116868274357454,nm,0.0
83.54442143440247,-12.169623835661843,17.990211226291716,-99.36239931251839,-0.08207477334324714,-0.031025789733367743,0.13538689819021477,0.41112544860228356,0.06379445638406875,-0.07669774299208984,nm,0.0
83.5535581111908,-13.351642630978574,19.870377329626745,-100.51516115744717,-0.20003751140145665,-0.009993443339207743,-0.01692845381493883,0.3966034795917634,0.1510153066032161,-0.12112518306751727,nm,0.0
83.57310509681702,-16.59654668668319,23.143700197625186,-102.92299149392701,-0.21437212624435514,0.13944739156541577,-0.3243834243646064,0.35586364663172243,0.2593262559819599,-0.08431605546950914,nm,0.0
83.58041048049927,-18.287102012472236,24.509323952034066,-103.59508399433713,-0.19300685207397983,0.1701603522039132,-0.41521641487138616,0.32370643826387474,0.23553622707210575,-0.0019783421099409666,nm,0.0
83.60020327568054,-20.89164494361627,27.296450287827636,-103.69911022747938,-0.052677544603522565,0.4295467643530781,-0.6236605206006778,0.30611846792875463,0.1315432236813013,0.1740302288003359,nm,0.0
83.6043632030487,-21.606368140621246,28.524663313032107,-103.17960745624065,0.07307761533719152,0.4798753897179404,-0.6411395377118656,0.2551904148392742,0.062202402688003366,0.1991747929355398,nm,0.0
83.61437058448792,-22.046330432435443,29.48718003521136,-102.56217119400768,0.12955937042056817,0.5646082130668896,-0.6994852131068264,0.19160895612670178,0.02869528229189601,0.17261285472138727,nm,0.0
83.63649845123291,-22.360055026292276,30.025072807174826,-101.99922652880532,0.06408259669847631,0.566844024034292,-0.7327470313417125,0.0,0.0,0.0,nm,0.0
83.64247751235962,-22.281096920972246,29.553325880173414,-102.04975419076328,-0.06369541642770958,0.4979636004870668,-0.7185270391721027,-0.10868796160505667,0.0027170496772486044,-0.02193424593127956,nm,0.0
83.6514961719513,-21.925993790131304,28.737651885000687,-102.10220394088074,-0.17154493136497487,0.43007427188345965,-0.6427928307369888,-0.18617321230097217,-0.02998800060111538,-0.03329253048678716,nm,0.0
83.67931151390076,-20.252793833412856,26.599678881974185,-100.97085247065867,-0.2659852570464595,0.31813703590958037,-0.39905677271315604,-0.26515870771870925,-0.13262729515918956,0.08673834590777678,nm,0.0
83.68343305587769,-19.072263034611034,25.475532815736358,-99.64734785052535,-0.1908644647618817,0.29714373363518254,-0.2708789644255738,-0.2728300329264209,-0.172574012523041,0.17272436474899364,nm,0.0
83.69012260437012,-17.919474492090266,24.265907072768698,-97.84455754271382,-0.07499893851783837,0.2396824858236353,-0.12372318870451145,-0.2842028936633648,-0.17482560240313932,0.24297375888711129,nm,0.0
83.71633911132812,-16.37384864613238,21.46942075869635,-94.64562558018946,0.1776230490500239,0.10682022344326093,-0.06608292257153142,-0.315590021952512,-0.08841986251291069,0.24393294902835985,nm,0.0
83.71832156181335,-16.08693213080848,19.769413869341882,-93.66706461269129,0.2889217396389246,-0.08266620730146322,-0.01980919441926582,-0.35612479370040767,-0.034246731712279946,0.19194240960021294,nm,0.0
83.74150323867798,-16.175172345763688,15.64130653293973,-92.57801594535584,0.4851279048429249,-0.49813783586513577,0.1717151911947457,-0.4413382973800699,0.03976008045590856,0.1286750233440844,nm,0.0
83.75552034378052,-16.431318855614098,13.458571746856261,-92.05663302990301,0.7023008761076279,-0.6016661364542868,0.614512736345617,-0.44714509018479326,0.06158291603535668,0.14991841945119028,nm,0.0
83.7708535194397,-17.21385226541021,9.599647209623411,-90.42019413617646,0.7290026261551584,-0.3478505758871531,0.4762329720864979,-0.371963913732871,0.04618109135678029,0.23282925819955883,nm,0.0
83.77584624290466,-17.483821062492026,8.148387290748776,-89.37300955436909,0.9917552166057695,-0.21526103143022648,0.49464174949346484,-0.3029149570485221,0.04585190543277246,0.23378760997592463,nm,0.0
83.78621554374695,-17.86196433191783,7.156689433191207,-88.67843347804809,0.8311264066230185,-0.08980357056221343,0.21619839781624495,-0.21191430353957258,0.06442738278189981,0.1742300045771398,nm,0.0
83.80874419212341,-17.421160788762826,6.30551687610783,-88.52531940764032,1.0585140227165992,-0.33562749479230775,0.9498380062749437,-0.05849892653807904,-0.07479728459046994,-0.03566785912743895,nm,0.0
83.81714677810669,-16.90520244603549,6.721403614333513,-89.11743141938791,0.7396674927249254,-0.1281537316114219,0.5299143161246355,0.07317191385299844,-0.10828472224154602,-0.13264040624603107,nm,0.0
83.82451677322388,-16.41925972985135,7.514784694265356,-89.89103078886717,0.7384579192694972,0.03131137783646887,0.8273124741627959,0.1474130469996172,-0.10233683689702089,-0.1695141544876973,nm,0.0
83.83647394180298,-16.36247834125258,8.61432833821203,-90.70964500754668,0.47100533678297635,0.21632979630029803,0.7605971860123133,0.2077230676930059,-0.019456773786257583,-0.15629647325090065,nm,0.0
83.85919141769409,-16.614425276859144,12.321126560076104,-92.0519055161302,0.3188972370697397,0.06499669037285012,0.38483362461617876,0.4239287742335804,0.018547336404519454,-0.11314624782795014,nm,0.0
83.86519122123718,-16.96865843878807,14.771470000283548,-92.6832470825621,0.3471149243607387,0.01634146249948913,0.3185491235505709,0.48048574904851943,0.042281145442504886,-0.10596167705674103,nm,0.0
83.87177729606628,-17.449912947340998,17.088133349946435,-93.38765630640148,0.30848179561296024,-0.14429649789039514,0.048552545965461526,0.4554487272004708,0.06204115530058916,-0.1180749855837182,nm,0.0
83.88162899017334,-18.112493473157727,19.3529897405758,-94.424031338304,0.3092934999384757,-0.14439148030059057,-0.01611050623719762,0.4482399354902995,0.08923534427160063,-0.1696225903462031,nm,0.0
83.90776681900024,-19.941603978290964,22.871005153159384,-97.59849514060589,0.21153190132427882,0.019810314696422155,-0.2503718726889189,0.30658299097300384,0.1412628994797122,-0.2573408285398829,nm,0.0
83.90941977500916,-21.117137217360508,24.139758716723225,-99.48508646264892,0.0256993334891561,0.1117482306245565,-0.37547351836745485,0.27017938999018526,0.17106571016542044,-0.265713859610004,nm,0.0
83.91833090782166,-22.172917639457822,25.427318879680147,-101.30869161357487,-0.06357470177921397,0.3105032677196613,-0.3857000928154698,0.27491257173413625,0.13804403710663,-0.2615866809984815,nm,0.0
83.92984080314636,-23.008056376532867,26.580826395059827,-102.78648306936721,-0.04340383937501666,0.4392986563710926,-0.3266488932307498,0.24379074364375597,0.094971485461736,-0.21165600057945524,nm,0.0
83.95265460014343,-24.27352736522574,28.924085030904468,-104.64565726061704,-0.1630652015719738,0.5896751227986107,-0.40410792236159515,0.2507897795890554,0.025852580954127496,-0.10685208687195162,nm,0.0
83.95887494087219,-24.658608149066875,30.045216806307472,-105.24599349101723,-0.140794012040307,0.6331708764529902,-0.42889328509245966,0.22054600092887047,0.0038479438482570947,-0.07661790369511474,nm,0.0
83.98227167129517,-25.303113031623965,31.262703137009698,-105.75272093357219,-0.24625089882292875,0.46958866064131516,-0.5755953777978542,0.08718442396376927,0.019269165619304814,-0.047711403907370636,nm,0.0
83.98461246490479,-25.59464341198614,31.335180937169824,-105.86429588684251,-0.2840026342287855,0.47535727058512156,-0.6234973066433245,0.013780575011622038,0.04119837772981223,-0.02900394001602983,nm,0.0
83.99450945854187,-25.801265928281413,30.928636100573986,-105.92831015699426,-0.3516197681577306,0.38955823246782756,-0.6576865416387582,-0.08229885985401772,0.053476124402463715,0.01408372699249294,nm,0.0
