timestamp,roll,pitch,yaw,acc_x,acc_y,acc_z,gyro_x,gyro_y,gyro_z,markers,motor_input
82.00706934928894,-27.056803880312565,23.09348122757052,-92.70712168618753,0.4783054047664447,-0.208316243739265,-0.3498505029651386,-0.39485651500071806,-0.160070741026471,0.12387930802692824,nm,0.0
82.03020691871643,-25.371076607211954,19.109094555305422,-90.59937573424206,0.618072237341543,-0.3873415796909213,-0.0528801346616555,-0.4211248468551059,-0.1312678426324207,0.15553227453168797,nm,0.0
82.03557848930359,-24.3625083373813,17.036875432569246,-89.70026498647424,0.7890449993333365,-0.4238829127806673,0.17009347087862858,-0.4278113953008787,-0.19808498120971643,0.11525251458452856,nm,0.0
82.0583221912384,-22.56467851152172,13.080103092360888,-88.86930157300326,0.9581168397076418,-0.2665641243160648,0.5992212534272897,-0.3906281801150927,-0.1503949755052196,0.005868873648852531,nm,0.0
82.06351661682129,-21.611966996711946,11.528828818140337,-89.05853531529431,0.8673751458059845,-0.09693525516680895,0.6900797279791959,-0.31947466727420637,-0.19934110747152442,-0.08051811428658753,nm,0.0
82.11225748062134,-19.620144918997347,10.194888712492794,-90.25070331534408,0.502070092228734,0.11267858794996564,0.8990377786846765,-0.07792982061956245,-0.18294951355573746,-0.1866787590153102,nm,0.0
82.11562776565552,-17.110229479920733,13.219022227828056,-91.91536813196113,0.13237553727989862,-0.14840106773483472,0.7488461023105943,0.2989483927924156,-0.04081260876402805,-0.11417309033256905,nm,0.0
82.12916946411133,-17.122336193023436,15.10489123982114,-92.2398674512437,-0.09479572145665208,-0.21518453321701517,0.5031429915130005,0.364901388163585,-0.017311048665135633,-0.08691517928460693,nm,0.0
82.1349573135376,-17.290673911805158,17.086665448206926,-92.63172418329796,0.26246972928702117,-0.3565769832007611,0.6642644786227311,0.38522936317458234,0.009553244569550015,-0.08133523087459414,nm,0.0
82.1401309967041,-18.45436768187149,18.96365350310517,-93.40782472861889,-0.07983137694303966,-0.24327753149385922,0.15892758184099215,0.3745072251413508,0.19514550710714543,-0.05977047288357901,nm,0.0
82.16604232788086,-21.640654187088266,22.19925693644709,-95.7031054453717,0.18481685396144548,-0.09427057704308173,0.039784342791134825,0.32158893370199937,0.30684883421887454,-0.09695068531846386,nm,0.0
82.16806221008301,-23.855580846434528,23.519016864580173,-97.06706972410423,0.012937843938937703,0.0964833556047897,-0.22366848621190139,0.295300236918083,0.37122453665407007,-0.07995507249711782,nm,0.0
82.1780252456665,-25.89852910750027,24.75924560603994,-98.48208721733161,0.21053292938304294,0.054629954753806144,-0.18448763223059972,0.28402165934618695,0.33060069906381157,-0.06686670878192351,nm,0.0
82.20145559310913,-29.660550273963736,27.530913992914996,-100.52885530553758,0.06762426921363834,0.30452007725009833,-0.49861639192522555,0.3236862882202605,0.2439769605074611,0.020408172360746803,nm,0.0
82.20966219902039,-30.84262617194427,28.977000618668487,-100.9203951150964,0.1810788263032606,0.32075855664268316,-0.5222342395995293,0.30994117363826207,0.14602810565320026,0.0456464702436598,nm,0.0
82.23199129104614,-32.251200125059874,31.51684066102125,-101.24837551363339,0.07125077144415326,0.5143777262974657,-0.6165098910997908,0.23216650548520434,0.03621038348792152,0.0318546933239589,nm,0.0
82.23517727851868,-32.517765226748246,32.285067953742974,-101.23510363009028,0.04000852732506129,0.5334551181544056,-0.5875512023304068,0.1462547589724395,0.009923380700289938,0.0006046902746107856,nm,0.0
82.25966382026672,-32.57078654829982,32.59274941593346,-101.41622029094196,-0.12092683029164052,0.48191140429617924,-0.4485926846430388,-0.020494745529325648,-0.015553739876257777,-0.052171903348035634,nm,0.0
82.26502990722656,-32.37588047011827,32.317480644169535,-101.50605899264609,-0.22600893133213956,0.48374808383775003,-0.38608595855963257,-0.07403536198096343,-0.025966843635397575,-0.04135056694793126,nm,0.0
82.28565812110901,-31.4207032714252,31.44213332148066,-100.82294827421777,-0.24179153243501939,0.44818182627894043,-0.22759814772702155,-0.12196648040315305,-0.08095176020105133,0.03954368862359667,nm,0.0
82.29500460624695,-30.768514128238866,30.951161401262425,-99.94201253270275,-0.22217868150145584,0.4550300409332412,-0.203308690849308,-0.13015083529200205,-0.09710390148541193,0.09204360713875959,nm,0.0
82.30277156829834,-30.041288543295384,30.378139231191366,-98.89977685938702,-0.14908141900763586,0.4237839009892539,-0.1947199270076189,-0.14696857257565032,-0.10986395448247822,0.12726549567740184,nm,0.0
82.3109176158905,-29.34073553223746,29.662212073997978,-97.82590573954572,-0.041071144270080163,0.38084033033346315,-0.23231417501412585,-0.1727028011139475,-0.10457403508069821,0.1421657226831658,nm,0.0
82.32022213935852,-28.706778096059274,28.733445091271825,-96.82153995535538,0.03385887647435583,0.3231668748251614,-0.29948079662588056,-0.21170520187587116,-0.0916658937987456,0.13649967708879499,nm,0.0
82.34257960319519,-27.53498256812906,26.07603885640947,-95.16481892618805,0.21367855448450712,0.08624727542719786,-0.3861821021960891,-0.31387470627791736,-0.07992339557406214,0.10006085166769281,nm,0.0
82.34935855865479,-26.904480781532712,24.40424765329293,-94.44996899309498,0.3075878610022385,-0.043057819116051006,-0.39352664342258387,-0.35605880798637535,-0.09176721270018015,0.08679903430091322,nm,0.0
82.37142205238342,-25.33882432308621,20.615370278597858,-92.94124261332963,0.7160034136477627,-0.3651704606980117,-0.08120000903388634,-0.4112087217805468,-0.13574177211761787,0.0925466350561855,nm,0.0
82.37968254089355,-24.806840496369595,18.62736890195539,-92.19018163323136,0.7115460054557696,-0.43096051514380534,0.0486365022725917,-0.4148463291143827,-0.08901937676316517,0.11239400409944042,nm,0.0
82.38774538040161,-24.15842683368033,16.62648468794553,-91.51118652704577,0.6308798083956784,-0.42801539714914527,0.10753327320867304,-0.4170394380559754,-0.11752329969259943,0.09453419220402888,nm,0.0
82.409991979599,-22.26816575880824,12.759995988024198,-90.8298538442023,0.9461246412419431,-0.2833135791833084,0.467589209852653,-0.3886486921746067,-0.16102039391373393,-0.008557908770778106,nm,0.0
82.42392015457153,-21.259563998288638,11.209708106063493,-91.084948023151,0.8058851565274446,-0.06576950902379186,0.5198802048081904,-0.3262047293469976,-0.19927094133562093,-0.0950189940715299,nm,0.0
82.43940210342407,-18.89777692434865,9.489081290721462,-92.55830206569114,0.4801281473402427,0.2015578833564985,0.7617785880584887,-0.14110874975544294,-0.22191386637358676,-0.21106480730952815,nm,0.0
82.44405221939087,-17.596772616399047,9.505558808847232,-93.42569566303352,0.1854742464375273,0.2059016307574772,0.5888227911440642,-0.022843891695927602,-0.26310071800596335,-0.21921510603914118,nm,0.0
82.45398354530334,-16.049583963128963,10.109053547106368,-94.05873021454047,0.5727123440347229,0.007497341543599971,1.032650290651066,0.08808625960795342,-0.3185715271811057,-0.19581876213363436,nm,0.0
82.46356916427612,-15.558180768182382,11.125517147706942,-94.65408928121282,0.18035096599972766,-0.09225136123654812,0.6701954120674792,0.18275875619432355,-0.11788756258031412,-0.13040691181141403,nm,0.0
82.48746824264526,-15.222007807106346,13.6927371239861,-95.53260545020817,0.24603287853117511,-0.2753358042737684,0.6437644921166532,0.24957914516374632,-0.05883426604680031,-0.08297744701486899,nm,0.0
82.49588680267334,-15.975935053318043,14.953252907760449,-96.20898505013484,-0.058751398212906245,-0.09879768701188014,0.16022820584583497,0.2532272641875535,0.11405929849026038,-0.07738013281350374,nm,0.0
82.5052101612091,-16.917168592999584,16.064563864127745,-97.10811934284939,0.06428454488212759,-0.07501392700554843,0.23087052427957358,0.22920983941944367,0.14918357397484241,-0.10751652641568779,nm,0.0
82.51007032394409,-18.267937587766603,17.11339825836292,-98.25291497175988,0.14166052304413806,-0.011263906703637324,0.2096869300412179,0.2299317685283447,0.22358258585451823,-0.12134132286976411,nm,0.0
82.53738188743591,-21.61772385783198,19.231503971585738,-100.3255683372985,0.1310620780851265,0.11093614544918191,0.0004975958381586682,0.25333044730866644,0.25999356966066944,-0.0669432648992018,nm,0.0
82.53898310661316,-23.30692450613101,20.480037960667786,-100.9515997443637,0.08802953841996324,0.1553514485425779,-0.17705565447811392,0.2911468862863611,0.261866859632838,0.004699285865528939,nm,0.0
82.54859447479248,-24.77702046173532,21.897451466452075,-101.27094594681787,0.057597410578472306,0.20942435393032968,-0.3326597955694282,0.31813351131119494,0.20982962991647855,0.06889494890785738,nm,0.0
82.55781483650208,-25.886103498608342,23.36163934658251,-101.2821497109271,0.159793787835168,0.21578378095864026,-0.4104936452253517,0.3142730562120015,0.13886233599290435,0.11088136433878773,nm,0.0
82.58070850372314,-27.34311282996212,25.773151293594534,-100.93048457208282,0.07133577327399326,0.35244056004434465,-0.6213597632813075,0.21520633928106736,0.05399963053853897,0.10473655240309032,nm,0.0
82.58716940879822,-27.70628791567881,26.42679105886589,-100.78312442078635,0.04772917304439367,0.36085831459194556,-0.6019575341117612,0.12739257894556952,0.03485631338629563,0.07054516966028546,nm,0.0
82.59799361228943,-27.945232754211617,26.657554878908467,-100.77942908453949,-0.07148468296690515,0.38621415270122866,-0.586061688286468,0.03996152504178572,0.028781870209878175,0.04104097856335277,nm,0.0
82.6236937046051,-27.976827386136062,26.5554937178207,-100.73940606278252,-0.09489056446097113,0.37099533599591894,-0.4747519206379203,0.0,0.0,0.0,nm,0.0
82.64224410057068,-27.88155212923552,26.232839200467442,-100.4897400424073,-0.15462312920452537,0.3891007497340512,-0.3934709193935162,-0.08010327907098559,-0.009545373032058923,0.03899660419952268,nm,0.0
82.6453766822815,-27.194599675655613,25.340146588176097,-99.14366568094955,-0.13160875353521162,0.41203675472599954,-0.23807182425916737,-0.11695043792456256,-0.06463718202919617,0.1266871887785211,nm,0.0
82.64708495140076,-26.71799761164053,24.856434805679736,-98.07245599193655,-0.07024070623652874,0.4370391778520104,-0.2271722046703468,-0.12196315992542751,-0.07610827972404766,0.17142117431424148,nm,0.0
82.6602029800415,-26.20011212898408,24.293905654979156,-96.80642100394226,0.038923814520875746,0.4165122441683661,-0.2167355859683821,-0.13698918298770996,-0.08444982846888122,0.1900017527494419,nm,0.0
82.66882252693176,-25.712973071394234,23.581519053498532,-95.69831679161307,0.1461688325915414,0.3627517211747634,-0.24583475337297944,-0.1645518535277294,-0.07875714947096696,0.17966537238898972,nm,0.0
82.677561044693,-25.285725218569144,22.65001751835651,-94.7920779863672,0.24202937205858593,0.26529013165801624,-0.27867249576983094,-0.20588788183284715,-0.06718438154465002,0.14526743796136068,nm,0.0
82.69758605957031,-24.491095284361865,20.011889996292137,-93.68297525011438,0.46843666689635033,-0.052784949232862415,-0.23650367259895616,-0.3059801647304364,-0.06040561940606357,0.05908003313218361,nm,0.0
82.70520520210266,-24.066876547317207,18.403402389737177,-93.37931700090893,0.6408771271572173,-0.2256158517337654,-0.09590106151316445,-0.3392168537132541,-0.06652291674695883,0.03053255638462672,nm,0.0
82.71537065505981,-23.84471322339272,16.721577720309345,-93.15773654066706,0.7138912866002972,-0.353794634459617,0.06774899629657193,-0.35142096752774077,-0.0295384494416312,0.02878504160002135,nm,0.0
82.72276830673218,-23.618914573770272,15.074682445768492,-93.0253058370369,0.5265461736025918,-0.3969954478225958,0.058043520126248596,-0.3444226610819481,-0.03192961004301505,0.02450071740140419,nm,0.0
82.74350380897522,-22.188369533130345,12.169352987491816,-92.74884375569329,0.9385473438266874,-0.4603398971911208,0.5101710655566308,-0.292875838400537,-0.12410787577077578,-0.0091030991419218,nm,0.0
82.74870753288269,-21.416444701770562,11.082225011798048,-92.78934785488009,0.7872990012335126,-0.35529902337576746,0.5069199099632521,-0.2374718835528309,-0.1472611837531969,-0.0412201013155998,nm,0.0
82.75938010215759,-20.389240975695824,10.40428314047742,-93.03417204180684,0.8527234315190514,-0.23514197853475785,0.7922418270996223,-0.1585801651195847,-0.20140890665368008,-0.08945101063367764,nm,0.0
82.7850444316864,-18.435136077907096,10.423546570744998,-94.03544529264931,0.20696351874886232,0.043223764110020504,0.6310694210189629,0.02351090679197165,-0.21752380573491378,-0.15056343143019196,nm,0.0
82.79426836967468,-17.12082462294705,11.207656291407076,-94.5854459586237,0.6578900231902125,-0.06060412254634529,1.1483455495886892,0.12429528418668381,-0.27555076314541194,-0.16237575992338601,nm,0.0
82.81029725074768,-17.236606958492942,14.063660857562075,-95.6070454934904,-0.20473442249801935,-0.0826208527818127,0.40808667775782,0.3090238994437972,0.0076005204946090615,-0.08492986894020971,nm,0.0
82.81525659561157,-17.513346428819567,15.852671265190729,-96.08207447008628,0.23341150029054392,-0.28943095194389906,0.6927068295915825,0.34886318038224573,0.011032317791801414,-0.06247464506042409,nm,0.0
82.8248507976532,-18.83888658260297,17.677687109545023,-96.64843070752089,-0.10938850254958524,-0.17452085891149705,0.15001159297189207,0.37855097393863396,0.20635427522958294,-0.012814371297798704,nm,0.0
82.84795069694519,-22.073731582619093,20.970862321032005,-98.13461708546242,0.2686248377779436,-0.10161541846909326,0.061741364834091435,0.34309137035542103,0.28624776733196333,-0.018707694275496473,nm,0.0
82.85398292541504,-24.288339428590483,22.358927345286226,-99.1256323162148,0.06331813569189138,0.14959683927885908,-0.2572810037079112,0.3236996098567343,0.3605320657521054,-0.010614688057842039,nm,0.0
82.87615251541138,-28.188993308209334,24.783959390918117,-101.07783786292602,0.20763738283972769,0.32705293964465704,-0.4283476702167822,0.2853536402933435,0.30100582327526876,0.0014020888392486215,nm,0.0
82.88173198699951,-29.81298433455453,25.991435322192284,-101.63969418059966,0.04064214661222193,0.48647469510009,-0.6100620668412263,0.28135744012367586,0.2358260482712654,0.02484277092704411,nm,0.0
82.89441657066345,-30.83544897367167,27.22832909475196,-102.00509126417234,0.18341797315560046,0.48902759745681323,-0.5917053254998068,0.26647323207177087,0.12363730279228946,0.035808277338255624,nm,0.0
82.91387224197388,-31.80239899361038,29.44849778948955,-101.9287551897664,0.03824768491107342,0.644547020178425,-0.703735284356905,0.1972062086934245,-0.005957752997930337,0.04923443705370329,nm,0.0
82.91972160339355,-31.70747470104603,30.199509620815874,-101.75581245184597,0.06400811907029341,0.6455838884185892,-0.6542346262808311,0.1302888576227706,-0.05159065628193372,0.022898155137635916,nm,0.0
82.92913842201233,-31.46643248998518,30.572880752845403,-101.5768167277965,-0.055029832589371025,0.6725519615244919,-0.6278177155308612,0.051339955051192585,-0.06044554185052891,-0.004691144530012667,nm,0.0
82.95302891731262,-30.46616626419243,30.259837762927823,-101.44758060796273,-0.10316125497400715,0.5901943339922212,-0.425469161881932,-0.09204752292223511,-0.08288737694307693,-0.06025050251179809,nm,0.0
82.95808219909668,-29.81658030695357,29.743095420351096,-101.24457852364132,-0.1789187752907295,0.574308293820301,-0.3495540745674088,-0.13697475771942558,-0.09477594073786914,-0.05804535712206802,nm,0.0
82.98090696334839,-28.097232568488476,28.47012252104301,-100.45020795979426,-0.19225984585285794,0.5046360622164651,-0.21148711330986622,-0.17076556240703103,-0.13555128292535465,-0.0003063490903777535,nm,0.0
82.9906075000763,-27.121690478800943,27.79791059085633,-99.73856377139204,-0.17723759719470983,0.47268582968201306,-0.18510566737792394,-0.17603502447727967,-0.15073794655534975,0.038887094382680155,nm,0.0
82.99510025978088,-26.12726699795531,27.063151766970066,-98.84818653015046,-0.11975191799107762,0.4402809363956861,-0.21309908037938044,-0.18694843230329536,-0.15558077757227903,0.06931782173232436,nm,0.0
