timestamp,roll,pitch,yaw,acc_x,acc_y,acc_z,gyro_x,gyro_y,gyro_z,markers,motor_input
36.50204610824585,7.995472561250545,-17.63438011600759,45.84432509001178,-0.21676268901373222,0.45117068741878624,-0.1402912943392838,0.12778318903277774,0.060303803873513036,-0.08540972385328105,nm,0.0
36.52977895736694,9.559549253900835,-18.34300860387526,44.610162854094646,-0.20628393784846302,0.5691626298135543,-0.1671146486744675,0.1991554970115777,0.06802914263249608,-0.08105427524699892,nm,0.0
36.53281259536743,10.531495409329962,-18.822185720706262,44.06157024442652,-0.3140881436155373,0.5673070291371372,-0.20591778791339646,0.21274127191051528,0.05951273963422628,-0.0661155725785215,nm,0.0
36.54093861579895,11.433504881021138,-19.247156352729952,43.56328900293762,-0.35267346842694547,0.5310208473828513,-0.3161986521703991,0.1958732474460477,0.055914576057432844,-0.04519513643787345,nm,0.0
36.550766706466675,12.400963998257142,-19.536745269567987,43.21137596249896,-0.4538723414056575,0.5206475389409512,-0.2866579617253833,0.18634985059148557,0.08255874199636394,-0.010588275635277564,nm,0.0
36.57484173774719,14.117759325557177,-19.778646262186513,42.7462439924665,-0.44095528742203693,0.5539910465785782,-0.2994414011686236,0.13546299898174968,0.09506494440957838,0.00970067680408109,nm,0.0
36.579105854034424,14.861080608336342,-19.68649767789045,42.690454909877616,-0.4212520853279465,0.5648983238780704,-0.2051231833717645,0.10394722426557561,0.10805702527248523,0.018300024213669122,nm,0.0
36.60483908653259,15.624057329195756,-19.36023947028853,42.95319404131436,-0.28831130510988334,0.5956314702076951,-0.1384857645332098,0.02592251697103274,0.05456699143545275,0.027067266528939437,nm,0.0
36.60940337181091,15.52375803568649,-19.219975211374113,43.34916342634474,-0.27655373897718855,0.5516344750505866,-0.11817130706212427,0.0,0.0,0.0,nm,0.0
36.63360524177551,14.362813447518132,-19.039492148809757,44.786462641510866,-0.3136812340673489,0.36909981482621285,-0.10833775546740104,-0.09450169133124232,-0.08409459666282078,0.08135902533648133,nm,0.0
36.63635969161987,13.89958309584447,-18.808845378073787,45.605927224374966,-0.34105269229338375,0.2358108747687065,-0.13208501570755027,-0.1369259726620701,-0.11168397957553453,0.09570177672512897,nm,0.0
36.66539406776428,12.203398404784403,-17.82202485202355,47.477364205790934,-0.25953837623745313,0.06892944971158388,-0.12696272666200456,-0.2095673073587959,-0.12296063784853525,0.09388310879353375,nm,0.0
36.67108941078186,10.855841173323853,-17.285094464466894,48.45750602206956,-0.14256388809039663,0.03794461082280921,-0.12893053104531357,-0.23822731358309385,-0.11933648968967216,0.07864153152734231,nm,0.0
36.674378871917725,9.494912581820532,-16.66517655184998,49.36981475088195,-0.019033157991764745,0.0068309114194607745,-0.12007222019466537,-0.2509172574432045,-0.11512407739521649,0.06508667879545688,nm,0.0
36.68671774864197,8.205047573041993,-16.046943417613384,50.16888727079186,0.15594252242840065,-0.08428661620790863,-0.12223472696954273,-0.24066482744318005,-0.10935260013105741,0.06106041250696943,nm,0.0
36.709736585617065,6.908477319151306,-14.872466579303236,51.46722936096072,0.1615278432676319,-0.4251302266424093,0.15275428303366137,-0.1133055134514278,0.029693854856547866,0.12693654464817,nm,0.0
36.713157176971436,6.587033481138642,-14.218960401740405,52.12736516263453,0.2604604007458849,-0.6910396295335868,0.29614010777227767,-0.1275520014070857,0.03235055656522981,0.11983612341639854,nm,0.0
36.732367515563965,6.571904677825447,-13.531843521384943,52.766726526969904,0.6352133647180255,-0.9386667812683303,0.0056023897564639906,-0.09713560248015499,0.0819305344797767,0.1149452022326904,nm,0.0
36.748454570770264,8.020812146357807,-12.373286071430558,53.142780658448174,0.6965887709942975,-0.72790675653803,0.5962350607146518,-0.008662378504219624,0.15129402344748166,0.007826532528088601,nm,0.0
36.75135087966919,8.257549251514467,-12.01391372090361,52.671051141672244,0.9716357159346951,-0.5464636832685634,0.3609073696713758,-0.015941696284931833,0.08081973995477272,-0.10806097375033957,nm,0.0
36.76163578033447,8.563896100709142,-12.027656080942398,51.76165229523733,0.8799108567561764,-0.3052102399406437,0.6437742818797592,0.05245555139081027,0.046067793243597194,-0.1956164460868955,nm,0.0
36.7797474861145,8.238679529595007,-13.156601113551982,48.950055382977865,0.5816451588350684,-0.136102589577802,0.42161684527023147,0.09521800289950139,-0.12722703689282072,-0.2989774764368285,nm,0.0
36.795687675476074,7.8801261438258265,-14.08337099525895,47.790422893961136,0.16427655498488955,-0.14000453246832983,0.42328863628527247,0.10631745448948261,-0.1758918281985138,-0.28720004818136635,nm,0.0
36.821749687194824,6.191534975224983,-15.839228794199267,45.915591348280024,-0.36144782812102094,-0.13306896232772045,-0.0065885664699608945,-0.004037285851737111,-0.2501165506477427,-0.25745092019814836,nm,0.0
36.823310136795044,5.315633584327318,-16.37585386547555,45.134287686710444,-0.3837195478032175,-0.04432913576470075,-0.4800158643543936,-0.0272388372976434,-0.1969643228504959,-0.23832044400757313,nm,0.0
36.82926654815674,5.0008319520026445,-16.71049763140868,44.23998898417458,-0.7903477738424636,0.22302428199778274,-0.058301918335914756,0.018123995561459737,-0.09176145071405957,-0.21783504822796435,nm,0.0
36.85680031776428,4.023709232636292,-16.88462705503087,41.57091468948834,-0.503579522588256,0.5809009994751106,-0.46256657636243076,-0.03623922856133722,-0.05556114458520741,-0.29288358436139345,nm,0.0
36.862276554107666,4.1025903502688434,-16.87426358290395,40.1305273373992,-0.570872771810117,0.8023610393236349,-0.26594504721416673,0.02385507767152528,0.00872721092972079,-0.2668574598468547,nm,0.0
36.86581206321716,4.005086139884442,-16.86436489279579,38.870994592889275,-0.4054719790631727,0.8485881708640208,-0.37733202266754,-0.001974883918822281,-0.01337952476645681,-0.2487489857321553,nm,0.0
36.88955879211426,4.088113727673231,-16.883169964345374,37.483373471347086,-0.4927822265128785,0.7356990853010739,-0.18668179138002844,0.029074718306862566,0.006270998041927991,-0.0656539869522099,nm,0.0
36.89466595649719,3.8404397744148406,-16.81687100224021,37.52858000037388,-0.46249062871811836,0.59443431057617,-0.3040246040958005,0.0,0.0,0.0,nm,0.0
36.92199444770813,2.968444523126859,-16.218786693763782,38.84880835677301,-0.5360204097053879,0.3137402385591345,-0.23103673692585483,-0.11097351322234285,-0.0031417882202581277,0.1660383251466446,nm,0.0
36.92813682556152,2.3017614388096423,-15.663258499256871,39.84813275773581,-0.40391754595629736,0.18438036954790016,-0.30643986865984757,-0.15603516803080586,0.0018746173997569008,0.1954587248827334,nm,0.0
36.93168306350708,1.6691053351655447,-14.955218774383749,40.90417295496594,-0.3029710847720716,0.1122071192745741,-0.23634906525250315,-0.17109138370442423,0.02630273462741825,0.2131244123340258,nm,0.0
36.956034421920776,0.29351075423824824,-13.305866156242445,43.125004824687856,0.09153211197097444,-0.052407530472151735,-0.2490199797822515,-0.2001012105711421,0.0305599934995107,0.20850029138342693,nm,0.0
36.960845708847046,-0.07515272543275121,-12.457737335229057,44.30846798227387,0.23273033344686211,-0.15715911568229288,-0.2569264814673661,-0.15545332555867258,0.0708108779123146,0.23146412656732102,nm,0.0
36.98462653160095,-0.8150567709706891,-10.835984144589386,46.72505495544337,0.45366838173450835,-0.6111888487945548,0.10101772818921512,-0.18090526928798784,0.02731585612133972,0.2378223634110874,nm,0.0
36.98794984817505,-0.6954674918812995,-10.044896111087493,48.028716895475874,0.49780133009412647,-0.8704484420106315,0.3473192451530798,-0.08661266025729171,0.12309232057264372,0.2747724863120572,nm,0.0
37.01435661315918,0.2783145250227408,-8.60917039668529,50.102566048124196,0.6888082579363254,-1.010825453913777,0.5714847318685241,-0.03912400865118153,0.14613821754754877,0.21200191585638758,nm,0.0
37.01753330230713,1.0377952021892956,-8.093658567980713,50.638909543253476,0.816987315303876,-0.8904149862917933,0.7086938364586449,0.03039990337282207,0.18082126658999487,0.13990735071300164,nm,0.0
37.04260230064392,2.5844738591496723,-8.029310678394397,50.29807847219064,1.0021350069314328,-0.44311501288110977,0.6465817738922791,0.12143242006079813,0.08189316758159626,-0.05989329734971802,nm,0.0
37.04477095603943,3.4095947159344697,-8.55876213564839,49.731947689093786,0.8495211810088735,-0.30109430455098346,0.6373603243440779,0.19992647020506932,0.05642968174812136,-0.11522577361376014,nm,0.0
37.07085084915161,4.871104628378378,-10.657632091560666,48.37167509930381,0.3575595790317868,-0.316902186631346,0.36857088647683733,0.27705682271906035,-0.058295163771151494,-0.14060315869739665,nm,0.0
37.073216676712036,5.641332484503372,-11.86155561874943,47.81262584288229,0.01514571167923819,-0.38204381645698093,0.25177206995678497,0.29420052386336687,-0.049088189114693946,-0.11089965362067987,nm,0.0
37.0973424911499,7.2211018657740045,-13.824869505527838,46.80328340553507,-0.4258965203206039,-0.34887011649788674,-0.033800536908852416,0.24699753145917844,-0.008699397530130668,-0.08643314972367666,nm,0.0
37.1017689704895,7.881633656934249,-14.418703399557225,46.19175866090983,-0.33940542203581187,-0.23529926721331923,-0.2812450083737523,0.18824126845683728,0.010322137184365143,-0.10616093829013581,nm,0.0
37.12634778022766,10.068488781213679,-15.02895751840038,44.69236869708015,-0.2943240326275099,0.22251495048500408,-0.11770234565004078,0.2212964072138064,0.1336978164161424,-0.09917468811273383,nm,0.0
37.151713132858276,11.825129600234238,-15.520474886156707,43.257942725579404,-0.015572598908022425,0.5037597494981924,-0.2938085150620135,0.17053885807987654,0.07656609807826542,-0.08796916071225967,nm,0.0
37.153358936309814,12.663019247781593,-15.862861608732917,42.9040805399627,-0.15952034776270965,0.5736333281587652,-0.10819679180443843,0.17824865792196726,0.059275052937278624,-0.04387879659267937,nm,0.0
37.183382511138916,13.630532921084066,-17.029527252918676,42.82779207562581,-0.5525372799161227,0.4577932329983261,-0.1932290765628329,0.08203378509370546,-0.019599485637153753,0.035414187060916424,nm,0.0
37.18954539299011,13.48386994176766,-17.155601143381247,43.05145750012763,-0.5992294945620978,0.44704243903975804,-0.31956661613714793,0.010174237354356425,-0.03845259831008554,0.03113806880037751,nm,0.0
37.21816849708557,12.05486739790105,-16.389416930636408,44.23439575204493,-0.43198109391528805,0.6182399892717938,-0.24843983672128647,-0.13338901755522153,-0.030119081879494827,0.05972404447915647,nm,0.0
37.22576022148132,11.3173887860099,-15.971373838064027,44.92141739168132,-0.34499244772635873,0.6738978151756865,-0.17670710434310385,-0.146175550874733,-0.04066670177538354,0.09156208333554955,nm,0.0
37.250128507614136,9.455152577749155,-15.205887245810114,46.990942248307825,-0.23097923726994046,0.584028032975603,-0.19158617498260938,-0.17007333112842296,-0.08714424151879456,0.15228666850562664,nm,0.0
37.25298762321472,8.416632924061501,-14.882817346178012,48.21187784870367,-0.2518557627105897,0.4304714482795742,-0.147514646450975,-0.16936195601787604,-0.10522086183666161,0.16483942374124144,nm,0.0
37.2790961265564,6.208129158702263,-14.166311429393234,50.44072441199331,-0.23377468812469476,0.05563310559783825,-0.18137438578539178,-0.18295935992725573,-0.11284220324839192,0.12363799919103903,nm,0.0
37.282541036605835,5.1442546129402045,-13.693762114703533,51.24787683857325,-0.16534158207042118,-0.10977342468376095,-0.16627067536711185,-0.18996471828698333,-0.10085295973166265,0.08255436890415034,nm,0.0
37.3066201210022,3.566705260548448,-12.511877685261078,52.122833648890555,0.19871030080229724,-0.3536920456492101,-0.2321149932040986,-0.15504729790311117,-0.012950857676802877,0.03532605982837857,nm,0.0
37.31093192100525,3.457849913801512,-11.855057500225854,52.42446904246255,0.09431260794780039,-0.4429340414005423,0.49565830741107086,-0.10321284217806956,0.06354443833724835,0.04435386521763961,nm,0.0
37.336132526397705,3.606720826404299,-10.552864909820984,53.05657089887421,0.7251602780501013,-0.8922228242991377,0.28564243094224095,-0.02906442235743105,0.1482184925049027,0.08060383529531745,nm,0.0
37.3451087474823,4.549240507411132,-10.069944685347616,53.45755266140496,0.6315622849296996,-0.9668753253820883,0.9844949677961936,0.047314883117413206,0.20683507091949832,0.1095367244193988,nm,0.0
37.3489990234375,5.205413132865217,-9.761265170695754,53.87014934722222,0.9366327208033575,-1.1022736940329831,0.6179889158286728,0.04048249328856666,0.14123357070442863,0.08772787054288911,nm,0.0
37.37342309951782,7.383338699724766,-9.930746256842003,54.061878485592366,0.8143287624069636,-0.8201477522847113,1.0629085672459677,0.1644131807732557,0.14637375793445406,0.018067188714670397,nm,0.0
37.399587631225586,9.083755639246014,-10.919541385663113,53.1746847712067,0.6409117808003423,-0.37245974745564314,0.5931191606583343,0.2334427453105829,0.08075691526987298,-0.07638272504267504,nm,0.0
37.40459227561951,9.867663695028163,-11.837914771590562,52.55847040941798,0.49199929769056017,-0.22856922406590233,0.5118228986910905,0.2529529700330705,0.012281149303914772,-0.09763860729831421,nm,0.0
37.409456729888916,10.583532629948936,-12.917496069587802,52.01693476722275,0.37950173427932,-0.1504131881152362,0.12480605402202688,0.2701245976364688,-0.020831355728540495,-0.0828878158475189,nm,0.0
37.43412232398987,12.316900987275043,-15.352938681852185,51.627040819965735,-0.14514586768630114,-0.1394231589312573,0.05887542235581384,0.29865368870850223,-0.03766187802900497,-0.03078555512435338,nm,0.0
37.43577265739441,13.035359050944733,-16.477975891684984,51.320425253412,-0.08461994766021452,-0.07503093377976748,-0.5553292043748347,0.27590971582346435,-0.031081979836991985,-0.026983162820030097,nm,0.0
37.444607734680176,14.4638671204434,-17.438875259287403,50.974848732895346,-0.45994635805787815,-0.0050386771799311395,-0.23258314923391127,0.3349269927159614,0.09353751026533164,0.009120390514227588,nm,0.0
37.46931219100952,16.851423056515927,-18.782111387160285,49.862829901102195,-0.37291505970561545,0.2868933534644226,-0.49484083731503603,0.2391567189645381,0.09635746200847722,-0.06951013977465384,nm,0.0
37.47272610664368,18.273230524108268,-19.151856398705362,49.18439540932274,-0.464190116072022,0.4339224209175614,-0.3216272374460384,0.2443392473505933,0.15819708117667705,-0.05858811981255982,nm,0.0
37.48363375663757,19.409073391639335,-19.461906918537522,48.55582380702608,-0.40825070052150103,0.5294552033933794,-0.24318743227079537,0.2011226805787239,0.12236599169715838,-0.07366401979547353,nm,0.0
