timestamp,roll,pitch,yaw,acc_x,acc_y,acc_z,gyro_x,gyro_y,gyro_z,markers,motor_input
55.51023983955383,-6.582485297158149,-2.846393567710354,-72.63805306167396,0.020902149722931314,0.017944436615718873,0.21901752181735717,-0.012518858861415462,-0.08438679413497535,0.00864581110881686,nm,0.0
55.51291632652283,-6.371435637676368,-3.0788850585138112,-72.44377238731383,-0.060636952406612446,-0.01162235276866703,0.1340366754759463,-0.04068479360590548,-0.06506822086235294,0.017398692682553448,nm,0.0
55.53747272491455,-6.023039321871331,-3.5500546655421985,-71.86078013772318,0.012580213816512746,0.18899181649348082,0.6613482086961966,-0.03986664118635715,-0.040329631024905,0.05566488773647199,nm,0.0
55.541688680648804,-6.039539044059597,-3.464784687328312,-71.60633970388379,0.06099595089662168,0.19254489257360693,0.5571123279754621,0.006385532455534822,-0.002486198866788003,0.05782307426515389,nm,0.0
55.567140102386475,-6.318450854090584,-2.8310609965406814,-71.389656515982,0.1976898882059103,0.10452936014751461,0.7274741476155533,0.0466674947543325,0.047703856363622475,0.008820295544100054,nm,0.0
55.572094202041626,-6.478507751997869,-2.3093839048736924,-71.56985594918925,0.30007816745687543,0.015147170093443902,0.909456971527639,0.08005498374898763,0.052608144187345204,-0.03472972180752011,nm,0.0
55.596118688583374,-6.938668596626763,-0.7323415127552176,-72.58625849543704,0.28064970851055754,-0.1070575779111692,0.7598186975194712,0.1383705029157946,0.08693868231688552,-0.11681142731047682,nm,0.0
55.59785270690918,-7.132695450375945,0.25237771296753125,-73.27442019648817,0.26577062546021896,-0.13166425575741028,0.7302233401109302,0.16788341073093485,0.08444172559666692,-0.13137450972960382,nm,0.0
55.623555183410645,-7.744695697572379,2.976379877624433,-74.49035098395294,0.09604293931736907,-0.10550872476182659,0.4670513821298051,0.2583147485359725,0.1361542638503943,-0.10173320526213013,nm,0.0
55.63101887702942,-8.190190962030755,4.640883838128822,-74.88079631531971,0.08765510977675259,-0.11136912042251869,0.3768030119543475,0.2883391653341657,0.1637906065231762,-0.06799335994269574,nm,0.0
55.65212917327881,-9.614290926369339,8.39367208261814,-75.39958518558585,0.0839799772261593,-0.12890346439848366,0.025529824005324015,0.32274338123342927,0.23946480761202527,-0.027010054945978988,nm,0.0
55.65525722503662,-10.565285563338858,10.24663135948718,-75.76238560001576,0.11301171645003599,-0.12300736866679807,-0.15248531476232421,0.3026854867381412,0.2646469714145487,-0.031313972871276304,nm,0.0
55.66863942146301,-11.623518693993098,11.927920869678054,-76.26376665233582,0.11426279636296983,-0.10792839460557736,-0.33521178254746026,0.2663954794759395,0.2735925828840867,-0.049751716831040065,nm,0.0
55.675766944885254,-12.693189384145073,13.410541296185338,-76.88531007495973,0.09773678887677462,-0.04437042775432745,-0.4901874570112106,0.22998751219564595,0.2628758589268294,-0.0736554237717092,nm,0.0
55.69933533668518,-14.518168897478057,15.6496097453771,-78.19614754359084,-0.07498056034649188,0.1600957370895557,-0.7196771001535821,0.15122774671283024,0.18707510974448216,-0.08836283848616247,nm,0.0
55.70475125312805,-15.059569648405535,16.44883920922773,-78.63626417277868,-0.18430496805804134,0.30341712889803646,-0.7639764472318962,0.1250655103155958,0.12541316707917916,-0.07373249984944116,nm,0.0
55.712591886520386,-15.288818824812582,17.082737110255703,-78.85113316602688,-0.31273195355048433,0.46886213634357315,-0.787474908682088,0.105087313314182,0.05919022360773535,-0.05164451278643821,nm,0.0
55.73862910270691,-14.791577638443705,17.803076876087008,-78.83135018880168,-0.5389299531104523,0.7232218145688009,-0.7718419051875702,0.055728542258384375,-0.07284035481085578,-0.02840140236305001,nm,0.0
55.740461349487305,-14.174048742296602,17.85767793129915,-78.72712321328684,-0.6283047660934675,0.7746434748212067,-0.7364358096759924,0.022970085278078322,-0.12198582327730734,-0.03747372808505921,nm,0.0
55.76534032821655,-12.547607165939032,17.221155989486753,-78.5758338640176,-0.7361373879585292,0.6934936249336526,-0.6207964429019168,-0.0666652941680067,-0.18608122968448754,-0.06706664819545406,nm,0.0
55.77213144302368,-11.708471710898744,16.504553907594406,-78.49374890659715,-0.7725078107232985,0.611218999788932,-0.5569491858508997,-0.11905693502592044,-0.19489347521395056,-0.06403674078457625,nm,0.0
55.7801034450531,-10.914300671459172,15.520077615680023,-78.31086437522302,-0.7663133270022389,0.5335809150096941,-0.44518537532407404,-0.17266565410525295,-0.19828608800477102,-0.04218207759139186,nm,0.0
55.80583596229553,-9.616726596963414,12.874622974615727,-77.54691420424594,-0.6523361252146626,0.42314382920757687,-0.20710729392373792,-0.2624817133066135,-0.183564803643282,0.03850470183228048,nm,0.0
55.81013560295105,-9.11240321677612,11.32420757606277,-76.92476532842225,-0.47843459817566514,0.3650637590025237,-0.028324626537594457,-0.2909463581128141,-0.1744140674133763,0.07119237997999997,nm,0.0
55.81759023666382,-8.759218814201411,9.694788316328948,-76.28159771652321,-0.25108186096333407,0.2552613941307911,0.1889751654996228,-0.31114580967226935,-0.15299614773784243,0.08444269066776423,nm,0.0
55.836076736450195,-8.55000487438924,6.486884835197038,-75.26961908421775,0.33242509183364105,-0.1385904577825207,0.8616261205943662,-0.3137000050757058,-0.0929666457834522,0.037346336192268986,nm,0.0
55.85491061210632,-8.687618218567383,5.084064933174185,-75.14636747274356,0.6227939681646456,-0.4372582526817189,1.208378760424247,-0.288272106599149,-0.0555467835832061,-0.01064484086587212,nm,0.0
55.85696244239807,-8.937119737299243,4.045539742122249,-75.39307810420128,0.9525617739234453,-0.6511692271259183,1.6529780057624999,-0.22356603224148974,-0.0148197676207089,-0.06562799732664133,nm,0.0
55.86510467529297,-9.641290487324484,3.498064948633311,-75.95326454978715,0.9555232281519004,-0.8341165285336375,1.8545047439035893,-0.15098387172301192,0.09922905587656829,-0.1151034892001163,nm,0.0
55.873687505722046,-10.248836991581074,3.5508370867545906,-76.65000658929362,0.9331306668019317,-1.0236839704753509,1.8504541967481658,-0.028596043542663464,0.11066299097368228,-0.144291869462464,nm,0.0
55.88866090774536,-10.620495695250721,4.383540897627692,-77.31288028980003,1.2030429512881475,-1.0440172838167978,2.114941212984596,0.13546190815304093,0.1003343701207532,-0.14449951643030928,nm,0.0
55.89279866218567,-11.336148823491262,5.997019965924477,-77.859794597143,0.8854552862264365,-1.0810844392616192,1.545260397186691,0.27440919474480013,0.19947619311210485,-0.1095937655621062,nm,0.0
55.91751527786255,-12.413515436841047,11.22498683952526,-78.08393701339493,0.7159767831037046,-1.0318671928503003,1.0906165883304269,0.5418836201473922,0.22078227665729047,0.009119020121022836,nm,0.0
55.924734354019165,-13.080012068380036,14.588442883603285,-77.77890283349005,0.3402012622810866,-0.8669658896158464,0.42325521795153515,0.6205080130022053,0.25990334025112594,0.05502078551910489,nm,0.0
55.952250480651855,-14.539662374846602,21.45499059894539,-77.48898903109186,0.5773675627460387,-0.764257699590843,0.04256132602500194,0.6146271468095437,0.34628200776461143,0.05228515166283113,nm,0.0
55.95822763442993,-16.239953650681432,24.78178955881091,-77.97894458057398,0.06779208026970758,-0.6156475169085419,-0.518640918805616,0.5734918840306675,0.43921337838378915,0.025280255495488554,nm,0.0
55.98051571846008,-20.219729958753877,30.207949307553324,-79.7831382923812,0.08721204897118555,-0.5602784074715308,-0.8081898986247448,0.4047104500675555,0.4870415219962946,-0.004625391386030497,nm,0.0
55.98207998275757,-22.699997642136708,32.42570552606385,-80.85152422485304,-0.18096132799858763,-0.33708830110545934,-1.022512754501869,0.35453886049649014,0.4853083071953393,0.01579407885633355,nm,0.0
55.9908926486969,-24.990390519878655,34.34564477068063,-81.66482178436587,-0.06477937444948276,-0.1395222368736176,-0.9636198088908624,0.30971095763029655,0.42942421134526665,0.050807507401096,nm,0.0
56.00910949707031,-29.281197234105132,37.69942552765789,-82.6100625597127,-0.3370721722413395,0.42837591636128824,-0.9698419787323092,0.2762157388071488,0.34555169349341797,0.1424608019774565,nm,0.0
56.021275758743286,-31.023404657163262,39.31134854396706,-82.85903717347341,-0.3147165992264838,0.7238660748778423,-0.8686158118329081,0.27398305861076794,0.3037016121953767,0.14316767904335853,nm,0.0
56.02710700035095,-32.717625299567594,40.77507426176782,-83.11913479033412,-0.4904146237096391,0.9484417021090774,-0.861020548886211,0.24741301005458988,0.28566318835394133,0.12861864750597907,nm,0.0
56.050596952438354,-35.75439446925167,43.12415816930798,-84.39005010486837,-0.5339195612224065,1.1126302953363882,-0.8160552247560089,0.17581914809298754,0.2382123666322758,0.004954359652710321,nm,0.0
56.058775424957275,-37.11055099913646,43.878249223107936,-85.3874588993056,-0.689766767545978,1.1203041993213898,-0.9010763622503566,0.12110346479422379,0.20157106679212114,-0.05003965608795294,nm,0.0
56.078834772109985,-38.6173734966198,44.50257088706279,-86.97731691585183,-0.7241569738587644,0.9446582745022752,-0.9322353423431805,0.019366521696491282,0.07380095915581572,-0.10569256089032374,nm,0.0
56.08414936065674,-38.50837157785303,44.482141072731395,-87.22451957946195,-0.7865921049580554,0.8820848804034119,-0.9359057591814652,-0.014885496991746157,-0.023823468890392985,-0.1219643095808706,nm,0.0
56.11166524887085,-34.19768182745708,43.029397667796005,-85.22331198182472,-0.6524412275626722,0.6050201536104687,-0.5939190863203206,-0.1431672911367166,-0.3105637461630308,-0.15040862364285099,nm,0.0
56.1352915763855,-29.566463505252212,40.3754921803615,-82.9414769937282,-0.5073571987869213,0.3598130246170505,-0.3663845739915196,-0.27105404211838924,-0.39413107092325356,-0.15978341113261949,nm,0.0
56.142406940460205,-27.247908792305488,38.54024484624845,-81.85699229571193,-0.4124642973542841,0.1591199807221399,-0.27108135075362744,-0.32685665914260564,-0.41288669652753623,-0.15786721015638502,nm,0.0
56.16565704345703,-23.049831346460106,34.09123592737888,-79.76856654507674,-0.16821457191589256,-0.2865936983955018,-0.05945720639500327,-0.4160585417260113,-0.4127364944373946,-0.08524982346699757,nm,0.0
56.16888070106506,-21.23447941580079,31.578653717694134,-78.56334068559678,0.10603017340389286,-0.5558511606501982,0.0802424124099768,-0.4466213381553564,-0.4040602826944175,-0.021086501648705406,nm,0.0
56.1802544593811,-19.78210930340491,28.967633089517065,-77.25611668785447,0.445510948078548,-0.8317640192211588,0.29432745515636216,-0.4684736645661441,-0.3648607655842991,0.05427559321079197,nm,0.0
56.21063804626465,-18.43876707496585,23.932851514696743,-74.8151104468299,1.3500717348380928,-1.2320580224884197,1.2709881869911017,-0.46378336670042375,-0.19865858806889297,0.13724486006371278,nm,0.0
56.2129340171814,-18.552365172820455,21.883829403704546,-74.14269513110952,1.4483760412020277,-1.0893820699570271,1.4065941682841678,-0.4109376844333136,-0.09976136488234502,0.10592283409166225,nm,0.0
56.21783447265625,-18.946249385320925,20.412236724527844,-73.96597729399404,1.5104512980209104,-0.7721012355066849,1.5133742397273935,-0.3135941919095742,-0.020327092638474764,0.03175305069350777,nm,0.0
56.2550630569458,-21.264296657993466,21.853473815305925,-76.09536737720826,0.9973645722577703,-0.21306841912576371,1.474684203321307,0.27106521102699754,0.19677177379242797,-0.17425024403378972,nm,0.0
56.25664520263672,-22.349635053212932,24.342035344542534,-77.23552979592237,0.6370350972539339,-0.17942680327324295,0.9971964365813938,0.4279948146436148,0.30045642291871233,-0.15651751337784328,nm,0.0
56.273595571517944,-23.514973044574997,27.375069546135165,-78.45936593998016,0.817850298559368,-0.29782786985900933,0.8186947338156001,0.5386666315816712,0.32425152467015544,-0.14667838941451153,nm,0.0
56.27611804008484,-25.343006716251125,30.712297871658272,-79.91587656973111,0.5659907923119253,-0.37042739118049284,0.21875188651170516,0.5852404119656462,0.4311102661814249,-0.11731902070025767,nm,0.0
56.29713463783264,-29.426315656967677,36.6850656658315,-83.64334391422159,0.18153693143850178,-0.2556658478260027,-0.7794852417698379,0.48656497521517394,0.38711404435287955,-0.1787434665614637,nm,0.0
56.30273413658142,-31.76981142145981,38.69141123367453,-85.78724206928207,-0.1294866563947009,-0.20525875801605875,-1.1002611323538654,0.3537376847839162,0.3993140636795228,-0.1640637220611106,nm,0.0
56.329171895980835,-35.50542649790602,40.97197692473418,-89.56574259432671,-0.48711274436106056,0.17780855557217976,-1.1454614572302626,0.15709239918395138,0.2400898834569836,-0.16292359191796013,nm,0.0
56.33139419555664,-36.432344378840405,41.38469972407671,-90.43319165971455,-0.7297771785122998,0.29701110621977667,-0.9828673268743562,0.0703013809896478,0.13254766904806703,-0.08532817665542308,nm,0.0
56.340630769729614,-36.490127691178536,41.81078167357298,-90.57962514171581,-0.746017223376658,0.5309259871172253,-0.7942992667103449,0.0732050960256568,0.0008339172527522584,-0.062113441434536266,nm,0.0
56.36444091796875,-35.401223958917775,42.83311187799223,-89.39017701596414,-0.8887842461375498,0.824368236518437,-0.4157903786425005,0.08181674080484001,-0.1131356595009145,0.01322462976668918,nm,0.0
56.36981987953186,-34.369031098244584,43.17745002287818,-88.44555336886911,-0.7911603986585671,0.8137792949598313,-0.42327361366199606,0.06013381501639032,-0.1569037057320613,-0.009848123471895454,nm,0.0
56.39216899871826,-33.25498118362983,43.146421160542644,-87.00478619143011,-0.816160503880129,0.49076278257183037,-0.47168638791157996,-0.045004739597867625,-0.06860931981477486,0.026365297958876578,nm,0.0
56.39767909049988,-32.906529127461575,42.55140177032644,-86.23492414325898,-0.6309461975644449,0.30707031189635936,-0.430081842040665,-0.12762597879158633,-0.06583242832516358,0.06499120621746686,nm,0.0
56.422391176223755,-32.44455481975851,40.153140053500294,-83.5017447389463,-0.5722974085499825,0.29889513960592984,-0.5256554165371922,-0.2750191781308534,-0.07499520897029799,0.2475051265287733,nm,0.0
56.42771315574646,-32.05607252943242,38.81822450936244,-81.65074803914021,-0.35434922284979153,0.3495579637848598,-0.41338163358976476,-0.2683878179042065,-0.10294903931677689,0.2898538619104927,nm,0.0
56.4509859085083,-30.540975395564946,36.00418860020045,-77.31196139899774,-0.037082985441743155,0.39000829656862535,-0.3830868677792201,-0.2687837962407983,-0.21797301049156437,0.27191269129718637,nm,0.0
56.45448350906372,-29.351883624670254,34.39693950839095,-75.39407473370528,0.10465380962409493,0.2931862701888668,-0.49397754977532354,-0.2766441728488951,-0.27513495507366525,0.20302903505122516,nm,0.0
56.47819542884827,-26.2911089047978,30.46910231031022,-72.60630375117472,0.6688472412778488,-0.14689911682647538,-0.41283013618611814,-0.33499486598542527,-0.3997434984276893,0.018638794374503668,nm,0.0
56.485740661621094,-24.73564331144978,28.172445522455593,-71.85909911266498,1.1052858354670294,-0.4711538155880653,-0.03062054706116047,-0.3639604333237601,-0.40983147414093063,-0.053873859545767094,nm,0.0
56.49245500564575,-23.5440549729438,25.97722701046694,-71.59314980189107,1.3145678919824264,-0.7073321510963375,0.4644152177714624,-0.3597113419964836,-0.35054432979653455,-0.1086299834900909,nm,0.0
