timestamp,roll,pitch,yaw,acc_x,acc_y,acc_z,gyro_x,gyro_y,gyro_z,markers,motor_input
46.004798412323,22.727648845230537,-27.826730162301487,38.72258538507365,-0.5232593881516642,0.5114206177641459,-0.14018352546143795,-0.23849357677159483,-0.14266573026975068,-0.06236948096365516,nm,0.0
46.006404876708984,20.683778995973466,-27.44707028269633,39.49694030931576,-0.5199164285208949,0.5968176094937836,-0.029472062805249652,-0.3153274670030545,-0.17009474854170092,-0.06001346250466557,nm,0.0
46.012386083602905,18.34842664802992,-26.986363140246414,40.3254899352512,-0.4378364008423438,0.7022364885978712,-0.023397955019022733,-0.364180062108823,-0.196525852190277,-0.06440507828897783,nm,0.0
46.03538274765015,13.655252728045838,-26.0798574451076,42.32574185782405,-0.3445478851042684,0.7846044922719995,0.011678607626833409,-0.3548529230282526,-0.21270638798383792,-0.03812062256320902,nm,0.0
46.04097294807434,11.41459029287041,-25.69794314625468,43.35346510044041,-0.305658066293271,0.7264402634951278,-0.07891339400057415,-0.33364498331371045,-0.2194044134242406,-0.019195435490708204,nm,0.0
46.06582522392273,7.450149208680932,-25.083397349868132,45.4628824236807,-0.2659023918754706,0.38823902045457087,-0.1927851222347194,-0.2711983812024155,-0.1993146534771853,0.04268236258292793,nm,0.0
46.07158660888672,5.779251180517049,-24.717157491934184,46.52260903761397,-0.2555046686476559,0.14963078245264153,-0.30494246129676117,-0.24941087465286274,-0.16789855899521702,0.07639014830404889,nm,0.0
46.08303499221802,4.370902114759864,-24.25011005546511,47.65437757405421,-0.2219307947809288,-0.08246818706992541,-0.333912073283265,-0.22897750688162957,-0.12486972529134203,0.10740889789850094,nm,0.0
46.08846306800842,3.2146647025115778,-23.625083253568267,48.785967498793035,-0.10739963243570547,-0.3142246698585497,-0.3338419252309777,-0.2200380760051764,-0.07486948835300641,0.13040899915061877,nm,0.0
46.11303377151489,2.726024005297133,-21.802160684852932,50.828039909826295,-0.1232081012250388,-0.7174444561278718,0.2997845349869389,-0.12964419552635506,0.13979786744434397,0.2261401984930049,nm,0.0
46.11631441116333,2.703597450099818,-20.718666771097705,51.73403272568038,0.5190272094390974,-0.9187308148158378,-0.06422935651139887,-0.15754229333867253,0.13273492883654622,0.19971825234711765,nm,0.0
46.12601613998413,3.7094612497602513,-19.74344427030186,52.560180860567584,0.6750139435880608,-1.1231638994296473,0.37159987232492553,-0.023809625171795613,0.26949365158667327,0.2538420417698843,nm,0.0
46.15097260475159,6.32321408707434,-18.493108485453572,53.39052941017084,1.0484133394982644,-1.0981808349523747,0.7663101323629002,0.055935792811182106,0.2256314984733941,0.10892430285762902,nm,0.0
46.155325412750244,7.645554708904832,-18.325296579956078,53.175161554935585,1.0797894897624276,-0.9567692024519941,0.6573181631723528,0.13704722104966377,0.2224685951446992,0.0241076258703689,nm,0.0
46.178226947784424,10.043066748459747,-19.343053084735594,51.36779380054352,0.8681982028892188,-0.7726660511901381,0.4636663650491613,0.25391363705557873,0.07537585086611093,-0.15513260114996366,nm,0.0
46.1970796585083,12.253703420664156,-21.229443380759953,49.26157487279345,0.25300384654096747,-0.665395815165095,0.2568020161906441,0.28492857575460634,0.018257964838395768,-0.141192451869039,nm,0.0
46.210031032562256,13.15236801643253,-22.214262109400973,48.50436595851792,0.09385596539919826,-0.5178394942588151,0.0006851082603895161,0.2723245284043472,-0.0028863350644404854,-0.10315958045153241,nm,0.0
46.21491575241089,14.14920554918097,-23.0856085896473,47.94096019964298,-0.1153103859069584,-0.346906570501226,-0.0378740090990621,0.2666533022556393,0.022018795521880557,-0.05343495996439291,nm,0.0
46.23554587364197,15.893312831800172,-24.44703051593518,46.74136920025439,-0.026352742257942586,0.11293511128105348,-0.5027703286540347,0.21233804527031966,0.026158378436827192,-0.0877050422025578,nm,0.0
46.25011157989502,19.140921352397527,-25.658316793602403,44.635492193685835,-0.3126309470232468,0.37367815780653924,-0.08343260796682637,0.31155788504840487,0.1319582414433284,-0.11206477272405493,nm,0.0
46.27484154701233,22.407537715986184,-26.81470234142333,42.005365777885004,-0.29548121513352565,0.5001197859654704,-0.2277406520038749,0.3215601983091895,0.13152516973994352,-0.111996399539337,nm,0.0
46.278703927993774,23.832786621081194,-27.288091419827218,41.01736677605155,-0.3828743162075489,0.5000658548888525,-0.19600860852210933,0.2667259920340025,0.09835103631534149,-0.08164992727171284,nm,0.0
46.28892111778259,24.718398016463,-27.68951542962804,40.408201234413355,-0.3540964425722001,0.5478332021855478,-0.4441627287262501,0.18527197891803482,0.042490053111795004,-0.04491811393658538,nm,0.0
46.315372467041016,25.12298634236644,-28.119733464762096,40.6057324082168,-0.5639945896861978,0.4138810818288065,-0.07235226313488569,0.0,0.0,0.0,nm,0.0
46.317070960998535,24.235986213929976,-28.032115179347514,41.27558286157981,-0.4697344949960476,0.5156059469261068,-0.1794525589679539,-0.11609964780774426,-0.08865916946338288,0.012066440038067228,nm,0.0
46.32641816139221,23.001615678478977,-27.83570070582323,41.988559702161815,-0.4674360510505162,0.5954439247814778,-0.0964066679310062,-0.1755103159214789,-0.11499109216925449,-0.006438507736937986,nm,0.0
46.33688139915466,21.308482925687215,-27.550115737128948,42.632095617104724,-0.38439875407100077,0.6097537698612631,0.0069829858063999726,-0.24657847253877768,-0.15925410625699674,-0.055591296781179085,nm,0.0
46.362311124801636,17.180382948902007,-26.909726407058724,43.97698951574917,-0.2806305502005717,0.5629003535792617,0.04343048038801631,-0.3025032559643645,-0.21815993001123,-0.09453353061277589,nm,0.0
46.36424899101257,14.801043361824014,-26.665772252933017,44.734505731316176,-0.23482498459154424,0.5021822801401833,-0.026095470574694697,-0.3239164265210869,-0.26259149559860656,-0.0955776821996312,nm,0.0
46.37737822532654,12.2900419827088,-26.437059095894234,45.57890487731439,-0.21151190220689908,0.3873061457982826,-0.1302570592184274,-0.33541790343200384,-0.28669340470635274,-0.06912867141861195,nm,0.0
46.40030360221863,7.2560530859271966,-25.845773496729947,47.68373402970716,-0.2200381661482242,0.08958531098666059,-0.27917902007926426,-0.34279190836536705,-0.285871231872397,0.00695844492884764,nm,0.0
46.40412902832031,4.896446296104195,-25.371898765990657,48.90036767720435,-0.19349519661021083,-0.07376114904099512,-0.30660407155774955,-0.34007240951494183,-0.25504086180838775,0.04181601479332251,nm,0.0
46.41235685348511,2.7688214726424825,-24.7163024153384,49.91510426145488,-0.10445890640762887,-0.22748895089897156,-0.31886011473889236,-0.3369256970745406,-0.2071537315889082,0.06845612770368896,nm,0.0
46.42131757736206,1.1550049325032687,-23.878481070759097,50.921838859121394,0.11794338613738237,-0.3607745474908274,-0.42871181508544487,-0.3028470415397915,-0.11965289943351723,0.1114964971778053,nm,0.0
46.44610810279846,-0.42898118804016633,-21.775165146116557,53.08782581442277,0.3084842387537344,-0.7121492185603935,-0.05493413615400798,-0.2472549962497205,0.02392493258610394,0.1715755162003229,nm,0.0
46.513784408569336,0.7767110144840442,-19.767846778678418,54.75731260202138,0.29640595589286295,-1.1995391935694073,0.9967314601082932,-0.018391834587238868,0.2726286579809177,0.24944402651299646,nm,0.0
46.51687979698181,2.1037278150626397,-19.000278320577916,54.97859435652959,0.6372745003029687,-1.0613066179982846,0.689011335821918,0.033295249838546134,0.2941955855517942,0.1745645948632525,nm,0.0
46.51869320869446,3.8242298024760335,-18.418363184993357,54.62275024152487,0.718113116298304,-0.9235165159149281,0.525384050950578,0.10774646981059893,0.3344431961535132,0.09018380611919247,nm,0.0
46.520328998565674,7.58303065025874,-19.05128050240918,52.67899287074314,0.8871484505507877,-0.6387929768577743,0.6387047530681107,0.32882040752263386,0.21512908992862567,-0.09515507645929751,nm,0.0
46.52217173576355,9.625681385819465,-19.827446622631694,51.5166224043036,0.7071691231563308,-0.5560926172421814,0.5016836542904213,0.3734385790794686,0.20970834458697926,-0.10052077051768296,nm,0.0
46.52383756637573,11.579016521375406,-20.777022094095607,50.35813609803599,0.45396245492653836,-0.581889384515534,0.33101366925147924,0.39271752558509126,0.16563711861815128,-0.08613850635908357,nm,0.0
46.53965210914612,15.301907833240394,-23.09697613920133,48.513446833411116,0.09498603507276766,-0.39849933655121733,0.07729548513156294,0.40812747955897705,0.1141316882162668,-0.01999966655095378,nm,0.0
46.54509663581848,17.093019367969433,-23.99773930290595,47.82839141301479,-0.10225557837904939,-0.28921036651998633,-0.16582971184109752,0.3672769183653496,0.1261249159676032,-0.013660370684049898,nm,0.0
46.55435132980347,18.925052295599585,-24.86795811379166,46.932740505511056,-0.17259829632595475,-0.13317027615879376,-0.21273666864963658,0.36792938646230805,0.12933729727344664,-0.049220849656913805,nm,0.0
46.56715631484985,20.614905215229378,-25.593076510313004,45.69381195963667,-0.09674144750552786,0.01077311061549749,-0.2549121546151593,0.3299897369414739,0.12244590805140734,-0.11610686542538873,nm,0.0
46.58785128593445,24.28317303020419,-26.399781401753938,42.82034465790974,-0.19188197780920108,0.28723029514501824,-0.20549101320817012,0.3125763151900738,0.18868171858605653,-0.14670453584171367,nm,0.0
46.60248804092407,25.665876891776215,-26.734009243926085,41.328843401495384,-0.1448954605948498,0.42076619264428344,-0.33563969823197304,0.24212663829029266,0.11738253685242908,-0.17990715428427456,nm,0.0
46.60539221763611,26.625833503356553,-27.021838759378003,40.250473897522326,-0.14068969179939542,0.4752617323877681,-0.39156980068715397,0.18087756283562192,0.06950045072568564,-0.14554419412198472,nm,0.0
46.62616515159607,26.954119200986042,-27.54976723689287,39.43343095807944,-0.445268502947193,0.47187022173317084,-0.26334859500889934,0.01616741410843047,-0.06333330058447788,-0.06089292314807635,nm,0.0
46.633501052856445,26.10314003782898,-27.6810271051232,39.82114466245983,-0.527424948987035,0.471021252113545,-0.17103236529539034,-0.08582299692866487,-0.11577188629877894,-0.0393178031773335,nm,0.0
46.65850591659546,22.79467119879986,-27.323059175136272,41.26798078620752,-0.5628328634354741,0.6022367891975081,-0.035800086711653925,-0.2758316999765273,-0.18010296540660703,-0.06366525878552007,nm,0.0
46.66199207305908,20.597790019446503,-26.950500815466448,42.053893551068214,-0.4980900437123524,0.6522413101713072,0.12027424061266558,-0.32790546260199405,-0.20462617829435456,-0.09052936693249101,nm,0.0
46.682666540145874,15.703251660023724,-26.175081343420164,43.535885396824625,-0.30390210714900284,0.7470183569212661,0.08227192455972998,-0.35795536799963357,-0.251896198089685,-0.10427951256658376,nm,0.0
46.690758228302,13.227084434655064,-25.958092190008934,44.382469952207245,-0.2832950731210892,0.6932231173183071,0.05757842504520787,-0.3363648227263852,-0.2784606268575776,-0.08227067785664001,nm,0.0
46.71230888366699,8.294316497884038,-25.70436192295355,46.32198856400984,-0.2696674142876078,0.3782204065896653,-0.1813763528957186,-0.3086139495553446,-0.2974422800173409,-0.015586356179097099,nm,0.0
46.716450452804565,6.027533739737447,-25.523900836847204,47.30564280173922,-0.3006206183023358,0.15869192122159276,-0.277224675588562,-0.29240659211269,-0.2738664085075334,0.015873672773414227,nm,0.0
46.74049425125122,2.2343704240220936,-24.64510864025651,49.27683359243915,-0.16605733154986996,-0.17764780539887964,-0.3920952384229893,-0.2768012654125225,-0.1664792401209983,0.04814942793329327,nm,0.0
46.74617075920105,1.003538572454161,-23.88939503521325,50.175610245654354,0.1371062013252004,-0.3185001653167996,-0.5767822445142702,-0.24635345436885828,-0.07397694245231622,0.07687271696153236,nm,0.0
46.754128217697144,0.6490616577947863,-22.976441526880265,50.89419807221909,-0.05108074903004957,-0.4756456846015458,0.0008001054503201387,-0.16811005833338075,0.06589243788420708,0.14280664809833749,nm,0.0
46.76358127593994,0.35603717784505484,-21.946168507762543,51.525539764515976,0.31115098135505015,-0.7061976293390418,-0.04444315802715618,-0.18032004879861394,0.08710831981714955,0.13627489376390978,nm,0.0
46.78696632385254,2.3654314913089505,-20.04267700869006,52.407053232683545,0.3903961452894237,-1.092258817233496,0.9750209466201073,0.048549094284561084,0.3321100839656663,0.2136662909507806,nm,0.0
46.795132875442505,3.8263369548705533,-19.42800340022457,52.2344607437235,0.7082705271762583,-0.9910352753755695,0.7395339811941388,0.08562900479155039,0.2933227733690123,0.10793744000193713,nm,0.0
46.82072901725769,7.716752350075902,-19.72165168253191,50.179803997912536,0.8050670462157232,-0.8429655694634849,0.6910548108799552,0.33767183415176444,0.2587387578277692,-0.0919633078510314,nm,0.0
46.82270407676697,9.725430011166674,-20.584450676962764,48.61309383051871,0.8159355252372789,-0.8522988329242017,0.5916985917064607,0.3908290874630711,0.17442799695654856,-0.17891715631729802,nm,0.0
46.846593379974365,13.777864846151342,-22.681226175368323,45.58594471647073,0.36917499125705655,-0.6989848506366144,0.3414026869824663,0.42300723509450183,0.1189071171815017,-0.14696133704614453,nm,0.0
46.853440046310425,15.496265238674264,-23.7592232056483,44.39471180410462,0.23665334385355521,-0.5174774836018838,0.08860957439058624,0.3900159441988228,0.07120270039653168,-0.11826195413191505,nm,0.0
46.87554955482483,18.801494281893433,-25.592054157550884,42.076909427845564,-0.10575651029361272,-0.10841366898962863,-0.04113008138487024,0.3437317587684908,0.07668285018814755,-0.10701254152254172,nm,0.0
46.87771224975586,20.298024412072024,-26.280259722267264,40.52427690732869,-0.15935071790512023,0.0032131101210693025,-0.01506272358900033,0.30713402990228655,0.07436814051329663,-0.18427451820277832,nm,0.0
46.908793210983276,23.562313424432634,-27.067448705932073,36.45673776741094,-0.21031256165109571,0.3257553422642613,-0.3094986318256622,0.3088385665624341,0.15183241602381187,-0.29578633099563856,nm,0.0
46.910436153411865,25.033054453240908,-27.270503714878807,34.1248201896059,-0.3605752003188801,0.3075716558596316,-0.21100025247075985,0.25086332596646654,0.11761100917618197,-0.3470842385541841,nm,0.0
46.91748523712158,25.7474574436705,-27.39245037055105,32.109432957071924,-0.30742167476032006,0.31759435649508827,-0.4637866552758819,0.1332720994596433,0.048033830402301456,-0.3563122217609978,nm,0.0
46.92525362968445,25.905206900256893,-27.43084040811889,30.82878320271073,-0.5347810613178973,0.23877064489460917,-0.2928318464721743,0.04141896200215617,0.0068164133354934155,-0.25947976625695574,nm,0.0
46.96175765991211,20.704927883840885,-27.10924365355044,32.18758816767297,-0.7091439345634051,0.57132532360518,-0.11169230675242785,-0.3831457749082489,-0.18353518683416714,0.022113134915061648,nm,0.0
46.96480059623718,17.838042367454005,-26.642720499626275,33.77687840345787,-0.6815308577027619,0.7614025907435513,-0.01440407522394752,-0.46662504504078756,-0.20233476805241613,0.05459730621440857,nm,0.0
46.97451829910278,14.887289457152573,-26.07933677313148,35.251644918414144,-0.5033434127012676,0.9467895533176552,-0.06679679156264635,-0.48642110083111045,-0.20883109753468412,0.0413594590708701,nm,0.0
46.99576210975647,9.975194285327888,-25.015528079720653,37.36972464630922,-0.30824546216451904,1.0624899132806458,-0.030840087594767057,-0.37677672129387596,-0.17426018663088633,-0.015730499546291767,nm,0.0
