timestamp,roll,pitch,yaw,acc_x,acc_y,acc_z,gyro_x,gyro_y,gyro_z,markers,motor_input
23.02347469329834,-6.328425136095661,4.912620006848653,71.66580446641636,-0.11708825379681989,-0.03158450536203132,-0.045050124342919697,-0.007050083943807044,-0.052559508321116846,-0.005727256187544135,nm,0.0
23.032007455825806,-6.560246098943456,4.928932879723535,71.54278176703343,-0.08942248986379395,-0.02310387733384725,-0.1284822513813447,0.0,0.0,0.0,nm,0.0
23.05651545524597,-6.804575148366545,4.964141378044676,71.349435970667,0.006686537478184196,-0.00940879035924527,-0.07801667908066037,0.0,0.0,0.0,nm,0.0
23.058098077774048,-6.929511007347753,5.046688581548032,71.2889208637946,0.00384412419846723,-0.00541081363496366,-0.04406828284593892,0.0,0.0,0.0,nm,0.0
23.08123755455017,-7.343920736310225,5.233928657781095,71.31250758719219,0.03337392022665273,-0.05712430990782581,0.010437815979653462,0.0,0.0,0.0,nm,0.0
23.088852405548096,-7.592518486652198,5.421634274259565,71.37102344510149,2.3689690215608915e-06,-0.07372787622578235,0.06634669039989562,0.0,0.0,0.0,nm,0.0
23.111895322799683,-8.289972899944422,5.781298405745309,71.44133917935436,-0.026013662972318313,-0.04895370426151955,0.0681740179954685,-0.03002644327336755,-0.05753631680182204,0.01894176731602744,nm,0.0
23.119176387786865,-8.649972249150155,5.9388054715849,71.42644376704186,-0.02415942187827601,-0.03353156196001287,0.08487112371044615,-0.03319728124724798,-0.0628994960899966,0.008940820499833262,nm,0.0
23.136720418930054,-9.347329325835508,6.115309602898563,71.24107470639547,-0.0628824083333376,0.029511765966550658,0.0720737352682159,-0.022208445523926507,-0.06766315779085172,0.0006890433279920296,nm,0.0
23.142902135849,-9.711957905547903,6.152772696537588,71.10358337747239,-0.18172426765516256,0.13571875709199216,0.6451839872808558,-0.016946252539164573,-0.06348608347143113,0.003495558341698601,nm,0.0
23.166983604431152,-9.879145630952138,5.884621968399551,70.85930305908958,0.008897858458506389,-0.12825011857102606,-0.2790802820523674,0.07522346272686034,0.02637115328555003,0.017102000352393634,nm,0.0
23.205582857131958,-8.960706984193047,5.111825484472228,70.96013466931703,-0.08607559161344286,-0.02819849276604936,0.1516391622976952,0.09179075779845525,0.0373864599972289,0.010569650842322382,nm,0.0
23.20738196372986,-8.472554832428012,5.050691491521828,70.91259433786406,-0.13861589512676137,-0.03427090305610116,0.09671312566167134,0.057072692998949036,0.09076903360637935,-0.00019478834810198693,nm,0.0
23.208985090255737,-8.002292860836988,4.951248632810337,70.8954106987,-0.10126993033594664,0.029688128148352304,-0.05877794803998485,0.0631666195301526,0.08487746955064836,0.003595983816672752,nm,0.0
23.211082935333252,-7.588305626345863,4.759934913245113,70.90615068563015,0.045144030963620685,0.015123232399491407,-0.28648837246645326,0.07685163203340607,0.06826977279599795,0.010587151245169834,nm,0.0
23.225293397903442,-7.118318038024145,4.660502565128016,70.90016704158472,-0.0625979505724401,0.028271744340572575,0.07645127948886772,0.06312807588312458,0.08487795462298744,0.01072498032996267,nm,0.0
23.230989694595337,-7.003031937142175,4.687297727084546,70.74911339272474,-0.01701704739531662,-0.06678844976815276,-0.043010981484635585,0.0,0.0,0.0,nm,0.0
23.253021478652954,-7.158335764112951,4.891415595501228,70.66546020126404,-0.03353089274686414,0.0042434325148131505,-0.08293369303231836,0.0,0.0,0.0,nm,0.0
23.259227991104126,-7.54099152087039,5.137751215557697,70.68645167594836,0.010044822527368298,0.029779993214031488,-0.19552654649448115,-0.058242223324209835,-0.052960369433216754,0.010963666078889194,nm,0.0
23.28427004814148,-8.553589958626343,5.662692166391819,70.69710163580878,-0.09050263170980996,0.2070895468771494,0.520957966478209,-0.06949192395635335,-0.08892109600494702,0.004858187339199982,nm,0.0
23.2858624458313,-8.900731934924522,5.7221970756053455,70.67625132736724,-0.05797402304009562,0.0997859371430081,0.10059484177426092,-0.02047863852244327,-0.05864423364483095,-0.0012170688253820784,nm,0.0
23.309993505477905,-8.95107383225728,5.2343494059745215,70.45075849329479,-0.10172471294069609,-0.057650143451413505,-0.055002391296423966,0.06762704629423191,-0.018280654744106464,-0.018431368441042505,nm,0.0
23.3170382976532,-8.734164811731864,5.26598292981412,70.34009464257453,-0.11750438788555596,-0.14435378420867206,0.057730615827623614,0.052208787164070534,0.021023830207478746,-0.030114202650622802,nm,0.0
23.33673596382141,-8.363796223797609,5.756265529663946,70.04978129820846,-0.04635453831827476,-0.1453153906860392,-0.02571726547094203,0.0,0.0,0.0,nm,0.0
23.341723918914795,-8.220746060648649,5.970916226208378,69.90577710194574,-0.02576451858030719,-0.04293053686307496,0.07088767179912431,0.0,0.0,0.0,nm,0.0
23.366385459899902,-8.223172322976836,6.171103525611344,69.80330267407601,0.07226166172351037,0.11028345148762772,-0.009565151758308096,0.0,0.0,0.0,nm,0.0
23.390295267105103,-8.450421977322518,5.742553391981127,69.6668111897916,-0.03856564302884797,0.05038537649023978,0.03878387099749924,0.0,0.0,0.0,nm,0.0
23.415498733520508,-8.627922587902656,5.512792400316472,69.40511869310305,-0.11838343761493811,-0.10606991863963998,0.054159241053975765,0.04046569539572732,-0.04517117985631271,-0.016037352419829447,nm,0.0
23.424134969711304,-8.674323237957074,5.5796173911148434,69.25654901619838,-0.1423064959450663,-0.1398745852554489,0.0636039875887023,0.0,0.0,0.0,nm,0.0
23.446470260620117,-8.669731224389091,5.912283417104108,69.1108900379963,-0.09338331651986469,-0.04517959947871641,0.028435554540335913,0.0,0.0,0.0,nm,0.0
23.45207953453064,-8.587442748104607,6.0667509598089495,69.11976120429813,-0.06862303693374748,0.02493047045469954,-0.010962408252078233,0.0,0.0,0.0,nm,0.0
23.46373438835144,-8.508715126882635,6.118130124268737,69.1640772714116,-0.016846023668656535,0.12397769559789026,-0.020781815035514017,0.0,0.0,0.0,nm,0.0
23.4844708442688,-8.370458403755615,5.720474632126115,69.32530890007801,0.024132805707640564,0.06395103516276877,-0.006847202607675335,0.0,0.0,0.0,nm,0.0
23.507375717163086,-8.439732782622087,5.489550319796793,69.23481501640214,-0.05376766439184117,-0.11103412064798349,0.08567180960581994,0.0463657740476441,-0.022636868024669406,0.000941536254952307,nm,0.0
23.512735605239868,-8.522057617758549,5.566314422360901,69.09758599442415,-0.068723629658398,-0.16656766292591435,0.04956052399608338,0.0,0.0,0.0,nm,0.0
23.53773832321167,-8.658195096626674,6.0254252810084,68.76208743658792,-0.047406571882508595,-0.10933332760660976,0.04282587431380293,0.0,0.0,0.0,nm,0.0
23.560470581054688,-8.571133535035177,6.518571451891494,68.25051477669206,-0.01033566603854052,0.08165213409195679,0.06858462643047608,-0.041068501815232174,0.026665134635809322,-0.03848269578588467,nm,0.0
23.573760747909546,-8.37571747959253,6.530875852402922,67.6212899131926,0.014593020705279874,0.15600864912170256,-0.023953660181996357,0.0,0.0,0.0,nm,0.0
23.589335680007935,-8.262303565788198,6.41883221986727,67.37235277381183,0.01352401402863403,0.11548318713476483,-0.017245783797596923,0.0,0.0,0.0,nm,0.0
23.591225147247314,-8.119851076679504,6.3747301761340385,67.12932329525363,-0.025168702332144226,0.010149973593834318,-0.0038475177984168586,0.026657009034406286,0.020164595050023014,-0.04335336323556878,nm,0.0
23.616642951965332,-7.835905347392107,6.491391305958142,66.75097378985048,-0.05079030386465581,-0.10145674391824193,0.06128793152408674,0.0,0.0,0.0,nm,0.0
23.618562698364258,-7.702162710381946,6.721915914670331,66.61263551190885,-0.06432861468330937,-0.12826886130608062,0.07739856441270479,0.0,0.0,0.0,nm,0.0
23.6424241065979,-7.5027046755046625,7.239391107342581,66.44461938951116,-0.01994037371675471,-0.030501629666912302,0.051171471092818846,0.0,0.0,0.0,nm,0.0
23.645866870880127,-7.400593393679776,7.45127427640566,66.42696159370396,-0.012879284624644126,0.04278819509042245,0.02429096619609936,0.0,0.0,0.0,nm,0.0
23.669350385665894,-7.1950117865218575,7.576621728055042,66.44212175147042,0.016726377029577893,0.11338520659270043,-0.01853264314485415,0.0,0.0,0.0,nm,0.0
23.67362070083618,-7.067814112015418,7.533088917451775,66.41786210753176,0.004311974441087552,0.08975225048905157,-0.015102203026947777,0.0,0.0,0.0,nm,0.0
23.70052933692932,-6.800142182793685,7.488839971711638,66.35170156931831,-0.02003611660012226,-0.03781900292764003,0.032537840877600345,0.0,0.0,0.0,nm,0.0
23.703694343566895,-6.672573367290746,7.562431080632362,66.27854287647179,-0.041866152380183604,-0.08500035503928573,0.04821542520649222,0.0,0.0,0.0,nm,0.0
23.726383209228516,-6.411642661554598,7.953942410225299,66.15925481564692,-0.04593579864279478,-0.09151499246013646,0.059452018806452886,0.0,0.0,0.0,nm,0.0
23.752140522003174,-6.126304786386325,8.403896068112145,66.14974369533037,-0.0012210153472610285,0.00553346231845538,0.030914603584696693,0.0,0.0,0.0,nm,0.0
23.753922939300537,-5.963841213126531,8.55593103361663,66.16522549199676,0.02094179673810448,0.047403467478661886,-0.007796760546077554,0.0,0.0,0.0,nm,0.0
23.775011777877808,-5.605157282076804,8.631028353622236,66.10286800635637,0.001719223560632738,0.07269327110732596,-0.012961028050792585,0.0,0.0,0.0,nm,0.0
23.780335187911987,-5.422501886640204,8.623157234566971,66.01068383886118,-0.014785403497092618,0.03664429102418557,-0.0068927636909800775,0.0,0.0,0.0,nm,0.0
23.792109489440918,-5.240984639508682,8.634642252534858,65.80656519406482,-0.027017603404786535,0.011694045298671917,-0.0026696051149673644,0.0,0.0,0.0,nm,0.0
23.79788899421692,-5.075065923661222,8.701109776546682,65.5973883476932,-0.030010552022495737,-0.058903659358327254,0.04420931906533078,0.0,0.0,0.0,nm,0.0
23.826146364212036,-4.760713596564873,9.014176341866053,65.50633207972419,-0.0415309451067365,-0.08215936483568585,0.05994941931251822,0.0,0.0,0.0,nm,0.0
23.836293935775757,-4.4359250609554755,9.397608378460413,65.51373631054167,-0.03900535900294874,-0.014138024784489526,0.037889677421714875,0.0,0.0,0.0,nm,0.0
23.85302710533142,-4.262185800115341,9.527999886915127,65.53113471503755,-0.028353472418358835,0.01834005709186008,0.02948493981844343,0.0,0.0,0.0,nm,0.0
23.861337184906006,-4.0898101039553545,9.580907760988158,65.43218598215998,-0.016519684980711397,0.0442005771812905,-0.008048099815375128,0.0,0.0,0.0,nm,0.0
23.87385392189026,-3.790159315945019,9.518738934888592,65.15964383068095,-0.013832621325076996,0.04152163785766956,-0.007358666630507909,0.0,0.0,0.0,nm,0.0
23.891160011291504,-3.6842297878145343,9.457107362581347,65.02341145169551,0.00029947802608510174,0.0047907533459797475,0.026830126383693535,0.0,0.0,0.0,nm,0.0
23.892855644226074,-3.607648657368789,9.414974265938003,64.92817929193045,-0.01121894038432427,-0.017101265998012666,0.05022434357247924,0.0,0.0,0.0,nm,0.0
23.90189552307129,-3.5592808657543737,9.414951331348112,64.85704786897954,-0.024548772709787354,-0.044936201817630694,0.05948854204063927,0.0,0.0,0.0,nm,0.0
23.913533687591553,-3.5295870463238987,9.450477879088197,64.82213125110847,-0.030474062242441483,-0.05804837324511362,0.05829028538068145,0.0,0.0,0.0,nm,0.0
23.93559503555298,-3.489613354849357,9.574356706569139,64.8947346682089,-0.05026841598631016,-0.024897193715000904,0.043969152237804524,0.0,0.0,0.0,nm,0.0
23.941030502319336,-3.476316131364599,9.617141296665599,64.91918964392909,-0.0338966987527765,0.020863050439777212,0.026717871538735307,0.0,0.0,0.0,nm,0.0
23.96397638320923,-3.4693911807103666,9.563377774201868,64.85733638642255,-0.018607639829771015,0.04208922157754181,-0.007222392482404933,0.0,0.0,0.0,nm,0.0
23.978899240493774,-3.4831670230057967,9.46814603446592,64.78524549884929,-0.008525301685829973,0.04342329663591006,-0.007563536546346907,0.0,0.0,0.0,nm,0.0
23.98074984550476,-3.509223646989824,9.353850244416046,64.5912826698764,0.011467637947641537,0.02809984359167593,0.023078847279546507,0.0,0.0,0.0,nm,0.0
23.994558334350586,-3.548248117260683,9.253736257843435,64.42182663277919,0.0004560032284520985,0.005805338790279789,0.03334784873481159,0.0,0.0,0.0,nm,0.0
