timestamp,roll,pitch,yaw,acc_x,acc_y,acc_z,gyro_x,gyro_y,gyro_z,markers,motor_input
107.50329732894897,-36.77014034650028,-8.185532626973504,163.6283673905905,0.8550657868261667,-0.4402197184020272,0.1093270025258097,0.5909787375587686,0.5306816022399999,0.01239329714850193,nm,0.0
107.51425361633301,-39.105583676840354,-10.9256077842336,163.74299086227396,0.624753078174803,-0.3696197728871979,-0.17244514148414902,0.594323897527691,0.4093563429639539,-0.013141294580353024,nm,0.0
107.53350138664246,-44.01712301280218,-15.304800078577054,163.8774226910843,-0.1969095212175065,-0.16413430035009274,-0.5246894842629695,0.571674839249373,0.27957207790109523,-0.08184385914370809,nm,0.0
107.54382252693176,-46.320300783982155,-17.357070794018746,163.82430141481422,-0.5700638283397055,0.006485654470047751,-0.6113899048880186,0.5375746535729609,0.2833628359094862,-0.09906365531686136,nm,0.0
107.56496214866638,-49.84848427510114,-21.633747192872125,163.87342266601522,-0.9745214300256885,0.31605648561468674,-0.6327674776808141,0.39662864010713367,0.34841404755381616,-0.07112185781401509,nm,0.0
107.57107353210449,-50.858210254155544,-23.7827648975022,164.03340435565224,-0.9903506288649252,0.38613800617738525,-0.5857794689592928,0.2972267804202683,0.3736036326590227,-0.01723005510545989,nm,0.0
107.58979368209839,-51.226467038726746,-27.12851964883046,164.49567973658233,-0.7711773481371447,0.3754704058755009,-0.4326835346265882,0.060058052942695006,0.29104346341631265,0.08265531272171579,nm,0.0
107.61164927482605,-49.68229875808378,-27.90288868821864,164.72296128887447,-0.5599999877512467,0.3601689594223126,-0.3005583024598992,-0.16456389701169907,0.06128968405900785,0.12295474063080333,nm,0.0
107.61888146400452,-48.420568925001646,-27.221682494261437,164.69121104662915,-0.5626046340049736,0.3781838654522435,-0.21254263868431972,-0.2531355940913098,-0.06043139131964003,0.12404787455199477,nm,0.0
107.64197874069214,-45.281398316972464,-24.31329728727467,164.45251783378498,-0.7020364607700328,0.43974067987523513,-0.07341422813708912,-0.37596745678549376,-0.22584681029838627,0.11990027856668589,nm,0.0
107.64704132080078,-43.624886183097935,-22.46257667482386,164.43352508721213,-0.7451927004295819,0.4670444025602486,-0.03167574586751507,-0.39441090263295725,-0.2629539799772574,0.11858029535509884,nm,0.0
107.66853594779968,-40.51518835526473,-18.47201784816151,164.73757530957698,-0.5480469542434347,0.35377166132268145,-0.03535981704556451,-0.38241303462146214,-0.305379489007091,0.11811462796756449,nm,0.0
107.68360924720764,-37.97811026817392,-13.884331023708677,165.2750484723959,-0.07694277116657756,0.14562108621330497,-0.18292693429232923,-0.35071908986260525,-0.39514850040543326,0.10952983697417666,nm,0.0
107.69594955444336,-36.90450853336253,-11.139234180282648,165.63165197883612,0.1799322717549778,0.009323623975510571,-0.2478835145861985,-0.34422484218840615,-0.46630575750400016,0.09756525529827721,nm,0.0
107.70303320884705,-35.87138690335642,-8.00024991061997,165.99196523384072,0.4007114098462989,-0.14685673474753416,-0.2897616543161134,-0.35492084880125735,-0.5463636665779525,0.0788962518037608,nm,0.0
107.72400403022766,-33.841333528747164,-0.48657622602136924,166.49115191685937,0.6836332763456723,-0.3308551372418971,-0.31345516044092364,-0.38837192306100315,-0.7079952601161176,0.01596786915459429,nm,0.0
107.73215174674988,-32.711274266969035,3.722499156781927,166.65826398861063,0.8144006250669793,-0.4347823543854307,-0.21499769906771796,-0.41882088844480847,-0.7543273706290402,-0.013300389344113603,nm,0.0
107.75301003456116,-30.017050999357128,11.947427379017855,166.89044481655512,1.1638026956550274,-0.6681561852830809,0.3195328401860489,-0.4582105335348496,-0.7020562656826926,-0.06775254030031708,nm,0.0
107.75929427146912,-28.482396027692953,15.46023406541241,166.83104405780523,1.2392268718315107,-0.7525745726621889,0.7797037093593048,-0.4543542743795842,-0.60386139116051,-0.11185319333925424,nm,0.0
107.78193736076355,-25.61169512882374,19.87688946904336,165.97508034612497,0.5179368525879241,-0.5209068817127693,1.1856404262006044,-0.33065880095713984,-0.256542052271908,-0.19413790361986377,nm,0.0
107.79090213775635,-24.823144866931138,20.52036706367965,165.07904457551473,0.012446862317965721,-0.2590585170531614,0.8763516693187587,-0.17939227077018893,-0.07370377992360312,-0.20557710072517263,nm,0.0
107.81460237503052,-25.342009184868772,17.520898745084246,163.3639066744501,0.3440305729386785,-0.15280441512616397,0.39615976926221064,0.23204020021485533,0.4460696622315003,-0.06605312803706045,nm,0.0
107.82459664344788,-26.675025305363693,13.808714607987262,162.68965868829443,-0.03927408205031519,-0.46515133044152174,0.9589826930191108,0.4611667017433662,0.648689347063921,-0.004609404629069715,nm,0.0
107.8273491859436,-28.612220578618782,9.907848964460397,162.0498270237054,0.45814874876752726,-0.4622275127319127,0.6565654071079166,0.5951091690718397,0.6434130999751564,-0.04862854305911443,nm,0.0
107.84913229942322,-32.47937168522319,0.7128039835007925,160.96682939248382,0.6699623222908635,-0.6388461568160415,0.3098076757003177,0.6771830391884792,0.8025092110257765,-0.02501208552460535,nm,0.0
107.85365009307861,-34.24427498601921,-3.3454896562534855,160.64203434821724,0.6710018779323419,-0.47982108885178487,-0.01822960909621338,0.5980849130718956,0.6651230273197108,-0.07050828900176555,nm,0.0
107.87913870811462,-37.22069203797393,-9.466582674804092,160.09299822263344,0.18037202099065194,-0.18886930885724104,-0.4325660075791946,0.4682229533336089,0.46173049997798804,-0.00938917802003175,nm,0.0
107.88285446166992,-38.49580302690278,-11.757720650224531,160.1328741864825,-0.29902404531363647,-0.06480825694402345,-0.4074165744105494,0.39041192045614537,0.35901089224520666,-0.0015884330017910894,nm,0.0
107.9271080493927,-41.16252053327312,-17.511588011561482,160.40083076906728,-1.0131724373322006,0.295802843236804,-0.35243578411145743,0.2609992560112059,0.3658372251935112,0.03390822493967801,nm,0.0
107.9293065071106,-41.598396617753856,-19.526590964569937,160.46206031982013,-0.9403086723949483,0.3890327036876968,-0.35807111100689254,0.21205744571655294,0.3652923934759463,0.014959025478849256,nm,0.0
107.94462323188782,-41.83061926774789,-21.544187236167016,160.63197680873378,-0.7922620326407835,0.4730723118477371,-0.39231500130610103,0.17470436796678557,0.37923261997221336,0.04666755961077203,nm,0.0
107.94626498222351,-41.94988683852484,-23.455596300354586,161.0636231021051,-0.731360900279488,0.3812102339252941,-0.21240002413439127,0.14559818405943198,0.3670615237158004,0.10579579789327528,nm,0.0
107.95030760765076,-41.976319223334116,-24.784484343086948,161.57482726075588,-0.5828955075175801,0.4071316316893641,-0.21055619121192537,0.08885177988204639,0.2632937558479839,0.12247159446183929,nm,0.0
107.97335433959961,-41.54242669559049,-25.514114138605102,162.76303283047042,-0.4149012272366765,0.42173022620251277,-0.29648645959692593,-0.046240060030348105,0.04800735057688899,0.1795514085427715,nm,0.0
107.97779178619385,-41.03272497699533,-25.043268294860002,163.36819658979465,-0.4755915310191549,0.41578083439029984,-0.23918005861680788,-0.11730927736499404,-0.05046260577860881,0.17117995056101667,nm,0.0
108.00507402420044,-39.23240626656017,-22.795144192918826,163.90811046556112,-0.6160201956761377,0.43367425127620574,-0.148310457341128,-0.24897000267819525,-0.1772678107209662,0.09963428064641784,nm,0.0
108.00699591636658,-38.0931169005754,-21.308991663191556,163.92574072808137,-0.7214060742063557,0.4481406350441733,0.002662488746683662,-0.28757789957767277,-0.21453388518485067,0.0674834877784044,nm,0.0
108.02674174308777,-35.76764942627342,-17.313330710267984,163.78206131843066,-0.6346460114169392,0.46272030242646395,-0.15807205543308603,-0.3275950277667133,-0.3423167000636039,0.04031776596605186,nm,0.0
108.03735089302063,-34.77591858077651,-14.815907530335737,163.99195380937738,-0.48889963968455996,0.36471955518819493,-0.22670540456387342,-0.32446916079333865,-0.4144011020363501,0.06831842618149561,nm,0.0
108.05585813522339,-33.04162963701181,-8.255882029583736,165.10397204945414,0.031315216289439875,0.030244550852442476,-0.5154766144262704,-0.3470223710804293,-0.6298756770814553,0.09434949638301159,nm,0.0
108.06384205818176,-32.21509945735934,-4.285941109241499,165.74712467958568,0.2619088393533314,-0.14110391807850214,-0.5808135273204577,-0.36147517379636906,-0.7151452392405359,0.09193434788043844,nm,0.0
108.08549737930298,-30.310909512048614,4.860361748197991,166.7048682038233,0.5255483671140719,-0.42653786019209305,-0.5571481952036786,-0.41916765810479056,-0.8689309472882691,0.02419693895138261,nm,0.0
108.0919737815857,-29.252982883549105,9.840606145074888,167.0972900134206,0.6147627420917977,-0.49681047112953247,-0.5086163176165255,-0.4331922565947605,-0.9108717871309348,0.00042108565320163793,nm,0.0
108.1028687953949,-28.10490406401092,14.876895594338063,167.59161075268784,0.701488493173293,-0.6180878199905361,-0.3137110094974779,-0.4428679016856007,-0.9218888129978111,0.00445408427647313,nm,0.0
108.12088394165039,-25.521825029469223,24.397960457910727,169.12625041171324,1.1755845706710366,-0.743690267855801,0.5454052204349411,-0.43539885055949157,-0.833431681976828,0.09064139464372617,nm,0.0
108.13274383544922,-23.524080985107485,28.337965692829904,170.5577671783122,1.0702634180650952,-0.8249976886930707,1.0017690347348474,-0.4963249660721162,-0.6999800888455395,0.1052029744193569,nm,0.0
108.15521430969238,-19.071895071013934,33.88491767412628,173.18381388931255,0.5782454926240204,-0.5313171459362479,0.7741094656315771,-0.4265589671979661,-0.395409181531902,-0.016566409206069548,nm,0.0
108.15941500663757,-17.67799361343003,34.53363705860076,173.62593283174002,0.07169218601140219,-0.45857596110720417,0.7192221351406948,-0.24814775897609503,-0.08967630448148746,-0.07372611422386809,nm,0.0
108.18138360977173,-18.308387712987923,31.75704740987676,172.143536430253,-0.351811494105989,0.024081679556066934,0.23581577584457977,0.16386025193510234,0.36244247562841375,-0.1427096293901563,nm,0.0
108.18846607208252,-19.735092194122213,29.14565076800501,170.96045414226424,-0.14690502621267615,0.09092918074008605,0.28578977429776403,0.3164180792600245,0.4941988898310602,-0.0964239879526761,nm,0.0
108.21543550491333,-22.97170960980663,23.211586554778584,170.063525769691,0.27779931607988856,-0.18749381704704565,0.6215701103060453,0.37546123574273355,0.5128610453399198,0.09475849659607893,nm,0.0
108.2173855304718,-24.697350244909256,21.30192961221422,170.3329878598857,0.8056435819619563,-0.29020145981126366,0.4220285283009159,0.3754595630460441,0.3357438153760933,0.18225895644109963,nm,0.0
108.24151158332825,-27.57283845072758,20.109289065568802,171.3161607632133,0.6947915735525666,-0.6661350400989559,-0.019553936580949848,0.2472805563965119,-0.0009257934325104981,0.175587489261988,nm,0.0
108.24604296684265,-29.07656876601999,20.69859086237114,171.2810437863665,0.582942398325621,-0.41042884446185507,-0.42685628438765,0.255746426412152,-0.14600884386949492,0.09637794610924597,nm,0.0
108.26794505119324,-30.063976515884228,21.727438037733577,170.38289152412645,-0.35844525291481777,-0.4280543338676585,-0.664469293231853,-0.006053454879482872,-0.06911894235621557,-0.10649329468631667,nm,0.0
108.27270579338074,-30.105070370840362,22.00642658181543,169.69296013765404,-0.4777659545834553,-0.011835225500833707,-0.8652848145378561,-0.0071947368346026545,-0.04289607780691326,-0.13658775402209442,nm,0.0
108.29358720779419,-27.950725628950657,21.883830075846582,169.34377189685736,-0.502728733353636,-0.0033450858878451457,-0.4721007326193749,-0.27583762802200185,0.09870653382446452,-0.09966664334656115,nm,0.0
108.30555367469788,-26.291884655335803,21.780094724062256,169.81568666557084,-0.3435728202784796,-0.2788438055326605,0.034509571029368816,-0.3042584497683145,0.08965134287077306,-0.031333128104782774,nm,0.0
108.31440949440002,-25.01053148306095,21.782698033255087,170.52652528186624,0.2328706289225286,0.2149081605993843,-0.07138213936342315,-0.2396723983386843,0.05354582640096279,0.04456193408257752,nm,0.0
108.3315052986145,-22.266158749646788,22.085680811318042,171.93162589193636,0.3949322476406519,-0.05183631344094834,0.4842981281700257,-0.22152658033294664,-0.0037004408882234606,0.02900419607686208,nm,0.0
108.34438347816467,-21.826594936285222,22.532465415729494,172.11609875752845,0.47454236466296656,0.24585492775565507,0.26077964746723525,-0.09796008409624805,-0.06410201916700246,0.00026386482938157735,nm,0.0
108.34983086585999,-21.623985885290764,23.015355425022236,171.98562517340483,0.19343801245411113,0.11650072660357642,0.3021613375480134,-0.05525316729517327,-0.07739426796461392,-0.04517393467635988,nm,0.0
108.35781669616699,-22.002997423140958,23.458599680709746,171.65498633523413,-0.05389999301340905,0.18938310719855975,0.10551585084450708,0.05163440774534597,-0.08454673956572797,-0.03957445862504563,nm,0.0
108.37962198257446,-23.30447789420659,24.060382537144076,171.19730431922397,-0.25806535163090527,0.039963059839025046,-0.11659751142093337,0.10648888835923703,-0.04776179728020994,0.02407396232137069,nm,0.0
108.38688397407532,-24.05804816694569,24.082174086263553,171.3132021976732,-0.1561567232953728,0.042888208565923264,-0.21209607545550843,0.13068423004201002,-0.011969572437298232,0.08175054549389353,nm,0.0
108.40614867210388,-25.153230006031023,23.858690953503473,171.87340720108006,0.19714165403953773,-0.2390582310704089,-0.07242378752340206,0.08847471936403514,0.02937956445205748,0.09462817821954682,nm,0.0
108.41720914840698,-25.597840227325246,23.653078742290127,172.04420005201658,0.3376089388391618,-0.2321389914916471,-0.07010110554073383,0.08129668864490806,0.04261210729696607,0.06741229247656128,nm,0.0
108.43709373474121,-26.087591071412703,23.404858039960597,171.80374392701654,0.2391213033440737,-0.22692183248308095,-0.04730992538555019,0.034947582243104264,0.022752099059115804,-0.02881916985643727,nm,0.0
108.44540977478027,-26.194000305203804,23.414444756053452,171.53021130540915,0.03241453620558367,-0.11927965829464672,-0.11460763934655291,0.013973514556801306,0.00855723822609834,-0.048787297474385774,nm,0.0
108.46334505081177,-25.998956888931332,23.61299310491634,171.37024917600843,-0.204334996906173,0.025572438424765878,-0.18382247494703371,0.0,0.0,0.0,nm,0.0
108.47424221038818,-25.697452817389475,23.65460960487887,171.63542380533417,-0.21232818666140163,0.05363167959337393,-0.14573802864197852,-0.06099308577834296,0.013212108559098105,0.026262215303858052,nm,0.0
108.49760460853577,-25.063156542194356,23.556873338665902,172.4136598392691,0.03560939714448726,0.007762776942837185,-0.013974028946063092,-0.058504265655855564,0.04287643770697051,0.05031984825154124,nm,0.0
