timestamp,roll,pitch,yaw,acc_x,acc_y,acc_z,gyro_x,gyro_y,gyro_z,markers,motor_input
40.007731437683105,0.9700350314117057,-12.00742975553604,64.11235722546229,0.6829719530088456,-0.4121642366554837,0.8003460334496721,0.2957606782710537,0.18018833326586367,-0.12752788698318462,nm,0.0
40.0115430355072,2.642554140637585,-13.255684592972534,63.01369968720575,0.5099476467141582,-0.35657854257605376,0.7349192851038099,0.3830258114964252,0.18387333265105008,-0.1504151100868703,nm,0.0
40.03621244430542,6.147406613283562,-15.919427877609083,60.98713961695398,0.1967818843845937,-0.41520802507271803,0.21677900040162704,0.41441667362232626,0.17810767857147994,-0.09763069464920274,nm,0.0
40.05940771102905,11.66890081106424,-19.209899844068584,59.01376289593617,-0.18454084143298632,-0.15386943396271727,-0.12487928747692427,0.34618810016116963,0.20656485066741587,-0.0074544905470208065,nm,0.0
40.069287061691284,13.171322325284876,-20.020287779074604,58.29316180375149,-0.16492381420165228,-0.0038643137977442963,-0.17445831301969456,0.2994197454651297,0.16050383869867027,-0.04776818939256942,nm,0.0
40.094472885131836,16.18334414141453,-21.329702449381546,56.50583734073541,-0.22306967269526676,0.28845450220903746,-0.3007902484847047,0.2898181798916901,0.1986757264952065,-0.05919873420579387,nm,0.0
40.0972216129303,17.324028373122083,-21.91938629969105,55.64114527352995,-0.2913736091757383,0.3518433356196323,-0.2321469451438675,0.22978409553873483,0.11320480030885177,-0.09377095055551211,nm,0.0
40.10795998573303,17.88940791897444,-22.404264994213847,54.93505484762717,-0.20938429477057285,0.4933463255988052,-0.589241248873798,0.15283138046993627,0.03376556346676418,-0.10348993188849873,nm,0.0
40.11855149269104,18.340800181452916,-22.747739674326283,54.52428007666655,-0.40089272090645506,0.48741433309455884,-0.39178335065287834,0.11765913156892711,0.03128451080154461,-0.05237549994924274,nm,0.0
40.148067474365234,16.70425601023468,-22.879577016384747,55.60767147737634,-0.6011953513771477,0.568056902073856,-0.30608133867143916,-0.10579663475156238,-0.11329147514645098,0.00950456964609256,nm,0.0
40.15416169166565,15.403188506395974,-22.52862654520015,56.38098135172229,-0.6390121584579492,0.5737421295505354,-0.29888210082475064,-0.17895596754723217,-0.1573436237120095,0.012634024352398514,nm,0.0
40.16367769241333,13.859717529289718,-22.082955300199533,57.26523613270711,-0.5684022622450416,0.6444859378937504,-0.26641894708397507,-0.2173257480385674,-0.1879995441245626,0.01639334991195983,nm,0.0
40.19034028053284,10.542455766361904,-20.951775889624525,59.24562222260116,-0.5005739739764759,0.6383974075176041,-0.16629255099172463,-0.2534397582298881,-0.20828168826529797,0.038395053696704484,nm,0.0
40.192378282547,8.866881039166206,-20.374164029418836,60.31149036798281,-0.43142462738747134,0.5635440488196695,-0.17306393634804454,-0.24391532374598507,-0.21059085309993925,0.05138288767034583,nm,0.0
40.20198059082031,7.274594802789083,-19.798471421753387,61.31356055328431,-0.36832835445007395,0.43461274307435643,-0.16405436339836163,-0.23273972250052238,-0.20253315503283906,0.0632171470340515,nm,0.0
40.22868633270264,4.532721983441258,-18.51058208578702,63.045727423407214,-0.20190257392645966,0.06669851168033358,-0.21569568755420976,-0.2136848581327103,-0.14838884363936058,0.06748211056696056,nm,0.0
40.23207473754883,3.4838247561068036,-17.816320683059406,63.6713424372257,-0.10008313372667636,-0.11651987897523063,-0.1518423538227923,-0.19994080746589865,-0.1130751263262294,0.05219380645098633,nm,0.0
40.2567081451416,2.473507793309803,-16.285807284645703,64.13036039534522,0.1623946355371703,-0.42198142022558716,0.07703249739410019,-0.1423429547046734,0.037889146841768764,0.035556454181925136,nm,0.0
40.26259136199951,2.5353146674287554,-15.561813363238945,64.00226886759549,0.13689788658025698,-0.6084349523025698,0.758149291315013,-0.11126029024601411,0.07722681751763116,0.01923830150814178,nm,0.0
40.28289818763733,3.366744312954717,-14.582326399592603,63.618105274455594,0.6879887817308368,-0.6932774750941554,0.592044720654445,0.022468938005759043,0.18453388878491478,0.02785209755015797,nm,0.0
40.287602186203,4.226163363326596,-14.585479136514119,63.31602712876511,0.672264417321083,-0.7163012945272765,0.9707876109402017,0.08875099287233869,0.15146176011100948,-0.0002784053041178604,nm,0.0
40.31153345108032,5.879175822459153,-15.47379978814147,62.383444195767204,0.8121302529195241,-0.700148220883056,0.630018713723892,0.21168683610344596,0.13433329698348181,-0.04985804076784562,nm,0.0
40.31624245643616,6.974778429589958,-16.259575639914743,61.70160787587707,0.7176242963303994,-0.6482150329497013,0.5537888223433909,0.25149630092568853,0.1154157506638375,-0.08057322372624116,nm,0.0
40.32725262641907,8.08898606937953,-17.090416530243036,60.880468471809245,0.7009314131331172,-0.4930137894985031,0.2914341349127838,0.2621520129212245,0.11028948101991254,-0.10448942900860587,nm,0.0
40.33802628517151,9.402188365186802,-17.902994547717867,59.97272604231573,0.439666543653605,-0.42145032636073027,0.3294071779275511,0.2788296082342617,0.14054048951067774,-0.10688915652071562,nm,0.0
40.36019444465637,11.833705561002047,-19.68349109569047,57.99029527822681,0.29180641598932466,-0.1454963925425066,0.044666624024633714,0.2931971256947669,0.11026608779958082,-0.12068947892488638,nm,0.0
40.36522173881531,13.107264681656039,-20.54872682527576,57.03151113423029,0.08054598889678413,-0.09019014032937152,0.08492762994190314,0.2882662146142293,0.11154774425269683,-0.10864574337095993,nm,0.0
40.37346315383911,14.147456682966052,-21.392947156318975,56.153989872116775,-0.043963620417481745,-0.043588907016015734,-0.07591048024664125,0.26166182618786993,0.0720318240374027,-0.11928686164801383,nm,0.0
40.39655923843384,15.637697861682968,-23.071077434823493,54.39077841156317,-0.08987207596844615,0.04314963300596241,-0.3886298467867051,0.223423641290713,0.0195277590365771,-0.13835894271638985,nm,0.0
40.40198564529419,16.488761606909648,-23.746650479529308,53.581374870255594,-0.3715411537401204,0.051714572013965544,-0.10917651129967139,0.2148836331674152,0.04957886987571062,-0.11829676727486851,nm,0.0
40.413851261138916,16.888743250610187,-24.302260795289058,52.79062771739003,-0.393890421248345,0.18121940609521142,-0.24439873639844265,0.14649065602311034,-0.005642385086689147,-0.14899775799920684,nm,0.0
40.42233896255493,17.081659558439927,-24.759015435962187,52.06814664418516,-0.36475622325209817,0.3133028052121029,-0.2975733929539768,0.10755083309114769,-0.0256300996076824,-0.1453302525262444,nm,0.0
40.445067167282104,16.77670664429724,-25.335255228857015,51.182826411739704,-0.47807462528766986,0.5189738335803524,-0.22110737402951766,0.009238270611260516,-0.08194349784375032,-0.09905972757960031,nm,0.0
40.45008587837219,16.145575992890517,-25.55150100903484,51.16411860449701,-0.48959512288240586,0.5936761415531996,-0.2254610538710312,-0.024067051170395884,-0.11411541554856774,-0.06204639963019042,nm,0.0
40.476213693618774,14.26714540992872,-25.73321572795692,52.00145537737251,-0.6510652690639344,0.6466181599294433,-0.2255882415223782,-0.10110772521910856,-0.15493108294689328,0.0007250442204053527,nm,0.0
40.48135209083557,13.096560175246344,-25.66797029562328,52.711417626748705,-0.6760765402264425,0.6703214552927994,-0.2574321157760137,-0.12533360705648944,-0.15746777942184448,0.020364916679316933,nm,0.0
40.50393033027649,10.681272637134672,-25.17936310072261,54.316168080835986,-0.694537128613862,0.5985870751249529,-0.27270547431556275,-0.16766824071362924,-0.14119135193699858,0.05020375412634473,nm,0.0
40.50916075706482,9.477935074231382,-24.7549414657076,55.234954561494064,-0.6511221269756365,0.5332269114330537,-0.2894802786011935,-0.18143348553626987,-0.12744475185576418,0.07914967284900433,nm,0.0
40.5156044960022,8.28942272710246,-24.237221324177423,56.33990468001237,-0.5454125929010779,0.4580667957066316,-0.323753876162346,-0.19350265621492282,-0.11872784193851713,0.11956210078760082,nm,0.0
40.54140567779541,6.043206140981305,-22.78414663349813,59.17412854233984,-0.35372918233419637,0.21216998800882836,-0.3161764660884912,-0.22891138218233423,-0.08594755689109884,0.21828134589437698,nm,0.0
40.54463005065918,5.0402455718999,-21.861173312016266,60.65168967867347,-0.23080808827101515,0.06749177592339789,-0.34971825732701184,-0.23921507321863192,-0.06510310282178026,0.2497543926828377,nm,0.0
40.56992483139038,3.6979103561404076,-19.70400558484043,63.68372398051415,0.07574246381320401,-0.2823505581496104,-0.4132160516400048,-0.234517554451886,0.016526481111832608,0.2568457635742232,nm,0.0
40.57272267341614,3.755488624902836,-18.464181933110634,64.87665103260571,0.04784938166119489,-0.540300381810435,-0.05580994521842102,-0.20514636157351915,0.12107258040515653,0.25605037507131473,nm,0.0
40.582972049713135,3.781256007053881,-17.121051070071623,65.7990175090631,0.19862956976613694,-0.8552225788983723,0.4324265523602039,-0.22867965867588982,0.12033616631568021,0.1960141503900158,nm,0.0
40.59178328514099,3.7936685460867023,-15.700190881469071,66.53791814427046,0.8483904518542643,-1.0765669544727061,0.26288157480430163,-0.24575183385538865,0.12074345683214757,0.14507910214675385,nm,0.0
40.61573648452759,5.32658417183773,-12.974812938915418,67.5244244244869,1.0295861653108835,-0.9677573968204023,0.9478556751205564,-0.17816727870201038,0.22205922099262637,0.10406761715087719,nm,0.0
40.620742082595825,5.585256620941168,-12.060632735963788,67.6062103189115,1.2871587263622242,-0.6234494832319271,0.5506210226274181,-0.13667024882441148,0.12036256881934186,0.023166775136160812,nm,0.0
40.646156311035156,6.11492932979541,-12.12878177038029,66.82577177696726,0.9464679047909871,-0.29182747431903505,0.888824833225729,0.09662030343719122,0.004315482714467424,-0.12373379899057996,nm,0.0
40.648863315582275,6.36268520721676,-13.13976160172063,66.06658750375531,0.7201916544633004,-0.19438928400915156,0.8611583696042313,0.21825701853160243,-0.03272284274692346,-0.1738045223879248,nm,0.0
40.672863245010376,7.6210489852669046,-15.735706687013726,64.16603613586827,0.17531535471315393,-0.1747764404706345,0.2871705701059208,0.31669059096105284,0.02298060875885294,-0.16920319222025187,nm,0.0
40.6778929233551,8.76322923969356,-17.150414570606518,63.09048311145732,-0.05416844606572398,-0.2261251626538194,0.2970667324714882,0.3646564093330768,0.07394898523800313,-0.14845763393789188,nm,0.0
40.705474615097046,12.28224012268488,-19.603446773489924,60.947339128965055,-0.26078640998786196,-0.0887188724310472,-0.10166810393498689,0.40506971627001365,0.2553812038593969,-0.09148116760540424,nm,0.0
40.70895481109619,14.74014427690582,-20.59413772631451,59.58091986143473,-0.44013107782829425,-0.024075637871808345,0.01170864044539295,0.4149720552209802,0.30603407320568043,-0.08995148942413493,nm,0.0
40.71899485588074,17.169441542399433,-21.47701005603923,58.0863277993058,-0.3063276764804633,0.16880335854086354,-0.3062532189034569,0.3996016259570608,0.3001432313353499,-0.11170125074507438,nm,0.0
40.74026870727539,22.55809344724143,-22.67385080621595,55.329068505723946,-0.4236473841255576,0.3423364178139447,-0.30468302031724254,0.36453706546630377,0.34371938251578615,-0.06220152946321683,nm,0.0
40.7487678527832,24.8604284363931,-23.135174264832735,54.23696442970596,-0.36160727516280217,0.41091028653600037,-0.6008669107686894,0.33321230627205156,0.2972712493585103,-0.03663857117355562,nm,0.0
40.75701117515564,27.032409028316046,-23.58254881962291,53.54580385276209,-0.4494340959704027,0.25725359441821893,-0.3378450990583803,0.32026710411758647,0.2736871389887211,0.028200434596287655,nm,0.0
40.76282739639282,28.465253567017008,-23.859498373771068,53.37142733073477,-0.4619795469534657,0.23354981821263984,-0.4719228424818782,0.21334125655541591,0.18222944115264966,0.06239150827320393,nm,0.0
40.78716015815735,29.4611013285933,-23.863790407319296,54.37626134779864,-0.4644347411661372,0.24416625236322342,-0.41385531644887036,0.0215794603561205,0.04481173959493116,0.11647934086234647,nm,0.0
40.79198169708252,28.917121923142304,-23.539384494480238,55.3948763082078,-0.3634974344079608,0.366526751091631,-0.4043407274008622,-0.09813645825457783,-0.03988009721803672,0.1012072194259434,nm,0.0
40.801563024520874,27.85646018578244,-22.997692872788,56.59493697958254,-0.30528311304904077,0.4606439542223381,-0.2866691091956889,-0.18649722130219412,-0.09697110438383817,0.08720473675095843,nm,0.0
40.825085163116455,24.308650687959382,-21.77117952054296,59.04007197566983,-0.20883782064098944,0.6589828789290734,-0.11716670213314784,-0.28499397468651555,-0.2481964055779348,0.014901081450550559,nm,0.0
40.82967710494995,22.046183634209317,-21.181070167856824,60.34482476422563,-0.2556294680003169,0.6491357445212376,-0.04615510653903615,-0.301043936076894,-0.3010126246540345,7.755242506846425e-05,nm,0.0
40.85409140586853,16.96227989060447,-20.186647481623424,63.18589649638517,-0.3823123575945894,0.4679991258884579,-0.09379406686749944,-0.2928170233206732,-0.3843371657422652,-0.010449112986645337,nm,0.0
40.86212110519409,14.418999504136767,-19.662844827443504,64.4425741002245,-0.43994995372044715,0.3243585344543846,-0.10368576647570081,-0.29128842063044175,-0.3798561522243066,0.0025218332852159926,nm,0.0
40.88610506057739,10.40061556341387,-18.269439688445917,66.03688256976942,-0.33796512332007084,0.06554221554083577,-0.26447233623312094,-0.2931643157687492,-0.3134299688570245,0.020841679489971555,nm,0.0
40.887699127197266,8.54930025126643,-17.42111278275466,66.9053316200767,-0.19921053238131625,-0.05475782620292316,-0.26047810145424743,-0.28304451326403696,-0.251914849360603,0.02295955848055205,nm,0.0
40.912665367126465,6.158619511115167,-15.521646436897163,68.02338717718557,0.2642335770728134,-0.3482939466773906,-0.1758674597708835,-0.23131996024656856,-0.08972353321682063,0.01831195270744822,nm,0.0
40.91537404060364,6.229194504298038,-14.61630029874395,68.19764999504604,0.4067170022508121,-0.5798226641384965,0.2906547207345715,-0.14987392590360332,0.08447273186567471,0.047333519640029235,nm,0.0
40.93962645530701,7.363944056750739,-12.914797981601977,68.04288795250406,0.9991679809483035,-0.7328555834799275,0.3249811047880865,-0.10182300037043576,0.16081147769222742,0.01633121200265909,nm,0.0
40.94545340538025,8.558123792940966,-12.384819747800325,67.87625157898155,1.0412074354545224,-0.7032834480619904,0.6862226593220044,0.0023172000707347364,0.2601771914998935,0.028983271317180846,nm,0.0
40.97036862373352,10.618081298261846,-12.647818214137201,67.06217541105144,1.239186643409714,-0.476841123838711,0.44501227958962936,0.15091303061443825,0.1500429229976069,-0.0485027034223822,nm,0.0
40.972090005874634,11.906384442834892,-13.407079252628833,66.45112666220136,0.9998432250087914,-0.5141096080737113,0.7692241385949868,0.2517068004540799,0.17497445788572105,-0.061121607033053645,nm,0.0
40.996517181396484,14.216780386799597,-15.69230824553001,64.93160352862944,0.5635617174710404,-0.5343268502876652,0.4753538133856352,0.32985912020966357,0.1069609608858164,-0.11428472302422175,nm,0.0
