timestamp,roll,pitch,yaw,acc_x,acc_y,acc_z,gyro_x,gyro_y,gyro_z,markers,motor_input
76.00242042541504,-27.029674769244735,31.499107806466462,-88.55305758603228,-0.023055547696557925,0.4494943614957151,-0.7342499403589319,0.2003601992603596,0.017120248700677566,0.04866532091905782,nm,0.0
76.00585412979126,-26.88728676417643,31.984731035889354,-88.393316237865,-0.09893615281225548,0.4984613473714963,-0.72496454723007,0.08568452875991685,-0.02848030690119711,-0.018226176319643184,nm,0.0
76.02997756004333,-26.374836207408112,31.479203509998335,-88.54121695186961,-0.21492980501342215,0.46244404412462775,-0.4996354200433718,-0.10024333984682204,-0.036882407349082234,-0.07101133068901652,nm,0.0
76.03685641288757,-25.890894485261295,30.835740561808723,-88.53062707304562,-0.3719043408426961,0.4524857382236058,-0.4223729260988512,-0.13885507326479693,-0.09317602177026083,-0.06748905522588595,nm,0.0
76.04645943641663,-25.0047145529853,30.137320857686106,-88.15673985245705,-0.20640520907502122,0.3578856243466062,-0.2008318664150747,-0.14746054608495518,-0.1638993475701149,-0.033818460512603205,nm,0.0
76.0691339969635,-22.976247744867297,28.772911772280082,-86.28001333027915,-0.26424802805344993,0.32369050614055406,-0.19052981099415142,-0.13770252686402942,-0.21480657192606023,0.09479212598729737,nm,0.0
76.07391357421875,-21.849420285104383,27.966225898214727,-84.9826395594576,-0.14075607364264228,0.27774569201404936,-0.1738954949304324,-0.15758377765437784,-0.21775678207903926,0.13116284542939616,nm,0.0
76.10016298294067,-20.07142569321257,25.579803869963794,-82.79007641966035,0.08319414294072656,0.13891503400078528,-0.266093514014963,-0.2609354352919893,-0.18962413198144526,0.10303408038466162,nm,0.0
76.10204553604126,-19.483174964754298,23.90612709359597,-82.08838813214035,0.16629256759415892,0.09243921979177182,-0.30182791663973985,-0.3293887711056607,-0.15845776722822108,0.06636388678242688,nm,0.0
76.11098647117615,-18.994877622563294,21.941274574386345,-81.70858815986983,0.2554011317586033,0.0044198896979601105,-0.3141955044011517,-0.3880820168769346,-0.1529041918906744,0.027375141618513347,nm,0.0
76.12344312667847,-18.463718494189465,19.788418276564734,-81.49226030573612,0.40937792813979973,-0.07345061210939967,-0.2385193965332941,-0.42318786766309724,-0.16962000332853533,0.0018083192703721056,nm,0.0
76.15756702423096,-17.961843191217476,17.55508704681147,-81.28902096450669,0.6072251895971041,-0.15010601336663945,0.005528297113744413,-0.4390951111024649,-0.16954781322026036,0.005046996057743945,nm,0.0
76.16115474700928,-16.260082269009068,11.453434265909,-80.49205369766622,1.011769045916183,-0.17029499301213802,0.8208783671258872,-0.3477159410454758,-0.2292127169960531,0.011047439703371263,nm,0.0
76.1758348941803,-15.672808649194938,9.905716071469474,-80.37962038724058,0.7457362341584508,-0.05832686676657843,0.5605675560361945,-0.29721356567667523,-0.17460841887436468,-0.019657114628196515,nm,0.0
76.1790623664856,-14.752813762445518,8.738643651386347,-80.37494692532084,0.7020807323603104,0.04031373939546647,0.7271945252621771,-0.21042019927095593,-0.22771574159478813,-0.08370233126864064,nm,0.0
76.18702149391174,-13.723617549018506,8.11366287287857,-80.74465185452519,0.5893789080382098,0.09894197545806714,0.9506714331087582,-0.10056792815276341,-0.23067026931084944,-0.14488358308579322,nm,0.0
76.21571063995361,-11.401886048027032,8.925675211674983,-82.15042748495976,0.19949089734425485,-0.0034449854666712834,0.9847632549812965,0.17821846792580878,-0.25879011672024904,-0.1894418205808623,nm,0.0
76.21800208091736,-10.501097702536345,10.279774210589778,-82.74755708495206,0.4120025209333606,-0.19937173638442157,1.377260223326274,0.2810051279260702,-0.14900628284718664,-0.14734914289455653,nm,0.0
76.2272322177887,-10.805370434861908,12.072829579348985,-83.26017637523479,-0.35391822045352594,-0.33379252895371464,0.4476864450910271,0.33799577407473463,0.09459484989240852,-0.06647336779301743,nm,0.0
76.25756430625916,-11.757226977522423,16.205302211174576,-83.80811980461691,0.11513474624230725,-0.4441854601310527,0.5489617068499993,0.3852927872312591,0.21068428011932877,0.024762303042857918,nm,0.0
76.26180672645569,-13.442034728041136,18.200932779141883,-84.25802590578706,-0.12380580120325628,-0.3050253240818742,0.05477172356775917,0.35299740507403454,0.35395455581505203,0.04295689182108104,nm,0.0
76.2767059803009,-17.67203863872863,21.735954560792134,-86.05240993794253,0.2214562436921927,-0.015261673588446704,-0.08756477573456894,0.28706759866461706,0.4787579369871536,-0.005121609322315415,nm,0.0
76.28196382522583,-20.205038917670326,23.241256112947216,-87.18228944363946,0.15714474815116083,0.11208826394285461,-0.24269876654053163,0.26147599005329086,0.4783262786207848,-0.020670011098329215,nm,0.0
76.31143951416016,-24.731432425486794,26.257900720346743,-89.26857476573761,0.21923296654028143,0.20945161972993012,-0.4188706368684748,0.2892781702505511,0.4014786297502736,0.03602539152088126,nm,0.0
76.31366205215454,-26.555501789658145,27.903315663096482,-89.77153403876828,0.10450340852724564,0.25513040012430144,-0.5509470659344962,0.31470334177003184,0.32074625561103737,0.08705730105938485,nm,0.0
76.3233380317688,-27.741557126713612,29.597585836906386,-89.8117811687878,0.06271767617159794,0.3588195537966307,-0.6313324943623644,0.3262027373381149,0.20246136005030485,0.11023734115871346,nm,0.0
76.34727120399475,-28.761534212644268,32.48012140984827,-89.43062471462267,0.031080100035006976,0.5528624019914247,-0.6703421771465968,0.24517196748079328,0.062294230481698236,0.08411035359435555,nm,0.0
76.3505129814148,-28.895367113838635,33.313926155705495,-89.34060833290776,-0.0013335834983097957,0.5674359911876635,-0.5977516002389732,0.15443204781467404,0.01736816360953694,0.029404444299667855,nm,0.0
76.37669539451599,-28.523339752686006,33.67911970761694,-89.62830658120478,0.06325620072262356,0.5075616123761875,-0.3817205420434296,-0.014317701713316408,-0.05840809431890513,-0.08811913373341483,nm,0.0
76.40832018852234,-27.03209428559597,32.583628517143495,-89.13394551163998,-0.1783537446797655,0.35439974288342935,-0.17413981599877687,-0.08928926278517738,-0.15519642617112325,-0.02650246342705223,nm,0.0
76.41840195655823,-25.09292906742907,31.68879437437301,-87.21309304996198,-0.21702676396353968,0.31490783316004506,-0.18524466465744563,-0.10055957123204222,-0.19582111569525767,0.0755687539069366,nm,0.0
76.42416000366211,-24.070242894369272,31.060152240942397,-86.02835995958989,-0.10024883726413916,0.30218753100272056,-0.17803688929100595,-0.12702796877707165,-0.18932356914714232,0.09239136229018372,nm,0.0
76.4339611530304,-23.256361735122763,30.160201176376166,-84.97279580964906,-0.10494058879148072,0.2948048054265622,-0.26542333100542836,-0.18021517012160448,-0.1616233775333555,0.08786966956578762,nm,0.0
76.45774793624878,-21.985619913866795,27.47493939490215,-83.81682350138675,0.13527028741243813,0.1727174652357999,-0.30219170236115805,-0.29618509241970203,-0.1315762548083055,0.019538062709120233,nm,0.0
76.46431016921997,-21.470380206847114,25.754988455423092,-83.52346885531071,0.19334417188772793,0.08677958294828933,-0.35983167454944326,-0.3436495009299446,-0.1376484912599436,-0.005045487257431108,nm,0.0
76.49039387702942,-20.078619375890934,21.870209931884165,-82.93464609939713,0.5113746839983059,-0.14439438470638277,-0.1844345712891745,-0.3891008913357313,-0.19164456098189625,0.0033632769510027177,nm,0.0
76.49876141548157,-19.417423543647487,19.879826517219268,-82.52716622724918,0.4972729033882545,-0.19437558281680445,-0.11677473117309169,-0.3910988242761404,-0.18133146122641136,0.030961464629837038,nm,0.0
76.52033519744873,-17.21569293258266,15.850410910633325,-81.37420316360044,0.8989193668153971,-0.2908245280278076,0.5455384963386868,-0.37473822395401496,-0.31917338585325544,-0.006013610498501906,nm,0.0
76.52227687835693,-16.159891300231486,13.913058464839182,-81.03269419440089,0.8994226608144689,-0.28874129240467983,0.7831615641995787,-0.36267392295450074,-0.2705752158962672,-0.03527411981972486,nm,0.0
76.54867815971375,-13.904995429318745,10.936504173078438,-81.71290950629766,0.650498560419276,-0.09068247602877949,0.8060488855904658,-0.23189733338364482,-0.28258121915123013,-0.14789284237617709,nm,0.0
76.55074048042297,-12.91125276092498,10.14558015200677,-82.37084748823764,0.3268773221820915,-0.02367788616733745,0.8279924645506279,-0.14091523534588454,-0.22410547402586828,-0.17176874260123537,nm,0.0
76.55821871757507,-11.753486912006545,10.01044920690998,-83.01481291821705,0.015314635952662877,0.020042747078979895,0.7239397601611265,-0.009009935079913907,-0.23810843477463212,-0.17336334819203839,nm,0.0
76.5849859714508,-10.544548000146273,11.742763882441343,-83.86274546184646,-0.11368059354197303,-0.10660687867996708,0.7857317041493396,0.21974991396201266,0.030598146147284646,-0.06148401343517071,nm,0.0
76.58808732032776,-10.750466770107437,13.376874527588305,-84.08676491024708,-0.22346507340375885,-0.17324657826244227,0.6278317173941175,0.3099325037186982,0.06620100248577826,-0.011332470141978242,nm,0.0
76.61310386657715,-12.802483824795846,17.220099318209478,-84.5640645325376,-0.08089049303656216,-0.2697497399075621,0.281720526841853,0.34765623526786094,0.32812957457123165,0.04736099569092961,nm,0.0
76.61542749404907,-14.496093831041154,19.118143105983734,-85.14262726069524,0.18162684077982008,-0.2516280509126398,0.3009890043692693,0.3383547433670753,0.34726340251949556,0.01233176767616089,nm,0.0
76.63996982574463,-19.380899053550618,22.46939588378475,-87.43003279649812,0.16654654692905937,0.01106546194643915,-0.15903232808523518,0.27709777941343755,0.5018877232917589,-0.014426223139807442,nm,0.0
76.64307689666748,-21.82246690597154,23.948103177408427,-88.68656944950004,0.3658200753069021,0.06810037727507733,-0.13440978759789068,0.2692340963717354,0.4517326258381748,-0.021518691799155738,nm,0.0
76.66748309135437,-26.45092794276163,27.102223702639847,-90.51267772866794,0.2436856609066468,0.2395360196532721,-0.38516643158137714,0.31541668416705426,0.38378485594531253,0.06695678275725217,nm,0.0
76.67647123336792,-28.169871102754858,28.840161210375378,-90.91171145656044,0.11643078326904951,0.3392252471554921,-0.5384413798726482,0.33952237502171834,0.29260048057279087,0.0991385921233942,nm,0.0
76.7019670009613,-30.396929484261282,33.23434186222359,-91.01176343518725,-0.020760790493474745,0.5350098956235264,-0.7505606654576163,0.2119572961769441,0.06266608413325121,0.03212294028018103,nm,0.0
76.70926213264465,-30.514469426156616,33.839030121407745,-91.12686601380379,-0.06279545006398514,0.49412514681751984,-0.7350441793629697,0.10896484128813336,0.010713759423474899,-0.025155076234424097,nm,0.0
76.71902823448181,-30.31789793316932,33.94584019955767,-91.28571947979727,-0.2135689751347292,0.5119195035784014,-0.7531910078367647,0.008238349998768024,-0.039744507142874114,-0.07175467218949372,nm,0.0
76.74338841438293,-29.225858451512355,33.09299992445518,-91.21332841436653,-0.30886799917485774,0.37565553684806374,-0.5662436678312273,-0.12535898589455552,-0.08914795272409502,-0.04535066540644418,nm,0.0
76.74984669685364,-28.191529063129877,32.42241074432596,-90.65608145119103,-0.2849070307770657,0.3564759453865908,-0.41434132307899796,-0.14936905433221967,-0.1787109408752088,-0.028569760291089496,nm,0.0
76.77228450775146,-25.568391524092526,30.840923854857504,-88.58966154618192,-0.26783347410426145,0.39195562309082144,-0.2842744516722765,-0.17723079240475403,-0.22792352290477016,0.07127889688342626,nm,0.0
76.77660274505615,-24.111577793390385,29.868282689893135,-87.34081261762178,-0.08538014522630227,0.35741258831230976,-0.18872007993786538,-0.19750136712308516,-0.2656945631497349,0.07245857899562252,nm,0.0
76.79140186309814,-22.8530771551195,28.69850865240121,-86.26891504353449,-0.01689264830732732,0.3339509492798747,-0.20435346017380143,-0.2334292467511089,-0.23983475609423302,0.07204054708353977,nm,0.0
76.80508661270142,-20.772565212624738,25.621847588792363,-84.87263621112244,0.17387718537158128,0.12527841407364135,-0.22777376066545701,-0.32684472663848646,-0.2164918452359956,0.011277015986695003,nm,0.0
76.8198664188385,-19.93919419782255,23.77705531753746,-84.50445518137975,0.2013179038598218,0.011003936371605266,-0.25074156420463173,-0.36544536133763095,-0.19281596378155744,-0.004655671983807558,nm,0.0
76.82506370544434,-19.062961231078955,21.80543606764099,-84.18431119259448,0.3074561966146956,-0.12613851661614772,-0.17175527213488562,-0.3885207305791934,-0.20768393201126395,-0.013452219247115125,nm,0.0
76.83501172065735,-18.12179161731105,19.796333846982385,-83.82058975657485,0.4978533483199929,-0.2610072728549363,0.07068915851285351,-0.3931853713720826,-0.22520683016927617,-0.004990228796324754,nm,0.0
76.85616397857666,-16.34884589001045,16.004570356863248,-83.02678990190593,0.7734656887086585,-0.37006912538520437,0.763681661925263,-0.3566692629848947,-0.212549122002088,0.02838839143040657,nm,0.0
76.86498141288757,-15.554229713541833,14.43111950060565,-82.69781893574267,0.5207933872883075,-0.27016373667777427,0.5872849130679427,-0.3048646900756634,-0.19972427383236277,0.02049799764337144,nm,0.0
76.8729338645935,-14.465215317217362,13.263817441604662,-82.60426512656281,0.6406231028029403,-0.155783610747483,0.8654537517433305,-0.21615424410704795,-0.2480153269853641,-0.02233274971007177,nm,0.0
76.88068127632141,-13.602463246314727,12.597069188030721,-82.73302085721984,0.5185917844534256,-0.06178946732893946,0.9818568646523754,-0.12225762827379402,-0.19222682651208833,-0.05896070137298897,nm,0.0
76.90681958198547,-11.990965176924428,13.022125160849773,-83.37259307053527,0.48472467342174774,-0.1306719032394264,1.2735523251930985,0.11217301265017382,-0.17411600976247854,-0.11504786432021064,nm,0.0
76.92879128456116,-12.78639461033473,15.60758935962945,-84.15457565256634,-0.06082667483511457,-0.3466446180358438,0.5422857046678821,0.2761200007021594,0.15462301075602447,-0.023108886626395535,nm,0.0
76.93042087554932,-13.547209009197452,17.37186184583876,-84.4793804591628,0.36658224888674146,-0.433775793481019,0.7501846597376165,0.32583221844484145,0.17224882129252952,0.011327115775717178,nm,0.0
76.95666909217834,-17.06903506946114,21.09906658888307,-85.4253112494664,0.2938622879427514,-0.2853773771974174,0.14764218305610813,0.3353610364231952,0.36954485737674764,0.0661707666585555,nm,0.0
76.96866703033447,-19.216999391216994,22.92383348034048,-86.22193330697283,0.5155268089434631,-0.14202707121314295,0.07620939687686838,0.32441343384018884,0.4163011598873013,0.05135907688311223,nm,0.0
76.98365879058838,-24.12814454883983,26.109902692654,-88.44231191723556,0.40485478568146377,0.11739359019710828,-0.21698194503482407,0.2799160623968375,0.4281320244671622,0.0123596952044602,nm,0.0
76.98523306846619,-26.400138114868113,27.62599408304375,-89.49056745166172,0.3466411467603485,0.2021790144803988,-0.32231002049043744,0.28417599889203105,0.4040739962819373,0.01114804610180662,nm,0.0
