timestamp,roll,pitch,yaw,acc_x,acc_y,acc_z,gyro_x,gyro_y,gyro_z,markers,motor_input
5.0212929248809814,15.120376371667057,-14.464731365857693,119.25379479822111,-0.042944785049909825,-0.06358144688068701,0.13368799808473006,0.04137845758518806,-0.017016615964891516,-0.08008143916056784,nm,0.0
5.026846408843994,14.920184593875737,-14.558444728859508,119.03406181166585,-0.05812809472540849,-0.06862102322246201,0.12239306884839342,0.03930767963589002,-0.012085055962649974,-0.05970594265929776,nm,0.0
5.051483631134033,14.675462241142325,-14.819935043920207,118.93537497273282,-0.09614560239987105,-0.12075392851140859,0.1078326768936712,0.0,0.0,0.0,nm,0.0
5.071120738983154,14.809482639349232,-15.011911615418837,118.89341531904945,-0.13104363543439146,-0.14335548964648998,0.067406869431453,0.0,0.0,0.0,nm,0.0
5.0739147663116455,15.250251865484238,-15.018199136125194,118.66340251259014,-0.12180506492038363,-0.13148161509996115,0.07093861025650902,-0.008797294156942316,0.06296827543299922,-0.009836223755031393,nm,0.0
5.104497909545898,16.17399369285689,-15.10429024316334,118.0023023790909,-0.06243206356313412,-0.06371192999234503,0.09981732459189528,-0.02315915840086584,0.09148979683124152,-0.04251608018808217,nm,0.0
5.1060943603515625,16.661485093910223,-15.12629940483049,117.68199686166156,-0.025037387928213042,-0.04248250536861893,0.09614209834509356,-0.0266299571467992,0.09329758436678383,-0.044556542506489646,nm,0.0
5.111350774765015,17.08031405071646,-15.17754038872282,117.42249097341085,-0.003353418309942211,-0.022532635173995116,0.06803600185466696,-0.021233842882900193,0.0875314733995464,-0.035960258038602234,nm,0.0
5.1341845989227295,17.695278653236016,-15.329880317436643,117.20373333923834,0.0,0.0,0.0,-0.0036793010667176807,0.06632832748860432,-0.003626874650475081,nm,0.0
5.1395039558410645,17.92518694729182,-15.352851297683266,117.189392592821,-0.0025671884657960625,-0.057272647561941815,-0.0041205847413647405,0.0006222999030498388,0.05476302988609473,0.0032645598720604566,nm,0.0
5.166373252868652,18.322936541911883,-15.225341175929145,117.01522966421652,0.0014325088408711523,-0.12364127425867535,0.017458756662483803,0.0,0.0,0.0,nm,0.0
5.168004751205444,18.504547768766823,-15.082904552902658,116.78456989000843,-0.016986938701072936,-0.11473439857478228,-0.0023623006183471386,-0.012030390234111694,0.029121103206145253,-0.04285018506156831,nm,0.0
5.194494724273682,18.84931992748608,-14.85781612785039,116.16867540808255,-0.04523670560756234,-0.027365635377727404,0.0173792815758933,-0.019918343854058183,0.024354083361945483,-0.060428102229307,nm,0.0
5.197604656219482,18.98902435651751,-14.831583930129264,115.90712476376254,-0.043798668666799025,0.0068453462464576715,0.01965744232684744,-0.013756111979101327,0.026088176668147882,-0.05146114407189038,nm,0.0
5.2280943393707275,19.21990979175239,-14.922281045644535,115.49965660792701,0.0,0.0,0.0,0.0,0.0,0.0,nm,0.0
5.229666233062744,19.299957907536314,-14.937244090991715,115.42522219951401,0.011789149211529688,-0.02479970952647156,-0.007325454120640727,0.0,0.0,0.0,nm,0.0
5.252410411834717,19.406942918870033,-14.848340806166274,114.84809307079581,0.04320418438311796,-0.06732171644035485,0.011044468409603159,0.0,0.0,0.0,nm,0.0
5.2542102336883545,19.413014186196555,-14.725763421347288,114.54065784496497,0.024096724148662766,-0.05277615797304784,-0.01524836758429629,-0.0073108289982854666,0.01193395153617708,-0.058099143281480504,nm,0.0
5.273252010345459,19.39713716615646,-14.602923111717397,114.17165573038407,0.0,0.0,0.0,-0.014025575588002536,0.003993358472680193,-0.06720539927987297,nm,0.0
5.288078546524048,19.33014495319795,-14.499190846938314,113.66869184832848,-0.04945655691125987,0.07458606066391603,-0.022410173625025554,-0.01854254309432478,-0.0031432849989689554,-0.05170977628537058,nm,0.0
5.29084324836731,19.332105550138277,-14.490615087333364,113.51503576614631,-0.0643037006142686,0.08235062197641908,-0.0507137565140686,0.0,0.0,0.0,nm,0.0
5.317425966262817,19.475995894522057,-14.411095666293921,113.24792342044766,-0.03387209973352222,0.07463682885382845,-0.10131717675176863,0.0,0.0,0.0,nm,0.0
5.322770595550537,19.62914543456718,-14.162471857806029,113.00587080182484,0.009469595025448412,0.03262305595607163,-0.10433224410601019,-0.052800825268139395,0.01982733896119059,-0.04737369736688382,nm,0.0
5.374250411987305,19.579724070261992,-13.091383234630051,111.52330918303367,0.18214869437797684,-0.13253029909307476,0.5984556438927868,-0.0465247016597934,-0.08308055157954113,-0.14691246984441636,nm,0.0
5.376091241836548,18.50224220677849,-12.812602130822619,110.91436199192653,-0.2045709484945427,0.15860418751780853,-0.3618119043470514,0.02947077122315384,-0.20444563506585217,-0.18641032944003377,nm,0.0
5.378162384033203,17.44189382481909,-12.36796661627304,110.64340425893171,-0.3593422901976958,0.16377462460259368,-0.11116023428047093,-0.003952251295041498,-0.21362790958455638,-0.1303478643866939,nm,0.0
5.382208347320557,16.152293838268665,-11.739987173632176,110.71789946154382,-0.4417209528593419,0.04803764833745501,-0.03512123023068779,-0.022379035925775535,-0.26902834700139344,-0.0726875944878364,nm,0.0
5.407141208648682,13.421114096857979,-10.4150805396241,111.12135556812188,-0.6951456783574893,0.15112073019350294,-0.4128245332458555,-0.05022958251674356,-0.1572835150506606,0.0032886402463639447,nm,0.0
5.4352593421936035,12.79228602611269,-9.83305847363821,110.70008031537773,-0.5755282458517589,0.10783900930935703,-0.1211907522755382,-0.01227609747626629,-0.04365977780061038,-0.06557132005221471,nm,0.0
5.436896085739136,12.50770398841783,-9.483045986220077,110.24385594301141,-0.4300595535411868,-0.004300112858380221,-0.18586578764589776,-0.03966421318561872,-0.06564660044826248,-0.08542017271788384,nm,0.0
5.4450414180755615,12.243476530315382,-9.016144742830098,109.84930975159064,-0.3412807929115878,-0.20002301512752338,-0.2644235559728996,-0.06341678500809132,-0.06970395265162278,-0.08213169695413752,nm,0.0
5.467252969741821,11.42924094966541,-7.746390530691689,109.28951496722007,-0.1993329876317515,-0.15898557798146332,-0.5837472146073158,-0.11229278223202421,-0.11999107575686266,-0.028248941698374025,nm,0.0
5.472475051879883,11.140807353990947,-6.632697833317994,109.43113580568345,-0.09344487716475364,-0.19289024522439438,-0.10656655921980093,-0.18460301644538551,-0.1167902046718352,0.02684555006905133,nm,0.0
5.49671745300293,10.588784600191778,-4.631220188883846,109.77806135228533,0.2368233330229979,-0.02327786885740131,0.5104079971585158,-0.15426803738822384,-0.09053534825068199,0.03437944933416526,nm,0.0
5.5055763721466064,10.465763733964598,-3.7663388099051422,109.67077577225417,0.4137977203262313,-0.14529039537603028,0.7536474589915662,-0.14779804766015348,-0.07059402607055147,-0.00963491877894064,nm,0.0
5.5247156620025635,10.568578393398566,-2.603459062710063,108.36989411016219,0.8201638831031886,-0.4021815458778623,1.0406704110096061,-0.09317328016442417,0.02110972900307374,-0.15071249938573925,nm,0.0
5.52968955039978,11.08703633378945,-2.3879867700022834,107.29437738148816,0.8545297256991687,-0.5383667672323953,1.5125610932191949,-0.0653060308201964,0.09598472166768428,-0.18821214263171737,nm,0.0
5.555939435958862,11.922030576760191,-2.9628721269810088,105.45449174050832,0.9844857311018622,-0.6100432748789381,1.2576623477929874,0.07254871911657078,0.13267925211504936,-0.14603672758318534,nm,0.0
5.557648420333862,12.536095926442789,-3.7040008587247892,104.94479959544192,0.8354271194076266,-0.6854034745237392,1.1319528936235312,0.11879343521037834,0.16742569548074282,-0.07867923677439292,nm,0.0
5.581475257873535,13.837821966004757,-5.551651060402698,104.48126863146547,0.4991538009426971,-0.5706064547985286,0.7497715464530841,0.15678267648353583,0.19172999763121737,9.127201405357107e-05,nm,0.0
5.586519241333008,14.604437867636127,-6.437406625950915,104.25628436528405,0.4039828176267801,-0.3128340071296246,0.10099916176979358,0.14145697319976103,0.20215592172333857,-0.017249484783394838,nm,0.0
5.605621814727783,17.66238796673081,-8.050824314594161,102.90968989708809,0.0021860761061911166,0.049562246190990235,0.04864366589453696,0.08869827665293956,0.3525600219436328,-0.10335474456018727,nm,0.0
5.6188695430755615,19.12712264953426,-8.899719157090814,101.81776701716707,-0.03567227283611984,0.3112574587486303,-0.32212504887672494,0.11144021458793897,0.3299185196696344,-0.15275473761142622,nm,0.0
5.625488758087158,20.841204146672187,-9.835484621736812,100.66768105209657,-0.1017653443148314,0.3584438260305303,-0.27372136857412144,0.12533498738923074,0.37875861826660684,-0.14670196762400198,nm,0.0
5.64901876449585,23.789846236759953,-11.98259248220243,98.79765408616684,-0.16509789623992996,0.238910223740276,-0.5085442365735378,0.18541709856438318,0.3115281419628096,-0.07583671101621921,nm,0.0
5.652224540710449,25.090761658500625,-13.06342802917891,98.18302926156076,-0.2820817528040382,0.1279263875441278,-0.5335233339430626,0.18383968779677962,0.2934629968084522,-0.023866067828063584,nm,0.0
5.676436901092529,27.00317932965306,-14.712151451252657,97.62581427477116,-0.6371915490284351,0.2187371995803878,-0.7710130191787964,0.12973033837098794,0.19899729408911457,-0.015684287443897046,nm,0.0
5.699650764465332,28.348733680888362,-15.683254272659932,96.63983659658922,-0.9492991431462444,0.6395837310620504,-0.7760746153911313,0.07602724023256983,0.13045952370040342,-0.0935917356726631,nm,0.0
5.701366901397705,28.789934888725345,-16.089879924695687,95.91622959114028,-1.063553936633071,0.8507131001802352,-0.7674653632661289,0.07810556211531591,0.10393689564626554,-0.12812034691502497,nm,0.0
5.726578712463379,29.16704231354329,-17.12267317040171,94.4999032973825,-1.1514507447362405,0.9528445218914546,-0.7542174270112171,0.11625828605798265,0.03776451856899626,-0.13422950433605216,nm,0.0
5.738475799560547,29.10145208840213,-17.720916117655054,94.02639846481628,-1.0890483188618914,0.7871068720992301,-0.6527466318627244,0.12712851780455595,0.00698121047504894,-0.1059128171379736,nm,0.0
5.751957178115845,28.290444514182568,-18.287414458348408,94.19356549553294,-0.9072284019535314,0.37673528466477696,-0.9644993776113633,0.03817108778010372,-0.07615061896441104,-0.010980173009611448,nm,0.0
5.757848739624023,27.738481873741396,-18.15457133061146,94.69978437740573,-0.6691794859652148,0.10886351496731848,-0.7456029287396968,-0.011391059947816645,-0.0960776426835344,0.02833915522678792,nm,0.0
5.782461881637573,25.767903631677235,-16.967381214730825,96.26067032865284,-0.13629360564140516,-0.01603816439638245,-0.5676090341683571,-0.12525541857105513,-0.20739617683171185,0.07120343626302233,nm,0.0
5.786691427230835,24.53637927848364,-15.997704804466775,97.28569712836133,0.1732303805046663,-0.15373523439307918,-0.1870422785008468,-0.15743892273403917,-0.24740313757269913,0.08003734639499219,nm,0.0
5.812892436981201,21.69072659307805,-13.84760915026874,99.3117920259498,0.9466659379223893,-0.44363042982505885,0.4236983592499085,-0.17156032760377016,-0.28925345587351275,0.06562131299541515,nm,0.0
5.815416097640991,20.82807228290318,-12.750172657701352,100.09325603129811,1.3232451252696635,-0.840416147981705,1.113094812013673,-0.18091920987080945,-0.19242915362332455,0.07835551651495791,nm,0.0
5.838945627212524,19.38493036125128,-11.220409571827652,101.0048366385843,1.81834042674292,-0.8884810663382976,1.3929969006624623,-0.09435877472422671,-0.15216500172037403,0.008948341675204622,nm,0.0
5.843237400054932,19.3226930175073,-10.776323664977484,101.1514856244343,1.8439970403594212,-0.9163661913367686,2.0334368423533973,-0.07775243969522525,-0.01866796146390669,0.012946597092647337,nm,0.0
5.8698930740356445,19.077055761521,-11.928731681165683,100.55271306234191,1.1473051210664584,-0.38871474663795885,1.2462360221066677,0.20810889809994398,0.027999104234343722,-0.10071474140480552,nm,0.0
5.871503591537476,19.291215864503826,-13.35563557781164,100.0162212155311,0.7793895653666663,-0.48065441314086305,1.5687935686642052,0.2809633542622872,0.10278299517984933,-0.10456546893208747,nm,0.0
5.8956944942474365,19.730660250267235,-16.8894824991879,98.73481906497852,0.13893307234870073,-0.1351776831842501,0.10828550619796663,0.3639809712101073,0.1942018046224217,-0.10529026696554836,nm,0.0
5.9004786014556885,21.297785160460354,-18.5697228694133,98.03638472891002,-0.23746331095080156,-0.35976401905539523,0.6142763509564805,0.2966921411716655,0.3555607131238334,-0.03842474158994692,nm,0.0
5.92019248008728,24.909040424064706,-21.20927479273418,96.23354347222586,-0.5574978982605299,0.03896238404368373,-0.25579994381362714,0.21728758869327666,0.45320850552111647,-0.029614968073560313,nm,0.0
5.94819450378418,29.62636582948698,-22.905579381085847,94.4061681164718,-0.642786656962138,0.44705670241180984,-0.5287455479840839,0.1109801996689255,0.42970459419613594,0.016018428226626618,nm,0.0
5.949784278869629,31.959286508564208,-23.717434082989506,93.6524275746397,-0.6726640578441743,0.565470593236057,-0.4991494885664477,0.138836610737796,0.45050381307976856,0.05839229495970858,nm,0.0
5.97321891784668,35.49410604620591,-25.526185069876444,93.08535446565521,-0.7266295582356458,0.5953178618603078,-0.7255212069808948,0.1667533748643847,0.2975217836389793,0.1130244847393543,nm,0.0
5.976086378097534,36.74466736081031,-26.434159181684965,93.22449185015553,-0.7999846362015849,0.43734957143524844,-0.7625271892922699,0.1744891947060574,0.24658744712287137,0.12428461145217054,nm,0.0
5.987300157546997,37.559325139403505,-27.274775929704838,93.44020505332595,-0.8193396978532098,0.3712571067948281,-0.8141378300256714,0.16466527239746287,0.16711401864292208,0.0918917930852858,nm,0.0
