timestamp,roll,pitch,yaw,acc_x,acc_y,acc_z,gyro_x,gyro_y,gyro_z,markers,motor_input
5.004651308059692,-37.630133390736184,-38.28696923082112,136.18374171283276,-1.588986341762226,1.43534612085622,-0.533900807058015,0.28819751273330074,-0.2595727753181069,-0.23977707088035652,nm,0.0
5.006369352340698,-39.70127912393088,-38.03392100327331,136.85144705478478,-1.7080786503095544,1.117067721209432,-0.5961117490350974,0.20754203904907023,-0.249568141334331,-0.1487305266166352,nm,0.0
5.029736757278442,-42.366555941520645,-36.828799222783495,137.35486343106936,-1.4456674276851245,0.9800380063566227,-0.8895445546350169,0.019490030063396484,-0.20142515394048452,-0.13604005127942972,nm,0.0
5.0368571281433105,-42.612684011570046,-35.806035551864525,137.173926500673,-1.3749536447099502,0.8130590814629908,-0.9099490284857372,-0.1042935533902991,-0.16641173082500776,-0.0885905303574977,nm,0.0
5.062171936035156,-41.798127259914,-31.965097825406627,137.1281649936871,-1.1219310602818042,0.68401142157398,-0.7857691587612722,-0.389192567705979,-0.2567138088796847,0.056602250982385825,nm,0.0
5.063883304595947,-40.81083063558834,-28.780673004993478,137.70945082463038,-0.94912552278168,0.48790481231466615,-0.795035192763817,-0.5518775724996103,-0.3432390805052806,0.17647340605162065,nm,0.0
5.088315010070801,-37.739500730216584,-20.47508828742882,140.42261012315166,-0.283523619054289,-0.2449141549590507,-0.7894075548131348,-0.8215193671004173,-0.4467653807251354,0.41329551662798303,nm,0.0
5.097148180007935,-35.43699033073623,-15.845257323297774,142.11086779276144,0.3495596788128539,-0.910230560916337,-0.6662357708350359,-0.9189510908988417,-0.4364776507924644,0.4581442457474148,nm,0.0
5.11503005027771,-29.12955226299233,-7.667928435321826,145.79056222674967,1.80796348013389,-2.386921186333,0.6980468803094864,-1.011003819105888,-0.20849388914662484,0.44093870263773577,nm,0.0
5.1217732429504395,-25.312754515712687,-4.633247589062399,147.07955745076208,2.410476249221507,-3.02370949656849,1.7590953878829538,-0.9685476251573032,-0.07156869956478375,0.3407188318442722,nm,0.0
5.147684812545776,-18.00828374890881,-1.7718879492045156,147.64171052129765,2.6242317757455607,-1.9334080750520122,1.947452193218197,-0.7433448760480142,0.2667573825267812,0.02660198791039564,nm,0.0
5.149545669555664,-14.969585646886532,-1.9339000356471123,146.68001484898173,2.1175005710860892,-1.2750425761223334,1.945775683069837,-0.4926819847158927,0.37166738854681036,-0.1611557959816546,nm,0.0
5.159260272979736,-12.863306127862241,-3.4120017650719667,145.08696759974845,1.5266103705391136,-0.029151428317106407,1.3765650042166258,-0.18168872557593427,0.4957490440304984,-0.2846248074269574,nm,0.0
5.1835572719573975,-9.521861431832491,-8.74843135835663,141.89684220076498,0.2765293150841542,1.1558304249512954,0.9014471596041799,0.13845772137383042,0.6410825400407894,-0.24655187553379154,nm,0.0
5.19741678237915,-9.300376225390794,-16.117276579125225,140.97354927086414,0.1093221095491196,1.0052891279256908,0.5380885925190197,0.5513099607055141,0.5961958706720828,-0.02386458923687739,nm,0.0
5.211350440979004,-10.57935995268879,-19.911797244824218,141.4239318411249,0.12077074684244452,0.5407538162496454,0.4044729231631483,0.6673836901065576,0.4536808250043847,0.01744757718376981,nm,0.0
5.220378875732422,-12.713524608284203,-23.073000362391202,141.97062297809316,0.16026899485089485,0.14753424153848194,-0.13824926562574635,0.7058984113329491,0.2641860420510621,-0.033755397384023764,nm,0.0
5.224243402481079,-15.362713087806398,-25.853445649104668,142.37264564139312,0.04211333566929968,-0.05206077473784507,-0.5523471280785981,0.7243882378378713,0.15780687654860487,-0.13767063805387514,nm,0.0
5.25164794921875,-21.056963204909948,-29.97202214376336,141.894017194509,-0.6276306398960682,0.1729544662753782,-0.6710671377810535,0.6073853426235352,-0.013334219010983325,-0.4032249018852096,nm,0.0
5.254138231277466,-23.88241374502484,-31.28049152007459,141.0808668423385,-0.8999170159465494,0.7866906884486441,-0.879555492098335,0.5471398801712472,-0.08363999171729776,-0.4863135442634236,nm,0.0
5.2786784172058105,-28.370752134282366,-33.30824522232794,139.9466944360404,-1.6568923698007694,0.9937545387442798,-0.3506137187990606,0.38804597569080307,-0.08104924626628662,-0.35874602559387814,nm,0.0
5.283222913742065,-30.585447204296447,-33.70388730539909,139.69428378251644,-1.7180733507447072,1.3413184176151036,-0.48978151206066783,0.3378130769892506,-0.1646415336508924,-0.32806853670549807,nm,0.0
5.30466628074646,-34.024666615431485,-33.66134799938552,140.02542382885687,-1.7484705211515776,0.9845675240668539,-0.5270422479288822,0.18700040012532396,-0.17448102558377587,-0.12990879878448403,nm,0.0
5.311315298080444,-35.37228582551094,-33.125825537835354,140.24503641331563,-1.577809124419116,0.906771777656541,-0.6503543055902574,0.1083523581034623,-0.21420556353830314,-0.11027451220279381,nm,0.0
5.337385892868042,-36.504355337477236,-30.565491976034984,140.61238347703036,-1.239506558669496,0.5604031396181121,-0.8353014402118608,-0.14547902177915348,-0.2580310284355081,-0.03234450339784944,nm,0.0
5.361422061920166,-35.22476733172834,-21.970127829292785,141.8545680854407,-0.5847522753639924,0.1920315882917063,-0.7983735825126668,-0.5568803393791759,-0.4577856983930001,0.15587258601907994,nm,0.0
5.3841233253479,-32.425350536785615,-13.406296971692246,144.23664634793684,0.3092928849488109,-0.5979422558165273,-0.5962800842448277,-0.7808100615013059,-0.5173450691597296,0.3210320057782739,nm,0.0
5.385909795761108,-30.403394613314656,-8.973364864202066,145.74147344546066,1.0050773579221142,-1.1320730836726112,-0.23253549012009167,-0.8329639818749857,-0.48583237128141193,0.3549351378369234,nm,0.0
5.4126245975494385,-24.408880324329818,-1.6160774897037615,148.65382594171118,2.217532118110751,-2.527967838063047,1.544534155561837,-0.8976972203453809,-0.20759194626549188,0.28389103290287504,nm,0.0
5.4170777797698975,-21.38825275260198,0.42931505327386,149.43352880553334,2.8300630480515907,-2.0279858934826738,1.6329669302302283,-0.7293913936160484,-0.025582496493629786,0.16171876350735906,nm,0.0
5.4387428760528564,-15.240160349627152,0.6056346927789242,148.4180387771637,2.0168376281661713,-1.3036590845428142,1.9751711028938808,-0.4230720398595411,0.38233742625069334,-0.17834265473732636,nm,0.0
5.453449964523315,-12.33562443799641,-3.693513081184755,144.83669325545046,0.9083342631087216,0.23336114467930327,1.133745799737667,0.10513658999336144,0.5894222692564799,-0.33872055569781495,nm,0.0
5.46684718132019,-11.774441817050448,-6.896330938179481,143.29535696756028,0.5258851878004895,0.7279838484618131,0.7964658083376123,0.2876351304017006,0.5988852301643549,-0.26950458250984755,nm,0.0
5.488746166229248,-12.021564778586542,-13.970026449648735,142.48031920303015,0.20987440453197226,0.6038459223421166,0.3788926909563137,0.5011364961202673,0.5471872227626802,0.025798587388510933,nm,0.0
5.496426105499268,-13.223528378182603,-17.675234586490156,143.2189217639807,0.12092077820233242,0.39127214677583,0.19436944657224783,0.634031024809216,0.4654676989061818,0.09762089808932711,nm,0.0
5.519910097122192,-16.830326812712286,-23.661993878905637,144.58695759572328,-0.02412658218712525,-0.04682537105780244,-0.5161499437716683,0.6099748861694014,0.2547381588115616,-0.04155543175121004,nm,0.0
5.521799802780151,-18.779084344444737,-26.255441732975445,144.5602213016505,-0.23796427541949658,0.11014815510844374,-0.733348147601499,0.5905193583537185,0.23262813481333205,-0.18234354028348976,nm,0.0
5.530274152755737,-20.418216909326553,-28.68108725225214,143.92333659409044,-0.5873161719830159,0.3606908712018981,-0.6922374991288166,0.5217762226551756,0.23832156459461634,-0.29070399725648255,nm,0.0
5.552585124969482,-23.320986148803808,-32.565156296772656,141.7589124696431,-1.0701710084358718,1.1194579690334554,-0.6467677496384694,0.42757468796137515,0.14173363372135164,-0.38703551622350185,nm,0.0
5.557672739028931,-24.569327289865747,-34.090722892846,141.04351877044272,-1.2742454524114974,1.258223400616769,-0.47124403925011654,0.3568703600375221,0.12203819354606808,-0.2861800719491277,nm,0.0
5.576455593109131,-27.379512034290947,-35.691879888955654,140.8027714745725,-1.4266010805822724,1.1689909535923393,-0.4334649039224781,0.27041491692141517,-0.06709376253274331,-0.16762260233865062,nm,0.0
5.592423677444458,-28.75715689888769,-35.749486102973336,141.03179151532174,-1.4050011802670455,0.999023049384491,-0.516974369412671,0.1846949106266575,-0.11922743983499912,-0.11003363473650504,nm,0.0
5.597305536270142,-29.888107093957924,-35.38427065266359,141.22336134910742,-1.4446560511454587,0.6787133439170822,-0.4887612504115677,0.10121394832838652,-0.15955559580758832,-0.10046796386012877,nm,0.0
5.618304014205933,-31.42797728495513,-33.31604015022398,140.86720140781497,-1.340715180786703,0.7214929187817988,-0.6354821450010987,-0.08324892315468221,-0.2393510209664489,-0.14227807976554982,nm,0.0
5.637567758560181,-31.632837020288015,-29.466310554610985,140.6150646264035,-1.2418446386012874,0.6921709462308142,-0.6281071497708012,-0.27065308431550683,-0.3243253261863766,-0.034717631146534554,nm,0.0
5.659334182739258,-30.742089223353357,-23.62740040731981,142.00141587660855,-0.7662856748988376,0.1981941617643538,-0.658270052812411,-0.4722195171277768,-0.41598683079344256,0.21180956466501094,nm,0.0
5.662163972854614,-29.812316963367643,-20.05633392156478,143.42203818382532,-0.2807789693302429,-0.14845038526023083,-0.6831349004681344,-0.5677312166676035,-0.4514785987792111,0.3136888167882162,nm,0.0
5.6877148151397705,-26.304155675810552,-12.360197434428574,146.76629114261863,1.0629953206861489,-1.35655297460236,-0.18065787540353398,-0.7517313824134955,-0.4063417954066293,0.41309382159640196,nm,0.0
5.69291615486145,-23.925766504811374,-8.855445527011918,148.39113444951963,1.866762990699466,-1.7515543316446545,0.4066213625993545,-0.7708650069568355,-0.32759972931853365,0.3934094694168926,nm,0.0
5.713538646697998,-17.6670380515279,-3.9307248774030983,150.42253753963539,2.676498331297171,-2.199398917741917,1.6274923890984814,-0.7379018161717009,-0.03223432688304887,0.2112554487920384,nm,0.0
5.71936821937561,-14.751214019514302,-2.9882037843290132,150.39459657229503,2.7656575423433067,-1.4440160520819958,1.327113292536561,-0.6003568444614371,0.13846011860140578,0.042855130231684344,nm,0.0
5.748677968978882,-10.065334222707216,-4.629102885662182,147.9715932942188,1.4756225692073863,-0.40900884888504746,1.6043810610904456,-0.15763094217664103,0.4222427942627227,-0.26755138430039604,nm,0.0
5.750723123550415,-9.230322084334246,-6.785801390681916,146.17997828028777,0.9922125699033791,0.4323499476175829,0.9355964894928687,0.09575956204596422,0.46711207806123156,-0.32224757897655576,nm,0.0
5.7574052810668945,-8.712887928764808,-9.710553159813914,144.746702279859,0.4492596421328377,0.7348259442643277,0.7902930746539308,0.24851072143248368,0.5546775015419292,-0.2545139022566184,nm,0.0
5.784687757492065,-9.609930909862747,-16.927732167357846,144.01540291890737,0.09864969152385891,0.7951053132444111,0.3476333508120322,0.5553626030435136,0.5396581711549238,-0.01144660165426368,nm,0.0
5.786796808242798,-10.772786001104082,-20.667979885543847,144.516679716261,0.046559360032870395,0.33524132477472757,0.24091584320667803,0.6175870299966341,0.492746719293111,0.05775491697750768,nm,0.0
5.815236806869507,-16.547232698370472,-29.80281960885062,145.18321911923712,-0.26776737018970825,0.10204786368722178,-0.7939248298766551,0.5686450486716677,0.25797980377479224,-0.24601080362133704,nm,0.0
5.8237645626068115,-18.189944597104564,-31.983749102953993,144.33513798642056,-0.6042431606098003,0.3357702990549343,-0.8250905922226504,0.4839304065588661,0.2083103404955719,-0.3577261815133885,nm,0.0
5.846551418304443,-21.41901396352405,-35.39162613102648,142.21004478376818,-1.2076135381388937,1.2105131238599236,-0.5774330140973308,0.3934549873940599,0.10013188120311642,-0.3901284902867334,nm,0.0
5.867843151092529,-24.370553580000625,-36.88858543664097,141.57959429271426,-1.7244751765805066,1.1836681559350621,-0.2557401265848259,0.2742849136267562,-0.07335267720133298,-0.2251334128445469,nm,0.0
5.873970985412598,-26.179508789812854,-36.96410903073591,141.98889501325908,-1.7433358098868494,1.3173143541477041,-0.4195974837380748,0.24023103866794973,-0.15377748521341877,-0.15375692737257923,nm,0.0
5.8813440799713135,-27.64071375043093,-36.66488507489331,142.63429226685736,-1.7728311193751831,0.9671171217652708,-0.39765610034112364,0.1521038355741602,-0.17730394966608942,-0.06477308595627809,nm,0.0
5.894217491149902,-28.883228248766436,-35.99085719900058,143.17657262551424,-1.6503750605901188,0.8142054636468641,-0.5965395819687755,0.08181843555002817,-0.2153563615291583,-0.05654049099941587,nm,0.0
5.899461269378662,-29.72064723320502,-35.00497381015026,143.5157522634842,-1.4308989193954975,0.7444958320488789,-0.7713491942756161,-0.005011886933413269,-0.22678184230250684,-0.05127011876092485,nm,0.0
5.923607349395752,-29.87681178358223,-31.86077110933179,143.69203827666408,-1.072431305152791,0.39082545140432684,-0.7554742687767138,-0.22507454890959228,-0.2729162171737772,-0.0022873585616811102,nm,0.0
5.932882308959961,-29.465544490635793,-29.3874613268741,143.75099404763847,-0.8334340351680304,0.29800358673996946,-0.7392628096657184,-0.3474989702957473,-0.3440181893848854,0.05065362861735189,nm,0.0
5.954389810562134,-27.965355859910268,-22.513176570675842,145.02749064756418,-0.2522920833449719,-0.052584774534957746,-0.6410833453496567,-0.5582181084517315,-0.509762810601492,0.2161948592637135,nm,0.0
5.962430477142334,-26.772890463367794,-18.258917051715574,146.1931807664738,0.21553187587402992,-0.38589606372588536,-0.5907329088292784,-0.6639400693862482,-0.5632812716474135,0.28942681092113814,nm,0.0
5.983527660369873,-23.06463927538538,-9.665704186037587,149.0880827294544,1.4067505360138541,-1.1476931326111626,0.055364931413205525,-0.7958973797599607,-0.48235192358920803,0.3364186538841322,nm,0.0
5.985226392745972,-20.246753288258837,-6.020667574611893,150.34384901393815,1.8843457200011426,-1.9038359508833966,0.9714311213315352,-0.8505309397019755,-0.3352518966156473,0.288521070722495,nm,0.0
