timestamp,roll,pitch,yaw,acc_x,acc_y,acc_z,gyro_x,gyro_y,gyro_z,markers,motor_input
40.50393033027649,10.681272637134672,-25.17936310072261,54.316168080835986,-0.694537128613862,0.5985870751249529,-0.27270547431556275,-0.16766824071362924,-0.14119135193699858,0.05020375412634473,nm,0.0
40.50916075706482,9.477935074231382,-24.7549414657076,55.234954561494064,-0.6511221269756365,0.5332269114330537,-0.2894802786011935,-0.18143348553626987,-0.12744475185576418,0.07914967284900433,nm,0.0
40.5156044960022,8.28942272710246,-24.237221324177423,56.33990468001237,-0.5454125929010779,0.4580667957066316,-0.323753876162346,-0.19350265621492282,-0.11872784193851713,0.11956210078760082,nm,0.0
40.54140567779541,6.043206140981305,-22.78414663349813,59.17412854233984,-0.35372918233419637,0.21216998800882836,-0.3161764660884912,-0.22891138218233423,-0.08594755689109884,0.21828134589437698,nm,0.0
40.54463005065918,5.0402455718999,-21.861173312016266,60.65168967867347,-0.23080808827101515,0.06749177592339789,-0.34971825732701184,-0.23921507321863192,-0.06510310282178026,0.2497543926828377,nm,0.0
40.56992483139038,3.6979103561404076,-19.70400558484043,63.68372398051415,0.07574246381320401,-0.2823505581496104,-0.4132160516400048,-0.234517554451886,0.016526481111832608,0.2568457635742232,nm,0.0
40.57272267341614,3.755488624902836,-18.464181933110634,64.87665103260571,0.04784938166119489,-0.540300381810435,-0.05580994521842102,-0.20514636157351915,0.12107258040515653,0.25605037507131473,nm,0.0
40.582972049713135,3.781256007053881,-17.121051070071623,65.7990175090631,0.19862956976613694,-0.8552225788983723,0.4324265523602039,-0.22867965867588982,0.12033616631568021,0.1960141503900158,nm,0.0
40.59178328514099,3.7936685460867023,-15.700190881469071,66.53791814427046,0.8483904518542643,-1.0765669544727061,0.26288157480430163,-0.24575183385538865,0.12074345683214757,0.14507910214675385,nm,0.0
40.61573648452759,5.32658417183773,-12.974812938915418,67.5244244244869,1.0295861653108835,-0.9677573968204023,0.9478556751205564,-0.17816727870201038,0.22205922099262637,0.10406761715087719,nm,0.0
40.620742082595825,5.585256620941168,-12.060632735963788,67.6062103189115,1.2871587263622242,-0.6234494832319271,0.5506210226274181,-0.13667024882441148,0.12036256881934186,0.023166775136160812,nm,0.0
40.646156311035156,6.11492932979541,-12.12878177038029,66.82577177696726,0.9464679047909871,-0.29182747431903505,0.888824833225729,0.09662030343719122,0.004315482714467424,-0.12373379899057996,nm,0.0
40.648863315582275,6.36268520721676,-13.13976160172063,66.06658750375531,0.7201916544633004,-0.19438928400915156,0.8611583696042313,0.21825701853160243,-0.03272284274692346,-0.1738045223879248,nm,0.0
40.672863245010376,7.6210489852669046,-15.735706687013726,64.16603613586827,0.17531535471315393,-0.1747764404706345,0.2871705701059208,0.31669059096105284,0.02298060875885294,-0.16920319222025187,nm,0.0
40.6778929233551,8.76322923969356,-17.150414570606518,63.09048311145732,-0.05416844606572398,-0.2261251626538194,0.2970667324714882,0.3646564093330768,0.07394898523800313,-0.14845763393789188,nm,0.0
40.705474615097046,12.28224012268488,-19.603446773489924,60.947339128965055,-0.26078640998786196,-0.0887188724310472,-0.10166810393498689,0.40506971627001365,0.2553812038593969,-0.09148116760540424,nm,0.0
40.70895481109619,14.74014427690582,-20.59413772631451,59.58091986143473,-0.44013107782829425,-0.024075637871808345,0.01170864044539295,0.4149720552209802,0.30603407320568043,-0.08995148942413493,nm,0.0
40.71899485588074,17.169441542399433,-21.47701005603923,58.0863277993058,-0.3063276764804633,0.16880335854086354,-0.3062532189034569,0.3996016259570608,0.3001432313353499,-0.11170125074507438,nm,0.0
40.74026870727539,22.55809344724143,-22.67385080621595,55.329068505723946,-0.4236473841255576,0.3423364178139447,-0.30468302031724254,0.36453706546630377,0.34371938251578615,-0.06220152946321683,nm,0.0
40.7487678527832,24.8604284363931,-23.135174264832735,54.23696442970596,-0.36160727516280217,0.41091028653600037,-0.6008669107686894,0.33321230627205156,0.2972712493585103,-0.03663857117355562,nm,0.0
40.75701117515564,27.032409028316046,-23.58254881962291,53.54580385276209,-0.4494340959704027,0.25725359441821893,-0.3378450990583803,0.32026710411758647,0.2736871389887211,0.028200434596287655,nm,0.0
40.76282739639282,28.465253567017008,-23.859498373771068,53.37142733073477,-0.4619795469534657,0.23354981821263984,-0.4719228424818782,0.21334125655541591,0.18222944115264966,0.06239150827320393,nm,0.0
40.78716015815735,29.4611013285933,-23.863790407319296,54.37626134779864,-0.4644347411661372,0.24416625236322342,-0.41385531644887036,0.0215794603561205,0.04481173959493116,0.11647934086234647,nm,0.0
40.79198169708252,28.917121923142304,-23.539384494480238,55.3948763082078,-0.3634974344079608,0.366526751091631,-0.4043407274008622,-0.09813645825457783,-0.03988009721803672,0.1012072194259434,nm,0.0
40.801563024520874,27.85646018578244,-22.997692872788,56.59493697958254,-0.30528311304904077,0.4606439542223381,-0.2866691091956889,-0.18649722130219412,-0.09697110438383817,0.08720473675095843,nm,0.0
40.825085163116455,24.308650687959382,-21.77117952054296,59.04007197566983,-0.20883782064098944,0.6589828789290734,-0.11716670213314784,-0.28499397468651555,-0.2481964055779348,0.014901081450550559,nm,0.0
40.82967710494995,22.046183634209317,-21.181070167856824,60.34482476422563,-0.2556294680003169,0.6491357445212376,-0.04615510653903615,-0.301043936076894,-0.3010126246540345,7.755242506846425e-05,nm,0.0
40.85409140586853,16.96227989060447,-20.186647481623424,63.18589649638517,-0.3823123575945894,0.4679991258884579,-0.09379406686749944,-0.2928170233206732,-0.3843371657422652,-0.010449112986645337,nm,0.0
40.86212110519409,14.418999504136767,-19.662844827443504,64.4425741002245,-0.43994995372044715,0.3243585344543846,-0.10368576647570081,-0.29128842063044175,-0.3798561522243066,0.0025218332852159926,nm,0.0
40.88610506057739,10.40061556341387,-18.269439688445917,66.03688256976942,-0.33796512332007084,0.06554221554083577,-0.26447233623312094,-0.2931643157687492,-0.3134299688570245,0.020841679489971555,nm,0.0
40.887699127197266,8.54930025126643,-17.42111278275466,66.9053316200767,-0.19921053238131625,-0.05475782620292316,-0.26047810145424743,-0.28304451326403696,-0.251914849360603,0.02295955848055205,nm,0.0
40.912665367126465,6.158619511115167,-15.521646436897163,68.02338717718557,0.2642335770728134,-0.3482939466773906,-0.1758674597708835,-0.23131996024656856,-0.08972353321682063,0.01831195270744822,nm,0.0
40.91537404060364,6.229194504298038,-14.61630029874395,68.19764999504604,0.4067170022508121,-0.5798226641384965,0.2906547207345715,-0.14987392590360332,0.08447273186567471,0.047333519640029235,nm,0.0
40.93962645530701,7.363944056750739,-12.914797981601977,68.04288795250406,0.9991679809483035,-0.7328555834799275,0.3249811047880865,-0.10182300037043576,0.16081147769222742,0.01633121200265909,nm,0.0
40.94545340538025,8.558123792940966,-12.384819747800325,67.87625157898155,1.0412074354545224,-0.7032834480619904,0.6862226593220044,0.0023172000707347364,0.2601771914998935,0.028983271317180846,nm,0.0
40.97036862373352,10.618081298261846,-12.647818214137201,67.06217541105144,1.239186643409714,-0.476841123838711,0.44501227958962936,0.15091303061443825,0.1500429229976069,-0.0485027034223822,nm,0.0
40.972090005874634,11.906384442834892,-13.407079252628833,66.45112666220136,0.9998432250087914,-0.5141096080737113,0.7692241385949868,0.2517068004540799,0.17497445788572105,-0.061121607033053645,nm,0.0
40.996517181396484,14.216780386799597,-15.69230824553001,64.93160352862944,0.5635617174710404,-0.5343268502876652,0.4753538133856352,0.32985912020966357,0.1069609608858164,-0.11428472302422175,nm,0.0
41.00143790245056,15.438224921240469,-16.994201542880166,64.04998448514206,0.24799617923272801,-0.5332121221280332,0.3488512235415232,0.3490211079684542,0.10397526525366689,-0.12552155256990613,nm,0.0
41.0110924243927,16.583622292618468,-18.289488971932887,63.068421275238855,0.06786336887718276,-0.43058115492893867,0.11192201714737415,0.3422600568761236,0.08460374960834996,-0.14192579386042956,nm,0.0
41.01947283744812,17.638019118217933,-19.457935780427626,62.02869803480542,-0.13430958091245895,-0.37511359865573973,0.14671140216588144,0.31246038093974854,0.07374290273950423,-0.15161695470226005,nm,0.0
41.04653215408325,19.77342651496304,-21.387282486095298,59.90133944547049,-0.27493125781347744,0.015622755220001956,-0.1894340204657304,0.29677279467240575,0.13283851098320987,-0.1276364063291,nm,0.0
41.05083131790161,21.021713000194495,-22.15756183970412,58.82858817241998,-0.4881166446031422,0.13881115984758932,-0.03344498222491214,0.26374394898325226,0.12532551594386607,-0.13189871367014525,nm,0.0
41.07319402694702,23.00342722847513,-23.418920951486655,56.693649464309864,-0.565401451903058,0.4869637518552644,-0.303267208183966,0.2256789603591239,0.11566352782567974,-0.1328443904270853,nm,0.0
41.07672619819641,23.96068577980824,-23.81685357462058,55.731444129423934,-0.6824524262259908,0.5375576060437908,-0.23201876349035616,0.1766516378944402,0.10566730118593458,-0.12689803881755385,nm,0.0
41.086541414260864,24.557605683452003,-24.02222467795273,54.88024397841051,-0.660491919467542,0.6432347070432495,-0.46973226404141577,0.10879791867396287,0.07031380810382397,-0.1274372316494365,nm,0.0
41.11337685585022,25.113030698149192,-23.953135062374773,53.937927185745856,-0.7132742795381178,0.6085975758311274,-0.25728442708918087,-0.0020465973325878616,0.02698425484285136,-0.0647673497026762,nm,0.0
41.1152925491333,24.681495938561465,-23.676725042672846,53.960932852339006,-0.6664200938245254,0.6218409794770643,-0.32060257112328255,-0.07844501679718914,-0.027657760248188324,-0.03583787844902736,nm,0.0
41.12470269203186,23.91126726100871,-23.354719733825046,54.29608313598391,-0.6663906626359836,0.5782153472697897,-0.18673588498599797,-0.12225495381845844,-0.07318700924792895,5.6401805843722064e-05,nm,0.0
41.15305280685425,21.11957118789906,-22.60103752042124,55.873255886302935,-0.5799114300022288,0.5556743992544209,-0.1819809402497135,-0.21613628521043185,-0.18846521271432004,0.030607817483955305,nm,0.0
41.16131377220154,19.36310599016536,-22.172382896723736,56.76274885313451,-0.5444731274702911,0.516045806677763,-0.15863440582410526,-0.23869445159570782,-0.21952722463049795,0.03905015381905186,nm,0.0
41.17949557304382,15.570843981259745,-21.19921156311917,58.612787961709444,-0.3597807803996797,0.4002571938906538,-0.21441029033332257,-0.2602812744669147,-0.24193991815727284,0.04381633583034901,nm,0.0
41.18120217323303,13.741065167356687,-20.633512811706225,59.3988521042028,-0.2587903635112313,0.30193021592592867,-0.2456936676897396,-0.2602850844009149,-0.23143168953018226,0.051025963056373864,nm,0.0
41.19200015068054,12.023749753694261,-20.035357163645468,60.324241403407996,-0.10893149110777424,0.17679988872257013,-0.2733435642055641,-0.2520589954158332,-0.21546708749606563,0.061467872034697904,nm,0.0
41.20037221908569,10.533228604181867,-19.38806897231614,61.264134828999865,0.025806582696542818,-0.0342700768978777,-0.2980011197776836,-0.23677451838010624,-0.1787492297774129,0.08334502060069827,nm,0.0
41.224032402038574,8.798780341572837,-17.77731810567361,63.07734859715327,0.37075010689600135,-0.5340591644576593,-0.2542994437882322,-0.19010112751030753,-0.011141235294144049,0.163293645818019,nm,0.0
41.22944951057434,8.880072659855086,-16.77080587355315,63.96645032282269,0.24327487563219188,-0.9581705541392319,0.7354942187429077,-0.16000825289377577,0.10753472767829844,0.20699625131942187,nm,0.0
41.25601291656494,9.385664278330026,-14.575323980018512,65.421997104629,0.9389353312397889,-1.0207220425003753,0.4822147529634434,-0.1283757284574057,0.20504820993120063,0.20082227153308055,nm,0.0
41.261157512664795,10.135254854754598,-13.821298962837723,65.81049517755052,0.9093825298819269,-0.9446174087569044,0.9847088680798932,-0.06411063459814673,0.19886238252117008,0.14797735566330464,nm,0.0
41.26647114753723,10.37861135715702,-13.55297403001831,65.90820886419196,1.2395806734288235,-0.6609727623029671,0.5180507056591797,-0.01667716402487169,0.06907713024675416,0.03441920516037353,nm,0.0
41.291733503341675,11.61725386978228,-14.41233237888761,65.1419572016335,0.917679016825749,-0.3835593341219782,0.846029462116336,0.18160375684063948,0.05807990560667301,-0.08300160996374344,nm,0.0
41.29687213897705,12.156569189048303,-15.455951226125759,64.3929013237187,0.7740504413563369,-0.2717294517138813,0.5467355518891708,0.24648329360277493,0.009162669949005633,-0.1272041355212631,nm,0.0
41.3058865070343,12.96783072957405,-16.734290464113005,63.64385072279394,0.44530089703876713,-0.2737686056331812,0.575168351018451,0.31145082685239284,0.03222500626366551,-0.124196972628448,nm,0.0
41.31378984451294,13.79089467386789,-18.099923225867265,62.86850420102416,0.19665779504794736,-0.2685462102870432,0.2821740279354144,0.32797204587359974,0.021471113290108285,-0.12581576557761162,nm,0.0
41.326281785964966,14.703629315232357,-19.468537763783218,62.04997785284909,-0.023491197007885167,-0.2979510681587293,0.21046324606844638,0.33602423598881714,0.030835901675709116,-0.12563627177142064,nm,0.0
41.334049463272095,15.617158163979331,-20.70354985005983,61.10517607182307,-0.04962485304639258,-0.17723692405624344,-0.23688861779035084,0.3123187506071739,0.03737913023946523,-0.13956454768978077,nm,0.0
41.3428795337677,17.089539201043287,-21.74937301931188,60.01838468352792,-0.24749413285820757,-0.0887355120546511,-0.2577323810715844,0.33049490179667057,0.14030931834227015,-0.11564612663626754,nm,0.0
41.36783242225647,20.22232660536541,-23.285049692910405,57.43622938003218,-0.3758333796953465,0.23961625393222102,-0.40551336852533215,0.26739353484716405,0.15844524156534984,-0.16275535070135147,nm,0.0
41.377193450927734,21.892247602496873,-23.786012587400865,56.12281949483282,-0.4376895406647867,0.37452272909505574,-0.38612979530342617,0.2648261519256362,0.20528125077846587,-0.13458692764324462,nm,0.0
41.395612478256226,24.682303807705406,-24.44763487284711,53.9927702238629,-0.4600860316855502,0.521832917503995,-0.46347184491919063,0.18813959294884497,0.150107412135116,-0.08512658112212325,nm,0.0
41.40062642097473,25.715789500818605,-24.651471477235262,53.49337434040776,-0.5327736475890017,0.47976463824394033,-0.362916312517202,0.1570457019590634,0.13144453186001262,-0.019509978229935884,nm,0.0
41.424397468566895,26.234343619182013,-24.756822037738388,53.73223065550633,-0.5925419249238819,0.45927591773235066,-0.4032075564627925,0.010407801840950498,-5.944747167804852e-05,0.05483713179390757,nm,0.0
41.429362773895264,25.808946999836262,-24.634412601729245,54.35287167213337,-0.6185713826215803,0.43472298102141,-0.27484634556001497,-0.05254275115744471,-0.04423724041075516,0.0831615891302473,nm,0.0
41.45539426803589,23.677277489445988,-23.937569112456913,56.16621334409385,-0.520055475398585,0.5003861059940479,-0.18302183497008573,-0.18232771263579353,-0.1352392982614791,0.07259464903653166,nm,0.0
41.466445207595825,20.51949416463861,-22.943259106742197,58.417780336032756,-0.39320397056477085,0.5374465474673494,-0.08546287959661049,-0.23967794468727552,-0.2078027651342294,0.04723882188811323,nm,0.0
41.484463930130005,18.677939819405164,-22.463472260076372,59.56988942536246,-0.3459437476632972,0.4991764325639266,-0.08470289941589952,-0.24424789547075343,-0.23840229033530502,0.04982582691058403,nm,0.0
41.4863440990448,16.72328401042909,-22.01886508575379,60.81039653967243,-0.3140583177762695,0.4100976725566541,-0.10607914792593945,-0.24389124268201087,-0.26639936648130425,0.061813925480608045,nm,0.0
