timestamp,roll,pitch,yaw,acc_x,acc_y,acc_z,gyro_x,gyro_y,gyro_z,markers,motor_input
57.01904630661011,-45.05108682864676,48.784135628165544,-81.25494821097618,-0.5993402641991339,0.5301291076417677,-0.7769324286280017,-0.19889596937795764,-0.23597357645209072,0.007774229982022863,nm,0.0
57.041234731674194,-40.38271421023267,45.78432750655678,-77.73549822158868,-0.3817536237900337,0.5653104055894813,-0.27584150778815086,-0.25699244261944165,-0.4154802125409022,-0.05607632351946737,nm,0.0
57.04387831687927,-37.70690272644424,44.02580721044415,-76.09290113295106,-0.31207091856206187,0.5257753183942958,-0.08937368950743771,-0.26613812826368083,-0.4598594390627972,-0.09435263476009394,nm,0.0
57.05336093902588,-35.0449247409436,42.18307126677045,-74.69146110043184,-0.264266035320315,0.41413638027885663,-0.030264103126265936,-0.2678946838964229,-0.4801485106402433,-0.1284989368499683,nm,0.0
57.06633687019348,-32.48648159807405,40.28036079580914,-73.50792778476836,-0.21369504192111086,0.20058094612436478,-0.09019319050180769,-0.26980901209555075,-0.4854044316688654,-0.14496681650734547,nm,0.0
57.08681321144104,-27.760546317971432,36.21964962635597,-71.42649758139788,0.05735255594778592,-0.33144771065592415,-0.3640827949766521,-0.29365669678602496,-0.4892294036936965,-0.10693207158475464,nm,0.0
57.091901540756226,-25.569919741297518,33.906791093575386,-70.28486026364935,0.29478655092109485,-0.5589060046379565,-0.4717737545464863,-0.3285548366567721,-0.5016765931825484,-0.06030557513467349,nm,0.0
57.11868238449097,-21.751866223600206,28.42678645632587,-67.93132669445697,1.081703328666618,-0.9595339162770755,-0.02992504886368253,-0.4311827628511104,-0.5091729171315398,0.023045428196175395,nm,0.0
57.15052127838135,-19.62864059625406,22.51316895335932,-66.5342700119489,1.640794008023872,-1.105729009815673,1.0491436274582353,-0.48554005947605516,-0.37891119279609364,0.02693461779353951,nm,0.0
57.15210819244385,-18.902178283440485,19.858876702278824,-66.29953370987421,1.3270988694100214,-0.6742553686906883,1.15471602168046,-0.4413973479903536,-0.34809000039528004,-0.015859472153875186,nm,0.0
57.153730154037476,-18.185786714712115,17.73182101242375,-66.2556784153966,1.3017058390556935,-0.3418252808239782,1.7145779137723338,-0.34363988879426627,-0.3070600110295435,-0.061164432707962374,nm,0.0
57.16813015937805,-17.894127462559844,16.85354113215245,-66.52667733567203,0.8808319095286853,-0.14315219544553626,1.7992002279290855,-0.1473767931426382,-0.1326901123267827,-0.08979529373320476,nm,0.0
57.17168188095093,-17.72300315337097,17.536419200458194,-66.95476497362327,0.26398377795193945,0.20659729471559626,1.5239436622212836,0.12981303404073413,0.012964046926834744,-0.09935119919948222,nm,0.0
57.19482135772705,-18.087880172154367,22.31421543329185,-67.51077704438978,0.273095328680786,-0.11961894939579856,1.5865762615179453,0.5026142438838466,0.3008076157961919,-0.011549098982310435,nm,0.0
57.21054124832153,-20.60265529852667,30.170042305371346,-69.00819795454882,0.3725780749377252,-0.4945783991681407,0.5297247975524937,0.6280366339248106,0.5306307783545446,-0.0039279370642535056,nm,0.0
57.235498666763306,-29.507431749780846,38.884757302523475,-75.0195723945517,-0.07134680498249557,-0.28097563837283435,-0.9717000836189288,0.2558405799388667,0.6405887962803938,-0.03312864554589124,nm,0.0
57.2452507019043,-32.95653205512259,40.07417078193011,-77.32870786704206,-0.3420360295214798,-0.03877767675066281,-1.0776656943890166,0.09425096386701891,0.5648811797700544,0.007321148938084885,nm,0.0
57.268269538879395,-38.32218440305792,41.171874193886076,-80.50935536940761,-0.52679338278845,0.7225039995855768,-0.6937221635657878,0.014563974750764947,0.37014272688286504,0.05685604265635628,nm,0.0
57.27165746688843,-40.17763104319638,41.7070119749683,-81.46294315852944,-0.8118871331851228,0.9680011086661247,-0.6702922364103291,0.05181625685512641,0.28227858681605067,0.07046613163954016,nm,0.0
57.29589056968689,-41.54441856245515,43.30635327177532,-82.38838604037848,-0.7997774764662564,1.0877696346841381,-0.7331138827464558,0.14814762280587512,0.067184324668763,-0.024773960158798236,nm,0.0
57.30303764343262,-41.16842223337779,43.92716029051392,-82.49354224253203,-0.8528349478489351,0.9742269914234508,-0.8438953010812855,0.11971803542875346,-0.046970801550765384,-0.08943923904677807,nm,0.0
57.30983281135559,-40.055850885945524,44.07584395197961,-82.36191326633045,-0.7159054086286598,0.7552042515268024,-0.8713226833360804,0.04001434648114493,-0.16410925910807958,-0.15614611866436107,nm,0.0
57.33742380142212,-36.303462563083485,42.51062615809989,-81.44669762607909,-0.7172868373017549,0.40176309087517637,-0.73743239756787,-0.18158311448076506,-0.3520364636951367,-0.21280539886339242,nm,0.0
57.339072704315186,-33.80461791664919,40.95932196638082,-80.58403883626927,-0.6533454087356747,0.2281199620910375,-0.5167085040764093,-0.258636314023036,-0.42665508994647006,-0.2054948587937159,nm,0.0
57.35135245323181,-31.096236089501243,39.14379840576453,-79.38061792885009,-0.6459124697160906,0.13026447904216332,-0.3035386455642384,-0.2954055415500325,-0.48161872213159757,-0.1695432661824575,nm,0.0
57.357726097106934,-28.268074937669972,37.208565689083215,-77.88876991509747,-0.5617594293595906,0.06211703874925476,-0.11441648045977404,-0.3015846744915301,-0.5224393800017795,-0.11229458987450215,nm,0.0
57.377782106399536,-23.168897137166823,33.25085999322725,-74.30553201034928,-0.393117282268697,-0.03028341418687886,-0.023109648939329135,-0.2913074090034917,-0.4967914516960573,0.048457533507520474,nm,0.0
57.39014792442322,-21.149046631625872,31.24853168859233,-72.47166236047876,-0.12085286833382661,-0.1400440555692519,0.012287342685174613,-0.29557467364896595,-0.45240421219594096,0.10375642104772217,nm,0.0
57.39563345909119,-19.6775352960861,29.20240339979034,-70.87828163419638,0.1984581880694377,-0.3073987237064417,0.07942922170090339,-0.31810872761798087,-0.3806533443637092,0.13534178475422634,nm,0.0
57.405120611190796,-18.796492828270345,27.13691244915774,-69.69863595443412,0.5896926555709484,-0.5128318951541501,0.30058958350558385,-0.346256401095717,-0.29606032206144706,0.1379408804146129,nm,0.0
57.42834448814392,-18.422082157068687,23.249576035803184,-68.46407160172545,1.1885064069938447,-0.7623577332718136,0.9100084994264835,-0.3549144707979903,-0.14743205593960623,0.08683668740200111,nm,0.0
57.455456256866455,-19.20266639880138,21.02474752811566,-68.39950306684824,1.342054793392103,-0.5172113910421072,1.3364881784946219,-0.189075792522713,0.02532080775625208,0.03579961942405769,nm,0.0
57.45703887939453,-19.941931270334408,21.11793038812159,-68.63883745870858,1.0467702947947262,-0.33655543612173405,1.2550779070952176,-0.04219695039884636,0.12474692167026624,0.02623664001467141,nm,0.0
57.464625120162964,-20.50245111477797,22.10620546142903,-68.84802928298721,0.9703847688511208,-0.21543528401203538,1.2902778347527817,0.1374933017862971,0.15832152890035414,0.005389008387505352,nm,0.0
57.47998380661011,-21.134091284794206,23.96375570119244,-69.10752164313212,0.9261703612668062,-0.20865207739602584,1.1816747134612706,0.29619321132906745,0.2315657448488501,-0.006022220927880501,nm,0.0
57.496861696243286,-22.765528376902047,29.359938298908435,-70.40505341210843,0.8691282288517604,-0.3861019307892124,0.7424126429661628,0.4744232413174898,0.3259316680577492,-0.05430352239893188,nm,0.0
57.500622510910034,-24.293628839717456,32.13825685462302,-71.46460958787284,0.4390442784977597,-0.4678427808437274,0.16985250944500085,0.4304822565307585,0.4199879444583789,-0.04134421731528048,nm,0.0
57.52713680267334,-28.1400026235015,36.81043414676211,-74.23711192532237,0.2349964766105335,-0.32357995323223876,-0.31828265022303526,0.30193719322556717,0.4437547827346408,-0.0705903732027782,nm,0.0
57.54229521751404,-32.854632288266885,39.75948961238275,-77.60392608182259,-0.14566843520049147,-0.030551497730108155,-0.601238382338381,0.16215631035871644,0.39019190356658207,-0.032090038341961696,nm,0.0
57.557180881500244,-36.7493398744814,41.943154363728006,-80.17107527225525,-0.5501087933138102,0.4317120575159807,-0.6792113558662535,0.14933582870119733,0.2855291600648828,0.02006392211067382,nm,0.0
57.570900201797485,-37.90171481891784,42.93274231414644,-80.9577199012583,-0.514855057546402,0.6108050198942653,-0.5891567484021483,0.1570140913791306,0.19107026140974917,0.013429316577707016,nm,0.0
57.576432943344116,-38.696241005430785,43.88033599707862,-81.52265769777382,-0.6940240229635213,0.7985809567552227,-0.5655450763464068,0.15923679586373565,0.13385470423618356,0.00014377485495368917,nm,0.0
57.60028028488159,-39.04624030212077,45.277039425814344,-82.52272291489987,-0.7655995062215171,0.9227817240936914,-0.40323084691405514,0.1019710582202268,0.007113501808749429,-0.10072542689914406,nm,0.0
57.60442662239075,-38.866230595547414,45.57719594424215,-83.08111767173001,-0.8643553118467523,0.8376181113233477,-0.3875412777438299,0.05181399033058103,-0.026436945953090273,-0.1405319060702645,nm,0.0
57.62780976295471,-37.78919462834618,45.526392609389866,-83.98026968594489,-0.9018224612481931,0.6130932151591947,-0.3460282193594402,-0.028314028199846852,-0.10163536872559718,-0.1794513018443561,nm,0.0
57.63344168663025,-36.86704502626329,45.223679861834604,-83.96651913013118,-0.9497390754955801,0.4722947766656766,-0.35559667586338106,-0.057813661766758444,-0.14382242769433695,-0.15221438586287894,nm,0.0
57.64511489868164,-35.630630581265684,44.84649756909634,-83.55369384811031,-0.8952529488761934,0.35906702917200833,-0.3177344022484156,-0.06718035345687118,-0.19052533796194193,-0.11782359360499998,nm,0.0
57.655269384384155,-34.18703941395974,44.37814692163893,-82.71697435927481,-0.8545606729969247,0.278686622326394,-0.29785032919547677,-0.0795321674702606,-0.22390697830916578,-0.06450122850721078,nm,0.0
57.67221641540527,-32.59214339638882,43.73680586760007,-81.52924536935744,-0.7561359832073129,0.21478072214740154,-0.29030990328086803,-0.10667158745691543,-0.25340095610493113,-0.011946692622012998,nm,0.0
57.6780846118927,-30.988581737695753,42.83929132904425,-80.15876169322384,-0.6169598941312663,0.1359819863115765,-0.32887979207226,-0.15114338959619458,-0.26788075960907787,0.03829938122931781,nm,0.0
57.70149493217468,-28.123982462635123,40.10777232929339,-77.18874784236131,-0.19898067686342397,-0.0265672535297505,-0.4017179015033127,-0.26758824818486304,-0.2752533576527361,0.10281979712531022,nm,0.0
57.705490589141846,-26.90829924164926,38.23495797396287,-75.73725198168728,0.03938859215520026,-0.13892934334167792,-0.4703441744384164,-0.3308039426830642,-0.28046187221236535,0.12314512828144233,nm,0.0
57.70994019508362,-25.775842447227916,36.0567441498846,-74.31500201414426,0.3255726800274713,-0.2983168117247471,-0.49715862148766254,-0.3848238777252457,-0.2967864417087986,0.13548173534473185,nm,0.0
57.720221757888794,-24.67057978551448,33.59872589465244,-72.87056454399371,0.7147406937268244,-0.5113112081382764,-0.40764802341757334,-0.4306977668039221,-0.32315741420235267,0.14677583681233977,nm,0.0
57.728917598724365,-23.703548419765987,30.90172228733781,-71.41887411825734,1.27130425007568,-0.7614965884052256,-0.006246593015591785,-0.47336248087628396,-0.3317387076680302,0.1677696968254036,nm,0.0
57.7572660446167,-22.31739870199971,25.287987427201298,-68.77126892619913,1.54148296170506,-0.9393256126462002,0.7488734032563852,-0.4745334198289374,-0.34950266074433733,0.14841710187855273,nm,0.0
57.769407749176025,-21.258111886627272,22.86901534543094,-67.82043528068529,1.698463521522051,-0.4977383020167146,1.3372376633374,-0.3871438123424263,-0.37011696888909684,0.08416275793775577,nm,0.0
57.786648750305176,-18.731884045731746,21.501966103244285,-67.43675200572031,0.4031428923274596,0.40248312199241826,1.7549462806190612,0.2275262603845622,-0.08746274289520396,-0.1411427778444038,nm,0.0
57.795597314834595,-18.16848863082697,23.830984657989806,-68.16989814234636,0.743133502885971,0.15272806271512862,2.023908670023356,0.46205315405690917,0.06914887010826637,-0.18335751209670423,nm,0.0
57.81087327003479,-18.764661910154523,27.156853481265813,-69.23863109403518,0.32644535088611987,-0.40666374133380206,1.3278044407313279,0.5723705509904355,0.3315285186989356,-0.1402011840062886,nm,0.0
57.81379532814026,-19.679213446498576,31.04603668654732,-70.503468401423,0.3733233717832641,-0.8358157288507992,0.8436433318917798,0.6669762456313127,0.4077154793958104,-0.13899715506123717,nm,0.0
57.8230254650116,-21.310333734788866,34.95223355893531,-72.04188654064944,0.6180803054422837,-1.0232428537477958,0.39427992780616083,0.6434934335191912,0.5003528721441817,-0.10200392664749185,nm,0.0
57.85061526298523,-27.40192726700778,41.1593840599137,-76.2374223795783,0.03622804163685669,-0.6031022456077059,-0.5640887839838319,0.3967701837573298,0.6159238928871018,-0.018871065175569884,nm,0.0
57.86215782165527,-35.19397137720534,44.655521517471925,-81.62433560026103,-0.6312711165926833,0.2374874029584428,-0.8529232909076758,0.17504964366937126,0.6044186967327219,0.038947088461200347,nm,0.0
57.87345814704895,-38.63089364708162,45.68446511542805,-83.93120463665424,-0.5865472149240709,0.3788546991867193,-0.8013530274829985,0.13275251450319517,0.4983633584737233,0.04655681156856341,nm,0.0
57.8818097114563,-41.60873862444909,46.68465355552967,-85.66028696889566,-0.7841029438619453,0.5340074638136526,-0.8260172127533821,0.15103477418153857,0.42045278820339027,0.0937769462508082,nm,0.0
57.905757188797,-44.530281629677866,48.73121038062009,-86.51822548752651,-0.7896582785531849,0.7523689800830751,-0.7971192092037707,0.17897609598993727,0.1205799978575749,0.1432162609908081,nm,0.0
57.91100573539734,-44.62930349090876,49.546417915844465,-85.78893866537224,-0.8940521549425305,0.8590599466801283,-0.8387390464628808,0.1510283881377579,0.014984177313697791,0.1516683893224897,nm,0.0
57.94206428527832,-42.92673238143585,49.718991791824685,-83.40965675342113,-0.786352912309705,0.8450293140341633,-0.6976793374403104,-0.04651565364701406,-0.156007264182223,0.07355106896154079,nm,0.0
57.943692684173584,-41.534627448518634,48.76357853293508,-82.07736546605219,-0.7503705457994241,0.6832473687182212,-0.5979520856713454,-0.17729718391951937,-0.21408355062412404,0.032452358841989055,nm,0.0
57.96758961677551,-38.04968265172407,45.59571745332366,-79.37217532705364,-0.6516556162094397,0.4345764618194325,-0.3124226250878339,-0.3054988442575563,-0.32086796061016515,-0.028280683397736223,nm,0.0
57.969425439834595,-35.94913969756654,43.81968644854861,-77.68958682451846,-0.5856402752178829,0.32355867643672165,-0.17619104549623268,-0.29871796961981306,-0.3737768693755468,-0.00735868838907422,nm,0.0
57.97570776939392,-33.65531621210348,42.18540201485245,-75.71790811006291,-0.4790783973228643,0.28931242711419186,-0.08821993956291962,-0.250570532981476,-0.4123125331100107,0.03242765453117176,nm,0.0
