timestamp,roll,pitch,yaw,acc_x,acc_y,acc_z,gyro_x,gyro_y,gyro_z,markers,motor_input
85.52042984962463,-8.685725579322462,-0.11022613505353011,-101.52531769334702,0.022113122018476122,-0.42649915719447895,0.7004405803825438,0.5026028417180698,0.035023860793443565,-0.04787194333982552,nm,0.0
85.52564072608948,-10.542057068248575,2.0840044531306137,-102.1982765373129,-0.20677078528788706,-0.22340770803451707,0.04849005890846816,0.4933288819826114,0.26826186775242905,-0.10482396750090706,nm,0.0
85.53454756736755,-12.523918107751042,3.9908483142749995,-103.23470593909056,0.10459932614435664,-0.10426244508987328,0.13243969263422942,0.4465337966435668,0.2977506164649822,-0.16206421536826224,nm,0.0
85.55805277824402,-17.810750886698663,7.4230165168148305,-106.08703777176135,0.17083769944933222,0.12817857054900217,-0.3030273577896842,0.4588338501747304,0.44754594166196,-0.2009632922450458,nm,0.0
85.56330943107605,-20.239685854204115,9.062663923103377,-107.30974159254176,0.38052771328366264,0.03740225048937047,-0.24842307978268668,0.43924642443475365,0.3629817268394432,-0.1482631190467275,nm,0.0
85.57297229766846,-22.702451662960474,10.820800508235727,-108.13804912039751,0.38210567822025143,-0.05158728175025793,-0.3658565188884766,0.4695183772604421,0.35199773858704075,-0.05723296018879523,nm,0.0
85.59634780883789,-26.022352079458354,14.687432027899556,-108.48430417649459,0.3296009793572303,0.08926362094085104,-0.7216679387056516,0.4198691435556945,0.07622366310225513,0.07074611435375565,nm,0.0
85.61205339431763,-27.484283486699773,17.54201354485149,-108.15984909038558,0.14519831113809384,0.37955701653761204,-0.9945936092025706,0.25001048459383884,0.031418616197010835,0.05423403703714948,nm,0.0
85.62692093849182,-27.534447459094682,18.141495398064478,-108.26580128483047,0.3318924640572573,0.36450068741684133,-0.7941684662310529,0.10297440191454627,-0.03147297117833867,-0.019696211551035313,nm,0.0
85.63187098503113,-27.59293718316445,18.12711388967008,-108.50101308896369,0.07328637255956573,0.48549032103410633,-0.8368393255368214,-0.013282470191867733,0.008485668567651997,-0.06009531756023862,nm,0.0
85.65307116508484,-26.190569049001155,17.06447158383912,-108.67350753504849,0.2823174798854396,0.2577640966474256,-0.4121480876258583,-0.19364647256120227,-0.13859812530902293,-0.08671451969103597,nm,0.0
85.65849733352661,-25.623812854500812,16.320821230787995,-108.34532733197075,-0.10169612323402745,0.3382391821651696,-0.5180912790526376,-0.18970409149840048,-0.05891825850385958,0.009449201344955733,nm,0.0
85.6814866065979,-23.32518943966832,14.718763090870423,-106.29694593093791,0.10117631615396043,0.07399534905686413,-0.21556773735191087,-0.24931972027543842,-0.20366107835794034,0.15833807893389504,nm,0.0
85.68713092803955,-22.377782494521412,13.638388045001834,-104.8096674569975,-0.09824870398741976,0.12776447867771537,-0.40557636852451756,-0.2714136980848923,-0.1231896692312505,0.22304346387215512,nm,0.0
85.70166683197021,-21.31563113309271,12.208807327710506,-103.36866403272626,0.06753633486475184,0.019550056456078945,-0.30060682215512585,-0.34171056780976117,-0.135715389217315,0.2193927328526572,nm,0.0
85.72172737121582,-19.848985580511016,8.23031786590153,-101.43653243513646,0.1944976367489835,-0.07712828959184462,-0.3179710263559539,-0.4637697334019361,-0.028142434589479945,0.13030036909247722,nm,0.0
85.72486972808838,-19.178672243459,5.764196113742359,-100.94012701540058,0.39534944142058615,-0.21904530077249382,-0.16436570289955413,-0.5237981976213825,-0.039672542701251326,0.08123922962288918,nm,0.0
85.74951386451721,-18.43953911658283,0.5901358368080725,-100.41070329138442,0.5315891732435859,-0.3645111164202127,0.22137391665476813,-0.5294834541956422,0.050203989888732294,0.0712770120130131,nm,0.0
85.75464153289795,-18.17744107275185,-1.872076738660643,-100.09402176385464,0.43876349131880216,-0.3803477518294121,0.30053941151177954,-0.5079014222389526,0.031763965503899,0.1012057694361934,nm,0.0
85.76291799545288,-17.47767310599602,-4.10057260589349,-99.4854291720406,0.9452246433974506,-0.34636257947477594,0.7853101647522026,-0.47693829110332864,-0.06727188263693218,0.1338267201901896,nm,0.0
85.77224063873291,-17.015883988092707,-6.013352037797173,-98.86897861115729,0.9058856279862574,-0.12672153252642712,0.6301206804668533,-0.40612046108758126,-0.03557105036217039,0.11990153213250553,nm,0.0
85.7957079410553,-15.314133941593706,-8.433376908646327,-98.65849742588584,0.9252225041244605,0.5349961141480692,0.9295671003248333,-0.22369008814453198,-0.18258564062534563,0.013445712851842402,nm,0.0
85.80462074279785,-14.325492135420866,-8.511251752651042,-99.1799607977858,0.6168712626899119,0.7213587044011571,0.9308569716793552,-0.05905409842081252,-0.19660142558086358,-0.07618493023103831,nm,0.0
85.8107681274414,-13.153066094342329,-7.653617172113953,-99.97802943165324,0.24204139329565616,0.6266085464470724,0.7019404286120963,0.1173276539179288,-0.2631939364585647,-0.12807150068297118,nm,0.0
85.83415102958679,-11.949131825256167,-3.576061956042904,-101.54770983369654,0.08594824109582398,-0.029745978459552375,0.9330294733915191,0.4533490911075042,-0.07455992758522968,-0.1524875883289749,nm,0.0
85.83984732627869,-12.539425797127633,-0.8810944673915001,-102.03718593518008,-0.28263624883927213,-0.2802682732367712,0.5740648672677113,0.5389387109779752,0.0005985697702147664,-0.10489716173491803,nm,0.0
85.84835767745972,-13.294247640573671,1.87388456136229,-102.39229549185954,0.18315791450400493,-0.547385095130362,0.8947229638637325,0.5576766237828484,0.02608711312402774,-0.056812039859633644,nm,0.0
85.87765574455261,-17.121457685590123,6.832589509915629,-103.4376079845429,0.11329911970466627,-0.3982534201601941,0.1178428359439832,0.5337313191037417,0.26985734840671816,-0.06313875519828423,nm,0.0
85.87967324256897,-19.338415159922622,8.876337870257538,-104.37755828691472,0.42550997826422693,-0.29481899696625047,0.05394940419390625,0.4895058888773155,0.32409977205796947,-0.10412656712147916,nm,0.0
85.89076495170593,-21.96127635153087,10.62299268721499,-105.56617276783552,0.23357804219879627,-0.04577678553652739,-0.33150138436050364,0.45800509811949586,0.4057183306569333,-0.13221534285584652,nm,0.0
85.89599514007568,-24.276516932664155,12.18633290550057,-106.76367177583387,0.3449057080847904,0.008223179894909078,-0.3783050059677115,0.4133303667554014,0.3457942838318192,-0.13997567867373048,nm,0.0
85.9188334941864,-28.552920540234297,15.303788453445268,-108.4595114940456,0.14578695630595143,0.0872688321572982,-0.6550116221416223,0.4153755560616088,0.2838381223068475,-0.016310461126100417,nm,0.0
85.92467737197876,-30.040303921567848,17.002541751531556,-108.6046135780742,0.0326533294399662,0.2121678133968284,-0.842327073849432,0.39935423074339277,0.15999126257353558,0.0529198252570663,nm,0.0
85.93554615974426,-30.843853199599053,18.62271968171804,-108.34360002929584,0.22906597709758303,0.21913407181541916,-0.831178730103588,0.3421923617928548,0.039257935950015456,0.10053282841297267,nm,0.0
85.94339227676392,-31.37628174106719,19.919180247973056,-107.88912167861416,0.1424816700195182,0.40042424019515516,-0.9477935225882177,0.2640093603521528,0.011561931478731108,0.12516797235807092,nm,0.0
85.9711685180664,-31.364189380748662,20.97201741247865,-107.13776670944402,0.1674327647405108,0.5294350106723691,-0.8194002736479331,0.022140930244653405,-0.0428791755864133,0.042603938248921634,nm,0.0
85.97353506088257,-31.008541312902377,20.61716011536697,-106.90433912732584,0.021526672315586574,0.529164956735557,-0.8179482512948908,-0.10134879451181705,-0.046505469845262284,-0.00014694288255762293,nm,0.0
85.9819974899292,-30.23412480150684,19.853338969074244,-106.59076168580995,0.1275411315847308,0.3521950557850514,-0.6498545145461369,-0.2021640066578204,-0.09917416901907863,-0.031187158314948706,nm,0.0
85.99341940879822,-29.38614048097893,18.84583214144297,-106.13489060198178,0.14375973146843635,0.22637672373169135,-0.4958337118590014,-0.25247201170781763,-0.10092871012152461,-0.00244156972556078,nm,0.0
86.03659462928772,-27.021736910560023,16.47439734721237,-104.21478809833732,0.09939655167219733,0.1205202350865768,-0.32562007007616944,-0.3191487754564278,-0.2054016601621611,0.12271741735939043,nm,0.0
86.04119539260864,-24.24231344425075,13.668728161421576,-101.18130358884498,0.1744574658857363,0.19456494288423923,-0.26991731806181185,-0.36186221493869675,-0.2056024030669763,0.208491460182335,nm,0.0
86.04302978515625,-22.867119660386827,11.93592680080485,-99.63189034746226,0.39491449328999806,0.13499406819205362,-0.11599430300366759,-0.4026396179383458,-0.207549031444335,0.18318629405775214,nm,0.0
86.0567364692688,-21.78110910431758,9.968853762823013,-98.55869988139563,0.39042614727731284,0.09591670133334479,-0.12396220718790842,-0.4357436117391578,-0.1546227502447808,0.12983182982064506,nm,0.0
86.07296991348267,-19.93959637967542,5.565474961912416,-97.88957816082281,0.585898073058257,-0.25988267529494974,0.28045641653706616,-0.4809419855306392,-0.11118557483175856,0.016347583135940206,nm,0.0
86.08883476257324,-18.56920455986844,1.5572504038334842,-97.74293721082009,0.6730293874411974,-0.4038944817218476,0.697916897012217,-0.40355083152486876,-0.08813085029016964,0.010544408943369584,nm,0.0
86.09658193588257,-18.054055321258247,0.04176287396926708,-97.63953406338764,0.6654604555792226,-0.2863280555232544,0.8383877861686733,-0.32779210152474725,-0.06709221472223806,0.033547501271812344,nm,0.0
86.10732078552246,-17.545189567890176,-0.971643994509314,-97.44751231292398,0.6264064913961231,-0.120911834671704,0.8765272194597759,-0.227747867709846,-0.08009839262289384,0.04258235267321374,nm,0.0
86.1318724155426,-16.566840526410434,-1.1134906915808647,-97.45506657868154,0.6045566430535697,0.2082989888850604,0.8923967590607925,0.024316491251124076,-0.08862140477879561,-0.03939567191255359,nm,0.0
86.13850712776184,-16.261696519385772,-0.2625232106633279,-97.8990622584704,0.4169926502082268,0.21683947690708166,0.8161329235429686,0.1476005496864456,-0.0887994587471319,-0.11417819660727942,nm,0.0
86.16507768630981,-17.46105399195588,5.206932773322169,-100.95067490592614,0.10807605106659353,-0.40998980881826586,0.6482466805271271,0.43613803413027663,0.08341701369104529,-0.2135417152821138,nm,0.0
86.18371200561523,-18.67580039015875,7.471874804057191,-101.96017373155928,0.22734809739711168,-0.5983221011493259,0.5761939611675055,0.4790163400437906,0.14209095947123693,-0.1631455689243207,nm,0.0
86.1859302520752,-20.417946268223254,9.735246229400868,-102.626071872728,0.06604038229829304,-0.5294361157709963,0.1449547208832529,0.5024951734600343,0.2364388871234779,-0.09167221818706084,nm,0.0
86.20476126670837,-24.04166764602082,13.992813708068965,-103.62114801366161,0.36813856877912676,-0.23948519653867215,-0.1617378450474984,0.47724218800197665,0.2587910396499414,-0.013948753591593447,nm,0.0
86.21533489227295,-25.93711836957932,15.933659192357066,-104.20826189470422,0.3329824862370984,0.027739961724806264,-0.38046854960541165,0.45158127135311416,0.25849299587769364,-0.021131200537683827,nm,0.0
86.23583769798279,-29.190607241681807,19.357048169310698,-105.99060342531543,0.3383022403309455,0.252816018470838,-0.5179998798199869,0.38442693318821364,0.1967083937097457,-0.07517561176215928,nm,0.0
86.2387797832489,-30.4877842397535,20.914670719226624,-106.86581292471666,0.248295695517349,0.2915626212050933,-0.5660592612300647,0.3541823883490068,0.142170445038093,-0.08710262159720535,nm,0.0
86.24826002120972,-31.475459408047083,22.402142689454625,-107.60083845484981,0.18216890644746234,0.281422636971681,-0.6006814960243774,0.32495534124071507,0.08390690876243236,-0.07546370431103343,nm,0.0
86.27105474472046,-32.58468206442776,25.055017300572505,-108.32597528169664,-0.00947938940307059,0.416353143088549,-0.7162529772195436,0.24411899170164605,-0.014747893368499604,-0.014381168523491503,nm,0.0
86.27663707733154,-32.6986047035267,25.955739865330735,-108.20833750159005,-0.02543710693911619,0.494681490592561,-0.7025886092866399,0.16376469403969043,-0.04014640979027946,0.016445496485908345,nm,0.0
86.29976201057434,-32.431279821173355,26.40056346740291,-107.64143610833013,-0.034684739886731056,0.6390961964697959,-0.6391179166394652,-0.027204862063128266,-0.03655630398054238,0.026858442513789084,nm,0.0
86.30519342422485,-32.123871748930455,25.8906422483678,-107.22573094496437,-0.03871904305708597,0.6396549230579648,-0.5845632052408991,-0.12787409390962168,-0.025760105104174508,0.020394482874281528,nm,0.0
86.33153510093689,-31.022242151588305,23.802697100536406,-106.30291740817154,-0.044797286664113034,0.44592189978655405,-0.5144609616858314,-0.272219749389922,-0.050312971221053236,0.025880145564893733,nm,0.0
86.34803891181946,-30.160498321379507,22.451724164643867,-105.61775704000792,-0.021102984872349084,0.3148486420898904,-0.49793715968334173,-0.31755955916834394,-0.08207024950083687,0.05872579939657496,nm,0.0
86.36497592926025,-26.441249559853954,17.47860290197771,-101.92859945883825,0.30954100772591414,0.009183992408425169,-0.42594140304602734,-0.42838878096020355,-0.17674132746680352,0.16098354140949966,nm,0.0
86.3716254234314,-25.04528082395496,15.371997208484176,-100.68454830321184,0.4531595830254654,-0.055316359270923196,-0.37714786013522833,-0.4795746628632977,-0.18540115246112063,0.14877831440098632,nm,0.0
86.3961193561554,-22.441974805961816,10.392643876784305,-99.21081350067224,0.720233851081411,-0.2305952975459421,-0.09543387953406773,-0.5665006669737569,-0.15369685342046108,0.055020506965084634,nm,0.0
86.40257954597473,-21.43387075313499,7.633598752600395,-99.00084858290195,0.4015122625088192,-0.2510879583945158,-0.24295437085509003,-0.5904284707158702,-0.1146856008864635,0.008869320264367606,nm,0.0
86.42500972747803,-18.45785450250966,2.1079003200658066,-98.8942879058772,0.7923569396270901,-0.4815137052346179,0.5298121809742152,-0.5969832267774149,-0.2122982922068389,-0.019748003662427422,nm,0.0
86.43345713615417,-17.150379369176218,-0.37750476295320046,-98.75217288831472,0.5581470845433247,-0.43132709063383184,0.5903440378377943,-0.5450938218932195,-0.18820635377801012,0.006516193226172278,nm,0.0
86.43833374977112,-15.567398128303076,-2.4634433073646633,-98.48286099385986,0.6563367635250573,-0.27301760645217954,0.8946348477662648,-0.4735257025535701,-0.2565898772162271,0.04689230284015344,nm,0.0
86.4638135433197,-12.82378964958152,-4.895923913741054,-98.11668918854289,0.36527932259003526,0.354977393983876,1.0085682287201907,-0.22535269927553167,-0.23831821253738417,0.06662835492113402,nm,0.0
86.47306275367737,-11.28512770905199,-5.0071025595602565,-98.06813787931257,0.4255111588462618,0.5921225608211897,1.0501063249264577,-0.07845846229249624,-0.306568908030364,0.0459561336619127,nm,0.0
86.47635912895203,-10.179405203575518,-4.322882859842521,-98.31079731169822,0.6078902216535635,0.547779408037202,1.2243495418865897,0.09093839751518479,-0.24381994356045383,-0.012907581478769472,nm,0.0
86.48560667037964,-10.223745542589082,-2.759174243984426,-98.89944036277153,0.022252615509731292,0.3911364043889547,0.789039070756976,0.2977972866894171,-0.044043524169784166,-0.09364855929306012,nm,0.0
86.49501609802246,-10.40597437756143,-0.4840202954243976,-99.63723137336491,0.08482149807719307,0.15756482796618504,1.016434714108321,0.44232387779678184,-0.04320673622760912,-0.12516383312061438,nm,0.0
