timestamp,roll,pitch,yaw,acc_x,acc_y,acc_z,gyro_x,gyro_y,gyro_z,markers,motor_input
42.50895118713379,12.336521284618106,-18.977313383880162,60.6868493381476,-0.04602647580070134,-0.24591465521419742,-0.2720082093696159,-0.2887758808751777,-0.23324058697222974,0.08849538496953811,nm,0.0
42.51327705383301,10.646818691648685,-18.112636956581504,61.75586463462934,0.05183125201476102,-0.456329116215803,-0.21104252309366975,-0.29308758047942546,-0.19406547668341084,0.13458295859053923,nm,0.0
42.538607358932495,8.417372620857464,-15.801567236799233,64.6080074613445,0.10358046636829936,-0.7843329373982674,0.3709065657671976,-0.282026914773319,-0.02604306984032937,0.27806461340537164,nm,0.0
42.55764174461365,6.5844103638958575,-12.798006486117592,67.86667212554543,0.8177340153788476,-0.7434045137319103,0.09018644494103098,-0.32533599244272554,-0.004736380138708634,0.30630372039031245,nm,0.0
42.5603129863739,6.785845678204873,-11.454296278129275,69.28789125436747,0.6653463614918872,-0.5688474341426699,0.6390174941274894,-0.22291656248563027,0.1394849776979775,0.3167934938094869,nm,0.0
42.58331871032715,6.656178903582613,-9.953390241967826,70.61617017035337,0.9723791026103246,-0.09659739994852656,0.28321502034431567,-0.08342672969488475,0.02831050814412964,0.0934740399401941,nm,0.0
42.59086012840271,7.075762134268607,-10.284402127946942,70.36287328178753,0.816147776546157,-0.05637769757385006,0.6714943103768566,0.1029796924882927,0.06013646434120895,-0.02751392031240501,nm,0.0
42.61198115348816,8.264710726403994,-12.633214217096358,68.42004998317154,0.45202642215465344,-0.22390708902063833,0.42880755556306543,0.30838772287673066,0.033662497979239765,-0.19066484934656686,nm,0.0
42.618003129959106,9.151331132152276,-14.102844151758987,67.20028849083245,0.19925618101921108,-0.41351209773261977,0.27697261511530585,0.3507432331257252,0.052756212680966294,-0.1976314159798667,nm,0.0
42.640233516693115,11.64869932903085,-16.917033714792115,64.99857589338005,-0.16879222916809833,-0.46863562181380214,0.24349416564842274,0.358821379449404,0.13651224334650328,-0.1393918552429378,nm,0.0
42.64562511444092,12.873124131827792,-17.88524448002966,63.957930768216166,-0.1092681852097667,-0.28906079979753524,-0.14675033299975118,0.28877472437154267,0.13161677731757346,-0.13981609297724962,nm,0.0
42.65548658370972,14.57005703244571,-18.683623776464625,62.77161669764123,-0.08411421590187707,0.005897986282265554,-0.32596131640525877,0.30063901580678326,0.22054779404904762,-0.12203079591270073,nm,0.0
42.68256497383118,18.605290339233814,-20.010443775752485,59.805028389357794,-0.12008736094147611,0.435578088398673,-0.21517512134196945,0.29346545064842916,0.2500361830033889,-0.17563252148145192,nm,0.0
42.684277296066284,20.73480953023433,-20.658799875193353,58.126522645696156,-0.12171285127891555,0.4903355540577701,-0.22989564269012253,0.33039085752684144,0.27922307548093134,-0.17317967832106115,nm,0.0
42.707295179367065,24.62906888961275,-21.928667952843405,55.043013353515136,-0.2429380919090848,0.3748812288369272,-0.32902897600438247,0.28674309491277994,0.19962629406967347,-0.15022653378148718,nm,0.0
42.71504282951355,26.176746571061923,-22.438448971232663,53.98174075849072,-0.39202713307646936,0.20909895035804932,-0.3297646368038134,0.262409971373764,0.17802979783252493,-0.08708281382034168,nm,0.0
42.73511862754822,27.549488789038442,-23.091145070470237,53.31917568509598,-0.5519597481741372,0.1194060576431073,-0.39536404068656955,0.07996461422192863,0.02351180551770741,2.012488434390632e-06,nm,0.0
42.74177384376526,27.312289339037772,-23.01273138596294,53.76365841120104,-0.6133458883893759,0.14027089027512812,-0.3286033671254177,-0.026053575190736773,-0.021876347982818282,0.05224304258204266,nm,0.0
42.765257835388184,25.200280656564072,-22.31969630007363,55.5536929557629,-0.4491588608147703,0.38561779398953483,-0.1557563272490435,-0.192645191344186,-0.1432946988733375,0.073354174989358,nm,0.0
42.77017903327942,23.62970543973996,-21.78436423075582,56.751544216556745,-0.38105824599417487,0.48003097144392265,-0.024196780258567852,-0.23845334975684745,-0.17874844572390963,0.08080865455334249,nm,0.0
42.793161392211914,19.83789916984875,-20.79932524658852,59.241065142910394,-0.23672278390829857,0.5429114964709322,-0.024080493532991697,-0.2545918929075951,-0.26092772695530386,0.07011460774765085,nm,0.0
42.79839873313904,17.83900375277687,-20.368651976701,60.47582871147051,-0.21642341890249273,0.4241085304025828,-0.03695772583761164,-0.24951060203567715,-0.27703306657323484,0.07555204303851915,nm,0.0
42.82083535194397,14.226911826032417,-19.56244196470565,62.76626807795102,-0.14324055346983788,0.027520660109091162,-0.20969443964666706,-0.24741724514750224,-0.2735902503153529,0.08524701452212836,nm,0.0
42.82684659957886,12.429783094296209,-18.912287364687135,63.88728612530465,-0.06535781691270968,-0.18768624688810961,-0.24357051933987983,-0.255613842342742,-0.24125365751349795,0.09003618793018993,nm,0.0
42.83617854118347,10.8586821921528,-18.05911585669694,64.92622860612425,0.041501256308371974,-0.3896540950590522,-0.1817715378093593,-0.2697082908264021,-0.1913807178349728,0.09224142839366466,nm,0.0
42.8456711769104,9.658952443611984,-17.01742173955718,65.84715560508677,0.26042115265581955,-0.49135265832211666,-0.23272388110168082,-0.271819520906257,-0.11744893832609105,0.09623581065761588,nm,0.0
42.86815285682678,8.636113203608158,-14.578858705750788,67.01417119175366,0.6216908508922832,-0.6549336648697941,0.36916769184605647,-0.25748676484831795,0.011256424421967087,0.07681401905503919,nm,0.0
42.87417936325073,8.65655356858577,-13.490071984095218,67.23891937222334,0.9059529278755635,-0.559076782133031,0.1825971771927557,-0.18624127195437237,0.09256531770986852,0.05592044935522187,nm,0.0
42.904098987579346,9.256236512282776,-12.457288109101206,66.45933654211164,0.9920394233496497,-0.31046019794163277,0.4482163343060238,-0.0328346967523178,0.04291748754758132,-0.10700680062008755,nm,0.0
42.91921782493591,10.276403881809424,-13.749472749777663,63.9040080800595,0.6653112187442964,-0.44727184955917965,0.7471907119064345,0.23920469064545638,0.04142105792750291,-0.2619641940175665,nm,0.0
42.921188831329346,10.991093978072243,-15.018788044383395,62.08987421995268,0.47725869211865096,-0.5801182543892113,0.38680060656584914,0.3026105051294335,0.011061554963957169,-0.31450618381172496,nm,0.0
42.93161964416504,12.102523549269726,-16.36541582123614,60.28720649130989,0.1733644081845893,-0.7901264806788741,0.24485041039218453,0.3527832974553364,0.06076573010176754,-0.30562232384981036,nm,0.0
42.940425872802734,13.538342582678814,-17.574815493589043,58.560875646864424,-0.05839629189954901,-0.8183694584156973,0.08032959605409878,0.3616480894892886,0.11639732479944521,-0.2666580586011235,nm,0.0
42.963507652282715,16.90630803629706,-18.830827297226268,55.6797205579641,-0.20236688506576006,-0.47408365121596124,-0.054869343448763146,0.2651450914263063,0.23009183800322003,-0.14900809095607215,nm,0.0
42.96895480155945,18.447256808831412,-18.994482742948122,54.47750460033564,0.03777809477850494,-0.09744917527848844,-0.2959366850684716,0.20724026214369437,0.22301634620648333,-0.12925132910149997,nm,0.0
42.99341082572937,22.266327800896057,-19.258694162636818,52.226390196589676,0.07576455721409815,0.43479083457499595,0.05981293337127242,0.26641478050750295,0.278812581237224,-0.09003685977736287,nm,0.0
42.998515367507935,23.837000768614242,-19.572420994295694,50.9128111998519,0.1424574825264981,0.5798671631205515,-0.10266006507530312,0.24660301036930315,0.19559950791922964,-0.13970774877850903,nm,0.0
43.021034955978394,26.746365076436362,-20.460752681248398,48.254758460466626,-0.23305480526940817,0.4113914644374791,-0.06320955851120949,0.25356738645619953,0.13638096786758985,-0.17601488163940504,nm,0.0
43.04627323150635,28.175452385919776,-21.067854396897516,45.66942263780789,-0.550609494130853,0.09143042786078479,-0.1106530801906491,0.11443592503132682,0.04835048242056494,-0.20471187526521842,nm,0.0
43.04894423484802,28.259987322362406,-21.005470048489205,44.67954352707945,-0.7155367158550922,0.07894465274792407,-0.049008189404899406,0.01505443290092708,0.021924505475697877,-0.1862209256232759,nm,0.0
43.05432629585266,27.71245241740643,-20.72199389763594,44.01247191424298,-0.6842633137121528,0.3585467673363669,-0.35295744811864765,-0.10014777777414707,-0.02928985714206197,-0.16586490603307344,nm,0.0
43.06391644477844,26.823092905650526,-20.368085198393548,43.78502936028349,-0.6164798731530952,0.4932333629722804,-0.2579050112139149,-0.15643368943091682,-0.0631128388150151,-0.11447080027572046,nm,0.0
43.0865159034729,24.02189001029179,-19.979963849328506,44.38099587295149,-0.45078637759573803,0.6621529933961395,-0.036701871169830536,-0.21599208537490122,-0.1873515803050795,-0.009640982296188195,nm,0.0
43.0948441028595,22.306333084391888,-19.96537178262045,45.21215097315711,-0.4442078047729072,0.6935297326964616,-0.04437770642464511,-0.21815311210361674,-0.2241807386869059,0.057993522725256555,nm,0.0
43.102956771850586,20.52632971689623,-20.00108095638444,46.35066483772555,-0.48852241174201494,0.6596971577304448,-0.0896300042475854,-0.2153805148121034,-0.24380256127830927,0.11637707164682719,nm,0.0
43.13050818443298,17.136261064441825,-19.97787698393419,49.09910973946856,-0.46275286651921277,0.4039284049175123,-0.20589091200619955,-0.1968599687279526,-0.2184406854167429,0.17583567128906538,nm,0.0
43.13353943824768,15.721425524775718,-19.75426990712264,50.41164045482997,-0.4000719307313244,0.2163094930610191,-0.20712408686969833,-0.1929669375298172,-0.1728908215876352,0.18364071787417718,nm,0.0
43.15414619445801,13.668038312884697,-18.801751535597806,52.89476287709628,-0.06054415365897444,-0.1590941826218218,-0.2824166490630055,-0.17290378622577465,-0.058844951003513724,0.19164310187881126,nm,0.0
43.16324758529663,13.191689867174823,-18.147437933988325,54.013503368463596,0.13992979022484464,-0.4035626284127898,-0.21942547131603402,-0.14560909603201583,0.00731953179128085,0.21815667963202492,nm,0.0
43.17040395736694,13.28678714260454,-17.433012903760474,55.22902786955723,0.35833077785598205,-0.6652941019111005,-0.1678807605445794,-0.0925665844521859,0.09979921121961481,0.27882588420946053,nm,0.0
43.19228386878967,13.814296818607776,-15.83306703794524,58.10466643347514,0.8105642718366888,-1.1643204855231926,0.08290404837488097,-0.12439548134774477,0.09529163147581171,0.3298143814254749,nm,0.0
43.19785928726196,14.373253606861423,-15.05236900143934,59.526021786156,0.9534597589588599,-1.2619543958496873,0.3451418256460184,-0.0644691740545108,0.17637500509843304,0.35868968690472464,nm,0.0
43.20828652381897,14.857852422753053,-14.351341904621064,60.733884720939336,0.9672802493346181,-1.1681551865478834,0.759601284486622,-0.061841802965524814,0.1546518727022921,0.2992969760878073,nm,0.0
43.23044753074646,14.773794947461479,-13.557633043439226,61.77635249536036,1.1681919995400756,-0.5141297496298238,0.5775990378765328,-0.023986027024127846,0.03557921481254948,0.034114782318715633,nm,0.0
43.2358934879303,14.714839658147588,-13.743896815950881,61.33506199103248,1.0202052678499334,-0.2835952822735202,0.6722941057819715,0.040193374289097056,-0.02455082606133905,-0.11636763995530759,nm,0.0
43.246928215026855,14.672456179697912,-14.404997645955724,60.329648573545896,0.8581843130439119,-0.16431732449886752,0.40094554139883487,0.12460001254895797,-0.06846989343245541,-0.23665334940850083,nm,0.0
43.26801586151123,15.384378518628685,-16.74259428835952,57.54568196951499,0.18374865363658596,-0.42739304238528086,0.2512771501518644,0.270561741401179,-0.06558887321867823,-0.30236393147050944,nm,0.0
43.27422046661377,15.907902274392306,-17.985132249659944,56.184885249368975,-0.12067487026784637,-0.6019807978979284,0.1974338048982368,0.27630020583457726,-0.04934896437523556,-0.2714168918230917,nm,0.0
43.28270483016968,16.478896389535,-18.97242191187769,55.016907671813186,-0.17049056670199633,-0.5285496160183459,-0.3612389390025695,0.23766549857001557,-0.019540552090607167,-0.2247947317083143,nm,0.0
43.292529821395874,17.74981697668819,-19.626264488580887,53.95872308481243,-0.4292114806563576,-0.3881445040240069,-0.2123443994718351,0.25931579096893664,0.12188241256861879,-0.1330338859184558,nm,0.0
43.31182503700256,20.530297556077983,-20.0026782195277,51.75673460339764,-0.32837656473271765,0.2739142543886331,-0.37500826206698873,0.17827560887972488,0.1962182613713098,-0.12550786355319546,nm,0.0
43.325135469436646,22.344859151123394,-19.974363984118856,50.33284713379895,-0.2875203464379643,0.5004362259790338,-0.12428173718225362,0.22392649322629354,0.2708071760735247,-0.11070174017928876,nm,0.0
43.33050203323364,24.152869592435465,-19.978333023431688,48.820517446190465,-0.23577823934520595,0.6457805878882704,-0.015407575793629696,0.23480279399703977,0.2600740246372174,-0.1256986403789558,nm,0.0
43.35390877723694,27.214701415548973,-20.342841883999224,46.40200816952551,-0.24429965779918622,0.5604209041420448,-0.06042810854242723,0.24116902547360258,0.17322323782816643,-0.09706405326378842,nm,0.0
43.35940599441528,28.17460516817605,-20.635785657709988,45.758396901233354,-0.36813011501680676,0.4437965302822127,-0.16224260686628367,0.17986990214862406,0.09107431643817407,-0.06229407630952641,nm,0.0
43.370198249816895,28.525511692352676,-20.92972102764547,45.628013479455575,-0.48863572965108704,0.3330597840126465,-0.399898582008606,0.10070483643275097,0.008093157027022686,-0.014645179995923683,nm,0.0
43.39174795150757,27.43572303103395,-21.208853793051027,46.92668812532433,-0.655376063970289,0.19647510740514515,-0.22194471332350266,-0.1054604592666463,-0.1311049005239601,0.08105884653588548,nm,0.0
43.39750576019287,25.876040864346585,-20.967960721171586,48.1655855874578,-0.5894911588070801,0.3194677764428256,-0.2945369049766717,-0.21930179234184108,-0.18024874564881296,0.11297107251831554,nm,0.0
43.42158484458923,21.7540471398713,-20.124564010615085,51.12685955197902,-0.37789079753481414,0.5990386648963073,-0.07606630208450811,-0.3267500207353641,-0.2643148161677189,0.11362917386041387,nm,0.0
43.42818880081177,19.416725872596036,-19.61294504496421,52.64842082041481,-0.294842259665424,0.6722235523636308,-0.053204029297635694,-0.338711218741859,-0.28124194057814095,0.10701092875437898,nm,0.0
43.448795557022095,14.642579947861028,-18.839354029238205,55.292547416675156,-0.20784965232220032,0.5430031980864284,-0.11255148568052863,-0.30471187336917205,-0.3333277268203803,0.06849232502434097,nm,0.0
43.454349517822266,12.385760745987566,-18.508913404033386,56.39619702323885,-0.20068662610360732,0.3382727932116716,-0.11103119409518769,-0.2815970625633461,-0.3148505811514599,0.07164509310187088,nm,0.0
43.478485107421875,8.329859479729325,-17.478671444993143,58.549294875080975,-0.12496108156992047,-0.10166908506970186,-0.23245215148265075,-0.28162623360533606,-0.24947614747439997,0.08190854826932198,nm,0.0
43.482534646987915,6.752190566466731,-16.695198848302187,59.47642868879624,-0.055761924576160804,-0.2644668964261388,-0.16221958737801423,-0.27622733685890316,-0.17583936739678294,0.08886030767081565,nm,0.0
