timestamp,roll,pitch,yaw,acc_x,acc_y,acc_z,gyro_x,gyro_y,gyro_z,markers,motor_input
106.01221418380737,-38.40699337952785,-14.983061934976682,164.44540352073116,-0.3485083174569008,0.29531034382325067,-0.09194175895137306,-0.30755759886853834,-0.3434162490528311,-0.021951218795417858,nm,0.0
106.02138018608093,-37.43044340883136,-12.661799270534377,164.17246445678072,-0.17231447855303564,0.2017179604430551,-0.1940815351517225,-0.31120541689877923,-0.38300879624136747,-0.024686948537553724,nm,0.0
106.03951120376587,-35.59520984907974,-7.603096012255435,163.85215324614057,0.32567208213914084,-0.100572822488703,-0.2690560555333586,-0.3188453654688912,-0.4360246066339777,-0.028554670921182454,nm,0.0
106.0526282787323,-34.66204891825577,-4.905532511144845,163.7215231144273,0.6030383137429085,-0.29694229709810877,-0.16814318291798266,-0.33198145251200406,-0.4535695938414014,-0.03636626293758544,nm,0.0
106.05813717842102,-33.67104352579355,-2.1758128965588055,163.517442799245,0.802647493286121,-0.47495242937559806,0.021503783911041886,-0.3473912364926086,-0.4549899908318735,-0.042989916027306035,nm,0.0
106.08735609054565,-31.51666653066442,3.0358649359064103,163.09270412607432,0.8928264022281973,-0.5762945351900911,0.38215527455481585,-0.3598215392512289,-0.40659995194883086,-0.05517700015618458,nm,0.0
106.0889401435852,-30.455096589676728,5.212356011761093,163.03531591044458,0.817394644252353,-0.5847378842694199,0.6347249764409326,-0.33296773472191815,-0.3415349327929694,-0.0518399660061341,nm,0.0
106.10963654518127,-28.89329074888691,7.505108790820731,162.79088227562266,0.8044038431862555,-0.4201734192855475,0.6955866607823115,-0.1701551840010504,-0.08431298416186642,-0.031734386149946385,nm,0.0
106.11383986473083,-28.692169921122932,7.3255995737041495,162.43311449121165,0.6787047939191807,-0.37148608602190764,0.706868356258836,-0.03071480489431579,0.06031209345027476,-0.049624948218825723,nm,0.0
106.13793706893921,-30.048404119466564,4.163298242539741,161.01455397395165,0.5634642336483053,-0.311532563049169,0.625998510132366,0.3128461087015905,0.3490421693284775,-0.10000885241544295,nm,0.0
106.14697647094727,-31.47987709544665,1.2424237509992286,160.25816329958545,0.4821250122910379,-0.3389521206543175,0.6600914096070323,0.46218053700727724,0.4699159496935153,-0.0875336565748435,nm,0.0
106.17126250267029,-35.19642720139839,-4.998549726024357,159.60595983272776,0.5979696439207998,-0.5056748865458058,0.36309255452912476,0.5831053329985066,0.4520334352473296,-0.00783018102832998,nm,0.0
106.182044506073,-39.46751010560446,-9.793958895273157,160.6028514347466,0.271025778326731,-0.5641886875088107,-0.020154892403615617,0.5335034305071089,0.26346115452118435,0.0993362686614508,nm,0.0
106.19449543952942,-41.482457818601965,-11.325058449452602,161.3169828853577,0.05407905410138804,-0.48124411138983714,-0.3088236860948819,0.47274490129294344,0.1731317439660083,0.1015758422301515,nm,0.0
106.20222473144531,-43.26276275488689,-12.63959572169444,162.00622814210053,-0.21844332551157175,-0.2931404074597612,-0.5226446957537446,0.41152593010375116,0.15290012499795125,0.0874430054072602,nm,0.0
106.22380113601685,-45.49261535758773,-15.504568949800548,162.74177519146792,-0.7186984681674649,0.017222097268644494,-0.621026129397339,0.25147522699032787,0.2531387772456808,0.02430131233745252,nm,0.0
106.23165369033813,-45.90018806217604,-17.259402307490713,162.82447964377548,-0.8648216959109524,0.19739748857482542,-0.546118817470187,0.1770145857716085,0.3249959063703582,0.019451589388672887,nm,0.0
106.2563910484314,-45.461893330813325,-20.68426285074767,163.03654062404905,-0.8006652502543891,0.3824850497345409,-0.2776878496005482,0.0215900967040694,0.34180215565738326,0.09193963836837463,nm,0.0
106.2607889175415,-44.84207170955725,-21.8423141914005,163.43270258561319,-0.6317801044114975,0.4276853810524747,-0.21741122540308938,-0.045362168877822254,0.2680407193030905,0.149543962873255,nm,0.0
106.26618242263794,-44.08047446040047,-22.409935695973296,164.07078163609054,-0.47009680181567476,0.4185239452980369,-0.20707425738908625,-0.10560511594255212,0.16132576618485275,0.19889671977340423,nm,0.0
106.28616523742676,-42.33625280330644,-21.772225674955774,165.3770192989005,-0.2847658067449046,0.4348740543547169,-0.25845654690464664,-0.19507210100992597,-0.056603402495221895,0.19645468572407973,nm,0.0
106.30549621582031,-40.19626276898148,-19.62314561974509,165.84453083277884,-0.3972700627861936,0.42568239079269754,-0.17540340915252445,-0.2665109830157999,-0.1678640118723572,0.0857924096847814,nm,0.0
106.31443738937378,-39.00700674672495,-18.247106912758138,165.68108292557707,-0.48500519299346356,0.43891192560346165,-0.10212123118335051,-0.288733621718099,-0.19889570129691123,0.024423995745599014,nm,0.0
106.33515334129333,-36.78790833022979,-15.005330992224925,165.1471481660076,-0.5352530992490332,0.39710632375727156,-0.00965749913540767,-0.2866746130049733,-0.2680856339615566,-0.012702479440681341,nm,0.0
106.34517979621887,-35.879274942273454,-13.002638971156909,165.15421403004115,-0.4191781743068975,0.3119655605296196,-0.07312165970436858,-0.27615317688557517,-0.32940060451602343,0.011284430884970999,nm,0.0
106.36465167999268,-34.446958998767826,-8.036800738025347,165.86530586157744,0.06526444346261118,-0.04139483730677371,-0.24119167035040776,-0.2617338180772618,-0.46637952670493305,0.0782563285033935,nm,0.0
106.37116813659668,-33.79437437706028,-5.127203645158138,166.3736229426965,0.38424349067927155,-0.23275919014838314,-0.32803253245349584,-0.26910120337570415,-0.5212765932729082,0.08493751941707822,nm,0.0
106.39432501792908,-32.31294788638236,0.8873701912755289,167.123958783229,1.025910721039063,-0.6497774069713315,-0.11306965887842446,-0.2926706585496675,-0.5325268598269481,0.039748069623091194,nm,0.0
106.40146088600159,-31.372162859725417,3.6871681637275064,167.2375170404815,1.2627093761254908,-0.8477390362890113,0.2115033613981986,-0.3121291875653533,-0.491470220830846,-0.0022036698431776,nm,0.0
106.41953539848328,-28.983559689838387,8.042218640877492,167.04779216836957,1.3968109540775178,-0.865105416027391,0.7875782042907038,-0.3361057969785822,-0.29921955763770475,-0.06673108587439826,nm,0.0
106.43059659004211,-27.75442992333982,9.322210048970645,166.73836808268496,1.01472276055604,-0.718759486045115,0.9397572144050186,-0.299493363429344,-0.18069115685683754,-0.09946046255674577,nm,0.0
106.44876098632812,-26.61916848605291,9.490486830210415,165.51358446914858,0.2842804656040978,-0.19065123813822799,0.6300885144298587,-0.03690942855549734,0.11690845416328376,-0.12439399097735036,nm,0.0
106.46004915237427,-26.839129529069428,7.801819778708483,164.81576670503952,0.01590327036863762,-0.024662489685797057,0.6256010768943873,0.12523234967204885,0.32941921069401603,-0.09827302227253079,nm,0.0
106.4800796508789,-28.501928918999628,1.9750354995482924,163.46166904668686,0.3615594549340676,-0.005912640806992656,0.5748097199959149,0.37440872062222547,0.577014944071887,-0.07446016207246094,nm,0.0
106.48581147193909,-29.841162068428137,-1.5902008441769158,162.9011818143979,0.5605049900676305,-0.09029662136485389,0.5608818827368109,0.461257481987937,0.6186253654482451,-0.05714981307684516,nm,0.0
106.50392389297485,-33.49415516420388,-7.94774013648322,162.48168392893774,0.6851462683491295,-0.20672292938902462,0.16738510236668222,0.554380884729491,0.4577192516303378,-0.0503502562929105,nm,0.0
106.51301670074463,-35.72013401488371,-10.31585133360449,162.45300413080685,0.39162526495273053,-0.20847120018677381,-0.03129577078424149,0.5600452644252027,0.33244205452964753,-0.04310773111923388,nm,0.0
106.52833318710327,-38.12544955928115,-12.109725545619318,162.60956403417873,0.018030469623698597,-0.13606613874452078,-0.2395527057824756,0.5559078107425324,0.21383245713341925,-0.041818428238486104,nm,0.0
106.5451991558075,-42.83415860726959,-14.974660613656711,163.27347970115574,-0.7237931882582846,0.055020920103669296,-0.5497544571854028,0.5052077588821491,0.15225176833313447,-0.02759936804197192,nm,0.0
106.55142712593079,-44.85304129598139,-16.49057864295843,163.58975024614125,-0.9280032000116859,0.1627331160248888,-0.6038088070553875,0.4572290630958596,0.19258717933440625,-0.03283031251718885,nm,0.0
106.5761489868164,-47.41894758854064,-20.16575435399782,163.9717344631165,-0.9467386621141861,0.2693195059483001,-0.6240795521248929,0.29320437836711405,0.33160940893524626,-0.004870332501361472,nm,0.0
106.58117532730103,-47.93431772797495,-22.07925830707376,164.12149519311015,-0.8252582809041228,0.2854408357991857,-0.5289628887109084,0.19659385816264466,0.3539800164196017,0.027145948447562414,nm,0.0
106.59936881065369,-47.57750999794954,-24.536899483906254,164.53465132564145,-0.4809810859656004,0.2901361816498234,-0.385960498964241,-0.0163943655320516,0.20705285925571554,0.09981809313142022,nm,0.0
106.60878920555115,-46.94077401974031,-24.699986787699306,164.8979832939326,-0.3951083573777666,0.27744486264142804,-0.2967742727792898,-0.10476822304048417,0.07431249732114291,0.1333471489176262,nm,0.0
106.6298828125,-45.03945724343466,-22.859687625372292,165.6327356575165,-0.460634249319789,0.2647849902989685,-0.1517397888984356,-0.2491970049046245,-0.17894613255552844,0.14524272897809348,nm,0.0
106.64918398857117,-42.453053110383095,-19.394769144283956,166.11947911623463,-0.6464600965968268,0.26172914283663407,0.007386718804213813,-0.33992112549872183,-0.28201732257764184,0.11261305943581278,nm,0.0
106.67150974273682,-39.6466094569685,-15.501154938937983,166.30333501423385,-0.5218007851867883,0.24586121287318813,0.012333346190460101,-0.35545735006767126,-0.30783280457378925,0.07944847724176338,nm,0.0
106.67485237121582,-38.37007086140383,-13.384673470451176,166.50426341021253,-0.3080051175066493,0.15424884472235106,-0.0215780316505623,-0.3432592935042488,-0.3409832569290349,0.07760008853869102,nm,0.0
106.69472217559814,-36.37515885034792,-8.183224453222866,167.31777619246523,0.31138404349984355,-0.07149992924395228,-0.21323659219824356,-0.3020241355827037,-0.49244026822114767,0.08153432119214045,nm,0.0
106.70520734786987,-35.57235587956971,-4.96793969629487,167.82705356852895,0.5894913122670357,-0.23338116380867285,-0.28815026405181626,-0.29786491491932343,-0.5815123397802411,0.08103853411995889,nm,0.0
106.72649931907654,-33.92308542276027,2.2516300820756068,169.0387803588468,1.1251115481563552,-0.5984261203076375,-0.11496085347119415,-0.3185601970797178,-0.6700830340223302,0.06785472787026955,nm,0.0
106.73321747779846,-32.805180230202865,5.620440402431068,169.61179829248616,1.3181756780851452,-0.8352681600419621,0.25165343979630855,-0.3486110659269272,-0.6086564934986533,0.06192645593851971,nm,0.0
106.7570743560791,-29.79082715182629,10.519591773699569,170.16362897785976,1.0336222917892632,-0.7678499009557149,0.7088170475931846,-0.3906802362035426,-0.34288180793736234,-0.04713362975573438,nm,0.0
106.784259557724,-27.586896863726547,11.225875377350324,169.01066051246565,0.1689179930345612,-0.4010470176668479,0.7534368692388314,-0.1377199340433446,0.10879022482946832,-0.1793051898674072,nm,0.0
106.78589844703674,-27.48982746198611,9.478344895412862,168.03498236913535,-0.1455661373917404,-0.10816790532063159,0.7186337678500823,0.04617702480709122,0.3603840177290865,-0.19928234883716167,nm,0.0
106.79981541633606,-27.9146641234195,6.735588198397656,166.9700010491414,-0.1359241602777125,-0.0822257214581589,0.7089467853194384,0.196597682519086,0.5317034818326276,-0.20120699666913788,nm,0.0
106.80801630020142,-29.02809164296459,3.2566220994144532,165.86564167258476,0.19210171368484794,0.08643728183659406,0.6283215121810574,0.3765183516677819,0.6380149447968518,-0.15608902918127648,nm,0.0
106.80958366394043,-30.417427147703744,-0.6599332948472284,165.22406228550506,0.4754293672333685,0.03112981032514128,0.7028130027447937,0.46239954643936004,0.7028854931883753,-0.0781943517118212,nm,0.0
106.82955551147461,-34.14154408342677,-7.483127110465739,164.96704682287555,0.9445797613657473,-0.13140995850191378,0.28027060229095435,0.556159042368059,0.5072516319996883,-0.0009352368271617559,nm,0.0
106.83789372444153,-36.42422061644224,-9.994342093107372,165.20272009779822,0.8045474064847415,-0.24943277820618662,0.05112302995124642,0.5627852720973405,0.38254172029442757,0.0006646990119021803,nm,0.0
106.86024785041809,-41.51174951183878,-13.464954854399473,165.23804856163392,0.04187231730803662,-0.08826937480012213,-0.4279429171714416,0.5600863725076141,0.18105208709463874,-0.11865392249134471,nm,0.0
106.86527562141418,-43.91283276666471,-14.916222511249549,164.87449595055838,-0.3913150426452167,-0.09009367615325754,-0.4938524345374522,0.5225766368954048,0.17302511987504118,-0.16956162551392348,nm,0.0
106.88875150680542,-47.99654399578773,-18.16444868139807,163.84170098887887,-0.9856603447925301,0.2594906343700898,-0.5421362280410648,0.42848586217674545,0.23642991738371866,-0.19920825781456156,nm,0.0
106.89432573318481,-49.28724620933238,-19.78250402014738,163.3815272562284,-1.0458536692011022,0.31109179014394206,-0.5502336037470417,0.32428505935797736,0.2538918542187195,-0.15515980502541063,nm,0.0
106.91334462165833,-50.42537246105534,-22.109290789374374,163.0679879719074,-0.8390246442597832,0.32406731543231465,-0.4905817857617589,0.10803728832237514,0.17200931310672374,-0.006955469624653612,nm,0.0
106.92306709289551,-50.181068139143214,-22.35702810745431,163.10388543909116,-0.665006587796785,0.2475598680130767,-0.5148285479381238,-0.030168084908483238,0.07269199354444068,0.05147863616041803,nm,0.0
106.94457268714905,-48.498690822664415,-21.02950788161797,163.35613289103725,-0.48803636337090467,0.19036213496727952,-0.43866953560965516,-0.23788221516082658,-0.11109129197432516,0.11107728643881473,nm,0.0
106.952965259552,-47.0984367559955,-19.6634415210208,163.4343906681303,-0.5178875570972301,0.1699929600164745,-0.3248877505846189,-0.3318474457743868,-0.17473149252362363,0.10728197555583463,nm,0.0
106.97453689575195,-43.593248380281494,-16.193337760480812,163.3181062673896,-0.6434314291545341,0.257145621281886,-0.10797813002305068,-0.4412820497937229,-0.23449616086971514,0.09187771139865566,nm,0.0
106.97998404502869,-41.73166991821964,-14.259949217616706,163.38106541696422,-0.6341314586898202,0.27585259271137325,-0.02141139600824935,-0.45794278703798746,-0.25502422055213686,0.1003046609090353,nm,0.0
