timestamp,roll,pitch,yaw,acc_x,acc_y,acc_z,gyro_x,gyro_y,gyro_z,markers,motor_input
87.01228785514832,-32.80502561138092,21.184944490872958,-104.42764373299629,0.2605015333622233,0.2279291590994678,-0.7370157642742973,-0.4035029626118775,-0.14927394126562046,0.02482870171220321,nm,0.0
87.0208330154419,-31.1843398798509,19.258765402559344,-103.54777605873939,0.3013310828779829,0.11980538285469883,-0.663323556524999,-0.4613238513178358,-0.2072539302978107,0.034099377386180435,nm,0.0
87.03235006332397,-29.29105938191418,17.134649649073292,-102.51249285462936,0.26638564790271063,0.029818423557345264,-0.6108925740030808,-0.5087991303366418,-0.2603858878601154,0.049717143875728786,nm,0.0
87.05208444595337,-24.90311261211745,12.310812234412158,-100.34395984315714,0.3316663986805442,-0.1337454446616163,-0.3817153897628457,-0.5898008435787057,-0.33347734887091396,0.06579812642149245,nm,0.0
87.0571768283844,-22.672084965200217,9.545756428163552,-99.4420678597309,0.32140585482502826,-0.19650510851706574,-0.2433448029132924,-0.6337273144667992,-0.34297968135985196,0.06410752863920752,nm,0.0
87.07066583633423,-20.478142616063163,6.595357312733537,-98.79843369482673,0.33126788125103585,-0.24281508591868445,-0.059782845445906195,-0.6653902644005867,-0.3414798801367463,0.054516242625165946,nm,0.0
87.07675290107727,-18.363772106717697,3.581831126426582,-98.37278273560985,0.4199700255424476,-0.2850533804222202,0.27079669675248713,-0.6727756472882293,-0.3325339315340721,0.04127247019944407,nm,0.0
87.08671855926514,-16.487129720800045,0.6571533354005299,-98.03227900007047,0.5571666411471046,-0.2808323680736073,0.798323754983533,-0.6460947727738884,-0.2944106791586873,0.029266123092746874,nm,0.0
87.0940933227539,-15.009112762330226,-2.0161394212807173,-97.86131047511061,0.5822824836137743,-0.18249889756968296,1.2313472284897584,-0.584034351389843,-0.22529289429644006,0.017938175417350998,nm,0.0
87.1196460723877,-12.846799377734401,-5.754119179594247,-98.06545592181757,0.5322441840545931,0.33419291224702696,1.2358852520840085,-0.34195912629857805,-0.15318508308455125,-0.01323314919487893,nm,0.0
87.12770748138428,-12.304757311325396,-6.371579559926713,-98.47876682416239,0.4768951923810202,0.6350387749850565,1.2396092118891435,-0.1511158480391709,-0.09464500280710543,-0.049797988361015746,nm,0.0
87.13273215293884,-12.16043436144213,-5.953645769261267,-99.03236611148635,0.39043298408985655,0.7460545842946387,1.1693978324588383,0.06511069095022405,-0.04683196330656396,-0.08987328990215264,nm,0.0
87.1548764705658,-13.374462394513055,-2.21494765177399,-100.52275270054959,0.28084809040461506,0.10956123904430884,1.0718480884732755,0.473487999805855,0.09029755791994276,-0.13650862578862646,nm,0.0
87.16342806816101,-14.779281035832094,0.6998397470526586,-101.24655387041095,0.2475398830946447,-0.403927103078518,0.9712437768415512,0.6129868137179011,0.16045344397588157,-0.12397540521776462,nm,0.0
87.18849158287048,-18.562138874985557,6.787815205844208,-102.4648406275907,0.299380384781649,-1.0469167679016849,0.37927142373192374,0.6546082468864813,0.2613899450536877,-0.049953148508435005,nm,0.0
87.19300603866577,-20.685815407839293,9.509990802748478,-103.05473477258111,0.3520039602827648,-0.9878147953561575,0.04282473923491948,0.6112715868217947,0.28510267771988584,-0.026664839069769863,nm,0.0
87.20063591003418,-22.80090939518876,11.90473454625813,-103.57073190913401,0.4270880643495916,-0.6875084714552354,-0.22157042233161875,0.5487267216340431,0.2903853897589767,-0.021807748891956153,nm,0.0
87.20868158340454,-24.876695225269803,13.957034183761557,-104.02288142663228,0.5398449647476632,-0.3641045728692435,-0.27098234693516987,0.4815440851197817,0.2919872597018045,-0.0250954795527398,nm,0.0
87.22186303138733,-27.00332870609346,15.839761854039798,-104.70673786259184,0.40137092748639563,0.010065188271451671,-0.3934572400993971,0.4534328906762951,0.30121496562449374,-0.0287727985404583,nm,0.0
87.24293756484985,-30.253823340295888,19.810925739442553,-106.08924313650822,0.5031588133491364,0.379230986309639,-0.3504567233062763,0.45613034952593406,0.15238560106948115,-0.039534843322379026,nm,0.0
87.24641418457031,-31.666336710760792,21.9783573847171,-106.65086117321817,0.2811000271823818,0.5092828212865195,-0.5499265924257296,0.476948721333597,0.12755846730532053,-0.012756427837037681,nm,0.0
87.270343542099,-33.439862768272825,26.216627230487042,-107.40215156168348,0.20320134254551583,0.4545659341614265,-0.7638673906692877,0.41485775242517386,0.007302648753288945,-0.0010233130526932776,nm,0.0
87.27438044548035,-33.97573821811166,27.79890199327924,-107.55446032569203,0.036693523096473606,0.44207232687368453,-0.9128215481434321,0.3169998121682976,-0.007270310703583246,0.0006322823031403894,nm,0.0
87.28575539588928,-34.162220844749086,28.757711744878815,-107.65083925626563,0.03861296474503782,0.34045077879486496,-0.9426364897141004,0.17904182104475022,-0.030109340463750914,-0.01617928792384441,nm,0.0
87.3090431690216,-33.77846400109049,28.56313132079733,-107.55681044848949,-0.029546288041437465,0.297337721797011,-0.9267987327588193,-0.11836820646337064,-0.036204795149173685,-0.025933009501221033,nm,0.0
87.31347870826721,-33.09486055630923,27.527637946632417,-107.20676310440241,0.02409414889253,0.2662913477475143,-0.806563314213765,-0.24784199820013142,-0.057070779488598594,-0.015318821657413235,nm,0.0
87.32440996170044,-32.10499526502666,26.08015112259199,-106.59990168154877,0.04218151762741466,0.29801310504373496,-0.6735636982026423,-0.3425664485053677,-0.08895190924874871,0.006196637007522791,nm,0.0
87.35492706298828,-27.414366530417073,20.517079170619432,-103.68947998168635,0.2430967379063947,0.26688712012707877,-0.42516871635392917,-0.47966736559420675,-0.2216530101013544,0.05468915312491563,nm,0.0
87.35986280441284,-25.577827170771954,18.37643684400537,-102.50053588165933,0.28355084775400663,0.1242055027331713,-0.4106059410124038,-0.5090242890396581,-0.2463102485517924,0.05015143966133152,nm,0.0
87.38406491279602,-21.90472545030016,13.411647316818565,-100.7802299225976,0.2675991942364679,-0.28388615922344584,-0.3886751215997135,-0.5947984512485923,-0.2527116971330229,0.031455166971124125,nm,0.0
87.38913464546204,-20.10063954376296,10.556955175141884,-100.22566116323533,0.2730953492947933,-0.4675588148515254,-0.2788990914206531,-0.639818799998436,-0.2482485104451093,0.028912744816144323,nm,0.0
87.40146207809448,-18.3463316633024,7.49704642156347,-99.78205523921494,0.29576414025749087,-0.5739968696591088,-0.05526042271015441,-0.677085189876582,-0.2400525925492256,0.03825156585207846,nm,0.0
87.42641925811768,-14.989611002396119,1.1679060127062413,-98.84853895144434,0.39805792334849105,-0.3957886765834608,0.5747406434158047,-0.6890144074827929,-0.23058829467872827,0.0792518048380813,nm,0.0
87.42905640602112,-13.480840612366624,-1.832303819379006,-98.41150391321197,0.4975435926486261,-0.09603814034080538,1.0066226088060095,-0.6525383503667023,-0.2138527228119643,0.0994354774398382,nm,0.0
87.46273946762085,-11.35448265074613,-6.281357631852404,-97.87825054854586,0.641504693215279,0.6025622842972205,1.3364586263844933,-0.40611898763401727,-0.12771956473772955,0.0789204525300727,nm,0.0
87.46487736701965,-10.7837999575747,-7.061232544892837,-97.9737637926113,0.6023697064932975,0.704968579826593,1.009458646034783,-0.18347709856303634,-0.0965976901099258,0.0236610793012973,nm,0.0
87.46876001358032,-10.523685436190101,-6.746370924439555,-98.31362093844352,0.5917826061925313,0.7361263818413867,0.9290372671233239,0.041989742044292136,-0.06602516679972832,-0.04730526450810295,nm,0.0
87.49482870101929,-11.230928494963022,-3.5917283548417207,-99.56713615088273,0.38977909832545016,0.27298042363568903,1.079852707793279,0.3996364630128849,0.039696376273486995,-0.1323059112678514,nm,0.0
87.49746012687683,-12.217790075787274,-0.8288356094687449,-100.29038537271859,0.2604201410932971,-0.035326030441373404,0.8130887252116836,0.5658465937014082,0.09317574213866395,-0.12302222208328893,nm,0.0
87.50379753112793,-13.51112675126072,2.312483151028599,-100.82664692582449,0.3757902775342829,-0.41151403883639837,0.8509595606424545,0.6526073956058517,0.1336366751501188,-0.07834157045926096,nm,0.0
87.5277807712555,-17.018169737942767,8.908937594106176,-101.50999744224897,0.17744185943452068,-0.7483449275843325,0.21417545065940619,0.703273981636042,0.2012767391476465,0.008542616277483747,nm,0.0
87.53234577178955,-18.770496175968294,11.978791507226939,-101.87730768355492,0.3160920325838314,-0.6850211543239967,0.0376262270169405,0.6586156470998352,0.20808354680377683,0.02029594182670185,nm,0.0
87.5822696685791,-22.703562045203636,17.025523234457523,-103.17164960920316,0.3258680551573251,-0.21053563008821338,-0.2764842445999247,0.5291967543291024,0.2558447348709384,-0.017416220082544797,nm,0.0
87.58467602729797,-24.822279694423198,19.089127827743926,-104.11740970074877,0.33262892190275795,0.05347389131803573,-0.3842888654686293,0.48323437489656523,0.29014439366648365,-0.03497998556897821,nm,0.0
87.58684873580933,-29.055068894964624,22.685859878546523,-106.11086715534887,0.32478698350270246,0.30343070759573115,-0.48266005768989856,0.4277074794785353,0.2666363798694178,-0.018263971693414677,nm,0.0
87.59038281440735,-30.966342708082202,24.41841906302217,-106.70911049947375,0.2489136036038998,0.40311566498313434,-0.6441304778188507,0.4177948565946708,0.23533515045259848,0.01437097391214953,nm,0.0
87.61323261260986,-33.7864175741386,27.586820847771513,-107.48859244418365,0.22159377285278806,0.48516260078054585,-0.8708864885227647,0.3370002253325603,0.11750211378607955,0.033298705001543895,nm,0.0
87.61807298660278,-34.66138026785915,28.6750064201083,-107.82639540517705,0.16612670796779583,0.47850583166267,-0.9258971475664431,0.24056755827792983,0.07761504710120494,0.01345370607894821,nm,0.0
87.64168047904968,-35.22535736427916,29.06973826141297,-108.53579489075774,0.11888634103676914,0.34590844662837494,-0.8319653883569585,-0.03068092002601296,0.02140922449103088,-0.0636658059994371,nm,0.0
87.64622139930725,-34.925530636838396,28.335532881251435,-108.80010211838098,0.05074216514836216,0.2612189170628262,-0.7898573429994666,-0.1701318794944228,-0.006146289897001948,-0.08318468539907937,nm,0.0
87.67115473747253,-33.16078240335553,25.609930171315757,-108.46132926073888,0.052779554673195395,0.0902732972880471,-0.4916232157837312,-0.3608719640794387,-0.08728601346788513,-0.036421519564266175,nm,0.0
87.6747076511383,-31.781588226663477,23.938526823895486,-107.66816807869768,0.11915394794541986,0.0806981330814721,-0.3587651218850832,-0.4097691626405087,-0.1383994156318928,0.017671614765483186,nm,0.0
87.69932079315186,-28.624959010580103,20.306131173505847,-105.24843044758919,0.26105002714477477,0.09889219561589088,-0.2629977412169207,-0.45436077072577213,-0.19109195473639073,0.10403243578123948,nm,0.0
87.70694398880005,-27.04124824367155,18.283142338198324,-104.12597598693233,0.3329189579684588,0.040478418975544356,-0.2743942440586238,-0.48141493014138137,-0.19106489622325473,0.10696162159849468,nm,0.0
87.732346534729,-24.127970778765537,13.525345384299392,-102.47314889184926,0.38049292987843397,-0.25740564233640817,-0.23745007282732244,-0.5624302307364517,-0.1618704338339912,0.059732924307636145,nm,0.0
87.73430442810059,-22.77043362288359,10.842387953565977,-102.00242572819928,0.37395950527284383,-0.3987327614579303,-0.14417704400106574,-0.5950215493715277,-0.1500984472713658,0.04352753128133304,nm,0.0
87.741295337677,-21.439624383923512,8.054888694241155,-101.51070375911952,0.3665613779457014,-0.46144442055730217,-0.014476324700431175,-0.6135954770191243,-0.14828874559366137,0.053090320525772276,nm,0.0
87.76579594612122,-18.9139232252529,2.623489408767639,-100.27284828134883,0.517113983492291,-0.2874409654820134,0.45188344636082456,-0.5795177900770233,-0.1454636468695586,0.1283121221708145,nm,0.0
87.77028727531433,-17.839869734881795,0.2521022130904874,-99.59790857454234,0.6163091259151109,-0.04360730601325836,0.6122883938911238,-0.5183380239955954,-0.13462308919984672,0.15027792665925552,nm,0.0
87.79735374450684,-16.09796130166944,-3.287990034964241,-98.73795595155107,0.7501778681950538,0.522720767713833,0.7494122395338941,-0.3441597821428231,-0.11708176549218352,0.0814524846472264,nm,0.0
87.79977536201477,-15.377927164206591,-4.236730238473946,-98.88174979970664,0.7167455106556578,0.6692390249944795,0.8156980354802246,-0.223143231901557,-0.11844120917532079,-0.0014675786966742762,nm,0.0
87.82489466667175,-14.267073483788508,-3.73337169363554,-100.30188000771211,0.4432975745080934,0.5792284919473061,0.9180492874726712,0.10345472243361518,-0.12102741224725339,-0.1479134624605952,nm,0.0
87.82971978187561,-14.189683207593218,-2.236648219510169,-101.2684357281428,0.29381372157221186,0.3433982211242887,1.0587480380546619,0.277985862405921,-0.07655335199383448,-0.16960557137490828,nm,0.0
87.85108494758606,-15.517286267735866,2.7586481039296875,-102.77485690433097,0.1303735086186988,-0.22206526192656548,0.9595146001567251,0.5651536799930595,0.05572079979314547,-0.11151877333525469,nm,0.0
87.85572123527527,-16.926662250592795,5.786682518677456,-103.30567757113747,0.14675943863858074,-0.4428826084845677,0.7680779687953792,0.6406283929236168,0.1327278539105398,-0.07073946532006133,nm,0.0
87.88070678710938,-20.775642873534398,11.98889460937152,-104.64335073838076,0.31094846399616477,-0.5259488334497516,0.24135697393855096,0.6827225619525601,0.24175530410510945,-0.06895318181726617,nm,0.0
87.88384008407593,-23.10217775425868,14.812461739358973,-105.70034294594367,0.3764195990094948,-0.43217565894606513,-0.0276916797764054,0.65044834128427,0.2857716285691072,-0.09875718064347136,nm,0.0
87.91114711761475,-28.09154447325506,19.621750472977965,-108.84073583793999,0.38958775400714607,-0.16831612450523242,-0.4368005612410565,0.5688843516314468,0.30884685908982035,-0.13979888142896135,nm,0.0
87.9127881526947,-30.472503176652147,21.725213819495767,-110.40795417634314,0.38681716936025573,-0.045603195060861634,-0.55899290571926,0.532645525883917,0.2755254269990132,-0.1240347528662948,nm,0.0
87.93744897842407,-34.618466912805346,25.655666033812,-112.67827826539079,0.08993160036546918,0.2974412868252784,-0.8344110426263833,0.47562498926259567,0.16741032223536892,-0.03440210300198646,nm,0.0
87.94076609611511,-35.818638200593014,27.509087060880116,-113.38615970195517,0.2586419316088522,0.35839896599208554,-0.8288103402230362,0.4114250450093597,0.05016603046322499,-0.029038667562390468,nm,0.0
87.96028518676758,-37.157664187441334,30.04813885612016,-114.2759332278917,0.13679432967999444,0.5713460968849065,-0.9975708728165861,0.20305223868610042,-0.010680127807044396,-0.03595341016795129,nm,0.0
87.97670316696167,-37.20610982425711,30.40143797625719,-114.57891533569418,0.1600318622908358,0.5561276253262453,-0.9754075488920873,0.053659334284383464,-0.023683513390030622,-0.07346965592815632,nm,0.0
87.99038338661194,-36.95785451395896,30.009202552687064,-114.655886252563,0.013217493312164236,0.537015135624401,-1.0038443127331123,-0.10353157867457481,-0.008579136661705136,-0.08673787264077892,nm,0.0
87.99368906021118,-36.22427947540489,28.924140172450034,-114.50958734384916,-0.0559518317496309,0.38966186355375054,-0.9564996941538099,-0.2649873624749863,-0.02840644068698266,-0.0865040925207017,nm,0.0
