timestamp,roll,pitch,yaw,acc_x,acc_y,acc_z,gyro_x,gyro_y,gyro_z,markers,motor_input
37.01435661315918,0.2783145250227408,-8.60917039668529,50.102566048124196,0.6888082579363254,-1.010825453913777,0.5714847318685241,-0.03912400865118153,0.14613821754754877,0.21200191585638758,nm,0.0
37.01753330230713,1.0377952021892956,-8.093658567980713,50.638909543253476,0.816987315303876,-0.8904149862917933,0.7086938364586449,0.03039990337282207,0.18082126658999487,0.13990735071300164,nm,0.0
37.04260230064392,2.5844738591496723,-8.029310678394397,50.29807847219064,1.0021350069314328,-0.44311501288110977,0.6465817738922791,0.12143242006079813,0.08189316758159626,-0.05989329734971802,nm,0.0
37.04477095603943,3.4095947159344697,-8.55876213564839,49.731947689093786,0.8495211810088735,-0.30109430455098346,0.6373603243440779,0.19992647020506932,0.05642968174812136,-0.11522577361376014,nm,0.0
37.07085084915161,4.871104628378378,-10.657632091560666,48.37167509930381,0.3575595790317868,-0.316902186631346,0.36857088647683733,0.27705682271906035,-0.058295163771151494,-0.14060315869739665,nm,0.0
37.073216676712036,5.641332484503372,-11.86155561874943,47.81262584288229,0.01514571167923819,-0.38204381645698093,0.25177206995678497,0.29420052386336687,-0.049088189114693946,-0.11089965362067987,nm,0.0
37.0973424911499,7.2211018657740045,-13.824869505527838,46.80328340553507,-0.4258965203206039,-0.34887011649788674,-0.033800536908852416,0.24699753145917844,-0.008699397530130668,-0.08643314972367666,nm,0.0
37.1017689704895,7.881633656934249,-14.418703399557225,46.19175866090983,-0.33940542203581187,-0.23529926721331923,-0.2812450083737523,0.18824126845683728,0.010322137184365143,-0.10616093829013581,nm,0.0
37.12634778022766,10.068488781213679,-15.02895751840038,44.69236869708015,-0.2943240326275099,0.22251495048500408,-0.11770234565004078,0.2212964072138064,0.1336978164161424,-0.09917468811273383,nm,0.0
37.151713132858276,11.825129600234238,-15.520474886156707,43.257942725579404,-0.015572598908022425,0.5037597494981924,-0.2938085150620135,0.17053885807987654,0.07656609807826542,-0.08796916071225967,nm,0.0
37.153358936309814,12.663019247781593,-15.862861608732917,42.9040805399627,-0.15952034776270965,0.5736333281587652,-0.10819679180443843,0.17824865792196726,0.059275052937278624,-0.04387879659267937,nm,0.0
37.183382511138916,13.630532921084066,-17.029527252918676,42.82779207562581,-0.5525372799161227,0.4577932329983261,-0.1932290765628329,0.08203378509370546,-0.019599485637153753,0.035414187060916424,nm,0.0
37.18954539299011,13.48386994176766,-17.155601143381247,43.05145750012763,-0.5992294945620978,0.44704243903975804,-0.31956661613714793,0.010174237354356425,-0.03845259831008554,0.03113806880037751,nm,0.0
37.21816849708557,12.05486739790105,-16.389416930636408,44.23439575204493,-0.43198109391528805,0.6182399892717938,-0.24843983672128647,-0.13338901755522153,-0.030119081879494827,0.05972404447915647,nm,0.0
37.22576022148132,11.3173887860099,-15.971373838064027,44.92141739168132,-0.34499244772635873,0.6738978151756865,-0.17670710434310385,-0.146175550874733,-0.04066670177538354,0.09156208333554955,nm,0.0
37.250128507614136,9.455152577749155,-15.205887245810114,46.990942248307825,-0.23097923726994046,0.584028032975603,-0.19158617498260938,-0.17007333112842296,-0.08714424151879456,0.15228666850562664,nm,0.0
37.25298762321472,8.416632924061501,-14.882817346178012,48.21187784870367,-0.2518557627105897,0.4304714482795742,-0.147514646450975,-0.16936195601787604,-0.10522086183666161,0.16483942374124144,nm,0.0
37.2790961265564,6.208129158702263,-14.166311429393234,50.44072441199331,-0.23377468812469476,0.05563310559783825,-0.18137438578539178,-0.18295935992725573,-0.11284220324839192,0.12363799919103903,nm,0.0
37.282541036605835,5.1442546129402045,-13.693762114703533,51.24787683857325,-0.16534158207042118,-0.10977342468376095,-0.16627067536711185,-0.18996471828698333,-0.10085295973166265,0.08255436890415034,nm,0.0
37.3066201210022,3.566705260548448,-12.511877685261078,52.122833648890555,0.19871030080229724,-0.3536920456492101,-0.2321149932040986,-0.15504729790311117,-0.012950857676802877,0.03532605982837857,nm,0.0
37.31093192100525,3.457849913801512,-11.855057500225854,52.42446904246255,0.09431260794780039,-0.4429340414005423,0.49565830741107086,-0.10321284217806956,0.06354443833724835,0.04435386521763961,nm,0.0
37.336132526397705,3.606720826404299,-10.552864909820984,53.05657089887421,0.7251602780501013,-0.8922228242991377,0.28564243094224095,-0.02906442235743105,0.1482184925049027,0.08060383529531745,nm,0.0
37.3451087474823,4.549240507411132,-10.069944685347616,53.45755266140496,0.6315622849296996,-0.9668753253820883,0.9844949677961936,0.047314883117413206,0.20683507091949832,0.1095367244193988,nm,0.0
37.3489990234375,5.205413132865217,-9.761265170695754,53.87014934722222,0.9366327208033575,-1.1022736940329831,0.6179889158286728,0.04048249328856666,0.14123357070442863,0.08772787054288911,nm,0.0
37.37342309951782,7.383338699724766,-9.930746256842003,54.061878485592366,0.8143287624069636,-0.8201477522847113,1.0629085672459677,0.1644131807732557,0.14637375793445406,0.018067188714670397,nm,0.0
37.399587631225586,9.083755639246014,-10.919541385663113,53.1746847712067,0.6409117808003423,-0.37245974745564314,0.5931191606583343,0.2334427453105829,0.08075691526987298,-0.07638272504267504,nm,0.0
37.40459227561951,9.867663695028163,-11.837914771590562,52.55847040941798,0.49199929769056017,-0.22856922406590233,0.5118228986910905,0.2529529700330705,0.012281149303914772,-0.09763860729831421,nm,0.0
37.409456729888916,10.583532629948936,-12.917496069587802,52.01693476722275,0.37950173427932,-0.1504131881152362,0.12480605402202688,0.2701245976364688,-0.020831355728540495,-0.0828878158475189,nm,0.0
37.43412232398987,12.316900987275043,-15.352938681852185,51.627040819965735,-0.14514586768630114,-0.1394231589312573,0.05887542235581384,0.29865368870850223,-0.03766187802900497,-0.03078555512435338,nm,0.0
37.43577265739441,13.035359050944733,-16.477975891684984,51.320425253412,-0.08461994766021452,-0.07503093377976748,-0.5553292043748347,0.27590971582346435,-0.031081979836991985,-0.026983162820030097,nm,0.0
37.444607734680176,14.4638671204434,-17.438875259287403,50.974848732895346,-0.45994635805787815,-0.0050386771799311395,-0.23258314923391127,0.3349269927159614,0.09353751026533164,0.009120390514227588,nm,0.0
37.46931219100952,16.851423056515927,-18.782111387160285,49.862829901102195,-0.37291505970561545,0.2868933534644226,-0.49484083731503603,0.2391567189645381,0.09635746200847722,-0.06951013977465384,nm,0.0
37.47272610664368,18.273230524108268,-19.151856398705362,49.18439540932274,-0.464190116072022,0.4339224209175614,-0.3216272374460384,0.2443392473505933,0.15819708117667705,-0.05858811981255982,nm,0.0
37.48363375663757,19.409073391639335,-19.461906918537522,48.55582380702608,-0.40825070052150103,0.5294552033933794,-0.24318743227079537,0.2011226805787239,0.12236599169715838,-0.07366401979547353,nm,0.0
37.508644819259644,21.010500526051754,-20.04952856614643,47.90626766264471,-0.4127896253488049,0.6717097779470242,-0.2610863118925674,0.1484244222839231,0.06780664141948999,-0.016439338305025267,nm,0.0
37.511963844299316,21.301934246956485,-20.329864198918916,47.982374583302956,-0.4678298421450017,0.6543051868475107,-0.27018640382490194,0.09155322812493666,0.004749018352507423,0.0007104962071239487,nm,0.0
37.53464984893799,20.86088363779693,-20.57997759546578,48.73569959687828,-0.6103713752619015,0.5918277480274746,-0.19440892951126695,-0.026660275183931634,-0.05472604820354571,0.023350536775741892,nm,0.0
37.53952407836914,20.0973324306759,-20.441709449955685,49.24287356289499,-0.6074204621417278,0.6078266435238873,-0.279977160122947,-0.10144478068464675,-0.08836888323853506,0.002507631746547464,nm,0.0
37.56325387954712,17.891017016826012,-19.765727641831226,50.25333891439115,-0.5091124908722925,0.5733509679890078,-0.16151004069112204,-0.19555689688285569,-0.12119399894979227,-0.024262900996092077,nm,0.0
37.57133650779724,16.43587744991176,-19.265389058929486,50.7233903786731,-0.4060885196217955,0.5496728082042729,-0.20998738765861322,-0.23850541017902013,-0.14680565711645677,-0.022197891661835882,nm,0.0
37.59221339225769,13.063596185207468,-18.22142261713914,52.378733965581866,-0.245364915373983,0.41677866316821205,-0.20495395880208547,-0.2774464834337201,-0.19797862668892552,0.03341698930365285,nm,0.0
37.61632299423218,9.249959527856287,-16.95025743276531,54.590603016006106,-0.1551843046890226,0.1673873201131298,-0.3383609064786025,-0.31024048042253444,-0.21762823923901561,0.09646840289573515,nm,0.0
37.617937088012695,7.352706969678742,-16.22417757854681,55.909389989068885,-0.06346477358295827,-0.0069300201460709525,-0.4048739881919681,-0.3127358272125147,-0.2155456603927552,0.10239785896203764,nm,0.0
37.624921798706055,5.58516024485747,-15.398473648614331,57.11710673287693,0.01583930273701463,-0.1785168501310649,-0.45759150821439104,-0.3115533200054607,-0.191950674575855,0.09507700241875125,nm,0.0
37.63439989089966,4.214571615509993,-14.461566680938107,58.07102255388704,0.15932804938598988,-0.3669502530560924,-0.5687044101017078,-0.28651742076832204,-0.12210160545564455,0.0936133614048525,nm,0.0
37.661447048187256,1.9119849875206376,-12.224853981826332,59.39545271908987,0.651322970185371,-0.8545356209378437,-0.03813081753911967,-0.3213526117531933,-0.09177698635857895,0.05636142777367751,nm,0.0
37.66412687301636,1.489579647771079,-10.876064088574989,60.0341068290711,0.8992446924380836,-1.1647338631261406,0.5857872135683028,-0.26116404594561754,0.06621852372691997,0.10709661602392569,nm,0.0
37.68866324424744,1.11607996340815,-8.282593050027623,61.45017716303304,1.0804876870330142,-0.9831599390706911,1.0175320416852995,-0.2455510499450649,0.04070337073286756,0.12215972559437575,nm,0.0
37.69338130950928,0.5110664109293859,-7.365127671051552,62.08384316320422,1.0822897053051634,-0.7400584658187505,1.1390761333602297,-0.20489864686775475,-0.01704890087326535,0.1062393640827594,nm,0.0
37.71572470664978,-0.06187149952495478,-7.550616369250472,62.787404627183335,0.6899488009745882,-0.09764232428348277,0.9272485996532153,0.08970325472322514,-0.05769556917007211,0.02388400827430066,nm,0.0
37.71971249580383,-0.038196933956306994,-8.68516738870225,62.6602718656679,0.4116414695743926,-0.030859352482914427,0.9892267047263256,0.21791956433967843,-0.09784293003317773,-0.04297768069775722,nm,0.0
37.72944450378418,0.33234382459379136,-10.250088540403514,62.14872968789239,0.246340138191709,-0.1343444435611057,0.4889206979359774,0.32543870335622277,-0.07833002101456084,-0.0939039223006762,nm,0.0
37.75453996658325,3.0290380235042282,-13.919215454536726,60.505469982840644,-0.2643217012687744,-0.39159494703481473,0.26028126268163104,0.48610531216262526,0.0914827352917995,-0.11393094140649287,nm,0.0
37.75736594200134,4.8660592239783815,-15.493330542429101,59.51931029483124,-0.17018231051987825,-0.42184507868417753,-0.10426519863326239,0.46461150152192277,0.15265152554326683,-0.10781272298468829,nm,0.0
37.77111315727234,7.360802342774384,-16.706384125302975,58.47460551775717,-0.15637831803922747,-0.2960358787080049,-0.288375896300454,0.4693322119638449,0.2879932084353821,-0.05560648849009444,nm,0.0
37.79080247879028,12.817524442323649,-18.4558373590594,56.5323242328616,-0.028345619214305416,0.11407644941663642,-0.23830211566984127,0.41239589291242224,0.3275097109770966,-0.0152946663574927,nm,0.0
37.795456409454346,15.402465218437051,-19.18765656727435,55.64773577596957,0.052621499316071664,0.31019730429054365,-0.40631466124839866,0.40848539189387906,0.3270472007139896,0.002039339272715436,nm,0.0
37.80567288398743,17.953437041684033,-20.08750198747455,54.77528009893934,-0.01924785512533966,0.35878172012509774,-0.20255065990493518,0.43576931204652025,0.2947943461437214,0.002200174746885427,nm,0.0
37.81696891784668,20.03084642509684,-21.101465369697316,53.88879248638189,-0.016417376427351735,0.35768829396087637,-0.27822239711674146,0.40509305780365734,0.20078803725651098,-0.03651234626406965,nm,0.0
37.84553813934326,24.151010135202466,-23.55297301662307,51.33607009309968,-0.4120571806635502,0.19896990785251858,-0.44413977393604764,0.22041113907957374,0.05205646267260274,-0.11906952778984575,nm,0.0
37.85524368286133,24.58711606634525,-23.92090936056595,50.61607765930608,-0.4702668586768908,0.23178676192048014,-0.42919271265621256,0.12060477434083704,0.018686518526857276,-0.12523472607265815,nm,0.0
37.86559200286865,24.49301937512242,-23.97733452444272,50.150803529310586,-0.5433639850677576,0.2822539753686233,-0.31480181633908966,0.010810436648487739,-0.01765935246714346,-0.11656032825748672,nm,0.0
37.887741565704346,22.51880279572676,-23.59664261317166,50.452972645934686,-0.4711748806612523,0.5589972991353336,-0.12730994503506615,-0.17131880057465515,-0.14011412052249908,-0.08739946751292611,nm,0.0
37.89430832862854,20.852659726792456,-23.242403766620203,51.15979366096335,-0.47716126545607934,0.6682916856140431,-0.06476039231047002,-0.2346399107444943,-0.190609177805401,-0.05544597124656168,nm,0.0
37.90064358711243,18.89558856994616,-22.885411376946838,52.101835490873285,-0.4927829497513507,0.7332089721597091,-0.07818870661234996,-0.2658631949141095,-0.2366150371374521,-0.026591013531111953,nm,0.0
37.91195869445801,16.82190765455597,-22.54488045527971,53.16743206732297,-0.5221437219860062,0.730055020428975,-0.08811535384955763,-0.27262690242168997,-0.261271899476657,0.002640629413161983,nm,0.0
37.919159173965454,14.734840035919579,-22.15284026752101,54.27755599108773,-0.5529681008867058,0.6541184000023398,-0.1758860990796508,-0.2780628962142171,-0.2632196377996529,0.03008582801800707,nm,0.0
37.94133234024048,10.79381833186505,-21.15388022825332,56.68804483341635,-0.4627679327685695,0.33124531417906095,-0.37983504279968594,-0.2754353440007246,-0.23422862093748897,0.07423303786073875,nm,0.0
37.95370125770569,9.033642835620752,-20.45719701999053,57.876617076294124,-0.35309600190326507,0.13202268517672489,-0.4271943924370224,-0.28159562887744344,-0.1995672720749302,0.10009578644275162,nm,0.0
37.95807695388794,7.421694640143909,-19.562999605668608,59.14910407910203,-0.21346298118790022,-0.05040025766472209,-0.46244091663732556,-0.2971789877575152,-0.16292416844463567,0.12376178591696066,nm,0.0
37.96768593788147,5.95165043896635,-18.488182239122732,60.39119690787355,-0.03723790828594612,-0.22378648622539002,-0.47397980037249987,-0.3122133960134474,-0.12968120805763025,0.1422751914878454,nm,0.0
37.98569464683533,4.77143349131371,-17.258292913715326,61.616997701982505,0.20610015676627513,-0.350385450447476,-0.5929436760890245,-0.3106300712214839,-0.0748047397178397,0.1648759134852009,nm,0.0
37.98735332489014,4.098450324858168,-15.899076471779201,62.79107175965327,0.04875790681460773,-0.550678650464817,0.13954046033694179,-0.2872624181381755,0.01536422160091196,0.18894866931184487,nm,0.0
37.995262145996094,2.9984966064198186,-14.407791711614067,63.761861793724194,0.5003910243772935,-0.6934241446658789,0.17152691582907273,-0.34859594361176865,-0.05280903478388341,0.1331763961397862,nm,0.0
