timestamp,roll,pitch,yaw,acc_x,acc_y,acc_z,gyro_x,gyro_y,gyro_z,markers,motor_input
102.5017454624176,-38.30632854749559,-15.496780643235121,173.53266667259433,-0.09914868176074657,0.19629525219039062,-0.029721655366603015,-0.3304859630747634,-0.3792359228613099,0.044781477413507104,nm,0.0
102.51185536384583,-37.05785344620814,-13.183275999254118,173.6342840221521,0.11737843965698642,0.10253545466008317,-0.005004246875445187,-0.2969924479915501,-0.42098179323801205,0.05145736320020684,nm,0.0
102.51932048797607,-36.028524202028635,-10.687032615344897,173.76165645055087,0.3623308938583162,-0.04545272206776948,0.010989150389013347,-0.2601428348187575,-0.4622088630167589,0.04246433079572493,nm,0.0
102.54487919807434,-34.67796452404429,-5.524238515798279,173.9652797275129,0.8016742314025224,-0.42531424160704046,0.14444459271994928,-0.1705862310637261,-0.48608728791988226,-0.007728272059064987,nm,0.0
102.55084252357483,-34.25122855761451,-3.092436972405399,173.94751456632568,0.964399682116333,-0.5855587577954644,0.24989817475323733,-0.14133922412471098,-0.4625359623950464,-0.02442010632460308,nm,0.0
102.5715651512146,-33.340676082561814,0.913674740570757,173.91253972193638,1.3325955767260116,-0.7547516947252287,0.347098542849311,-0.14397836267049618,-0.3387980029035342,-0.0016690286412711234,nm,0.0
102.57599472999573,-32.78076947197732,2.273499840330371,173.98244491924027,1.396158476574717,-0.8239367862189524,0.45348004463640024,-0.14620855904459848,-0.2460321547382093,0.0035606339715990335,nm,0.0
102.59958076477051,-31.772808435961416,3.3295208953434288,173.4396556810863,0.9664576367128768,-0.7952335660470157,0.7348097863051511,-0.10211238092708484,-0.017937701751392515,-0.07164170853461957,nm,0.0
102.62204027175903,-31.74174934379841,1.318896562813879,172.0904524630114,0.15048736520923275,-0.43312271152724996,0.6649865237414941,0.06410893006589484,0.2884648665774599,-0.12511971162870683,nm,0.0
102.6276445388794,-32.194627241039036,-0.762724087670331,171.429618343741,-0.025799698545671223,-0.22228663552531233,0.5719654199327686,0.1444310025312588,0.4126010852597257,-0.10615748429333263,nm,0.0
102.64739632606506,-33.87973955285948,-6.258042012755301,170.91677450065558,0.10407185290229341,0.006616279077959358,0.38189738102138887,0.278826943990808,0.554392680769688,0.022302524427384812,nm,0.0
102.66844439506531,-36.60253442144388,-11.915636864140652,171.61026402813872,0.4059968013879972,0.05055686134004966,-0.0002662556758526776,0.3689142732297469,0.5122991887469014,0.09057951586419379,nm,0.0
102.67285013198853,-38.2846833083777,-14.46083619165821,172.0970269138173,0.3526170094203638,0.04214615160566916,-0.20663070919498835,0.3930073135900368,0.4700765159472909,0.06694489668947971,nm,0.0
102.6942310333252,-41.8348268324751,-19.05550018048844,172.5783584103618,-0.14321928134433815,0.19502864222397326,-0.4840931557626113,0.3886352578700158,0.41233871187297333,-0.05582823864061947,nm,0.0
102.70183730125427,-43.49488744799514,-21.23029715200407,172.4832633142695,-0.5317434889165596,0.30808667761162056,-0.5108461568810851,0.3625790658280131,0.40315376563443234,-0.10597953200201846,nm,0.0
102.72373008728027,-46.242797567006484,-25.141705191257724,172.0081472432936,-0.977741908195965,0.49334512303679673,-0.4583969742693559,0.27553948370471737,0.3471685670965261,-0.11977563984217943,nm,0.0
102.7287085056305,-47.203329529354974,-26.659208104419914,171.92311124219088,-1.056461072635557,0.48215798852390773,-0.40366311209101724,0.2113020541807173,0.28838245113668864,-0.06932716744456421,nm,0.0
102.75466895103455,-48.21075703061275,-27.975965068112345,172.35059559957804,-0.9980338448697845,0.4296064499292925,-0.40463377965473846,0.06550258303010409,0.06891647657445886,0.036502077160680615,nm,0.0
102.7616400718689,-48.14955067654318,-27.67460249016081,172.70184317624125,-0.9322947848247468,0.36629586119625873,-0.4365380129506423,-0.02132479785840439,-0.04666158726963348,0.08399256674241865,nm,0.0
102.76709651947021,-47.685860656078425,-26.85767136134553,173.01625787224123,-0.8489802255039195,0.30014049191165904,-0.42951130679117827,-0.10516846415787807,-0.1402519922605694,0.11330073406857942,nm,0.0
102.7906265258789,-45.462179693774125,-24.23558969034174,173.40976778801164,-0.6585709871166876,0.22233055799977502,-0.3297813578099259,-0.27506033541774216,-0.24459916043448676,0.1256057196796033,nm,0.0
102.8059446811676,-42.050236429787866,-20.951308129386714,173.50723175636563,-0.3841722964364488,0.19766371062645782,-0.1352006551264534,-0.3745634684069186,-0.29135195860845103,0.10889801553288518,nm,0.0
102.81957960128784,-40.18853768518062,-19.04899355798243,173.48675292060904,-0.18022061731660155,0.1682827677004963,-0.06980141666799111,-0.39524239805006633,-0.32676354332515567,0.0999844189046765,nm,0.0
102.8294370174408,-38.43411080938686,-16.92872028748231,173.61650816925865,0.052294685184304864,0.13008574372811443,-0.02048548746221777,-0.38368311164493724,-0.3725204022938355,0.08988317537429068,nm,0.0
102.84780025482178,-35.62723751562748,-11.979467830397178,173.97420318584253,0.5537074766770057,-0.054520415391202,0.04913263384693455,-0.3059103664080932,-0.4768018507284234,0.0531682370891178,nm,0.0
102.85171675682068,-34.65731452500672,-9.245888749356087,174.14433398118993,0.7908166684910238,-0.22817527049932498,0.13797105546354077,-0.2511021153861734,-0.5123393431934152,0.025468853189224178,nm,0.0
102.87684416770935,-33.423720693831235,-3.8833698845796882,174.43830145360693,1.1878627375799724,-0.6499764794335751,0.38632893166620497,-0.15800645671559685,-0.49758813104013044,-0.014812135335961749,nm,0.0
102.8802387714386,-33.026937959499875,-1.5777024391120633,174.50787290706833,1.3296526991067574,-0.6937689711842725,0.3323310156925796,-0.12879103247800738,-0.4392193950462171,-0.02162671882323314,nm,0.0
102.90546607971191,-32.30222671540275,1.7994867699978265,174.03395448571362,1.1846134945760012,-0.8077390612548881,0.48239649314581085,-0.10438785299738151,-0.2687630713251745,-0.07929241998614715,nm,0.0
102.91470909118652,-31.950079548713177,2.5376001667546406,173.49645173582937,0.8350148940541594,-0.7301352143187401,0.5130337983652363,-0.09210250552460536,-0.1262470461573373,-0.11448712424728824,nm,0.0
102.93126487731934,-31.659177668041956,1.302300816477422,172.02671150796348,0.08952060010078439,-0.372980607955931,0.5112021473459211,0.014116351973796718,0.22832266230431253,-0.13042970115533903,nm,0.0
102.94005966186523,-31.761210274989306,-0.5904752703655385,171.32721731954643,-0.030286781641438457,-0.2359125997581343,0.5465772765284146,0.07025498515283086,0.3851916904292153,-0.09926461908354905,nm,0.0
102.96222281455994,-32.70455768510893,-5.9132758777089025,170.7068363805813,0.2003121552215604,-0.011586202381023154,0.4860416876344095,0.20667150493758119,0.5518392933075383,0.009579750119793432,nm,0.0
102.96658730506897,-33.60862172125927,-8.793626541190603,170.85187053465785,0.39331645459703346,-0.008975157995718864,0.386104562035285,0.26578447348910195,0.5531674942879591,0.055810370703412646,nm,0.0
102.98861384391785,-36.49182207520967,-13.958274522180472,171.7504379572258,0.43660938446198777,0.05610851049716973,-0.015318749368325542,0.3774041658209871,0.4501017291154842,0.068036609719514,nm,0.0
102.99870705604553,-38.30239056822994,-16.110689680389104,172.31091168566755,0.22838449424228477,0.05915334718338808,-0.18061254999058288,0.4022533476471302,0.390654609574558,0.043523862763354716,nm,0.0
103.0142593383789,-42.036585399819266,-19.794208490254643,173.27805154469283,-0.45306189339515857,0.21004692860413152,-0.4286684614474187,0.3815526408092448,0.3199598883198573,-0.014709960058870259,nm,0.0
103.02658462524414,-43.664422477345326,-21.444076684324344,173.59164939788064,-0.6925298799745557,0.25314491648982756,-0.47021445017401803,0.33705885576187933,0.3052351590159118,-0.026593407924266267,nm,0.0
103.05111503601074,-46.03368871669887,-24.566335670832355,174.31643278116772,-0.9141078581848509,0.33543382238377056,-0.42337057230775677,0.20673662230207368,0.2913946666979426,0.024457736243838287,nm,0.0
103.05505633354187,-46.57385019887964,-25.702743587239834,174.60714823729555,-0.8018749126012322,0.3045475891132567,-0.4312145236582405,0.11606246538106452,0.22880141640592447,0.03564571819869496,nm,0.0
103.07331228256226,-46.53972842514289,-26.69551395035211,175.00618966851064,-0.5502954879346471,0.2782244007186725,-0.35864569245326317,-0.03582441045641034,0.0662788004489129,0.061980945565928404,nm,0.0
103.08437061309814,-46.04637085834244,-26.3775061788086,175.0438798527596,-0.44452533796908805,0.2910776011809574,-0.31876569884782857,-0.09707695277065778,-0.04400155146445292,0.0417516396108857,nm,0.0
103.09099388122559,-45.2945258455446,-25.550866409598424,174.86260612630642,-0.3813784299737925,0.30296438143384763,-0.26344644271353895,-0.15295698291437756,-0.14115973587164274,0.020379812147219335,nm,0.0
103.11465001106262,-43.32320012007629,-22.890150109424326,174.0823617241912,-0.418906873776922,0.2533800580090567,-0.05340985465391072,-0.22156886659369524,-0.2623543520449092,-0.030787631402425315,nm,0.0
103.11843585968018,-42.21128850453485,-21.238315514454197,173.45250809385934,-0.40207588263495364,0.26297791537401033,-0.005561353905213321,-0.24482245487390486,-0.2943365699004928,-0.06024362585219887,nm,0.0
103.14042830467224,-40.157183151887956,-17.808986681758554,172.05279472578005,-0.28734413719746615,0.23796658554577071,0.0188068239494991,-0.2338321724165175,-0.306835662230829,-0.09878733415810705,nm,0.0
103.150221824646,-39.30217089138364,-15.975189657107574,171.35480778917034,-0.13733199011639163,0.149849081189974,-0.0024691832122512177,-0.21894410236479184,-0.32727940525252597,-0.11808784424938926,nm,0.0
103.16670298576355,-38.10201103216068,-11.915441975512692,169.86590159407152,0.1654107252629928,-0.08684675849275512,-0.08277426357926372,-0.17580361278700707,-0.3850638780201169,-0.13124079023140753,nm,0.0
103.17661452293396,-37.70934417735215,-9.63050077692012,169.2585147517078,0.30852683310484386,-0.24325505610954287,-0.10898973474204575,-0.16280123499447927,-0.423057562521416,-0.12912506062506493,nm,0.0
103.1980550289154,-37.055588669310296,-4.780733686543725,168.36902392008048,0.5617840492602814,-0.6281748359126393,0.07288085490721856,-0.16705823547986823,-0.4508250731356534,-0.08161665445628596,nm,0.0
103.21983885765076,-36.56440687497945,-2.4829648145492254,168.20995109760074,0.6835205424739496,-0.7192924908852146,0.11737503957111686,-0.19405914356619286,-0.4173090059276296,-0.02798143213328339,nm,0.0
103.22316002845764,-34.96526158339385,1.1778155461668987,168.72943395678556,0.775796250148088,-0.7833683860290364,0.2954423583123997,-0.2433836106322299,-0.2733947515658646,0.05962470394054002,nm,0.0
103.2362961769104,-33.98669836155896,2.2434794315458086,169.0695051836226,0.7295246536922382,-0.6500881113994272,0.3389071421659589,-0.23831168715081735,-0.15826303784229204,0.06411716456000599,nm,0.0
103.24208402633667,-33.01141583988022,2.476984941927311,169.23112554438077,0.5884022258295984,-0.5564695734186981,0.493018573072801,-0.20551173845745807,0.004511736342136948,0.056289204377935484,nm,0.0
103.26438927650452,-31.68277244260133,0.44472464525476463,169.0402220148841,0.41046028266783063,-0.23267339133172074,0.6417360838143075,-0.05558334855634234,0.30470722259675426,0.006427621494587373,nm,0.0
103.271559715271,-31.551172100297926,-1.4832417566250409,168.7477003997211,0.4385169101730448,-0.07530832589506782,0.6331897820205024,0.044571322227904754,0.3972850659695442,-0.003427953004962364,nm,0.0
103.29092621803284,-32.629847592318676,-6.01088648244036,168.55858460117892,0.4803004580679916,0.033149910837934976,0.5235678845839913,0.23919132962623135,0.42993782206905745,0.03607045838705302,nm,0.0
103.2993893623352,-33.89606027683771,-8.154304449962648,168.83594186837473,0.4454228568685785,0.06457039882821912,0.3384701550865593,0.32688315122927314,0.384400615467412,0.061763117371775283,nm,0.0
103.32471680641174,-37.40511746543896,-11.903673819086299,169.88678083270227,0.12414811857207447,-0.005525745379022912,-0.04783222504994157,0.42472549214328903,0.298742634547333,0.07014545421965322,nm,0.0
103.33352255821228,-39.357630113974174,-13.633865500716794,170.3932901764437,-0.09699266803458542,0.021249942757762475,-0.2610409742884079,0.4308696399466797,0.2885460153885813,0.03761569818054661,nm,0.0
103.33662486076355,-41.154255947288185,-15.431220818453214,170.7171544981683,-0.3296122088173326,0.05509748760385535,-0.3969315781927874,0.39861126461695273,0.31027266459989294,-0.004439426633565017,nm,0.0
103.35955905914307,-43.936289935965654,-19.345465841092263,170.65827747314623,-0.6717735705389102,0.21019840946526563,-0.46478039559500317,0.29348176754078215,0.36889836102067736,-0.07127210141499898,nm,0.0
103.3690140247345,-44.83129346058491,-21.265838209285715,170.53969229368045,-0.7250374053876032,0.26230977447275483,-0.42703153197634514,0.22560291405707414,0.36402766971905254,-0.06022765983025606,nm,0.0
103.38787865638733,-45.722892835693344,-23.965644228342647,170.65826713199317,-0.727176997135057,0.3262613714640951,-0.3306422348434368,0.08702918752419704,0.21540816030239388,0.018752154095599848,nm,0.0
103.39956164360046,-45.82207619593207,-24.402464956130192,170.8856780232341,-0.6605027479199552,0.32458187021708146,-0.34332901202148797,0.02900548791916649,0.09555353624608946,0.057819975368249975,nm,0.0
103.41365122795105,-45.4177543249466,-23.656417348098586,171.58019550472008,-0.6060988355090848,0.23097052322984601,-0.29211289708365573,-0.08018407173787542,-0.10089855990418038,0.0996936345295068,nm,0.0
103.42340350151062,-44.84165681170437,-22.720349270352255,171.80357509226047,-0.5723388134383737,0.23989058100776744,-0.29308115720558847,-0.13534155764765018,-0.15801424716096205,0.08538403078287114,nm,0.0
103.44738864898682,-42.86022557251759,-20.552854347472948,171.87393303946786,-0.4877208772427016,0.2054955326512817,-0.14962628831035257,-0.2422814223316183,-0.17861813004920277,0.05646420217233019,nm,0.0
103.4526002407074,-41.5725070459718,-19.344894655437535,171.78864328508888,-0.36742429193743165,0.21070536407192075,-0.09898423748066083,-0.27796015539009955,-0.19289214457266446,0.04093586127087185,nm,0.0
103.47005486488342,-38.996317175964094,-16.445850726505526,171.62329731972613,0.016459050638634704,0.08845683937678962,0.011508006536791748,-0.2841182364463247,-0.26126013200092085,0.04683971091042487,nm,0.0
103.48419547080994,-37.92806471552342,-14.603031192062662,171.69222025355546,0.26146140145001107,-0.01297481183223427,0.03687363727952785,-0.2616701400564301,-0.32265777405138885,0.04860733238501238,nm,0.0
