timestamp,roll,pitch,yaw,acc_x,acc_y,acc_z,gyro_x,gyro_y,gyro_z,markers,motor_input
94.50724482536316,-19.434776198486034,20.97722274754622,159.5667091575913,0.043157502183713954,-0.07814877682786654,0.49514057200021705,0.017675484877074932,-0.04314317469797499,-0.02926625026090971,nm,0.0
94.52856397628784,-20.96255533147273,21.087992755230957,158.8295778146181,-0.09139098979560656,-0.1686598584916667,0.24359801871545617,0.15627309694244992,-0.05149526658317515,-0.023243235551233775,nm,0.0
94.53058505058289,-22.09633903418824,21.021020765167492,158.32875017432698,-0.09579884005501457,-0.29880799918253903,0.15315881939799417,0.20041126410556726,-0.050870696626435896,-0.02172681100142015,nm,0.0
94.55460906028748,-24.430277393868764,20.504260957250317,157.39393951753146,-0.03595350433125696,-0.3891350239034684,-0.03379073327592305,0.20625663191707758,-0.008673662319189599,-0.015619193418736738,nm,0.0
94.5597403049469,-25.284203448217053,20.220917091036164,157.00807364537098,0.08121052626187533,-0.4225177261151008,-0.12347890527601206,0.16811101661547356,0.004357397437246945,-0.020037549908770227,nm,0.0
94.58365893363953,-25.610680612152457,20.00853236453715,156.62206905503655,0.11569806286575172,-0.39896774199414525,-0.06708379110596106,0.04395923708780785,0.04523275407264705,-0.03582235279701255,nm,0.0
94.59224128723145,-25.228726521051893,20.16147524692393,156.52224323962372,0.12465751073976161,-0.29644823360830175,-0.0707798692203424,-0.011271079216262844,0.04322276365861821,-0.04864097723899001,nm,0.0
94.61161923408508,-24.001990564217206,20.201478983938703,156.37090220903883,-0.06985569507412508,-0.07113549123796878,0.01771906922142803,-0.09793317772533887,0.06102065477450515,-0.06161915550194893,nm,0.0
94.62189364433289,-23.3904922263433,20.03245188934183,156.3036881848727,-0.13191972275377975,0.07463816066496579,0.016067144281474023,-0.10935795720307459,0.06267326400644638,-0.05804869690356531,nm,0.0
94.62659883499146,-22.81413710617789,19.754315651241484,156.2597706709696,-0.16347702439274167,0.16283891520279817,0.03156113982101233,-0.11286825297640614,0.07418016722448177,-0.050535174892957974,nm,0.0
94.65123629570007,-21.71421986547537,19.362087667472924,156.3399169201696,-0.12079449216233629,0.25334917568144943,0.07801961899762569,-0.06593053327845722,0.0940501016634442,-0.026163188135119038,nm,0.0
94.65446281433105,-21.37473331635444,19.07856641360396,156.36588894152698,-0.03612181197033735,0.22536749019470093,0.10925422077379116,-0.03730809810027151,0.09184253919096905,-0.020126651906939488,nm,0.0
94.67829418182373,-21.273497698581764,18.47729593960536,156.31882722380678,0.08340218570451453,0.15862404760260135,0.13528708572284728,0.028359842733227825,0.06320214498298309,-0.008902712435006893,nm,0.0
94.68363404273987,-21.449851860533656,18.295456245286285,156.24829215151672,0.0927581869194121,0.10715181031372367,0.11027846596488139,0.04403291271055512,0.03396947166232281,-0.005819651793270181,nm,0.0
94.69271063804626,-21.84063994712762,18.243807546034212,156.15082392364215,0.06571500154435737,0.07837189769374825,0.05082913509126471,0.05432150352506269,0.0074813344661809,0.0022976629026503965,nm,0.0
94.71924376487732,-22.474419376609227,18.17890498962025,156.1547298781142,-0.06210445157034908,0.04437400368803519,-0.06392711904309796,0.0,0.0,0.0,nm,0.0
94.72090363502502,-22.664607702634203,18.238368461430742,156.2521972411133,-0.09502409135624014,0.014679352633033216,-0.1280464547117914,0.0,0.0,0.0,nm,0.0
94.74603462219238,-22.697125637332658,18.163781857458982,156.52322290371768,-0.08038680165347234,-0.036729866782756,-0.1280510556744273,0.0,0.0,0.0,nm,0.0
94.74965333938599,-22.48501156806382,18.026524150448452,156.6386278351478,-0.0251561097685247,-0.05558307217894426,-0.08460585599493456,-0.014100653442109035,0.04931565218205858,0.007302395449056485,nm,0.0
94.760586977005,-22.235979118313825,17.913403377869688,156.69075746613035,0.020665479113057373,-0.06223767233187704,-0.006949202472734176,-0.023136707922549505,0.060749020714869824,-0.007610631363401262,nm,0.0
94.76866221427917,-21.980787140041986,17.84745450222784,156.6912622148185,0.07204899989527462,-0.03104222803828221,0.025259797585795413,-0.03201269482097147,0.05937778545190542,-0.018296886199344976,nm,0.0
94.79386591911316,-21.52713983021583,17.972495928253775,156.68459942882896,0.0721863309420151,0.013824860810513446,0.09107163454688588,-0.049895170696361055,0.026214165856280638,-0.01372545159383413,nm,0.0
94.816903591156,-21.17426726161386,18.318331268145098,156.90595003011097,-0.00314884705764184,0.04784847456319058,0.06543766586707714,-0.05558476934286582,-0.010317169375215408,0.01589150424826093,nm,0.0
94.81912922859192,-21.024078692921464,18.495088502432605,157.10281792077814,-0.03890272049952192,0.04379924389427498,0.043290727828359424,-0.05087401795281779,-0.01565574263214065,0.02697738056191437,nm,0.0
94.83047676086426,-20.882105064840616,18.611519243263583,157.3124495625301,-0.0627230388054311,0.008670106945676275,0.024173915227873894,-0.04054097236830208,-0.009592018642853592,0.02995099428046205,nm,0.0
94.84976887702942,-20.634441841216244,18.635334214679975,157.58783315659247,-0.022728900581359422,-0.0117164236247825,0.04906234287691649,0.0,0.0,0.0,nm,0.0
94.85555076599121,-20.535400715640787,18.55323967223602,157.62174624563383,-0.003110439238636163,-0.022196189368964652,0.0630016393475538,0.0,0.0,0.0,nm,0.0
94.87854623794556,-20.371326252899085,18.369307994401268,157.58481252979973,0.03438464731194037,-0.039342844316847,0.0815369820006087,0.0,0.0,0.0,nm,0.0
94.88320255279541,-20.306096058317912,18.31288949567917,157.59371242596282,0.04470686706897276,-0.008413705729520523,0.0814113461810876,0.0,0.0,0.0,nm,0.0
94.89254856109619,-20.232653160675326,18.28451901255778,157.6566488820973,0.03701894908301502,0.0036291045683222328,0.07480261759803813,0.0,0.0,0.0,nm,0.0
94.91691207885742,-20.102625048824855,18.277475132549963,157.8891053401654,0.020596186983353495,0.01697079231322286,0.046784763306056916,0.0,0.0,0.0,nm,0.0
94.92561221122742,-20.06225557176023,18.253981724815702,157.99676936581517,-0.002974265812886566,0.022019933620674587,0.0333737744341129,0.0,0.0,0.0,nm,0.0
94.94584584236145,-20.085705313907994,18.135179164455536,158.07062670068214,0.0065871654686526174,0.02385585716057366,0.008544982299336435,0.0,0.0,0.0,nm,0.0
94.94951510429382,-20.14221620238701,18.054991854089884,158.04728914330437,0.022695886145873975,0.009612338038467666,0.043798621637777604,0.0,0.0,0.0,nm,0.0
94.985347032547,-20.209862443653297,17.98686084378613,158.0192945388149,0.027786150493468692,0.009436733084256306,0.045528125726218734,0.0,0.0,0.0,nm,0.0
94.98720717430115,-20.267939467397653,17.945543637988177,158.01438106646074,0.027031574239619938,0.007865807597594183,0.04660559972958908,0.0,0.0,0.0,nm,0.0
95.00137186050415,-20.32993571715067,17.943843221128134,158.1116011129397,0.02481744144308953,-0.009970710946029459,0.008661159836406404,0.0,0.0,0.0,nm,0.0
95.01006937026978,-20.340797922281755,17.964628234184786,158.1789150734613,0.02409047069512399,-0.009645785925121254,0.008413892205654173,0.0,0.0,0.0,nm,0.0
95.01164150238037,-20.357644949750135,17.979577000652487,158.21578689748043,0.024952910570917388,-0.009972477793354815,0.008720615398149547,0.0,0.0,0.0,nm,0.0
95.03490996360779,-20.459011518588845,17.92660785200342,158.117169377271,0.0,0.0,0.0,0.0,0.0,0.0,nm,0.0
95.03662443161011,-20.548889517450558,17.862966746207498,157.99035168267235,-0.00450851760848749,0.01722214377383609,0.0329968910113864,0.0,0.0,0.0,nm,0.0
95.0441460609436,-20.65484132010168,17.78307918968358,157.85129112054668,-0.004963431227670295,0.02149521394670117,0.03959953632544026,0.0,0.0,0.0,nm,0.0
95.07047510147095,-20.860299958587017,17.62913679083386,157.66861395416944,-0.03625543061569609,0.02751113828706943,0.029384488643837074,0.0,0.0,0.0,nm,0.0
95.07444286346436,-20.93733138329823,17.57509802453264,157.65204367399792,-0.04301923599561861,0.005051272953000661,0.018825705136483257,0.0,0.0,0.0,nm,0.0
95.08364272117615,-20.988682690776894,17.531661480685145,157.67200887387023,-0.03767002808294708,0.0036236534687834367,0.01851517012344435,0.0,0.0,0.0,nm,0.0
95.10773158073425,-21.039121977497896,17.43986828382295,157.70775547575184,0.0,0.0,0.0,0.0,0.0,0.0,nm,0.0
95.1397213935852,-21.07946366102497,17.301014188358216,157.63242332438315,0.0,0.0,0.0,0.0,0.0,0.0,nm,0.0
95.14336967468262,-21.121159105262088,17.19158193008388,157.5252577895502,0.0,0.0,0.0,0.0,0.0,0.0,nm,0.0
95.15934491157532,-21.114862745755694,17.217329684390684,157.51613850093617,0.0,0.0,0.0,0.0,0.0,0.0,nm,0.0
95.17313623428345,-21.094576844427362,17.2682838777412,157.5421479464711,-0.009862117188506641,-0.005685506529094329,0.022332684681044285,0.0,0.0,0.0,nm,0.0
95.19342613220215,-21.04765077277552,17.35347684406383,157.5689623989659,-0.01118768749493943,-0.006404746682337176,0.02527238319950849,0.0,0.0,0.0,nm,0.0
95.19627404212952,-21.031744780821178,17.348346308867118,157.55223204202935,-0.011426712557251506,-0.00653317561829541,0.025820998491473804,0.0,0.0,0.0,nm,0.0
95.22204494476318,-20.996661553123033,17.23775089342933,157.49862860773055,-0.04560153190253449,0.008222553122965702,0.012838088824904873,0.0,0.0,0.0,nm,0.0
95.22514533996582,-20.960652582303556,17.156076458025225,157.49418706838156,-0.043086513530086176,0.0076263939641412455,0.012619671272192802,0.0,0.0,0.0,nm,0.0
95.25005149841309,-20.836875119610013,17.019244947275062,157.5548782170348,0.0,0.0,0.0,0.0,0.0,0.0,nm,0.0
95.2563591003418,-20.758166744577007,16.9819714383848,157.59904914420392,0.0,0.0,0.0,0.0,0.0,0.0,nm,0.0
95.27807474136353,-20.61499120834543,16.98474520640372,157.63251653288637,0.031209540662152483,0.00673444045916755,0.043087053361690573,0.0,0.0,0.0,nm,0.0
95.2838351726532,-20.56814542374123,17.0309728859624,157.6082246943011,0.05294103023660643,0.0022244361265268664,0.06332069550723982,0.0,0.0,0.0,nm,0.0
95.30680513381958,-20.562609857751436,17.08443107642425,157.50056890436375,0.11118153406072269,-0.04693602812371554,0.13959952618594867,0.0,0.0,0.0,nm,0.0
95.31067633628845,-20.64615022678157,17.028700678679147,157.41447886560616,0.15415126138000934,-0.1153782733902073,0.1885247289369013,0.0,0.0,0.0,nm,0.0
95.32518410682678,-20.82051769660055,16.887169875820813,157.29252871272556,0.20545002452068079,-0.15992077324094045,0.26374666609106445,0.04015576595511353,0.027384972006517745,-0.01702652237699206,nm,0.0
95.32903528213501,-21.125196508326503,16.620246413756266,157.11639972378785,0.23512362386279978,-0.23751232706769915,0.3405679291908352,0.07300072377363864,0.040749742640223234,-0.020376349351298565,nm,0.0
95.34851932525635,-22.155587922723164,15.585370694610313,156.59809497154168,0.23266945489856125,-0.3359746894053053,0.42504063521682217,0.14912440460360532,0.08226357698185217,-0.026891175262506287,nm,0.0
95.36041688919067,-22.838347911449016,14.775813139764907,156.31476427472975,0.20390280544147849,-0.33036215410560504,0.40351477098278693,0.18418852470590533,0.11011732629302166,-0.023045694355840304,nm,0.0
95.38249254226685,-24.32862828666656,12.607791651645057,155.8955701938457,0.10226238475121932,-0.28975519982654224,0.2791237732895412,0.23071099747825435,0.16673240122247676,-0.0016955821219300708,nm,0.0
95.38861656188965,-25.1270958580185,11.287841484319134,155.79801111118545,0.07764452621908816,-0.2534168239748064,0.20759370862223664,0.249286315101321,0.19147252512441815,0.012358653093246566,nm,0.0
95.39639568328857,-25.91999836187318,9.823955317238674,155.77992629692363,0.06439521032788142,-0.216902558922709,0.12607801651346756,0.26092797753652663,0.21766323714429256,0.02461017369411688,nm,0.0
95.40585494041443,-26.711279252127866,8.264324915443936,155.81153997878187,0.061384063198202714,-0.1807894531055561,0.07179102169855031,0.26907097421387705,0.23503105208045394,0.03074895815820987,nm,0.0
95.41587138175964,-27.50130789703277,6.662966149425123,155.85943461179417,0.07325860621089234,-0.14622524901541184,0.014402746204343796,0.2726407816776918,0.2426888809422977,0.03002723165672473,nm,0.0
95.42921423912048,-28.297926224115884,5.045846353026306,155.90800337955974,0.06267677490876511,-0.09663177132628319,-0.02531593176756417,0.27537559550274243,0.24504672720968723,0.026265250845982715,nm,0.0
95.45030570030212,-29.88183955468616,1.9249024413474394,156.74256096940795,-0.04336861447011714,0.055671468850456256,-0.14114964342417174,0.26435367351803885,0.23302577239845465,0.013206317789498037,nm,0.0
95.4541347026825,-30.65204606745237,0.44677071590410194,157.1095491384615,-0.10373994446344775,0.1675575314242863,-0.19364172260449658,0.2552009121981265,0.22684781828259334,0.011761477410463503,nm,0.0
95.49098014831543,-31.369411960446964,-0.9901391061366924,157.55709161158794,-0.18614540210398292,0.22484389336275026,-0.2198797056285731,0.24060585448195695,0.2251385387053752,0.014483285490450973,nm,0.0
95.49453163146973,-33.10505702768913,-4.860447020751156,159.10216197628554,-0.28486235896631257,0.3293883741687433,-0.28463007768611387,0.1755427628024618,0.20395071311968638,0.01950180096676232,nm,0.0
