timestamp,roll,pitch,yaw,acc_x,acc_y,acc_z,gyro_x,gyro_y,gyro_z,markers,motor_input
9.509089231491089,15.27804952762119,-29.46523282712001,83.35733182550565,-1.1637737150324798,0.2326403900709321,-0.5621611612087338,-0.214711621297281,-0.5145198556247439,-0.2326412919123806,nm,0.0
9.524264812469482,8.812760542325677,-26.654278246035755,85.98938345904622,-1.1237457442188967,0.3724582485365647,-0.6846213667735072,-0.3519425262261991,-0.5329185945149227,-0.015074087802675934,nm,0.0
9.534579753875732,6.06500411228486,-24.843437274993242,87.56152735923551,-0.9640073053118836,0.32513731054947526,-0.6130384781617243,-0.37868787264205295,-0.46552347158380536,0.07313344895745245,nm,0.0
9.555734157562256,2.427621600190942,-20.630167158846895,90.23695178190249,-0.31674835594084116,-0.10891975700373399,-0.5778152314916023,-0.43017800324962036,-0.2576095968911038,0.1561899867743561,nm,0.0
9.562078952789307,1.779955167927162,-18.337580367486467,91.04842994817832,0.08039313978847583,-0.47987969611781556,-0.2964490675266266,-0.44694905839382904,-0.11733543128962683,0.17343902314181342,nm,0.0
9.583229780197144,3.24569579705792,-13.16689782543431,91.9397239863185,0.7057971858861861,-1.3334364675293675,1.2745780240309634,-0.5346534353186982,0.22303044345104175,0.20218019670901333,nm,0.0
9.590423822402954,4.233804808708623,-10.571812820600357,91.89642475344466,1.4536745149449313,-1.2408017882531002,1.3898263689479353,-0.5143621639070816,0.1871682935132331,0.1286599063089891,nm,0.0
9.612322330474854,7.505964595835643,-7.088828632921274,91.36649842090684,1.554893278310342,-0.47241276037307367,2.1408363006295867,-0.27564489605984693,0.3232117295022629,0.0068244779349913316,nm,0.0
9.61873483657837,8.295405675634543,-6.698666117141731,90.7258111618312,1.628290143058707,0.035235434716960064,1.2915579332820886,-0.07035045555328891,0.16385705090652752,-0.08111553362884642,nm,0.0
9.638498544692993,10.392063514728902,-9.593214429104211,89.41632459329055,0.9364809096632395,0.019455871283303575,1.4125634899782438,0.4090474592641906,0.21554735291021493,-0.05914016406159343,nm,0.0
9.661200761795044,12.615389187054216,-14.503681325001168,89.31871304894074,0.3258919027466112,-0.4529118440289867,0.47258432496921804,0.5078498444103352,0.2662119489825445,0.08448689634723666,nm,0.0
9.665414810180664,14.140066035126281,-16.738958047698574,89.43045483328777,0.05845401673832189,-0.6395711725259345,0.07646503328166407,0.4605923593993146,0.29832901655867006,0.09940895012934113,nm,0.0
9.685322999954224,18.388656072409777,-20.36599728723057,88.08146869787593,-0.19652521536338663,-0.29750779925529786,-0.21782788382167043,0.34857285911527247,0.4715753134882166,0.006692317115833334,nm,0.0
9.6966552734375,20.808941853807113,-21.58575977415755,86.68956250744894,-0.23549129283579529,-0.04100340451416858,-0.32037406754675385,0.27453288177109436,0.45012963890943547,-0.08148881310766341,nm,0.0
9.704203367233276,23.034831347682196,-22.663926456395952,85.13252217658696,-0.19007665149338776,0.3399134927156577,-0.5687694986404686,0.2542275536646017,0.40590437141531654,-0.1402511493928721,nm,0.0
9.726107120513916,26.689418412047665,-24.701709001075976,82.73289278472828,-0.2714102816387385,0.5093494643903539,-0.5139461812085464,0.23869667715949586,0.2623002524427429,-0.075601671638807,nm,0.0
9.732836723327637,27.679741430084178,-25.725196995914438,82.31442098804752,-0.4055736827004441,0.47822443982125046,-0.6794036959826165,0.23553524538760615,0.16111878626285014,-0.019234961638440424,nm,0.0
9.742608308792114,28.268054053728836,-26.74050979650843,82.3051078692096,-0.5744331807816367,0.3393194504033762,-0.6021634341150529,0.2245353642486893,0.08766787244575379,0.018395501346687552,nm,0.0
9.751249074935913,28.354257523263833,-27.487311523788577,82.43843332592255,-0.7348876420570772,0.27641171783631047,-0.6805691921697816,0.1592434214374102,0.005545200074095575,0.004869799183485122,nm,0.0
9.777515411376953,27.864460346157905,-27.811987481799097,82.2214376082897,-0.9573379162936171,0.30090521849230684,-0.6810864621985602,-0.0029673853751443916,-0.04391510039503591,-0.11407204586348835,nm,0.0
9.779889822006226,27.322815032161884,-27.419220797833987,81.76100349087861,-0.9540730616936729,0.4186075810573601,-0.6173930359172888,-0.08185287472276706,-0.0745639884963247,-0.18724524669989775,nm,0.0
9.799975633621216,25.304513820983303,-25.98413100838053,81.01604965887518,-0.8840360830805323,0.6031459792380535,-0.5485176751124282,-0.17353556296107325,-0.17865818428687422,-0.20177931749508254,nm,0.0
9.808696031570435,23.66758223071739,-25.235899053475514,81.3023495310868,-0.8236229712717159,0.5965702566683705,-0.5218853365447272,-0.18298326971178697,-0.2602386393638829,-0.14049382419655976,nm,0.0
9.821085691452026,21.651383112759405,-24.451484190032087,82.18993348742927,-0.7915594347037993,0.492779712405203,-0.5344423807695887,-0.19733142184037292,-0.33127307783000004,-0.0419502827867807,nm,0.0
9.840084791183472,16.985809928283718,-22.467597960416477,85.29286450141605,-0.6478085584865801,0.0734176523166269,-0.5689629520101519,-0.24798297127423624,-0.4077914742112698,0.112279513546707,nm,0.0
9.8539719581604,14.759811676479762,-21.108650423708813,86.9510295915094,-0.45188934442610956,-0.17167763979475464,-0.5059230067198103,-0.2887065398277148,-0.3857694200132322,0.12981370932519504,nm,0.0
9.857674360275269,12.870622287355912,-19.452967461316806,88.27245919704073,-0.17532155992864948,-0.3877568736193404,-0.30756748241734216,-0.3354061356439917,-0.3319278016835042,0.1038702444401209,nm,0.0
9.866147756576538,11.40396640097251,-17.53990710657233,89.14071135060284,0.21081963969213552,-0.5390959120181251,-0.07539142298561877,-0.3786928232166121,-0.26111490678979415,0.052686738477641534,nm,0.0
9.875238418579102,10.651566798114732,-15.470386438013671,89.4635272666494,0.6572101590501144,-0.6117217454833976,0.14593179265283127,-0.40583278538919726,-0.1304027412370503,0.020855065137722718,nm,0.0
9.885155200958252,10.62550851938359,-13.391469526371097,89.36109285061252,0.8546048323454569,-0.8639657082450671,1.2885670604168327,-0.40598011766056163,0.008452390331905039,0.0013472323987167303,nm,0.0
9.908452987670898,10.013003490851059,-9.829956952118623,88.43634088275869,1.5455079858528749,-0.41259151454751564,1.64566418685366,-0.31349504202729717,-0.02614656288923876,-0.0736982989457298,nm,0.0
9.914113759994507,9.70386902657815,-8.972778067681965,87.98398417654258,1.4331190342911304,-0.42544017412598073,1.5908333783764559,-0.16287909871200892,-0.047526749294161064,-0.08916427556878934,nm,0.0
9.93873906135559,9.183452685960397,-10.281221816210715,86.97730081322618,0.953185826796118,-0.3211086564390528,1.4906860592247515,0.2078818524240506,-0.022312480183695443,-0.08614573903587806,nm,0.0
9.942831993103027,9.288759304596228,-11.632734233402937,86.6228818238136,0.6104645594901368,-0.43975287752138303,1.0060515992272192,0.2822240285559149,0.013394557394483654,-0.057829467561543654,nm,0.0
9.967132806777954,11.133880725637455,-15.12420942084186,85.83742430499741,0.12541976808645786,-0.3629967883825781,0.36655637417138937,0.38480453567130685,0.2124732350897975,-0.006054620134690933,nm,0.0
9.975502014160156,12.81807943484359,-16.821398004264747,85.23458968107484,0.07224062140221624,-0.1971301435316317,-0.2015008149578204,0.3751114901032338,0.30464874553539245,-4.6772152443207314e-05,nm,0.0
9.995109796524048,18.033568286362772,-20.227164817106807,83.17968566707138,-0.23106662010002058,-0.09465541102964407,0.030963035417066746,0.3997407967059104,0.4618899169481478,-0.01015111584745706,nm,0.0
10.00066351890564,20.575828601676314,-21.723818704836926,82.02935088572211,-0.19744326387058603,0.056309970058368894,-0.3013493542542267,0.369304582117848,0.4408858779270482,-0.009908733196032011,nm,0.0
10.018893480300903,25.469639373278778,-24.523603785404905,80.3193357043222,-0.34751781437351126,0.048615093055288966,-0.3586022607594633,0.3494852761174019,0.36517443345357975,0.062447816855701464,nm,0.0
10.028682231903076,27.29003942946315,-25.717234084367316,80.00777591020116,-0.43692640478118605,0.1434775222987888,-0.5709288781831313,0.30167269603271885,0.29342342374921293,0.10927912740204009,nm,0.0
10.037903308868408,28.806376068453574,-26.649916821380288,80.04929423139023,-0.6131808244419727,0.16276430188821783,-0.5682056310316885,0.24056134978659352,0.24545351700518278,0.1512846779177056,nm,0.0
10.061617612838745,30.538155398142067,-27.720184294855546,80.06400412649852,-0.7546033557358625,0.4920597161728119,-0.6745961434799073,0.10792172175049365,0.12434768045064104,0.1009527918010391,nm,0.0
10.065701484680176,30.95464498986378,-27.75141496389671,80.28213552250952,-0.7855701004206891,0.5362875700296008,-0.5427343276562002,0.02762672466949238,0.08159829652790532,0.05373260488639483,nm,0.0
10.087984085083008,30.54109199686739,-27.1748803900018,80.45872224724573,-0.7643868873729392,0.6811314868245905,-0.5892684014468004,-0.07282657979783382,-0.044639357489341516,-0.06606042639040562,nm,0.0
10.094458818435669,29.693566595230397,-26.68973200111968,80.69842513187304,-0.7250646548545562,0.5908382294965085,-0.5301156598232671,-0.11121764369477422,-0.1238733030277328,-0.08978102615789976,nm,0.0
10.116148710250854,26.486612091581314,-25.452173703961037,81.97871347918968,-0.6773524442285227,0.36486033793293804,-0.560503170159258,-0.16767989962667978,-0.29588536483411343,-0.06657495211665208,nm,0.0
10.12310242652893,24.269742411191334,-24.649390878495847,82.98263301524418,-0.6493586999729439,0.25153514468294114,-0.5644630736467944,-0.20171564580692167,-0.36855372565637384,-0.03786106887188527,nm,0.0
10.142207860946655,19.257783812725034,-22.424106150703114,85.44271796339453,-0.5375987300018703,0.09291500844221454,-0.5120635226694524,-0.27391727206740596,-0.4393346874664808,-0.005042728414136992,nm,0.0
10.15170693397522,16.702919725270768,-21.011494111727956,86.40525867425362,-0.38972082402733216,0.07499265754548391,-0.4753061609180616,-0.3055615121980964,-0.44495147622831616,-0.01644800953451717,nm,0.0
10.175343990325928,12.102293646888265,-17.825659488007037,87.85693437170988,0.003488361311906224,-0.06334897911876247,-0.2496477581710221,-0.33046071551856554,-0.3950247297778551,-0.05355826022865075,nm,0.0
10.181665658950806,10.121267950909392,-16.25465245373657,88.28853721614621,0.2423968550490512,-0.2142487370786413,0.01470255544397132,-0.3160272375330633,-0.36019766400614656,-0.0679050865690703,nm,0.0
10.204210042953491,7.415258384990541,-13.461145691473696,88.75245681007128,0.45639260813361093,-0.8027009918253782,1.0679924917206962,-0.256088072946905,-0.20253320034642866,-0.023036627088302265,nm,0.0
10.208383321762085,6.138722021661416,-12.491742392164136,89.00513100731223,0.790420220205455,-0.904594146607904,1.061054425302729,-0.1880081494428019,-0.2368745339220681,-0.015096070961993445,nm,0.0
10.232841491699219,5.719027609396437,-11.80804103842494,89.69197906030885,0.706709351681121,-0.7252922481153572,1.1799761937419924,-0.018645360564341355,0.04311198268524782,0.10872973511391529,nm,0.0
10.236818075180054,6.371554325064366,-11.993513271148405,90.05221551573914,0.7795565845464731,-0.45454363669093767,0.9362616964786815,0.04835301698098196,0.13625824748167792,0.13523666438871662,nm,0.0
10.258342504501343,10.645433345657512,-13.812793564621385,90.39338846063022,0.4806029377005801,-0.17336161351710808,0.8457069162571808,0.24168997569817174,0.49465228835008807,0.17902547621507786,nm,0.0
10.264801502227783,13.57885143282981,-15.31662818935741,90.23677725666354,0.5453667566516732,-0.17197920828399513,0.6361576086469037,0.30904325757174544,0.5786425405711192,0.164123286984167,nm,0.0
10.287477731704712,20.356037790556318,-18.74147750334962,89.26993682160912,0.5055865920378407,-0.26843792617591405,0.2315030896928409,0.35843934127591226,0.6483741720304025,0.1195947928740867,nm,0.0
10.298139095306396,23.562110580072776,-20.253456453991134,88.58170020724127,0.4915368636158943,-0.2522164902713994,-0.0557967286779667,0.32331787491228037,0.60889627670931,0.09826270947741716,nm,0.0
10.316658020019531,28.731934117849608,-22.631064076285295,87.29187258765357,0.2620139431532478,-0.04413079469335557,-0.4237234616269633,0.2440309679756532,0.4224752625183813,0.041396100238053055,nm,0.0
10.323549747467041,30.397265781774284,-23.513494955760084,86.76658887406478,0.09753104766400922,0.10075094577204048,-0.5210198000347308,0.2001794605515227,0.30759622227711475,0.019243340050844427,nm,0.0
10.345982313156128,31.65357581365744,-24.76469675551167,86.30461203043009,-0.22955308187285478,0.2100137748453181,-0.343534690733812,0.12086453403168122,0.04297047100784376,-0.055770483753933724,nm,0.0
10.353018283843994,30.989824778795864,-25.141859708250465,86.29509113688682,-0.3636252774733982,0.5768766317419866,-0.8648863864493355,0.07572376822981818,-0.11441978408231031,-0.12023905765326899,nm,0.0
10.374834060668945,29.48153050964905,-25.446296810411166,86.361562918034,-0.7658918101976075,0.36810504093340635,-0.21108632205630914,0.011911459811349692,-0.16946187575876145,-0.14818588146784192,nm,0.0
10.378547191619873,27.77005085865788,-25.345002048823734,86.30285820486198,-0.8876319850672486,0.6337072566805685,-0.655387546631252,-0.03089714113323022,-0.2974035327038277,-0.22169791699810354,nm,0.0
10.399140357971191,24.43835143894908,-24.735646285384885,86.55570977896011,-1.1456133738393053,0.442539339610288,-0.33536809862804007,-0.08385066323270665,-0.31224412375823707,-0.19865660216579362,nm,0.0
10.407896995544434,22.25506344495783,-24.260268221804658,86.85836540419933,-1.1309880081866779,0.527962054847341,-0.5969310454422025,-0.10757827115085687,-0.38208028044081904,-0.1926236148326177,nm,0.0
10.432217359542847,18.010909434310452,-22.930055757906175,88.32140324405663,-1.1384053990875722,0.3020076170955861,-0.4662217018008456,-0.1526672455151429,-0.3896133816903466,-0.06736001266722084,nm,0.0
10.437371492385864,15.697538215938062,-22.030783506659372,89.28276443298778,-0.9691435835058865,0.2939195665908914,-0.6963154951103256,-0.17873299103607304,-0.41467160358383776,-0.01829212301732832,nm,0.0
10.467305183410645,11.60903284227197,-19.697348489457102,91.27279286254321,-0.5968555221034386,0.02951972700515728,-0.6265501607240221,-0.23878127288778409,-0.3773151204370496,0.06885070853187084,nm,0.0
10.475951910018921,8.299638955771613,-16.586306922518343,93.0468298040837,-0.03008023201764757,-0.2980855720730896,-0.4163598329908055,-0.30653065151382863,-0.283239327197313,0.10239206205985418,nm,0.0
10.489654541015625,7.146145413349336,-14.749299631419838,93.78721701947835,0.36481184474616457,-0.4456974331803028,-0.37798916275690114,-0.34407618872964524,-0.23416473770001264,0.09942794394594891,nm,0.0
10.49347448348999,6.645718512089912,-12.76555826431323,94.46263720334339,0.5919606109342087,-0.8480877868126686,0.5378132087345596,-0.3791989008265587,-0.11622400902350602,0.106857954281179,nm,0.0
