timestamp,roll,pitch,yaw,acc_x,acc_y,acc_z,gyro_x,gyro_y,gyro_z,markers,motor_input
6.502567529678345,20.553576614855068,-11.78790549492403,97.56646528801161,1.4275870405283217,0.01180674061838518,1.5024047219026404,0.14763024256733528,0.2598858512426949,-0.14024444828806343,nm,0.0
6.524430274963379,21.640579618226727,-13.973199677337055,96.11538657383505,0.4948973979877452,0.07361493838465771,0.12214498743973273,0.2449574343282509,0.1271320650378248,-0.08532575875606019,nm,0.0
6.5278160572052,22.02720380026686,-15.444122091933089,95.74618115899422,0.29621350010414493,-0.16654817390579116,0.5802817217721293,0.29293268536768385,0.11499880096758971,-0.04133388865834593,nm,0.0
6.551753520965576,22.60539302876618,-17.99878263398132,95.27596792537024,-0.30814240609245863,-0.26652320002131635,-0.2885880308656192,0.2391317715897881,0.15979720745003984,-0.0025455064361357234,nm,0.0
6.557936906814575,23.384667857918103,-19.107382322528046,94.64010314183511,-0.5778225829487128,-0.34825840536778313,-0.08232095196160504,0.21609601667680645,0.17699519058724042,-0.062351929163473284,nm,0.0
6.580406665802002,25.044824557983933,-20.415365942936308,92.12898334384384,-0.7726690216520463,0.003761663761466266,-0.5116079440543384,0.1010077833261281,0.2297666750454786,-0.14045510299009203,nm,0.0
6.585745811462402,26.248337941955477,-20.851909251245797,90.87991702503362,-0.8278954168598365,0.14995939324185845,-0.42702797622647354,0.08946984660587616,0.2380930234049046,-0.14941256568055394,nm,0.0
6.608659029006958,28.43814109116923,-21.532407557676574,88.98100940178506,-0.8310807687845642,0.4555486901244824,-0.47959054786191874,0.07107810636041845,0.22508944410963305,-0.04796467628453634,nm,0.0
6.613772630691528,29.33227756580633,-21.869054018399005,88.5318124269386,-0.8716222665034399,0.5322222698042034,-0.5249380603703274,0.0788496291289134,0.17515914744515354,-0.00849962569894036,nm,0.0
6.6364240646362305,30.607985182421892,-22.582534435067025,87.99593372299906,-0.8941338940449626,0.5542430585883695,-0.4979348340703859,0.07521776003792414,0.11936376863995529,0.010080285955263092,nm,0.0
6.642437696456909,30.91676773998625,-22.75231060049645,87.72328899910664,-0.9044633418502765,0.5093997795448241,-0.5419964609510037,0.04367920762551927,0.06619778506491304,-0.03336370152998547,nm,0.0
6.666157245635986,30.570778442906708,-22.64823562984528,86.86450408015061,-0.8143721849938157,0.43043350376455425,-0.5401219805942238,-0.023167348263044778,-0.05306945868863435,-0.13326256773467968,nm,0.0
6.670798063278198,29.70124332873206,-22.349172596429703,86.4892707711761,-0.7594908058701441,0.351256976204347,-0.5769829932518116,-0.06110632540565348,-0.1469370479273986,-0.14817824263438462,nm,0.0
6.694850921630859,26.357299381471336,-21.568116845925026,86.87106515237363,-0.6290909408705724,0.1542424938099127,-0.469156838321994,-0.09639255971674013,-0.34483180754598275,-0.07678638196227995,nm,0.0
6.699818849563599,23.868634430636956,-20.990883745950846,87.854687867057,-0.5841089172606923,0.07365694447554771,-0.4292560621542055,-0.12768548344505162,-0.44874811303525153,-0.010429168725004184,nm,0.0
6.723763942718506,18.07967229449183,-19.217525748754696,91.15505282751627,-0.4484901934052543,-0.04096033316502195,-0.28361859119016575,-0.18664975364490816,-0.5465119278163433,0.09631293004847322,nm,0.0
6.732428312301636,15.204859177060946,-17.97513153260192,92.87048491238414,-0.2999584044908501,-0.101756283833296,-0.20655216989001868,-0.2191193649113333,-0.5445120774686827,0.10718269274778758,nm,0.0
6.73748779296875,12.67202307410814,-16.56027747878054,94.24190261010112,-0.05210588457321212,-0.24104578585974243,-0.05396277596654966,-0.24296563808753027,-0.4912434685028589,0.09827035064235708,nm,0.0
6.750251770019531,10.677431472028376,-15.101583980699907,95.30631777509718,0.23112289285052684,-0.44305599768240866,0.21571319377421058,-0.24937739469518125,-0.3975348133081341,0.07992037286094408,nm,0.0
6.773682355880737,9.031043346730858,-12.307923517953203,96.46914704453422,0.756598339054159,-0.9966646268301511,0.9455254097671186,-0.25385226876432027,-0.07659565010582166,0.09586393669153886,nm,0.0
6.778956174850464,8.847410764623433,-11.128347983850855,96.69911448079546,1.0142499298309944,-1.093534353588499,0.872456791481492,-0.22127692979831676,-0.05262692308784686,0.08271548802929515,nm,0.0
6.799730539321899,9.876356141592964,-9.642428572767964,97.31666254027824,1.450725709442429,-1.1631098982388557,1.3477705574246717,-0.13041544061081767,0.17351373483476307,0.16513100528081717,nm,0.0
6.803515195846558,10.00150866857795,-9.039970155794082,98.00186412604515,1.4696676986162138,-0.702478786141102,1.220009203339683,-0.11381258673261768,0.01843395696813822,0.1816706945182625,nm,0.0
6.82801365852356,10.099641393482322,-7.166365582705334,100.67326540200548,1.0678367129861557,0.3593643801314427,0.6119616968997179,-0.1798899127255054,0.04118911112710614,0.28883583453389017,nm,0.0
6.8326404094696045,10.33012716878646,-6.991290686086395,101.76864089309548,0.7353754022894561,0.944431271250242,0.6458245073982286,-0.034879948450425885,0.0482904637683681,0.2526320920830079,nm,0.0
6.856553077697754,10.342058994137206,-8.250918606226731,102.7868240117758,0.15561800110100765,0.9295346871933413,0.4452345498145859,0.18270175519590284,0.044221354298299646,0.07151429060568369,nm,0.0
6.861830949783325,9.915343592947623,-10.08281177744591,102.29702932848608,-0.005150757926890446,0.4620842205834167,0.36132733069199635,0.3846234324744675,0.0074724895263476275,-0.09634481995844052,nm,0.0
6.870821475982666,9.20190363940909,-12.442396585958305,101.20514259031985,-0.022076173692684456,-0.029613001902378422,0.35559278017912105,0.49958613574289357,-0.030641317761420258,-0.24063415163371876,nm,0.0
6.894893169403076,7.469984948097498,-16.292250956327777,98.3585786273105,-0.03671956809672962,-0.7845300488313259,-0.7640279154662967,0.3848074850833537,-0.09658094202914798,-0.31989726080891867,nm,0.0
6.903785228729248,7.266159813677643,-17.76807953116038,97.0987566215576,-0.3804890246383776,-0.8571407271101908,-0.3674975741937152,0.30749921177925194,0.01080437621153713,-0.2279058661308917,nm,0.0
6.9228575229644775,6.402981392486087,-18.50911485335333,95.9744446011875,-0.6885382882336368,-0.10623260960560854,-0.857039365262359,0.02798272357738868,-0.0718180245699955,-0.0742344582965888,nm,0.0
6.927128314971924,6.50588951401835,-18.523696860498468,95.77566230692787,-0.9675071318901769,0.2755070752684235,-0.5934447009944969,0.0,0.0,0.0,nm,0.0
6.964830160140991,7.128893953622086,-18.61891090404026,94.88678852575129,-1.0639416761689806,0.8894699163631039,-0.5171014633604684,0.010267558803330492,0.08606933293996091,-0.03620360167961865,nm,0.0
6.9667322635650635,7.89833002002474,-18.868001588291136,94.05390778325824,-1.1157838734610441,0.8878154790467903,-0.41409689425706225,0.048561842025522425,0.1590980489106351,-0.06911984420022324,nm,0.0
6.970076560974121,8.685021489318506,-19.378732217287624,92.81529247017438,-1.0212166776496048,0.8089953406728341,-0.3219710144643232,0.10376032011217937,0.16402697738238736,-0.10998208704192106,nm,0.0
6.989408731460571,10.211760155725841,-20.292461061573288,90.8227875037217,-0.8152660414541654,0.27773824965268534,-0.5304651876469538,0.08511383115631493,0.15023340035255905,-0.05259709272841725,nm,0.0
6.993915796279907,10.605034631443543,-20.467068933053916,90.54217295112912,-0.6874532492532501,0.045899002081542406,-0.6457331409799751,0.04434424784430776,0.0836645495691526,0.007869381598290244,nm,0.0
7.018191814422607,10.341190779448514,-19.575076312291568,91.60796938772472,-0.500941033617464,-0.16347000647707344,-0.6295976003925163,-0.12599260569598644,-0.05267854815964338,0.14649252660974088,nm,0.0
7.022955417633057,9.68454635024773,-18.523314093972697,92.63895131444518,-0.3989363660130696,-0.07720004756208945,-0.5781829639815012,-0.19606389392336984,-0.12214935739664146,0.1787197570934718,nm,0.0
7.046984672546387,7.74658414782959,-15.78615078725848,94.81361863895293,-0.1751266809028933,0.15802985300780828,-0.3453307172049316,-0.263423717983556,-0.2141104852622152,0.16177649159626983,nm,0.0
7.05109977722168,6.6030686852095295,-14.352870982824863,95.7441883880079,0.009139938716021688,0.13389216539622195,-0.23558120824079215,-0.255715473943766,-0.23674269613555943,0.1272258206927004,nm,0.0
7.074954032897949,5.254490353629221,-11.737177039381034,96.96765501225254,0.4609535018271907,-0.5552122966745294,0.5758048783453307,-0.23678137063663138,-0.09344222306991522,0.10645044314205099,nm,0.0
7.079490900039673,4.778500612417205,-10.353271766724987,97.321675986117,1.0145571506061628,-0.9612133143297303,0.8938114867768508,-0.25372068584259305,-0.11732659932625307,0.07226725172024502,nm,0.0
7.106987714767456,5.71088493617656,-7.4494449924171215,97.47391502872608,1.52394898575041,-1.1735424108219623,1.6197028897665908,-0.29504441545941923,0.13816738810602014,0.04913699494287951,nm,0.0
7.122148036956787,6.132821901383692,-6.229392629681678,97.12441362021781,1.6121565914349048,-0.7641759828368936,1.540800861073219,-0.24322438685130932,0.06189472556394506,-0.027425982071511465,nm,0.0
7.123727560043335,6.2428666366303975,-5.386171838066871,96.5557184303542,1.6307667140587838,-0.4145317060131721,1.3992142748260223,-0.1604979241766772,0.011020139382654566,-0.08620877189372841,nm,0.0
7.130435943603516,6.216677908782405,-5.09826876372388,96.0076865374153,1.2911565199749153,-0.21463875265370147,1.0592895550544956,-0.04688865849832441,-0.002485987602788453,-0.11575111499926279,nm,0.0
7.152762174606323,5.169265099823514,-5.741730090220394,94.91371042660937,0.8231856744713024,-0.534513529852118,0.7051065658651674,0.11515601991804444,-0.10151117999727079,-0.09192630866796522,nm,0.0
7.159226655960083,4.660245453351184,-6.499740789808935,94.67266848886742,0.42540848901915046,-0.6833640139906271,0.5250257229460522,0.16991849954254923,-0.07941087279785837,-0.06418485626978125,nm,0.0
7.204871892929077,2.480475380091334,-8.060746776596359,93.5478949640847,-0.24955569676263337,0.26971039366434857,-0.2623090733472147,0.1015549293238249,-0.13851980405870395,-0.10817012470509219,nm,0.0
7.206867218017578,2.4299296960755705,-8.7009250899651,93.02755995663647,-0.6485540327971238,0.5032140076569969,-0.050929162651300916,0.13921656351645464,0.00597242665499393,-0.089564760535518,nm,0.0
7.20851993560791,2.499710522138947,-9.620996135912549,92.47581090538536,-0.7156746385742528,0.5879679376411685,-0.39348935748486463,0.1941317739817055,0.031050601426585032,-0.07852723368394889,nm,0.0
7.2240283489227295,3.1079200087241925,-10.80181635432648,91.8043255050293,-0.6752726680019127,0.5042785033521758,-0.6207970664760307,0.2429999252365754,0.13651706512425338,-0.041657096201913296,nm,0.0
7.225607633590698,4.532515619939668,-12.06858883536729,91.02258971645344,-0.8664992518890114,0.2730807232215215,-0.23947853969858332,0.2587977789748471,0.2932392387713529,0.006951778220556224,nm,0.0
7.233603239059448,6.125675325131602,-13.165193649729412,90.33172616089304,-0.7986584632081152,0.19905316297210163,-0.36242155257070546,0.22770561008150336,0.3217719895229238,0.011120968231124231,nm,0.0
7.257472038269043,10.316608894305842,-14.863509188114634,88.76642613133093,-0.6456061149620538,0.34677992036447447,-0.27268858872057544,0.175675658842635,0.44322118025539764,-0.0010829084811356457,nm,0.0
7.261475086212158,12.452809333640944,-15.515205353552117,87.78995660619692,-0.46934213984537004,0.5506096343337861,-0.3390006613846432,0.1541367240640598,0.4170535135863692,-0.03335745354425992,nm,0.0
7.28650164604187,16.2688231937243,-16.734682828110333,85.80726707426226,-0.3191033357443303,0.7853041552209674,-0.25041302445632824,0.15914709913764202,0.33760555384141944,-0.06422515593182104,nm,0.0
7.291379690170288,17.4881503363616,-17.435440640538413,84.84928612135576,-0.27311693452397506,0.8212042014132969,-0.366620202302051,0.169403700849937,0.22951402575242066,-0.08128010049005825,nm,0.0
7.314528703689575,18.38548982351692,-18.975760591426305,83.50456077570315,-0.43399657957903204,0.42895104476217744,-0.4219140088524875,0.1700704812389558,0.019489041489210112,-0.11185582602758778,nm,0.0
7.317525625228882,17.929378711687672,-19.701690901958976,82.96775853834207,-0.5405495419512356,0.19744630405841607,-0.5243818254682528,0.1445636669938687,-0.09413739195520544,-0.14300722635264948,nm,0.0
7.341050624847412,15.549604614694728,-20.351531451072958,82.31614509298085,-0.7441095414557876,-0.12768285439208538,-0.6026048684608197,0.007704524012377176,-0.2602544475808759,-0.16481692304551665,nm,0.0
7.367202043533325,11.773796925479015,-19.573600771189156,82.90349122690495,-0.7587058447323815,0.0998026145605808,-0.6100529020617401,-0.15189625612491137,-0.350401158343677,-0.0855957981501696,nm,0.0
7.368807554244995,9.70245307344298,-18.670724266792565,83.66484428457217,-0.7247064352513028,0.27885913839432225,-0.5835518778829888,-0.21367275501466498,-0.3602534670653894,-0.01220108958647584,nm,0.0
7.376916170120239,7.665823865290936,-17.598491053707185,84.59281328928898,-0.6445870035930027,0.44393678533319936,-0.5402753260758031,-0.24181891884545356,-0.35555835801779934,0.05488097171086559,nm,0.0
7.398375988006592,4.129119801836604,-15.316715241114233,86.22109949894369,-0.3535223973546461,0.32832351226751527,-0.47898979659965596,-0.2414341071168713,-0.29064869589692205,0.11936566316225422,nm,0.0
7.40336799621582,2.8416366952289303,-14.183597577710925,87.08737127685829,-0.1268465312532693,0.008761548770100673,-0.4226688693885142,-0.22965475282285838,-0.22754250492522957,0.11504978780932407,nm,0.0
7.427813768386841,2.2503934117086715,-11.732149139816167,88.04917290105814,0.5079681069946368,-1.0111091370239849,0.23420017017078354,-0.2475082143459096,0.054630981560433785,0.11641514844264915,nm,0.0
7.433281183242798,3.2879458337536973,-10.16411147894338,88.1759149395428,0.6887451653679021,-1.6753491162770313,1.4605032841820191,-0.2952255206465356,0.222943920901802,0.12016519367540109,nm,0.0
7.4567999839782715,6.711280109725724,-6.636727096714388,88.02240637677528,1.4845525982452836,-1.3266292679858107,1.8369673379949951,-0.33043153312085427,0.4459373152066119,0.08107425963347556,nm,0.0
7.462001800537109,8.720762791780375,-5.0540680719461735,87.83838935756614,1.6530160616632514,-0.8622278760349982,1.669768251375706,-0.29069508905803526,0.41959725738550474,0.04092886658022179,nm,0.0
7.484311103820801,12.366256733611193,-4.664944568907326,87.5219267815127,1.5074830858234791,0.062104699829790305,1.5119993775066558,0.08059522650623548,0.3605622101486544,0.003489419275056582,nm,0.0
7.491460084915161,13.495266550822857,-5.78665317319993,87.40615802646732,1.262277360161695,0.17323404076783003,1.2008112281640746,0.24475948220686677,0.22241399322998823,0.013359150820000358,nm,0.0
