timestamp,roll,pitch,yaw,acc_x,acc_y,acc_z,gyro_x,gyro_y,gyro_z,markers,motor_input
30.00309181213379,13.147841210235512,-14.81489388357356,68.75411713090703,1.7130672188089908,-1.0254387022158489,1.5222177759842588,0.32915753498131706,0.6428076637259292,0.021442923160283383,nm,0.0
30.010454893112183,16.114026490940873,-15.512157676789439,67.1332744393293,1.6893809909534472,-0.7999645956395957,0.9855220157915399,0.3576134024262216,0.48328554991246414,-0.14528293131241818,nm,0.0
30.031075954437256,21.282033454624028,-17.65898996586373,63.24710123046785,1.1727581951655381,-0.5761276126048732,0.7175696074900907,0.42459514026866596,0.33625589599021627,-0.24878757185770928,nm,0.0
30.036225080490112,22.994312637011063,-18.67102633538178,61.56152615072513,0.8281522833121838,-0.40426872769005195,0.17061576718837088,0.3426731874346555,0.19952416220793545,-0.23677483126481333,nm,0.0
30.058462619781494,25.357784407831453,-20.670130588622772,59.255526781591755,-0.0255854675464662,-0.2066120292370417,-0.16363513562947898,0.29376990192644914,0.07152413756731742,-0.1620463559052157,nm,0.0
30.06547212600708,25.546190151688773,-21.546784557197775,58.389561481809835,-0.191599351616569,-0.1455002018537371,-0.19342190239976906,0.18079242119330957,-0.05593221798309209,-0.19988817164443642,nm,0.0
30.08759617805481,25.890506846547062,-22.47760570678446,56.78494266483914,-0.7217238157359414,0.2813663263061965,-0.3965133779475784,0.12664181541881298,0.028209792162433057,-0.173827459764649,nm,0.0
30.11267399787903,24.12557297339337,-22.799802206061884,54.931927403391796,-0.6045229142478529,0.7245037517279933,-0.4523619883963707,-0.11851403535680025,-0.18684051024540535,-0.30933806752599896,nm,0.0
30.114243984222412,22.78392430795942,-22.580202806195622,54.33511405427925,-0.8796266498718154,0.7890637074138008,-0.17409602774687596,-0.16611597560512487,-0.17354217013982923,-0.2646190996433093,nm,0.0
30.12267303466797,20.629703239786554,-22.466227525049376,53.99314231540524,-0.9055201625052478,1.0363872712434108,-0.2901136446930384,-0.23787645035476535,-0.30726524513794157,-0.29599658566790626,nm,0.0
30.146068334579468,15.189944572591225,-22.351576011813243,53.88794712573429,-0.9812840306982088,1.0450248867430805,-0.13704352697562805,-0.29867463161304064,-0.40034175527563104,-0.22663557125587858,nm,0.0
30.152997970581055,12.032773771759475,-22.339970118932087,54.147237856888744,-1.0457708198287052,0.9446880027334369,-0.10116793099384665,-0.3313634501938609,-0.4700537551848117,-0.20562065048968442,nm,0.0
30.15989112854004,8.776152670031967,-22.322617655925345,54.5951395491617,-1.0044928655382535,0.8846310028478048,-0.1201971156196599,-0.3402368155396773,-0.4866277924607222,-0.16149360751668493,nm,0.0
30.18192458152771,2.62430010661258,-21.611587108129253,55.99782407833602,-1.0216853174143088,0.6938997508212169,-0.31830867137187974,-0.3790599958839167,-0.41591424078938355,-0.06176025284600221,nm,0.0
30.18815779685974,-0.062372392738597224,-21.151175015972157,56.780090826729456,-0.8323919955122538,0.624452614264904,-0.4920365949597956,-0.3402760911250618,-0.3646022814794562,-0.010664835673752085,nm,0.0
30.198967933654785,-2.279787016651486,-20.513332579267946,57.51631830316446,-0.7874108693965695,0.44125805572728843,-0.21015275285600432,-0.3187649968074897,-0.2774920274563868,0.044859793092272546,nm,0.0
30.221826791763306,-5.658538107327442,-19.114900152245106,59.12921827911545,-0.3525615690488975,0.06126854580920742,-0.7475839897736477,-0.2332718054069736,-0.17113916318036151,0.14874853399151416,nm,0.0
30.2276394367218,-6.603200853115623,-18.538552993089024,60.11964490199942,-0.2682116568933997,-0.2208928831402622,-0.4203424534483668,-0.17607363382798172,-0.09421751996830614,0.21730504094076905,nm,0.0
30.254162549972534,-6.038966168744104,-17.04856512624509,62.7002546300516,-0.03739447372252262,-0.7815986325327187,-0.15235428646715593,-0.0402418706594691,0.22180807152392606,0.40083116564700144,nm,0.0
30.255939960479736,-4.4399788537068705,-16.237944670637027,64.06848802813738,0.0756414755458358,-1.077926639402928,0.38497726398865284,0.00782774728438241,0.34934750617237137,0.4537275537271699,nm,0.0
30.264352083206177,-2.182251314686005,-15.396812510672166,65.40338731231931,0.6195232969073404,-1.3099123745288261,0.45864739014000877,0.04908013061879293,0.46794635645472826,0.47531474869993895,nm,0.0
30.287473678588867,4.916889502045628,-14.376002568943997,67.31425683306287,1.0684776265765668,-1.0905652230154883,1.25100610835095,0.22790511145186493,0.683191939011983,0.38953545511650833,nm,0.0
30.295911073684692,8.592267114983246,-14.330691029792405,67.18715851526005,1.5487059054552663,-0.6577145673865802,0.824626706239746,0.2828060120440551,0.6641218086604893,0.23563897596209177,nm,0.0
30.31714630126953,15.86675501948999,-15.480005093965955,64.93150397134569,1.7937805502123487,-0.16621333200601762,0.9643122755485928,0.42532113535279653,0.5304026582328282,-0.10022539710008482,nm,0.0
30.32126784324646,18.48514687275995,-16.507380724249423,63.15561590541141,1.7375870524589814,0.0012195249637936515,0.5297738623193325,0.4179921798259285,0.3674519458761595,-0.21695600040602153,nm,0.0
30.361958503723145,21.11821477854361,-19.973596784535264,58.84942409833943,0.39591439254041244,-0.1188709933580707,-0.05220379206627265,0.2074831202708269,-0.1427208994375754,-0.26932078751498456,nm,0.0
30.363553285598755,20.134957274651335,-20.977267696574504,58.17957407818481,-0.054635447902193046,-0.09123912394870962,-0.14546141852988126,0.08866198867500796,-0.2582453184446673,-0.27494130273979206,nm,0.0
30.38831090927124,15.916983078538598,-22.145666698322426,56.76501149775921,-0.5214859838443966,0.20602654423521186,-0.6765795355316016,-0.1400137507854676,-0.4247784292250307,-0.417572975202867,nm,0.0
30.39132332801819,13.705217761036456,-22.599201898814268,55.5885032071594,-0.8820959218266985,0.26870392658843667,-0.10265117958877991,-0.13783555867284192,-0.38873629335838045,-0.47183014034530185,nm,0.0
30.41367793083191,7.934596986728366,-23.198662356282636,52.410293099064866,-0.9670092416803381,0.6456202111783351,-0.5027499306863078,-0.27145530924468897,-0.4859295338877029,-0.6071759109286888,nm,0.0
30.42064070701599,5.034343850626868,-23.69478791309106,51.02665725811898,-1.1607725516528222,0.6816458786124702,-0.21799190070928667,-0.23719737454447223,-0.47985168574630394,-0.5445833984505644,nm,0.0
30.426054000854492,1.8007787668074735,-24.1777182207596,50.08843537689576,-1.2468046299949118,0.7283567875259298,-0.1874200368183677,-0.2867574771284877,-0.5189032428063554,-0.46316855547869124,nm,0.0
30.45268678665161,-4.89711394362253,-24.42815642527923,50.35123327119062,-1.2151043515732831,0.759008350135552,-0.4776850536830825,-0.36385084687903113,-0.4497982361593542,-0.16547757818259118,nm,0.0
30.456181049346924,-8.04198436235286,-24.049345863834063,51.2283045880627,-1.1572442345489757,0.7695654546925053,-0.4961309476544041,-0.40784590503543394,-0.39752409801869615,-0.0529998068078501,nm,0.0
30.484310388565063,-12.778325663709595,-22.385365737872572,53.38774590466385,-0.7185481718580647,0.5747117244674043,-0.6427078023226144,-0.34981464655659955,-0.18160051312892092,0.11564522419996617,nm,0.0
30.486103296279907,-14.057634403239005,-21.543130697346413,54.4511059214097,-0.4061938938835406,0.39786835372372376,-0.6171827015322826,-0.2620093826742429,-0.09289063798450328,0.17238970965265346,nm,0.0
30.49477529525757,-14.438355249389108,-20.753691797154925,55.415073450994996,-0.19700524099529715,0.13813643310651869,-0.4563014298692714,-0.1556878910215092,0.0325831760016742,0.2470169565132936,nm,0.0
30.51714587211609,-12.070343758206674,-19.289193868089047,57.7347427324855,0.03582061441572262,-0.5770645598386033,-0.08742857319877666,0.07893749158828206,0.3588989529864279,0.474905770733164,nm,0.0
30.521362781524658,-9.116414742940588,-18.562562011713823,59.21948414794922,-0.2794832991706822,-0.9871580226644627,0.7357336720026078,0.18556484130790002,0.5530267165157691,0.5958349334080071,nm,0.0
30.543185472488403,-0.526702161387757,-17.00469195754671,62.04496246083751,0.5781533586924972,-1.5719151539021472,0.9402122853001403,0.3458325888701731,0.9184496201547419,0.6721118387961302,nm,0.0
30.558824062347412,5.491754548671387,-16.411173073211817,62.83084395730326,0.934486446677866,-1.5788280882994676,1.5921681042217528,0.44754703093378845,1.0791695033096624,0.6073680346997901,nm,0.0
30.560960054397583,11.529945574952146,-16.003131743858127,63.34249677863299,1.699467441511304,-1.2623067578536693,1.4785026366221217,0.4658620145053356,1.0758435720577473,0.4349402839987536,nm,0.0
30.58165431022644,22.091405379526606,-15.500161132991959,61.58824677966523,2.397360570134653,-0.6078925508663473,1.0886699166671374,0.4131007047187603,0.8361039413586765,0.08795262818068607,nm,0.0
30.59228754043579,25.512462635425518,-15.829877956129193,60.37361643590582,2.288444015244583,-0.2754373516233182,0.29469325694182524,0.38948016585907835,0.5491734147981024,-0.0652144464179205,nm,0.0
30.5971462726593,27.79155989778742,-16.78052800472843,59.23929200524106,1.8957219351895154,-0.3693766739946788,0.13241979275349292,0.39594950336412993,0.2881251394685535,-0.14789000574643021,nm,0.0
30.625207662582397,28.600002302990735,-19.61393111715034,57.90920977290772,0.6449698368873089,-0.9154547333724683,-0.24677778552659357,0.2430693304956364,-0.18073561954246417,-0.20893020913773594,nm,0.0
30.626821279525757,27.598697787996514,-20.83921466671261,57.22052140294166,0.030421740405365848,-1.0183201572143799,-0.4093795472617631,0.1182754799084933,-0.28583455036267713,-0.21362852391660242,nm,0.0
30.654924154281616,23.996409778025377,-21.598555042281887,56.8444946909965,-0.5657990158060042,-0.5975874091777267,-0.4203607687405666,-0.18243367675110422,-0.3216790182777626,-0.2704707249408006,nm,0.0
30.656498193740845,21.80562547187697,-21.213373736537214,56.51582276304358,-0.4077802484869528,-0.025663439418108884,-0.7287845604329193,-0.27491183379415635,-0.29629252488138,-0.31356338133730455,nm,0.0
30.6646945476532,20.129003418111214,-20.6776870592421,55.87958355069478,-0.4884544404523445,0.3392672705170275,-0.14971388062307328,-0.25013237666890026,-0.1982051857980206,-0.30391080941351484,nm,0.0
30.686410188674927,16.161864088683984,-20.007836713883307,54.62591862233114,-0.31079511110661634,1.059482183251488,-0.2583959207281399,-0.23969183505665828,-0.2889307857124952,-0.340640598012504,nm,0.0
30.709172248840332,12.80348066632581,-20.44149408927051,53.681371557726344,-0.7607387377116442,1.0262740154686332,0.04280657981120057,-0.12189545173291365,-0.2945913144203012,-0.24294125042288464,nm,0.0
30.71264410018921,11.05187166878161,-20.84946074819386,53.382122371849874,-0.8976389667810116,0.9086322986713641,-0.18396240315144685,-0.11525560231641974,-0.3111123474716806,-0.21234889334768076,nm,0.0
30.721265077590942,9.60313967975543,-21.213037678592215,53.1719894233943,-1.128399320176613,0.7817272993276605,-0.18242938041371054,-0.08951702264714316,-0.2592967650045517,-0.16137715897927976,nm,0.0
30.743197917938232,6.957005301122676,-21.309745846698807,52.826791188826164,-1.2087150386081966,0.6900445668783496,-0.314445977547659,-0.14541021347673358,-0.18523701546145946,-0.10761198679350045,nm,0.0
30.7637996673584,4.781042246318052,-20.51525292380205,53.08772223418094,-1.0052316600721225,0.8102765619497426,-0.11792945672599169,-0.187792596843289,-0.10234793199769919,4.632232095705666e-05,nm,0.0
30.77131724357605,3.6684783619164403,-19.964352773023123,53.596078388000485,-0.773548001566004,0.8736503005420414,-0.18913358422604945,-0.19930867428439558,-0.10078908794312878,0.06155165587234044,nm,0.0
30.79092526435852,1.6588987211566721,-19.14480230805403,55.44333007934037,-0.5734262395170315,0.7854459463735964,-0.17287911221985217,-0.15433131940659986,-0.1134676841664017,0.17725280361162665,nm,0.0
30.79711890220642,0.6627482453996159,-18.855350474831063,56.54989846751289,-0.4963664871094125,0.6079404967813921,-0.28523078131157603,-0.13955621046506572,-0.12261149034750436,0.19831293504663247,nm,0.0
30.816574573516846,-0.9355292148381535,-18.287728600296152,58.5693300947822,-0.44922517386951377,0.20116343419282706,-0.3503049738289292,-0.11339210576599319,-0.08429404838094698,0.1821441712706619,nm,0.0
30.83282494544983,-1.631857367973977,-17.813913715001885,59.305261436883804,-0.30307451294018073,0.022096781655701326,-0.3879362621536706,-0.135588118017039,-0.0628622072710432,0.1471378645083269,nm,0.0
30.834660530090332,-2.10858332133291,-17.1533686787627,59.812325300324346,-0.10330289349565293,-0.09652242629844135,-0.431604506407165,-0.1459872343662895,-0.009579484360506603,0.1277760476694994,nm,0.0
30.84707236289978,-2.147714722698997,-16.361997645746552,60.15948131377423,0.10805910050105783,-0.14983721828923474,-0.4607717482647895,-0.12657361066088602,0.07473909309806712,0.13180486014754492,nm,0.0
30.863908529281616,-1.373324272951764,-14.749560957212964,60.557272918961644,0.46533618688909517,-0.34790638942171914,-0.11432708091553587,-0.09091952978681729,0.1342203793764631,0.10622522222466031,nm,0.0
30.8770432472229,-0.46250140286035024,-14.122498145081192,60.59296895443378,0.7377513252894226,-0.5243369463631935,-0.0893457033568521,-0.008042177915375233,0.21729678165918515,0.10421493059366334,nm,0.0
30.88260293006897,1.048050725406924,-13.697730439588414,60.39027381062744,0.6718126936110673,-0.7479738026500165,0.41533084513442775,0.08532118947819714,0.29899609053387,0.08887056119350321,nm,0.0
30.90499210357666,4.092339611876822,-13.108226117262586,59.380166856143504,0.9805107696618225,-1.2219002432287849,0.18961852870417395,0.12152739457288503,0.30614932006764994,0.009728299220018565,nm,0.0
30.910325288772583,5.678669669021983,-12.643110835493113,58.912639619383754,0.9451282132434116,-1.3973742156680589,0.4468660057438552,0.09293583155992965,0.3152526521204844,0.003236032750497542,nm,0.0
30.935213804244995,8.170494819820924,-10.97968250120402,58.65623398972158,1.1068221038873713,-1.1167188367968095,0.7215357727656215,-0.026417751624591868,0.303795806594363,0.034597285483910584,nm,0.0
30.94051694869995,9.14884959532941,-10.00056960090894,58.68934508576458,1.1205293903978024,-0.7739505050127212,0.8497127799921096,-0.054028891124770585,0.26831054395821136,0.03690912291524169,nm,0.0
30.963427305221558,10.173270636315342,-8.912697218333019,58.34418237225392,0.999619076233479,0.06605842998667859,1.1264045227213328,-0.017805265256221187,0.08710089938996628,-0.053728745887036515,nm,0.0
30.972002267837524,9.678817894260508,-9.125789817238463,57.75634228553213,0.6933736463389061,0.3061265628488868,0.3450899082234974,-0.0023146523489796806,-0.1039561789172191,-0.13882412614239623,nm,0.0
30.995421648025513,7.282225016898418,-11.846357202063869,56.11651953509037,-0.11797487626206346,-0.1676059148607555,0.8504315905826039,0.13742178539668443,-0.406000587084441,-0.26664488176935347,nm,0.0
30.997620582580566,5.42268771501231,-13.283316066913072,55.4296111701492,-0.450532341448169,-0.4167992129911872,0.3396891609737478,0.048312908058789183,-0.46130383798978786,-0.27570093785143573,nm,0.0
