timestamp,roll,pitch,yaw,acc_x,acc_y,acc_z,gyro_x,gyro_y,gyro_z,markers,motor_input
45.51312470436096,5.613205103727237,-21.12957853364397,52.656599415370586,0.5264952093997244,-0.8200012004088625,0.5589312071096584,0.14697085617813468,0.13144942679331714,-0.04317014568817075,nm,0.0
45.52153992652893,6.414266643985023,-21.398314231005752,51.885100339424135,0.6584449744264542,-0.7675751500869789,0.2535720718723556,0.14812362163491236,0.08591068635807668,-0.09943120258578216,nm,0.0
45.527462005615234,7.37260053960072,-21.798840793993193,51.08458133852814,0.4775491794097031,-0.7356550143982591,0.3623948771760497,0.18792885579009064,0.09021137166074997,-0.09287690972751339,nm,0.0
45.53756332397461,8.087736237123762,-22.285782227842997,50.38714499099672,0.3782909804319999,-0.593758899162432,0.3162950852758895,0.17355963130731017,0.041544769134120155,-0.08917599728133749,nm,0.0
45.56225848197937,9.006865902547442,-23.121617534650433,49.66548821886651,0.14928552667226938,-0.26300981502579,0.10746837454968558,0.1302956509675475,0.013688496543187349,-0.016343025887782695,nm,0.0
45.568342208862305,9.320048657042518,-23.568054002091817,49.52225336539853,0.053908011716635035,-0.07814569403351748,0.05604356812244234,0.11945820654455624,-0.01360470921264055,-0.007097446489467206,nm,0.0
45.5750253200531,9.631186884764986,-24.015180102231554,49.34538807864529,-0.046605670658082486,0.06743998000225356,0.02399853087540066,0.11915770794564767,-0.014405106177295663,-0.0135250292677278,nm,0.0
45.584497690200806,9.868680334439953,-24.434932282038922,48.99586616361635,-0.16501988449285265,0.14019794439211886,0.005435557317983277,0.10603088189526587,-0.02166228076021212,-0.053684601555183356,nm,0.0
45.607131481170654,11.008482570446137,-25.37534122204369,47.644244645862464,-0.3166988058071274,0.30472356198199546,-0.024906294961794702,0.19056892841948825,0.05275756706170475,-0.08148317827342898,nm,0.0
45.61342525482178,11.720745445770437,-25.77483496447413,46.7419750877476,-0.352771198487429,0.3617470912538426,-0.044944248073058905,0.16019391208439643,0.040180589283465795,-0.110540399992329,nm,0.0
45.622132539749146,12.429193444779592,-26.092439835368985,45.90119367211178,-0.24439722737811526,0.4507248822425647,-0.313658555552944,0.14818049722675264,0.04840761098731021,-0.09646095953041138,nm,0.0
45.64625597000122,14.257452716075468,-26.564166780599137,44.728424282774874,-0.42163071789034356,0.5434691410619303,-0.16584076462513514,0.1458943114703454,0.07563649389664272,-0.01108132889381526,nm,0.0
45.65107846260071,14.998766026594916,-26.704757957553838,44.42419492386123,-0.401737477486568,0.5854714738160528,-0.2443045352405657,0.12830643229436314,0.07318750077399051,0.017221576544226316,nm,0.0
45.67516088485718,15.71701211122887,-26.833775955699675,44.2311112472043,-0.48531131291139673,0.572776797063827,-0.10240018449148575,0.12392120177729478,0.07142128132475246,0.039145828269705224,nm,0.0
45.68150234222412,16.138011531206637,-26.942608474203873,44.08809085124084,-0.43692977089988877,0.5615135013768608,-0.1511942590567848,0.08309989740883707,0.0369813349254647,0.02424638024177858,nm,0.0
45.69088435173035,16.356957937635055,-27.004598177329267,44.04977414063974,-0.4016497437464463,0.5151604815041894,-0.13637864462237342,0.050659225344006596,0.01856010655857774,0.01854716699633101,nm,0.0
45.71653389930725,16.304765673528415,-27.0044245545472,44.00927137663503,-0.399837903241996,0.409846072845164,-0.09552731439594052,0.0,0.0,0.0,nm,0.0
45.718626499176025,15.16121729299476,-26.74511347448731,44.386889903267715,-0.2403185700419556,0.2646440358637739,-0.10437049668410794,-0.10341677818445164,-0.06323538173472229,0.015943133141356425,nm,0.0
45.73273229598999,12.65347178341208,-26.102113166789852,45.58793942721972,-0.08241749158837203,0.1876585528063089,-0.1558808653853366,-0.21669518622670783,-0.13105367580122826,0.02819867233341808,nm,0.0
45.736361503601074,11.020218656552734,-25.695490453476822,46.26727664221785,-0.040794754260248214,0.1358682829672522,-0.14542339886408154,-0.2493162526495192,-0.1542133360924397,0.03298893035062436,nm,0.0
45.759318828582764,7.24630155265812,-24.72261832026807,48.04661160017296,0.061647456334181894,-0.07052323276921547,-0.27676223119327137,-0.2989223732476158,-0.19115704860231508,0.012639533128710667,nm,0.0
45.76640796661377,5.525549563984476,-24.14431040826422,48.909590778581546,0.1397268741123993,-0.19374487693836065,-0.41332922115058623,-0.28041736065880635,-0.1582279090704693,0.027717497601724282,nm,0.0
45.79182839393616,2.479791864032052,-22.584751971038163,50.63700963038111,0.1689183380709792,-0.6489360626231853,0.020343865457569766,-0.31659576107636306,-0.12494171736963738,0.028785529642991737,nm,0.0
45.79558491706848,1.3318485368590476,-21.556265711497385,51.52877545185595,0.4269746235621385,-0.8883434491712298,0.026966775004448273,-0.27975469992749524,-0.036489943943758124,0.08535149384976182,nm,0.0
45.820650815963745,0.6986098605104756,-19.592125645886952,53.119040413522,0.5022032383367406,-0.964895857265098,0.560202780764279,-0.16278411501685575,0.06926435721935573,0.13312545874345258,nm,0.0
45.823843479156494,0.8823315308799646,-19.014416705750104,53.41478836549927,0.6005368778623281,-0.8524726967448951,0.599141521724495,-0.05757568480858302,0.09738987325891135,0.1012431543515687,nm,0.0
45.83112692832947,1.497751409709959,-18.867940415777948,53.235503062089506,0.5915457559721622,-0.7145627952803877,0.6390072067059268,0.0604716766304231,0.1112177388899374,0.037544421878203615,nm,0.0
45.857125997543335,3.9709626985095343,-19.98173486640467,51.798265233491044,0.529294188250217,-0.5609004498125227,0.5550321090335872,0.312007975179573,0.1312859497860808,-0.062319794118783675,nm,0.0
45.868820905685425,5.748665099271886,-20.921339908713094,50.83617000105451,0.4450537255932873,-0.4950949541210334,0.47348193082238643,0.36942545459010817,0.1430270308469998,-0.07132588481072663,nm,0.0
45.88354134559631,9.953852246232561,-22.922203285539258,48.95182561709266,0.19087218216638677,-0.36614861127504555,0.2153838570437229,0.4376332513575388,0.17734074781398326,-0.01858131404777744,nm,0.0
45.89196801185608,12.19737858022476,-23.928669654887713,47.91585751474009,0.09288813146833713,-0.2625501277030332,0.09341309191960188,0.4384137589741212,0.17475558032266533,-0.007454073633180515,nm,0.0
45.910834312438965,16.679235610032123,-25.653750735460918,45.588665041742615,-0.09188018092228084,-0.06448393382535085,-0.12893158513964156,0.41250866039357337,0.17755565526295625,-0.04748105817914542,nm,0.0
45.91735100746155,18.84352173308169,-26.38126459536081,44.186398824426156,-0.1540049239595153,-0.03052202628203906,-0.03277262000321166,0.39254294043617927,0.17225181376521628,-0.0899511296242397,nm,0.0
45.92614436149597,20.785436353868317,-26.94726645697266,42.69750303456679,-0.013409490702966877,0.15956294780336794,-0.4133725058378887,0.34391339495772,0.15742746644108008,-0.13536589692595571,nm,0.0
45.95017957687378,24.431711874344387,-27.706276593564464,39.86202959767103,-0.25000723090975074,0.2549547864921392,-0.22686484042904662,0.2762502502519953,0.13787320734197472,-0.13448346550131154,nm,0.0
45.95673155784607,25.340802807516006,-27.95332737220265,38.801061690077624,-0.238740025543915,0.3322403635821339,-0.4140406161968339,0.16944827181052632,0.06436953356529043,-0.141816620149353,nm,0.0
45.97992205619812,25.453430884303792,-28.137083842817418,38.002380895871006,-0.5021641939406657,0.3589684867629994,-0.23262171255808975,-0.024366629995862928,-0.03757844857367968,-0.07537058477335307,nm,0.0
46.004798412323,22.727648845230537,-27.826730162301487,38.72258538507365,-0.5232593881516642,0.5114206177641459,-0.14018352546143795,-0.23849357677159483,-0.14266573026975068,-0.06236948096365516,nm,0.0
46.006404876708984,20.683778995973466,-27.44707028269633,39.49694030931576,-0.5199164285208949,0.5968176094937836,-0.029472062805249652,-0.3153274670030545,-0.17009474854170092,-0.06001346250466557,nm,0.0
46.012386083602905,18.34842664802992,-26.986363140246414,40.3254899352512,-0.4378364008423438,0.7022364885978712,-0.023397955019022733,-0.364180062108823,-0.196525852190277,-0.06440507828897783,nm,0.0
46.03538274765015,13.655252728045838,-26.0798574451076,42.32574185782405,-0.3445478851042684,0.7846044922719995,0.011678607626833409,-0.3548529230282526,-0.21270638798383792,-0.03812062256320902,nm,0.0
46.04097294807434,11.41459029287041,-25.69794314625468,43.35346510044041,-0.305658066293271,0.7264402634951278,-0.07891339400057415,-0.33364498331371045,-0.2194044134242406,-0.019195435490708204,nm,0.0
46.06582522392273,7.450149208680932,-25.083397349868132,45.4628824236807,-0.2659023918754706,0.38823902045457087,-0.1927851222347194,-0.2711983812024155,-0.1993146534771853,0.04268236258292793,nm,0.0
46.07158660888672,5.779251180517049,-24.717157491934184,46.52260903761397,-0.2555046686476559,0.14963078245264153,-0.30494246129676117,-0.24941087465286274,-0.16789855899521702,0.07639014830404889,nm,0.0
46.08303499221802,4.370902114759864,-24.25011005546511,47.65437757405421,-0.2219307947809288,-0.08246818706992541,-0.333912073283265,-0.22897750688162957,-0.12486972529134203,0.10740889789850094,nm,0.0
46.08846306800842,3.2146647025115778,-23.625083253568267,48.785967498793035,-0.10739963243570547,-0.3142246698585497,-0.3338419252309777,-0.2200380760051764,-0.07486948835300641,0.13040899915061877,nm,0.0
46.11303377151489,2.726024005297133,-21.802160684852932,50.828039909826295,-0.1232081012250388,-0.7174444561278718,0.2997845349869389,-0.12964419552635506,0.13979786744434397,0.2261401984930049,nm,0.0
46.11631441116333,2.703597450099818,-20.718666771097705,51.73403272568038,0.5190272094390974,-0.9187308148158378,-0.06422935651139887,-0.15754229333867253,0.13273492883654622,0.19971825234711765,nm,0.0
46.12601613998413,3.7094612497602513,-19.74344427030186,52.560180860567584,0.6750139435880608,-1.1231638994296473,0.37159987232492553,-0.023809625171795613,0.26949365158667327,0.2538420417698843,nm,0.0
46.15097260475159,6.32321408707434,-18.493108485453572,53.39052941017084,1.0484133394982644,-1.0981808349523747,0.7663101323629002,0.055935792811182106,0.2256314984733941,0.10892430285762902,nm,0.0
46.155325412750244,7.645554708904832,-18.325296579956078,53.175161554935585,1.0797894897624276,-0.9567692024519941,0.6573181631723528,0.13704722104966377,0.2224685951446992,0.0241076258703689,nm,0.0
46.178226947784424,10.043066748459747,-19.343053084735594,51.36779380054352,0.8681982028892188,-0.7726660511901381,0.4636663650491613,0.25391363705557873,0.07537585086611093,-0.15513260114996366,nm,0.0
46.1970796585083,12.253703420664156,-21.229443380759953,49.26157487279345,0.25300384654096747,-0.665395815165095,0.2568020161906441,0.28492857575460634,0.018257964838395768,-0.141192451869039,nm,0.0
46.210031032562256,13.15236801643253,-22.214262109400973,48.50436595851792,0.09385596539919826,-0.5178394942588151,0.0006851082603895161,0.2723245284043472,-0.0028863350644404854,-0.10315958045153241,nm,0.0
46.21491575241089,14.14920554918097,-23.0856085896473,47.94096019964298,-0.1153103859069584,-0.346906570501226,-0.0378740090990621,0.2666533022556393,0.022018795521880557,-0.05343495996439291,nm,0.0
46.23554587364197,15.893312831800172,-24.44703051593518,46.74136920025439,-0.026352742257942586,0.11293511128105348,-0.5027703286540347,0.21233804527031966,0.026158378436827192,-0.0877050422025578,nm,0.0
46.25011157989502,19.140921352397527,-25.658316793602403,44.635492193685835,-0.3126309470232468,0.37367815780653924,-0.08343260796682637,0.31155788504840487,0.1319582414433284,-0.11206477272405493,nm,0.0
46.27484154701233,22.407537715986184,-26.81470234142333,42.005365777885004,-0.29548121513352565,0.5001197859654704,-0.2277406520038749,0.3215601983091895,0.13152516973994352,-0.111996399539337,nm,0.0
46.278703927993774,23.832786621081194,-27.288091419827218,41.01736677605155,-0.3828743162075489,0.5000658548888525,-0.19600860852210933,0.2667259920340025,0.09835103631534149,-0.08164992727171284,nm,0.0
46.28892111778259,24.718398016463,-27.68951542962804,40.408201234413355,-0.3540964425722001,0.5478332021855478,-0.4441627287262501,0.18527197891803482,0.042490053111795004,-0.04491811393658538,nm,0.0
46.315372467041016,25.12298634236644,-28.119733464762096,40.6057324082168,-0.5639945896861978,0.4138810818288065,-0.07235226313488569,0.0,0.0,0.0,nm,0.0
46.317070960998535,24.235986213929976,-28.032115179347514,41.27558286157981,-0.4697344949960476,0.5156059469261068,-0.1794525589679539,-0.11609964780774426,-0.08865916946338288,0.012066440038067228,nm,0.0
46.32641816139221,23.001615678478977,-27.83570070582323,41.988559702161815,-0.4674360510505162,0.5954439247814778,-0.0964066679310062,-0.1755103159214789,-0.11499109216925449,-0.006438507736937986,nm,0.0
46.33688139915466,21.308482925687215,-27.550115737128948,42.632095617104724,-0.38439875407100077,0.6097537698612631,0.0069829858063999726,-0.24657847253877768,-0.15925410625699674,-0.055591296781179085,nm,0.0
46.362311124801636,17.180382948902007,-26.909726407058724,43.97698951574917,-0.2806305502005717,0.5629003535792617,0.04343048038801631,-0.3025032559643645,-0.21815993001123,-0.09453353061277589,nm,0.0
46.36424899101257,14.801043361824014,-26.665772252933017,44.734505731316176,-0.23482498459154424,0.5021822801401833,-0.026095470574694697,-0.3239164265210869,-0.26259149559860656,-0.0955776821996312,nm,0.0
46.37737822532654,12.2900419827088,-26.437059095894234,45.57890487731439,-0.21151190220689908,0.3873061457982826,-0.1302570592184274,-0.33541790343200384,-0.28669340470635274,-0.06912867141861195,nm,0.0
46.40030360221863,7.2560530859271966,-25.845773496729947,47.68373402970716,-0.2200381661482242,0.08958531098666059,-0.27917902007926426,-0.34279190836536705,-0.285871231872397,0.00695844492884764,nm,0.0
46.40412902832031,4.896446296104195,-25.371898765990657,48.90036767720435,-0.19349519661021083,-0.07376114904099512,-0.30660407155774955,-0.34007240951494183,-0.25504086180838775,0.04181601479332251,nm,0.0
46.41235685348511,2.7688214726424825,-24.7163024153384,49.91510426145488,-0.10445890640762887,-0.22748895089897156,-0.31886011473889236,-0.3369256970745406,-0.2071537315889082,0.06845612770368896,nm,0.0
46.42131757736206,1.1550049325032687,-23.878481070759097,50.921838859121394,0.11794338613738237,-0.3607745474908274,-0.42871181508544487,-0.3028470415397915,-0.11965289943351723,0.1114964971778053,nm,0.0
46.44610810279846,-0.42898118804016633,-21.775165146116557,53.08782581442277,0.3084842387537344,-0.7121492185603935,-0.05493413615400798,-0.2472549962497205,0.02392493258610394,0.1715755162003229,nm,0.0
