timestamp,roll,pitch,yaw,acc_x,acc_y,acc_z,gyro_x,gyro_y,gyro_z,markers,motor_input
75.5183048248291,-10.663306857515495,6.302581395592267,-80.86115518601451,0.030870497813088784,0.10230292892346587,0.8747476790399715,0.2567358647826898,-0.17261848065258745,-0.11934496321458231,nm,0.0
75.52368640899658,-9.757044686088586,8.158391735195481,-81.23034355243371,0.46535454398563203,-0.10519643082836337,1.416703292317292,0.3841401668853054,-0.12902977335430665,-0.07924209182652998,nm,0.0
75.5456109046936,-10.593371231785987,12.945967193978388,-81.6957957663522,-0.08525447813704778,-0.4827643277734584,0.47986259067131753,0.46905831027951,0.14401358696205363,0.012576164112449748,nm,0.0
75.55407667160034,-11.42543833253601,15.334522107255097,-81.95735008690839,0.2587676736835879,-0.5232327767237763,0.550700890466758,0.43970291610380235,0.21916295428952695,0.019392526050819377,nm,0.0
75.5765655040741,-15.086501204817907,19.38487113908228,-83.57004209527175,0.1792910656514595,-0.20420894685926558,0.02109667558453188,0.3232468700546197,0.3861655397816193,-0.03277247563987366,nm,0.0
75.5781888961792,-17.4311798853147,21.016691576425178,-84.85972145924161,0.2356058133222839,-0.011455590776058375,-0.1255803868866048,0.2699821555055383,0.4631885866295566,-0.04895165021090095,nm,0.0
75.58851981163025,-19.987915868750378,22.46091829866608,-86.19327277159098,0.02965303988726254,0.15558260224228324,-0.37074312571070783,0.24015934886909032,0.488862431249766,-0.039353470700481466,nm,0.0
75.61416006088257,-24.16426972003,25.411224496506996,-88.11103969525054,0.12266409237198864,0.32104882988115274,-0.5149958206347022,0.2789182110834024,0.3692038705041499,0.04242577971827232,nm,0.0
75.61850953102112,-25.75472283347563,27.054900317589976,-88.43709184410908,0.06335867714730486,0.384905293951724,-0.6149505177281303,0.3084713363043282,0.28799390146616316,0.0975082864219566,nm,0.0
75.6345853805542,-26.77375599390335,28.73672885096381,-88.39272572589078,-0.0004869263784492466,0.4890161753061368,-0.7385810055989243,0.31957088640248676,0.1822451516269079,0.11584617490212512,nm,0.0
75.63646674156189,-27.26562656456386,30.249135433914223,-88.14891341257967,0.07832200595134177,0.5526137706789761,-0.7261829216211279,0.2879612062480253,0.08767279710739127,0.09419345921501163,nm,0.0
75.65751957893372,-27.620811192362417,31.934630600124155,-87.94135895321779,-0.06354765183102003,0.6105749521311861,-0.7045092885761611,0.10312761128451445,0.011686461129309583,-0.008512133103107613,nm,0.0
75.66704392433167,-27.50320501769192,31.99815672122154,-88.17987249796835,-0.16921349626962548,0.6126101070451437,-0.6758590935144876,0.0012375889063771487,-0.026617614727800137,-0.07427383367189506,nm,0.0
75.68733477592468,-26.861307160392293,31.048748218830234,-88.68534721214424,-0.34709769448604627,0.5016732254243897,-0.46645117252362245,-0.13101011055952863,-0.06092893241732353,-0.08385851653651608,nm,0.0
75.69271612167358,-26.11921026428678,30.377368045190988,-88.48262478647611,-0.3611194797086304,0.4310818082018967,-0.3528011687951976,-0.14334073392853872,-0.13811036296661303,-0.05916962486835161,nm,0.0
75.71918988227844,-23.987427803645033,29.018281137286955,-86.78765370610121,-0.36721482463413396,0.35966596781102483,-0.2831866718910115,-0.14195308030510317,-0.20320640650538424,0.07400321890254674,nm,0.0
75.72102236747742,-22.719164633011957,28.216955791759347,-85.55178127206842,-0.20940987794589336,0.2843845662170253,-0.23043151865723568,-0.15692007814980613,-0.24059116906409803,0.10593260382018188,nm,0.0
75.73085236549377,-21.598330448136856,27.20290539154167,-84.32767711279162,-0.11547985926501948,0.2293886221766339,-0.263873138090516,-0.19631281093450648,-0.2234931656731809,0.12214628314445736,nm,0.0
75.74195528030396,-20.673650064926804,25.875577187828124,-83.2767602190849,-0.05876970340272298,0.16034673286605497,-0.3424912608033768,-0.25777435717215347,-0.20130738045221747,0.10755953277352079,nm,0.0
75.76390171051025,-19.24272281510275,22.226080362696134,-81.84590097945147,0.2177014634879822,-0.08593655736426463,-0.37189750598524085,-0.38798599711717635,-0.1757343078157156,0.043433527923293316,nm,0.0
75.76825881004333,-18.612726474820477,20.00530688063933,-81.36189216038028,0.3457840489762602,-0.20466194146455494,-0.33164659643315564,-0.43379556535360386,-0.19009690690137226,0.026483323196422798,nm,0.0
75.78116130828857,-17.905269558669406,17.62595167361268,-80.89796141307907,0.6058963401078388,-0.32758829997232747,-0.08485483747595281,-0.4610872603621401,-0.21472000908868813,0.032057729636313155,nm,0.0
75.80315637588501,-17.00245342074293,12.865479210116328,-79.8770676912788,0.5521712958764208,-0.4241760223434575,0.2460297043804599,-0.4578441546931799,-0.17772919285720093,0.08342494617749197,nm,0.0
75.8061854839325,-16.019704376854254,10.660631827098086,-79.33720410332093,1.0379140240837714,-0.3156263414907007,0.8171261856116,-0.41027763340614054,-0.27826132769334444,0.06490507558528195,nm,0.0
75.82016777992249,-15.28455420981842,8.687979029117141,-79.02688274679912,0.9102020464733567,-0.09871688074249259,0.7033165183479423,-0.3714412752036322,-0.22592298020793727,0.0344197963605367,nm,0.0
75.84362745285034,-13.273623260662209,6.0066654365628445,-79.46192139818673,0.667047621903863,0.2866745278632808,1.0459720638578256,-0.17758729927008035,-0.2754074825489101,-0.10990500791950382,nm,0.0
75.84560060501099,-12.278162367112131,5.7069063067331305,-80.16810969736095,0.3002955098452287,0.31007824508062065,1.0639195058213495,-0.03476711665613868,-0.2148728137769216,-0.16496001580639416,nm,0.0
75.85400032997131,-11.09468747816528,6.2687613003728195,-80.93829369974934,-0.03213866953921621,0.22391910350489758,0.8401918433434995,0.13882875056087726,-0.22290666253072294,-0.18246813507310505,nm,0.0
75.8711667060852,-9.778202492630424,7.588216680829548,-81.54452127809432,0.4284524710251877,0.05723827035284181,1.4813022278158479,0.2900853742801784,-0.22704923280703326,-0.15715209489451767,nm,0.0
75.88752603530884,-10.065767497572255,11.683025239185486,-82.35654443331819,-0.22688750333249172,-0.4361405484028526,0.5226697781833964,0.4222469813975616,0.09507683453715901,-0.02620082927150158,nm,0.0
75.8923270702362,-10.51336322935431,13.95536223885083,-82.48082830842024,0.23529688961183962,-0.5481618955242016,0.7542466159740306,0.4285046215271038,0.13828218731871572,0.009300092687764253,nm,0.0
75.91682481765747,-13.709329344522072,17.981579229833468,-83.4698334253049,0.178560493111077,-0.31401309968542485,0.1153616847786248,0.3297519739437984,0.3499991331778211,-0.0020507181502873,nm,0.0
75.92077970504761,-15.830054589175392,19.637909615170216,-84.50903876176699,0.3574633026292708,-0.10973665946716706,0.0386031144316969,0.2768184410366542,0.4264765331585916,-0.03716678813213534,nm,0.0
75.93045020103455,-18.366822205629212,21.0547163835181,-85.80226658155206,0.12048623136708364,0.1107596364985665,-0.26403531020099513,0.23135187743974575,0.49077429503630265,-0.05075342662908457,nm,0.0
75.9580295085907,-22.737600725354696,23.81814855460886,-88.27403251951455,0.2707825248624396,0.2206949485759151,-0.31342275971904454,0.2596816604384175,0.3984519328020471,-0.01947212028204155,nm,0.0
75.9606499671936,-24.651865187881093,25.428045027568075,-88.98416750225029,0.11342426696120052,0.2579664993887444,-0.4700419309142794,0.3021511889246185,0.34862940683506344,0.04823549170596426,nm,0.0
75.97477197647095,-25.933304407613054,27.182446615842178,-89.23235081597538,0.005580165734786164,0.3212678370201301,-0.6253892285520368,0.3356636516860993,0.2280658813919102,0.09053150332111007,nm,0.0
75.97842383384705,-26.54110313571373,28.93005355044459,-89.07516522363267,0.17121553964199532,0.33001005318536936,-0.5919940217424795,0.3361014433580827,0.10539758599257992,0.0995247375897998,nm,0.0
76.00242042541504,-27.029674769244735,31.499107806466462,-88.55305758603228,-0.023055547696557925,0.4494943614957151,-0.7342499403589319,0.2003601992603596,0.017120248700677566,0.04866532091905782,nm,0.0
76.00585412979126,-26.88728676417643,31.984731035889354,-88.393316237865,-0.09893615281225548,0.4984613473714963,-0.72496454723007,0.08568452875991685,-0.02848030690119711,-0.018226176319643184,nm,0.0
76.02997756004333,-26.374836207408112,31.479203509998335,-88.54121695186961,-0.21492980501342215,0.46244404412462775,-0.4996354200433718,-0.10024333984682204,-0.036882407349082234,-0.07101133068901652,nm,0.0
76.03685641288757,-25.890894485261295,30.835740561808723,-88.53062707304562,-0.3719043408426961,0.4524857382236058,-0.4223729260988512,-0.13885507326479693,-0.09317602177026083,-0.06748905522588595,nm,0.0
76.04645943641663,-25.0047145529853,30.137320857686106,-88.15673985245705,-0.20640520907502122,0.3578856243466062,-0.2008318664150747,-0.14746054608495518,-0.1638993475701149,-0.033818460512603205,nm,0.0
76.0691339969635,-22.976247744867297,28.772911772280082,-86.28001333027915,-0.26424802805344993,0.32369050614055406,-0.19052981099415142,-0.13770252686402942,-0.21480657192606023,0.09479212598729737,nm,0.0
76.07391357421875,-21.849420285104383,27.966225898214727,-84.9826395594576,-0.14075607364264228,0.27774569201404936,-0.1738954949304324,-0.15758377765437784,-0.21775678207903926,0.13116284542939616,nm,0.0
76.10016298294067,-20.07142569321257,25.579803869963794,-82.79007641966035,0.08319414294072656,0.13891503400078528,-0.266093514014963,-0.2609354352919893,-0.18962413198144526,0.10303408038466162,nm,0.0
76.10204553604126,-19.483174964754298,23.90612709359597,-82.08838813214035,0.16629256759415892,0.09243921979177182,-0.30182791663973985,-0.3293887711056607,-0.15845776722822108,0.06636388678242688,nm,0.0
76.11098647117615,-18.994877622563294,21.941274574386345,-81.70858815986983,0.2554011317586033,0.0044198896979601105,-0.3141955044011517,-0.3880820168769346,-0.1529041918906744,0.027375141618513347,nm,0.0
76.12344312667847,-18.463718494189465,19.788418276564734,-81.49226030573612,0.40937792813979973,-0.07345061210939967,-0.2385193965332941,-0.42318786766309724,-0.16962000332853533,0.0018083192703721056,nm,0.0
76.15756702423096,-17.961843191217476,17.55508704681147,-81.28902096450669,0.6072251895971041,-0.15010601336663945,0.005528297113744413,-0.4390951111024649,-0.16954781322026036,0.005046996057743945,nm,0.0
76.16115474700928,-16.260082269009068,11.453434265909,-80.49205369766622,1.011769045916183,-0.17029499301213802,0.8208783671258872,-0.3477159410454758,-0.2292127169960531,0.011047439703371263,nm,0.0
76.1758348941803,-15.672808649194938,9.905716071469474,-80.37962038724058,0.7457362341584508,-0.05832686676657843,0.5605675560361945,-0.29721356567667523,-0.17460841887436468,-0.019657114628196515,nm,0.0
76.1790623664856,-14.752813762445518,8.738643651386347,-80.37494692532084,0.7020807323603104,0.04031373939546647,0.7271945252621771,-0.21042019927095593,-0.22771574159478813,-0.08370233126864064,nm,0.0
76.18702149391174,-13.723617549018506,8.11366287287857,-80.74465185452519,0.5893789080382098,0.09894197545806714,0.9506714331087582,-0.10056792815276341,-0.23067026931084944,-0.14488358308579322,nm,0.0
76.21571063995361,-11.401886048027032,8.925675211674983,-82.15042748495976,0.19949089734425485,-0.0034449854666712834,0.9847632549812965,0.17821846792580878,-0.25879011672024904,-0.1894418205808623,nm,0.0
76.21800208091736,-10.501097702536345,10.279774210589778,-82.74755708495206,0.4120025209333606,-0.19937173638442157,1.377260223326274,0.2810051279260702,-0.14900628284718664,-0.14734914289455653,nm,0.0
76.2272322177887,-10.805370434861908,12.072829579348985,-83.26017637523479,-0.35391822045352594,-0.33379252895371464,0.4476864450910271,0.33799577407473463,0.09459484989240852,-0.06647336779301743,nm,0.0
76.25756430625916,-11.757226977522423,16.205302211174576,-83.80811980461691,0.11513474624230725,-0.4441854601310527,0.5489617068499993,0.3852927872312591,0.21068428011932877,0.024762303042857918,nm,0.0
76.26180672645569,-13.442034728041136,18.200932779141883,-84.25802590578706,-0.12380580120325628,-0.3050253240818742,0.05477172356775917,0.35299740507403454,0.35395455581505203,0.04295689182108104,nm,0.0
76.2767059803009,-17.67203863872863,21.735954560792134,-86.05240993794253,0.2214562436921927,-0.015261673588446704,-0.08756477573456894,0.28706759866461706,0.4787579369871536,-0.005121609322315415,nm,0.0
76.28196382522583,-20.205038917670326,23.241256112947216,-87.18228944363946,0.15714474815116083,0.11208826394285461,-0.24269876654053163,0.26147599005329086,0.4783262786207848,-0.020670011098329215,nm,0.0
76.31143951416016,-24.731432425486794,26.257900720346743,-89.26857476573761,0.21923296654028143,0.20945161972993012,-0.4188706368684748,0.2892781702505511,0.4014786297502736,0.03602539152088126,nm,0.0
76.31366205215454,-26.555501789658145,27.903315663096482,-89.77153403876828,0.10450340852724564,0.25513040012430144,-0.5509470659344962,0.31470334177003184,0.32074625561103737,0.08705730105938485,nm,0.0
76.3233380317688,-27.741557126713612,29.597585836906386,-89.8117811687878,0.06271767617159794,0.3588195537966307,-0.6313324943623644,0.3262027373381149,0.20246136005030485,0.11023734115871346,nm,0.0
76.34727120399475,-28.761534212644268,32.48012140984827,-89.43062471462267,0.031080100035006976,0.5528624019914247,-0.6703421771465968,0.24517196748079328,0.062294230481698236,0.08411035359435555,nm,0.0
76.3505129814148,-28.895367113838635,33.313926155705495,-89.34060833290776,-0.0013335834983097957,0.5674359911876635,-0.5977516002389732,0.15443204781467404,0.01736816360953694,0.029404444299667855,nm,0.0
76.37669539451599,-28.523339752686006,33.67911970761694,-89.62830658120478,0.06325620072262356,0.5075616123761875,-0.3817205420434296,-0.014317701713316408,-0.05840809431890513,-0.08811913373341483,nm,0.0
76.40832018852234,-27.03209428559597,32.583628517143495,-89.13394551163998,-0.1783537446797655,0.35439974288342935,-0.17413981599877687,-0.08928926278517738,-0.15519642617112325,-0.02650246342705223,nm,0.0
76.41840195655823,-25.09292906742907,31.68879437437301,-87.21309304996198,-0.21702676396353968,0.31490783316004506,-0.18524466465744563,-0.10055957123204222,-0.19582111569525767,0.0755687539069366,nm,0.0
76.42416000366211,-24.070242894369272,31.060152240942397,-86.02835995958989,-0.10024883726413916,0.30218753100272056,-0.17803688929100595,-0.12702796877707165,-0.18932356914714232,0.09239136229018372,nm,0.0
76.4339611530304,-23.256361735122763,30.160201176376166,-84.97279580964906,-0.10494058879148072,0.2948048054265622,-0.26542333100542836,-0.18021517012160448,-0.1616233775333555,0.08786966956578762,nm,0.0
76.45774793624878,-21.985619913866795,27.47493939490215,-83.81682350138675,0.13527028741243813,0.1727174652357999,-0.30219170236115805,-0.29618509241970203,-0.1315762548083055,0.019538062709120233,nm,0.0
76.46431016921997,-21.470380206847114,25.754988455423092,-83.52346885531071,0.19334417188772793,0.08677958294828933,-0.35983167454944326,-0.3436495009299446,-0.1376484912599436,-0.005045487257431108,nm,0.0
76.49039387702942,-20.078619375890934,21.870209931884165,-82.93464609939713,0.5113746839983059,-0.14439438470638277,-0.1844345712891745,-0.3891008913357313,-0.19164456098189625,0.0033632769510027177,nm,0.0
76.49876141548157,-19.417423543647487,19.879826517219268,-82.52716622724918,0.4972729033882545,-0.19437558281680445,-0.11677473117309169,-0.3910988242761404,-0.18133146122641136,0.030961464629837038,nm,0.0
