timestamp,roll,pitch,yaw,acc_x,acc_y,acc_z,gyro_x,gyro_y,gyro_z,markers,motor_input
107.00272989273071,-38.30335048174188,-9.92798738624504,164.01888818017486,-0.2507246666444396,0.2066841792763241,-0.030366839874007963,-0.43880364196900445,-0.32948966851079536,0.14901988907496813,nm,0.0
107.00817632675171,-36.857966213840825,-7.432628691658054,164.73935004021249,0.04447877150811283,0.06068951356248986,-0.037268859650582686,-0.413253593109131,-0.3910434660151091,0.16869211199563153,nm,0.0
107.02915477752686,-34.547707144710216,-1.4677009406592851,166.3801770736248,0.670602850949372,-0.23711885145590467,-0.11442893692872085,-0.36488150647687084,-0.5450955820143052,0.1419355668596835,nm,0.0
107.04270100593567,-33.569515826768786,1.9645179737445,167.02809473619484,0.8620759510706673,-0.3615946096669465,-0.11304948380481804,-0.35246762450760233,-0.610602686317125,0.10237586541125662,nm,0.0
107.05992317199707,-31.6066361912893,9.091000516524268,168.16462478425478,1.207920306812777,-0.6236020315302626,0.20752850877792978,-0.3478158007382517,-0.6312750662403871,0.02818448131626819,nm,0.0
107.0665328502655,-30.419062184097594,12.111411360097076,168.607629721138,1.2865622462699569,-0.743797566886125,0.5238186031797192,-0.354934860347223,-0.5322475015277593,0.013268115021142184,nm,0.0
107.08626317977905,-27.85335347029933,15.96966258274764,168.80460202826285,0.8642854146917386,-0.7449288400304858,1.006379094630149,-0.2986383935463374,-0.23894063099809104,-0.07107594221239456,nm,0.0
107.09625196456909,-27.04229695856115,16.34053435633037,168.46871076294164,0.5149469626870185,-0.5531917453756431,0.8495596842600467,-0.1722443026691183,-0.028476734192405605,-0.11386099474839158,nm,0.0
107.11521482467651,-27.43139202366857,13.048757095018837,166.81630131526694,-0.03942752878513892,-0.1866095606030644,0.6958690693179441,0.19434346499061042,0.4356637515751172,-0.14990392028970284,nm,0.0
107.12169122695923,-28.39766221122712,9.675677666598098,165.92095455922657,0.08438213002552604,-0.10925936908293003,0.6287012528686532,0.33931417252174717,0.6254828953340407,-0.14139556525673533,nm,0.0
107.1431782245636,-31.211827182677553,1.158258947755247,164.24222205033064,0.5451799263697568,-0.14619552533803593,0.6823624574169408,0.5208901661264296,0.7725705848916432,-0.0627890198023636,nm,0.0
107.15140652656555,-32.94999399766077,-2.935130130255641,163.9859805337803,0.7883634660689246,-0.19183300090322228,0.4587267301424631,0.556671814388815,0.705850688399067,-0.015112987288688406,nm,0.0
107.17400193214417,-37.353706926635915,-9.353018513449275,164.6233360887155,0.6034340290301003,-0.2236083777565352,-0.0818179601501264,0.5989868706933607,0.43665737005649097,0.037526611004732355,nm,0.0
107.18224096298218,-39.8981514878149,-11.538828552440675,165.00110054011637,0.32254449694259435,-0.23831138102822932,-0.3466407285977894,0.5952783240190591,0.30361697326293857,0.01379305104156058,nm,0.0
107.20695090293884,-45.03622528230206,-15.25808932228342,165.6016956753716,-0.4564993063908711,-0.05759292515286902,-0.6641395304738188,0.5602845460543854,0.24643408695011024,-0.05773625954809767,nm,0.0
107.2121353149414,-47.17274511308565,-17.165644658863158,165.62322584175254,-0.7367456424097285,0.05860338934357655,-0.731079079452031,0.49033321107943906,0.28006722774778214,-0.09680308911884106,nm,0.0
107.22912764549255,-49.963376074408984,-21.481464045214057,165.43971141626085,-0.9658877845980252,0.2877963854882537,-0.6910844167901494,0.315506054640804,0.3890388754279652,-0.05794184493027476,nm,0.0
107.23545694351196,-50.5643494277487,-23.497460798605186,165.37779378055907,-0.9053649669890085,0.3532560855834056,-0.5703782812969194,0.20825405605623964,0.3742060054397383,-0.013428643123177118,nm,0.0
107.25960326194763,-49.968192290070945,-25.7699814283433,165.54007297300794,-0.6627933571764254,0.23807756117453763,-0.3761020630729191,-0.061261977051374754,0.18970779404739135,0.11333678850568711,nm,0.0
107.26729774475098,-49.039555302303214,-25.756233013650398,165.7757780224572,-0.5853910378831496,0.30504970027417844,-0.3241812642696487,-0.1643915427868192,0.05088963627406041,0.15030891804665272,nm,0.0
107.29572105407715,-44.51457871659494,-22.172502012376214,166.56797195421169,-0.6347864835780302,0.3028498020336494,-0.05830456300471057,-0.39030490942934065,-0.21621838066714597,0.17524842603282156,nm,0.0
107.3193953037262,-40.82295294897457,-18.64422458081476,166.93400122182626,-0.5673150896832023,0.39898454188448473,0.018592841276998975,-0.4193237232497763,-0.26094931153633133,0.12527124294763076,nm,0.0
107.32451605796814,-39.070936085635644,-16.781750959647667,167.04284160499384,-0.42585332499720135,0.36220492646646146,0.042646067940149995,-0.412612814535816,-0.27544579237125255,0.11132117819304523,nm,0.0
107.34518527984619,-36.23872929553361,-12.455175117141177,167.38440428930772,0.04203755301440149,0.26140861439471486,-0.07276232313887522,-0.3486346905043687,-0.3823580772174969,0.08250913579597838,nm,0.0
107.35044193267822,-35.20200180876948,-9.811125268541582,167.6630593061005,0.2567040315413195,0.12666863782816923,-0.11741611599060152,-0.3168639139764486,-0.459913096801105,0.07378166882986871,nm,0.0
107.37240219116211,-33.6769723045486,-3.4124056433406698,168.34397470825343,0.5188453439583236,-0.14483174495201034,-0.1737685176439542,-0.27942632931146905,-0.6218251169845681,0.03999984455884815,nm,0.0
107.37837195396423,-33.00818921540366,0.2237510499099077,168.53722144700353,0.6053857272774537,-0.2514694494250608,-0.21260589114755302,-0.28111575414240336,-0.6733317157718192,0.01809104133034069,nm,0.0
107.40335321426392,-31.441448500358863,7.213561423081907,168.82152091458397,0.9230809565198672,-0.5361605814964399,0.07135831276664775,-0.30165972766854227,-0.6104928725692801,-0.008124703376627488,nm,0.0
107.40893316268921,-30.37522327742592,9.964853565561635,168.89031990042915,1.0903327568833727,-0.6940300011240778,0.36129029730869705,-0.31850903532263136,-0.4862402093183101,-0.02399476263552213,nm,0.0
107.42852449417114,-28.2377716753081,13.146271761128885,168.40597769932603,0.8727777923357497,-0.7402696309510551,0.8945913749684057,-0.24172683628014427,-0.1799031841116983,-0.12332373056027723,nm,0.0
107.43605661392212,-27.689197495871028,13.321708463332,167.63587532128787,0.5341905726045404,-0.6338197138388596,0.9226842972886322,-0.11647241192849297,0.0014995230200756304,-0.1802273453229215,nm,0.0
107.45722889900208,-28.56434893326707,10.057475916196708,165.5258880599823,0.08983894534767095,-0.220548887417171,0.6632765156121501,0.24349029234635175,0.4131346389990631,-0.18709929097527583,nm,0.0
107.48186993598938,-31.13971778384399,2.971429726396398,164.09880741787376,0.40290855903202577,-0.18854601873810387,0.6455750962914719,0.4788465159659299,0.6778791415934748,-0.08429619415514855,nm,0.0
107.48598146438599,-32.778645511578524,-1.0453832930274882,163.6755900583736,0.7128896988883704,-0.31300593586275066,0.6038806416626159,0.5363226329721268,0.6942832231002052,-0.028478455866184638,nm,0.0
107.50329732894897,-36.77014034650028,-8.185532626973504,163.6283673905905,0.8550657868261667,-0.4402197184020272,0.1093270025258097,0.5909787375587686,0.5306816022399999,0.01239329714850193,nm,0.0
107.51425361633301,-39.105583676840354,-10.9256077842336,163.74299086227396,0.624753078174803,-0.3696197728871979,-0.17244514148414902,0.594323897527691,0.4093563429639539,-0.013141294580353024,nm,0.0
107.53350138664246,-44.01712301280218,-15.304800078577054,163.8774226910843,-0.1969095212175065,-0.16413430035009274,-0.5246894842629695,0.571674839249373,0.27957207790109523,-0.08184385914370809,nm,0.0
107.54382252693176,-46.320300783982155,-17.357070794018746,163.82430141481422,-0.5700638283397055,0.006485654470047751,-0.6113899048880186,0.5375746535729609,0.2833628359094862,-0.09906365531686136,nm,0.0
107.56496214866638,-49.84848427510114,-21.633747192872125,163.87342266601522,-0.9745214300256885,0.31605648561468674,-0.6327674776808141,0.39662864010713367,0.34841404755381616,-0.07112185781401509,nm,0.0
107.57107353210449,-50.858210254155544,-23.7827648975022,164.03340435565224,-0.9903506288649252,0.38613800617738525,-0.5857794689592928,0.2972267804202683,0.3736036326590227,-0.01723005510545989,nm,0.0
107.58979368209839,-51.226467038726746,-27.12851964883046,164.49567973658233,-0.7711773481371447,0.3754704058755009,-0.4326835346265882,0.060058052942695006,0.29104346341631265,0.08265531272171579,nm,0.0
107.61164927482605,-49.68229875808378,-27.90288868821864,164.72296128887447,-0.5599999877512467,0.3601689594223126,-0.3005583024598992,-0.16456389701169907,0.06128968405900785,0.12295474063080333,nm,0.0
107.61888146400452,-48.420568925001646,-27.221682494261437,164.69121104662915,-0.5626046340049736,0.3781838654522435,-0.21254263868431972,-0.2531355940913098,-0.06043139131964003,0.12404787455199477,nm,0.0
107.64197874069214,-45.281398316972464,-24.31329728727467,164.45251783378498,-0.7020364607700328,0.43974067987523513,-0.07341422813708912,-0.37596745678549376,-0.22584681029838627,0.11990027856668589,nm,0.0
107.64704132080078,-43.624886183097935,-22.46257667482386,164.43352508721213,-0.7451927004295819,0.4670444025602486,-0.03167574586751507,-0.39441090263295725,-0.2629539799772574,0.11858029535509884,nm,0.0
107.66853594779968,-40.51518835526473,-18.47201784816151,164.73757530957698,-0.5480469542434347,0.35377166132268145,-0.03535981704556451,-0.38241303462146214,-0.305379489007091,0.11811462796756449,nm,0.0
107.68360924720764,-37.97811026817392,-13.884331023708677,165.2750484723959,-0.07694277116657756,0.14562108621330497,-0.18292693429232923,-0.35071908986260525,-0.39514850040543326,0.10952983697417666,nm,0.0
107.69594955444336,-36.90450853336253,-11.139234180282648,165.63165197883612,0.1799322717549778,0.009323623975510571,-0.2478835145861985,-0.34422484218840615,-0.46630575750400016,0.09756525529827721,nm,0.0
107.70303320884705,-35.87138690335642,-8.00024991061997,165.99196523384072,0.4007114098462989,-0.14685673474753416,-0.2897616543161134,-0.35492084880125735,-0.5463636665779525,0.0788962518037608,nm,0.0
107.72400403022766,-33.841333528747164,-0.48657622602136924,166.49115191685937,0.6836332763456723,-0.3308551372418971,-0.31345516044092364,-0.38837192306100315,-0.7079952601161176,0.01596786915459429,nm,0.0
107.73215174674988,-32.711274266969035,3.722499156781927,166.65826398861063,0.8144006250669793,-0.4347823543854307,-0.21499769906771796,-0.41882088844480847,-0.7543273706290402,-0.013300389344113603,nm,0.0
107.75301003456116,-30.017050999357128,11.947427379017855,166.89044481655512,1.1638026956550274,-0.6681561852830809,0.3195328401860489,-0.4582105335348496,-0.7020562656826926,-0.06775254030031708,nm,0.0
107.75929427146912,-28.482396027692953,15.46023406541241,166.83104405780523,1.2392268718315107,-0.7525745726621889,0.7797037093593048,-0.4543542743795842,-0.60386139116051,-0.11185319333925424,nm,0.0
107.78193736076355,-25.61169512882374,19.87688946904336,165.97508034612497,0.5179368525879241,-0.5209068817127693,1.1856404262006044,-0.33065880095713984,-0.256542052271908,-0.19413790361986377,nm,0.0
107.79090213775635,-24.823144866931138,20.52036706367965,165.07904457551473,0.012446862317965721,-0.2590585170531614,0.8763516693187587,-0.17939227077018893,-0.07370377992360312,-0.20557710072517263,nm,0.0
107.81460237503052,-25.342009184868772,17.520898745084246,163.3639066744501,0.3440305729386785,-0.15280441512616397,0.39615976926221064,0.23204020021485533,0.4460696622315003,-0.06605312803706045,nm,0.0
107.82459664344788,-26.675025305363693,13.808714607987262,162.68965868829443,-0.03927408205031519,-0.46515133044152174,0.9589826930191108,0.4611667017433662,0.648689347063921,-0.004609404629069715,nm,0.0
107.8273491859436,-28.612220578618782,9.907848964460397,162.0498270237054,0.45814874876752726,-0.4622275127319127,0.6565654071079166,0.5951091690718397,0.6434130999751564,-0.04862854305911443,nm,0.0
107.84913229942322,-32.47937168522319,0.7128039835007925,160.96682939248382,0.6699623222908635,-0.6388461568160415,0.3098076757003177,0.6771830391884792,0.8025092110257765,-0.02501208552460535,nm,0.0
107.85365009307861,-34.24427498601921,-3.3454896562534855,160.64203434821724,0.6710018779323419,-0.47982108885178487,-0.01822960909621338,0.5980849130718956,0.6651230273197108,-0.07050828900176555,nm,0.0
107.87913870811462,-37.22069203797393,-9.466582674804092,160.09299822263344,0.18037202099065194,-0.18886930885724104,-0.4325660075791946,0.4682229533336089,0.46173049997798804,-0.00938917802003175,nm,0.0
107.88285446166992,-38.49580302690278,-11.757720650224531,160.1328741864825,-0.29902404531363647,-0.06480825694402345,-0.4074165744105494,0.39041192045614537,0.35901089224520666,-0.0015884330017910894,nm,0.0
107.9271080493927,-41.16252053327312,-17.511588011561482,160.40083076906728,-1.0131724373322006,0.295802843236804,-0.35243578411145743,0.2609992560112059,0.3658372251935112,0.03390822493967801,nm,0.0
107.9293065071106,-41.598396617753856,-19.526590964569937,160.46206031982013,-0.9403086723949483,0.3890327036876968,-0.35807111100689254,0.21205744571655294,0.3652923934759463,0.014959025478849256,nm,0.0
107.94462323188782,-41.83061926774789,-21.544187236167016,160.63197680873378,-0.7922620326407835,0.4730723118477371,-0.39231500130610103,0.17470436796678557,0.37923261997221336,0.04666755961077203,nm,0.0
107.94626498222351,-41.94988683852484,-23.455596300354586,161.0636231021051,-0.731360900279488,0.3812102339252941,-0.21240002413439127,0.14559818405943198,0.3670615237158004,0.10579579789327528,nm,0.0
107.95030760765076,-41.976319223334116,-24.784484343086948,161.57482726075588,-0.5828955075175801,0.4071316316893641,-0.21055619121192537,0.08885177988204639,0.2632937558479839,0.12247159446183929,nm,0.0
107.97335433959961,-41.54242669559049,-25.514114138605102,162.76303283047042,-0.4149012272366765,0.42173022620251277,-0.29648645959692593,-0.046240060030348105,0.04800735057688899,0.1795514085427715,nm,0.0
107.97779178619385,-41.03272497699533,-25.043268294860002,163.36819658979465,-0.4755915310191549,0.41578083439029984,-0.23918005861680788,-0.11730927736499404,-0.05046260577860881,0.17117995056101667,nm,0.0
