timestamp,roll,pitch,yaw,acc_x,acc_y,acc_z,gyro_x,gyro_y,gyro_z,markers,motor_input
33.52109885215759,7.124385106358498,-14.157662406332959,56.61660699820774,1.0809002927682838,-0.573640942060249,0.6788324748323165,0.3903737103766942,0.282493796404627,-0.009242834442208296,nm,0.0
33.53776931762695,11.368767399602984,-16.537609747848588,55.08906667589844,0.5829883964852713,-0.6275647820485454,0.4426408767408495,0.43876717831489004,0.17400311468503077,-0.060133877512909356,nm,0.0
33.547531604766846,13.137983872955886,-17.76938425046105,54.13831833179915,0.3119207091029219,-0.6223981908782937,0.3026850034405659,0.4105848437317271,0.1349161932522527,-0.0907082620810222,nm,0.0
33.56475234031677,16.011945956936735,-19.764728897335036,51.95682664008876,-0.027866047732871022,-0.34728596770585685,-0.21567534626229634,0.3160890818174875,0.09314002755330486,-0.13673555090263856,nm,0.0
33.591553926467896,18.02046687739278,-21.214460876110856,49.82341607844484,-0.157989544998757,-0.04725799473088103,-0.1421331579570353,0.2089505467008806,0.034060618863888815,-0.15439040602235082,nm,0.0
33.59555006027222,18.502790138633404,-21.78903229202449,49.0751573095194,-0.00958839359491297,0.20136138324767205,-0.645178790024746,0.15930927978410772,-0.004752805016141693,-0.15552428154731335,nm,0.0
33.61650061607361,19.834506017981237,-22.989127174643162,47.71850156469048,-0.4135961163664175,0.3872114552628858,-0.15294011858347273,0.15910352855478355,-0.010396327440531474,-0.11887244798002305,nm,0.0
33.62601113319397,19.877882793602975,-23.465475971170235,47.08060478734754,-0.372918664499644,0.5298724014287386,-0.48909863558748845,0.08917413477561927,-0.057250825750170896,-0.1476978642322898,nm,0.0
33.63251972198486,20.028987205779444,-23.86546414835079,46.45759446858505,-0.5624678304085396,0.5499201308847658,-0.2617678783323514,0.09090481174661676,-0.033332244920746164,-0.13501389519453502,nm,0.0
33.6522912979126,19.08194895136156,-24.20094175157361,45.12121446554865,-0.5532649502209454,0.6629862554278365,-0.28632652945043846,-0.06652705518014085,-0.10073780854497977,-0.18328106923222956,nm,0.0
33.65972661972046,18.130072643420732,-24.13804127271998,44.791032370786,-0.612598118878219,0.665449324162408,-0.07604056516300524,-0.11817574430897002,-0.11342673296576453,-0.16426882547542038,nm,0.0
33.6827130317688,14.662260298915118,-23.85990059955362,45.044412362842266,-0.5177660467841574,0.7154701344993605,-0.06843592136500012,-0.2621394705537071,-0.23078152495556856,-0.12996572031721998,nm,0.0
33.691789627075195,12.469549750812918,-23.66289542083343,45.57764403244307,-0.5973584612247912,0.6953956803510394,0.02380254265544161,-0.2966018230475419,-0.2580702784516414,-0.08122544796177371,nm,0.0
33.71033978462219,7.347346704511423,-23.198056109417546,47.34980740160747,-0.560168473469265,0.6035926096048354,-0.15031494707983342,-0.3486001687679682,-0.3139152465193181,-0.02493891693606853,nm,0.0
33.7238233089447,4.785168498330949,-22.8401898456969,48.32749869685344,-0.5892659568337548,0.4908318544831367,-0.16781001609656165,-0.35591557190837825,-0.30222405444880845,-0.0015667158409368666,nm,0.0
33.738816261291504,-0.08606852334124097,-21.791078038507113,50.188299877607925,-0.3565190476988247,0.2794909532820265,-0.3449976242575334,-0.3538167429582323,-0.25507669126927524,0.03495752896936365,nm,0.0
33.745909452438354,-2.1540950276141846,-21.09356994785526,51.20588743847051,-0.23232249489563186,0.15869545651835196,-0.39084440852197405,-0.3379930979741135,-0.21008605605104336,0.06647767510905472,nm,0.0
33.76598644256592,-5.110792786853043,-19.404613879044092,53.360809111763444,0.15746765471241914,-0.1424760293168473,-0.4928515729973091,-0.26695396510755226,-0.07507758011540853,0.1501026760139127,nm,0.0
33.78991436958313,-5.006524458285482,-17.394571934051168,55.20680763468217,0.16835848415801472,-0.5580168647009751,0.21234415565586387,-0.1192511229959767,0.16841107355225773,0.2392300816647643,nm,0.0
33.79449009895325,-3.9852776582537834,-16.424779654922524,55.869201457199864,0.6221003752073635,-0.869704962336734,0.15181845032335498,-0.03439941944671516,0.2716539597864392,0.24740134334147293,nm,0.0
33.820119857788086,0.7035137974839535,-15.241642420712525,56.32894066446111,0.7328747707444451,-0.9691348081595649,1.0005839318913416,0.19828022307007734,0.4342066179034636,0.18144228092090706,nm,0.0
33.823660135269165,3.2617391483642644,-15.182327022776922,55.87080372727236,1.0800735350391726,-0.9458545033304374,0.6521427290686801,0.28075921965475503,0.4172474629259434,0.09107916929891952,nm,0.0
33.842138051986694,8.739120190874731,-16.19235089386654,53.783607942506315,1.0343419884471903,-0.8815260241868847,0.8022811136022872,0.4033063067113119,0.31935135960795674,-0.05767667609500475,nm,0.0
33.848960638046265,11.00432824508992,-17.043180675689882,52.51429546790891,0.9581544768581882,-0.8166982341779482,0.48969262309529443,0.4110257242374269,0.2460552692547536,-0.09142000920383377,nm,0.0
33.85935974121094,13.060095811372047,-17.987193780590115,51.51284829992841,0.6453995785824325,-0.7254792661109343,0.5119305986273992,0.40411662292751094,0.19428121919266442,-0.08544908884548678,nm,0.0
33.88133955001831,15.738512831699158,-19.6826771076794,50.22135496539283,0.24162805083409206,-0.44577375345585035,-0.06742326043956788,0.28751484686988854,0.0755572424150676,-0.0547654863404264,nm,0.0
33.887391090393066,16.61856063070302,-20.473883992944746,49.84530985031309,-0.02447490019395543,-0.275067381255211,-0.024320030511980152,0.24119765859298842,0.026789554097841114,-0.052813209570285326,nm,0.0
33.90672969818115,16.954661218059947,-21.6155504496869,48.706240677259025,-0.16564791180061494,0.12255774628579272,-0.3975646325762174,0.08899452190857268,-0.06473433647238407,-0.1278222098865865,nm,0.0
33.9169340133667,17.07124499264653,-22.12668413449191,47.91889548861254,-0.2055161053963017,0.32092572957819027,-0.48209606149108525,0.10444395385073675,-0.05080396831152863,-0.15369582913090524,nm,0.0
33.936436891555786,17.336071172844875,-23.04102338294702,46.24712009520202,-0.4531325221184415,0.6037084800425343,-0.3559736958914123,0.0696019265295512,-0.05982335057230131,-0.21479207089480026,nm,0.0
33.96763515472412,17.419628996139743,-23.78856562583364,44.69495743928801,-0.6641692500708065,0.7752342560414895,-0.16586331865263731,0.06898052869516144,-0.04400212076464791,-0.16786771748297039,nm,0.0
33.999415159225464,16.332417661821832,-23.962413108235573,43.97258580497232,-0.6693084263269589,0.8732720151392422,-0.280446598627529,-0.0752186693029115,-0.08714043636865028,-0.10718288678048363,nm,0.0
34.001431941986084,13.892294596738726,-23.586061224774507,44.16461250056288,-0.5715448716301278,0.9181823642915571,-0.07552693065622572,-0.2126927066350043,-0.14697167845120745,-0.06563634869698412,nm,0.0
34.00498938560486,12.2310515755637,-23.25916179284713,44.42237558880987,-0.5190663370216023,0.8865561823031703,-0.01804093894263743,-0.2504813728584684,-0.16628706821775954,-0.051549869713705405,nm,0.0
34.01123547554016,10.368251949437536,-22.973345596075678,44.92402531304603,-0.46316573692784946,0.8261776906922025,-0.024222524036122087,-0.27018378247259617,-0.20099998367547095,-0.04954826905390485,nm,0.0
34.03367257118225,6.30221425632157,-22.570305672080938,46.16530544876517,-0.3796388445106287,0.546632444282688,-0.12164960476772138,-0.27686857405439796,-0.2464888782854764,-0.026607491401654436,nm,0.0
34.0408456325531,4.159480468870632,-22.357626036661763,46.96924405662776,-0.3757862801770714,0.3819932276700015,-0.2062378148302487,-0.28931454528005124,-0.25948314390015964,-0.005570870499276627,nm,0.0
34.05860114097595,-0.17161668145207895,-21.67127639687679,49.047558729599025,-0.2790698722291449,0.08855833984958116,-0.37244271907522114,-0.30868024519509546,-0.24195443668231714,0.0638057957579643,nm,0.0
34.07355070114136,-2.1860229808658134,-21.07924179790856,50.19655448207881,-0.2209880170698412,-0.05057800292123686,-0.40675962625599793,-0.3194368971097456,-0.2098955190708796,0.0979664926335819,nm,0.0
34.09876227378845,-5.042895134603309,-19.421839810659844,52.41822314197084,0.08243935057445581,-0.265724582501097,-0.5336974548525353,-0.2539060369681687,-0.049412627106872886,0.16802402168523953,nm,0.0
34.100417137145996,-5.4166985850402645,-18.41745598965276,53.28768530814397,-0.08644386187334027,-0.3596248312121981,0.06796354611773846,-0.1885699494127139,0.06495749272621361,0.18762839421310512,nm,0.0
34.1161425113678,-4.073321431565676,-16.60757656363451,53.989429018872485,0.46740982684601534,-0.6917670986270245,0.43020041743327064,0.035936052208219986,0.3026879047265224,0.1962179089886808,nm,0.0
34.13060474395752,-1.9543785541775676,-16.15765403506714,53.81387747584729,0.45905082704626776,-0.7337617542002269,0.9923467941759143,0.18276823631471215,0.3813308588519598,0.17055509424541923,nm,0.0
34.13635730743408,0.47192319803359395,-16.17362708737984,53.369519472461114,0.8507440902693487,-0.7829400667681848,0.8588350432881809,0.29459592971750076,0.3730793840006247,0.09884993660528445,nm,0.0
34.15608263015747,7.1046398947102345,-17.456203587604712,51.383909734635814,0.833027234455773,-0.8551206591172291,1.007870006914051,0.5497876873205226,0.417426434393706,0.0017447722233753238,nm,0.0
34.16376566886902,10.466425328079978,-18.48441660109605,49.893672297204326,0.8772380992310598,-0.8650070261557405,0.7830778325371719,0.5796647303612543,0.3639849840073009,-0.05378383661845542,nm,0.0
34.18716907501221,16.635947445791675,-20.341572518106286,46.80669194087237,0.5976409326546063,-0.6853689029864444,0.2443913209781185,0.5113543286506255,0.2869569216462322,-0.10559886194873906,nm,0.0
34.1940975189209,19.299741832020995,-21.228238293597936,45.269668214704346,0.45706348144629416,-0.5308153873005288,0.011928372541220473,0.4873878692576624,0.23643780632201852,-0.12365311375713668,nm,0.0
34.22167253494263,23.56928631961845,-22.969987455935154,42.506487945834564,0.12165486558725093,-0.3150172677710353,-0.20118762517025496,0.3852827241605556,0.11864320727524229,-0.1542479654893717,nm,0.0
34.22351598739624,24.976510840705213,-23.708277434310258,41.155486777103214,-0.038754938265892255,-0.20746912214630417,-0.2816805786775453,0.30467380767015007,0.06318587732711631,-0.16443623102782434,nm,0.0
34.2364764213562,25.837892697952462,-24.309353851736105,39.94353065746402,-0.2515256520402845,-0.1438512357749048,-0.24484787406898967,0.21127521110462472,0.011656838673249669,-0.1780603051591844,nm,0.0
34.24294471740723,25.946777112038376,-24.7651094593019,38.85368179289478,-0.20699031266963294,0.03372215100115136,-0.5864451716282183,0.08659926814567795,-0.05745938929209841,-0.21467094024701178,nm,0.0
34.24942946434021,25.987928739410624,-25.06566199286278,38.006067094861415,-0.3096542872014839,0.16491757029918672,-0.5596099438589421,0.056655610106030395,-0.04217820174737024,-0.1820642049906845,nm,0.0
34.26888036727905,24.69802969591101,-25.218170439999284,37.30125110820537,-0.47842315610917363,0.4524088218612801,-0.23526360264995302,-0.1424386904745167,-0.12325417550755295,-0.2112064914009677,nm,0.0
34.279895305633545,23.436669703272525,-25.15364652777017,37.17591694694743,-0.4134326202481654,0.7320258092358846,-0.31174455941559864,-0.1760447022895939,-0.12865361386156643,-0.17736298867181502,nm,0.0
34.288480043411255,22.083682256863984,-25.056987773925236,37.251771600550995,-0.581278242141062,0.8481447514195618,0.028712877232931797,-0.1933424589345099,-0.13372079763462486,-0.13314063079389218,nm,0.0
34.29696536064148,20.20554701688136,-24.96795475620736,37.51317417319576,-0.524195060721244,1.0150203038498937,-0.12064147203902366,-0.2677689476448337,-0.19380318435912833,-0.1362807766113639,nm,0.0
34.31965255737305,16.183995388889404,-24.770268854510167,38.627602452198275,-0.6851210865972358,1.0107273896637754,0.06202048235570247,-0.2871191931924962,-0.2111668450142047,-0.06580493968711094,nm,0.0
34.339693546295166,11.725305324848954,-24.529143278268812,40.63550215921488,-0.669331252103175,0.8943674459220153,-0.16329448381135805,-0.3122405467541354,-0.24354878411936154,-0.025667580101416943,nm,0.0
34.3443329334259,9.560168578790003,-24.308656202106036,41.727924362037896,-0.6622397838123895,0.7856381724614803,-0.1537327247277142,-0.3118948795365101,-0.22839206174574733,0.011995465388516462,nm,0.0
34.36673355102539,5.2724744888496256,-23.598903339668144,44.14793801344605,-0.3787176718510369,0.5052314135788044,-0.34490054894257044,-0.3168504926197171,-0.20854316570718706,0.07448413556106424,nm,0.0
34.37308406829834,3.3615307150350144,-23.124494678356484,45.41120209866496,-0.2971150041928347,0.38159877209982335,-0.3111634490390815,-0.30211092566057324,-0.18116340229061223,0.10839996855323888,nm,0.0
34.39779210090637,-0.2922903173261722,-22.00124810645454,47.8203026172188,-0.07474853560373658,0.1231489324569514,-0.36965351420292425,-0.296607115748025,-0.166651848784025,0.11892714887729355,nm,0.0
34.40081548690796,-1.9422775108916959,-21.367726836711608,48.934279155347696,0.061470671426313614,-0.0033570302666920053,-0.4740305750834967,-0.28453329439793346,-0.1460828179949924,0.11751473497922221,nm,0.0
34.42431116104126,-4.755366171323245,-19.870143507422682,50.89048046688895,0.13970507655190062,-0.3207731617867295,-0.4547284911614804,-0.2868254433777114,-0.11700162610594032,0.09604539916477792,nm,0.0
34.432315826416016,-5.904422398927075,-18.977020464858427,51.7499187180809,0.6556707307115798,-0.687180357710051,-0.7184980433129748,-0.2608739037733689,-0.058262436305348275,0.10983833311989123,nm,0.0
34.453293323516846,-4.6450440828433415,-17.016545945339104,53.11792935767621,0.5718799095895797,-1.2894907957240604,0.7966961289426164,-0.017602280345162775,0.27702136928485716,0.2196621349522049,nm,0.0
34.45791673660278,-2.992862617243568,-16.19530461894216,53.45286844397373,0.8016612830369628,-1.2624659500254223,0.9427971855745184,0.07255869776514128,0.35216275979933337,0.19553221507030774,nm,0.0
34.48369574546814,0.6568185061703832,-15.348464043583984,52.963703581568424,1.0984402228004286,-1.247956005508624,1.3969564731118143,0.18543497761973585,0.29932015661508854,0.03430877976272038,nm,0.0
34.48765730857849,2.519227908400076,-15.645739512028063,52.38442039388828,1.0485252240084895,-0.8348582435757217,1.253804974870938,0.27929108792909535,0.24972274140424897,-0.019658265356402877,nm,0.0
