timestamp,roll,pitch,yaw,acc_x,acc_y,acc_z,gyro_x,gyro_y,gyro_z,markers,motor_input
63.513293743133545,-16.800740575307657,22.966411216668075,-70.49572734117811,0.5988405747607337,-0.476568623537798,0.4204066042674441,-0.20748983730863704,-0.11366293230462214,0.08456833636492389,nm,0.0
63.54617357254028,-17.402303569640342,20.06008692815172,-69.3709825864039,0.9252395831625844,-0.2403167615686514,0.8634791213672948,-0.11146990059916567,0.015396572328676035,0.05691206243988331,nm,0.0
63.5600163936615,-17.732369715956523,19.985404784274998,-69.41637694993857,0.8171502960646269,-0.026466387199566375,0.8580733315383913,-0.04507783115599567,0.042458633089906,0.024884945299692315,nm,0.0
63.568095684051514,-18.066598121361103,20.30501002884269,-69.60115609034004,0.6299648626347067,0.08544478941346369,0.7550249667865216,0.028703679021807156,0.0708317327802021,-0.0038058927761920737,nm,0.0
63.58614468574524,-18.539439894381566,22.358989596315034,-70.30155697020784,0.43130904434402484,0.03598337359103028,0.5762527264146309,0.2149191885047411,0.11705811526739024,-0.055737569664852694,nm,0.0
63.600494623184204,-18.880208549536974,23.94778686709167,-70.80255079987987,0.324962746626354,-0.04903918560187311,0.4075527560471513,0.26962086765792254,0.15486550110217043,-0.06272016334831766,nm,0.0
63.602155923843384,-19.35752355960225,25.681102476031505,-71.3866377951972,0.2675267307143291,-0.1501918623404691,0.23976826460308184,0.2906422032622352,0.18448154220782417,-0.06736337978249438,nm,0.0
63.60727834701538,-20.040753109567067,27.465389286290623,-72.13022323268314,0.16066047643219983,-0.17663681234108444,0.06094346303484249,0.291300466454355,0.21816575208090602,-0.07699669392942797,nm,0.0
63.62588047981262,-21.998647065254506,30.63670756177343,-74.20830029797682,-0.0518767156583155,-0.028952355876808313,-0.17441246669288382,0.22145180976627898,0.2538390202372877,-0.10568568602018441,nm,0.0
63.64172697067261,-23.274128931141718,31.908856323678783,-75.4623488179727,-0.14500717906553226,0.008243520840613592,-0.1938335361610853,0.17843614148452477,0.26811108268700884,-0.11297472504009301,nm,0.0
63.643359899520874,-24.683297746267737,33.09203992104528,-76.83458535695782,-0.2965480710670759,0.1221750962086234,-0.2861875068793597,0.16257946009439048,0.2787148457976656,-0.11437637282939797,nm,0.0
63.66811275482178,-27.491254730128947,35.22562999124845,-79.21860749743698,-0.4303506766835936,0.2936874131726194,-0.24982607513706995,0.146849775242448,0.2552827625172071,-0.06263588631680266,nm,0.0
63.67202019691467,-28.782059229974543,36.28212779886788,-80.09460483530624,-0.5034056586151631,0.37898061270988664,-0.286565976187217,0.15942010629802786,0.23569989007645223,-0.027897952822571792,nm,0.0
63.70103669166565,-31.001543145848004,38.334368644389244,-81.35419266883997,-0.5498941512031938,0.5103700576915303,-0.3371749255782517,0.15631404891478612,0.18592364563364172,0.02323118463800081,nm,0.0
63.702815532684326,-31.937777823021467,39.13968391882634,-81.83884410440658,-0.5435774167479877,0.525703141066738,-0.37984871785080265,0.12707356929528685,0.1596281163110577,0.03063634656890234,nm,0.0
63.71049213409424,-32.78882511786647,39.721402543123304,-82.24703323114713,-0.5615993972968543,0.5490678051096849,-0.4586284453247655,0.08597277808185803,0.13794492172257575,0.028741775424165422,nm,0.0
63.71957969665527,-33.49735847575947,40.00222801773649,-82.54939948039508,-0.5501143231006107,0.48908016981699154,-0.48403665972084314,0.030115629107382986,0.10685048868225643,0.027212922894781017,nm,0.0
63.7304892539978,-33.97389234030661,39.95949991420419,-82.67531152093791,-0.5810848979333807,0.4268475099558203,-0.5936871176778727,-0.0291008598827523,0.06283913102460707,0.033001032102074036,nm,0.0
63.739498138427734,-34.07881130228452,39.63451152431004,-82.44591605513651,-0.5548069097718704,0.35029599600101025,-0.6192156160151059,-0.07780247355858576,-0.0011047557603331135,0.042024967322910396,nm,0.0
63.749250173568726,-33.76108468312791,39.07757722774017,-81.84401610344172,-0.45517427123628124,0.26838766018984966,-0.6082703319916242,-0.1148163511784252,-0.07278941684279201,0.06106420662414229,nm,0.0
63.77129507064819,-31.883243229357532,37.217550633412124,-79.48734001486613,-0.25321078067854136,0.18424292081723576,-0.5648276371814513,-0.188944969279023,-0.2232573159192711,0.11520157886719805,nm,0.0
63.777021646499634,-30.496690539356436,35.91868663206293,-77.89259379263754,-0.1173459717050101,0.18939819880073566,-0.5007121465362027,-0.22164493917354527,-0.27914562794739994,0.12569833107570255,nm,0.0
63.79751801490784,-27.39302468069877,32.52012731617959,-74.72383168336086,0.2112779451588203,0.17523734745441694,-0.30786596849992376,-0.29977670280669627,-0.3590521426263829,0.09101022395810268,nm,0.0
63.81378531455994,-25.8624426759277,30.45557802786785,-73.5175752029521,0.37387663221116035,0.11557183352935922,-0.21726131380668853,-0.3357808665916369,-0.37465221898418,0.05573416257998286,nm,0.0
63.83656120300293,-22.97745698418288,26.02963309093461,-72.0407987159975,0.8161555875141538,-0.062040577111886076,0.21317291729505886,-0.36048076187782324,-0.3862753850648356,-0.03502892616294165,nm,0.0
63.838207721710205,-21.701758218584608,23.857205458853954,-71.61664787916725,1.0297662901454998,-0.23630091817120025,0.5568039463568526,-0.3500778924795753,-0.3665371195989841,-0.06990060212429627,nm,0.0
63.870516777038574,-19.482180330213996,20.34955213907781,-71.65790087463822,1.0248309961544715,-0.4417087685125898,0.9872153116530274,-0.2443292009442289,-0.29501946735331985,-0.1315743160747457,nm,0.0
63.87290549278259,-17.342782669425485,19.047481916327307,-72.44428730106894,0.5919296597267192,-0.25994846418759976,1.116375610007492,-0.010001235769483127,-0.20965286832445396,-0.18258230001280193,nm,0.0
63.88194227218628,-16.48810425529786,19.47816060139497,-73.0591636515445,0.5359045306126047,-0.26774952890707715,1.4117311209145635,0.1203798681575878,-0.13848149235010931,-0.1835533863924822,nm,0.0
63.90654754638672,-16.295777499170285,22.661562777814538,-74.55826345236505,0.0564816819063381,-0.39086716215718603,1.1193738307423031,0.3564546005147767,0.11938526186026377,-0.14374098402067406,nm,0.0
63.90979599952698,-16.90251533055712,24.942555936751397,-75.45305487240633,0.09861102700211066,-0.5126776475311919,0.9440583477052356,0.40222287847767585,0.21625193263276896,-0.11689481953833862,nm,0.0
63.925097703933716,-18.311888140259985,27.378955092434836,-76.52829847694328,0.07777311884127072,-0.6325345347958443,0.6545458294902642,0.4018186493233067,0.35468523040981703,-0.06982661883814985,nm,0.0
63.94347429275513,-23.11920001637404,32.09420291672628,-79.37673053325744,0.08694791837094795,-0.4109349611563268,0.06026823720003006,0.3414832548699447,0.5326795048439841,0.011586986763606056,nm,0.0
63.95906186103821,-26.291526051951934,34.08334162913307,-81.02470477733662,0.04612234779152425,-0.22569168529147118,-0.20065014972703463,0.29169793403566774,0.5833588642198211,0.05631778369605609,nm,0.0
63.96247673034668,-29.656368556781423,35.878568993391085,-82.72597434283439,0.042048733761956954,-0.016479024172178326,-0.35105899732867224,0.2674581197273896,0.5885321660454605,0.08423254957732133,nm,0.0
63.967795848846436,-33.025952255482906,37.50794278635765,-84.3650183120526,0.00441322009718742,0.1647330028698191,-0.52144753553509,0.25283959081997187,0.5655170280706435,0.11333794892775306,nm,0.0
63.9801709651947,-36.16002250990721,39.014625542756725,-85.82807852474043,-0.132808714984478,0.35397866943031503,-0.6822673303467226,0.24773068805943887,0.508003871819015,0.1315020793333929,nm,0.0
63.985355615615845,-38.77766806039865,40.38388110725043,-86.98006251717254,-0.16148477180084556,0.47253033178745285,-0.7687462567183203,0.2372506806008012,0.41104846854476673,0.1290649474104624,nm,0.0
64.00962400436401,-42.366219772459566,42.62417508359691,-88.40678007588428,-0.28714615427431345,0.5736045753579154,-0.8477583704476681,0.1865591710358986,0.22081074827295774,0.08826279811930954,nm,0.0
64.01862120628357,-43.17674458186129,43.334351711610644,-88.69815223561471,-0.36929904496409316,0.6254223992964245,-0.8649631249485265,0.12764992172201794,0.11382642876113422,0.05019954320657424,nm,0.0
64.02498507499695,-43.3925121743954,43.66775545344657,-88.73070048740111,-0.4054466233412642,0.5862537299511591,-0.7665896561762663,0.054533504375641015,0.02435667146407089,0.021099871422675415,nm,0.0
64.03378868103027,-43.057849546222116,43.65061149325516,-88.42309220959906,-0.5212899174214123,0.5878884949190091,-0.6845151406144454,-0.013676261942185216,-0.0570366437871469,-0.009149411924893526,nm,0.0
64.04289937019348,-42.20321655988182,43.31068742210584,-87.80637512476599,-0.5168424308956084,0.536521225550906,-0.5226772566900579,-0.07524022929260304,-0.1349325379464659,-0.029198708466212364,nm,0.0
64.06822562217712,-39.39603900703521,41.97473840664449,-85.78147608020103,-0.5218267672897487,0.3967169399144493,-0.2293761351018576,-0.14415924804479682,-0.2482619501849553,-0.02283078081973673,nm,0.0
64.07045531272888,-37.66473779508146,41.16374335335208,-84.4445338508675,-0.4971542697720181,0.36299682584743126,-0.12347975111858076,-0.1505035902981804,-0.2811319720741562,-0.005917971558410428,nm,0.0
64.08207273483276,-35.874498531824656,40.2913055505001,-82.96600607004923,-0.45063824590627555,0.3256401154423124,-0.0650548888085078,-0.15451336298854362,-0.29814949862520645,0.01890706669699111,nm,0.0
64.1023440361023,-32.50019290309472,38.315415467011775,-79.94894414732418,-0.3027681196070594,0.2755689849511832,-0.10966499721429922,-0.17417165217437375,-0.2938944695075753,0.05376454658670254,nm,0.0
64.11776876449585,-30.98730722882951,37.119300071146625,-78.57445876714829,-0.17957849376792176,0.2286551955703287,-0.19981942334854846,-0.20101401744756364,-0.28944292027902396,0.055336766634909225,nm,0.0
64.12129044532776,-29.60027322909115,35.731847074789094,-77.33101276160524,-0.0470355497085337,0.17050282449065893,-0.3047604687957341,-0.23524538832412256,-0.2861284347737416,0.04780489228518463,nm,0.0
64.12841892242432,-28.289925454834936,34.13209889195776,-76.27632375379532,0.06663551144899191,0.12700045660437206,-0.42561857249501445,-0.27289849436542546,-0.29225205642789887,0.03197150098889176,nm,0.0
64.15731239318848,-25.73721177957938,30.277573248848253,-74.65897035281915,0.4822097915679561,-0.09693122617910443,-0.3398237197647952,-0.34493224613299933,-0.3233557483728472,-0.00032680007332014594,nm,0.0
64.16289973258972,-24.459069751361298,28.165397394768608,-74.04858066277222,0.7129717545630465,-0.21258995053384833,-0.17535990201930649,-0.35693238372489666,-0.3391192356599703,-0.020756293420189868,nm,0.0
64.16618990898132,-23.223510277391235,25.983024096639642,-73.55752305589192,1.0209116675565255,-0.3329474699943305,0.1750788281724894,-0.3679900514695668,-0.34354273932693247,-0.03395610079416449,nm,0.0
64.18777513504028,-22.247520130572752,23.74845256051869,-73.06833426117338,0.9325233106647347,-0.43927652341635937,0.3238684411873468,-0.38706188859153656,-0.3089979383231966,-0.0302992427263597,nm,0.0
64.20532202720642,-19.693100609695772,19.62795643813307,-72.60901553457578,1.0127349416343479,-0.34192507319751325,0.937916121435856,-0.3053273888286471,-0.3740554789445963,-0.08472926633069953,nm,0.0
64.20716190338135,-18.48761632647665,18.127252220955995,-72.588206083788,0.67342764711012,-0.21883013829582076,1.0484647459184526,-0.2281468618355378,-0.31793500475071745,-0.08264746729471976,nm,0.0
64.21585988998413,-17.069844631064516,17.45463862624365,-72.6700774328809,0.27186584834024285,-0.028827050892670368,0.9491217357522596,-0.057615926379755676,-0.3081898587631766,-0.10676792263114825,nm,0.0
64.24109530448914,-15.09756255789311,18.886628070110305,-73.28584195175331,-0.078111600273614,0.11174426067253604,1.2106787615168813,0.2259124406284684,-0.017720548295207146,-0.0831686147657344,nm,0.0
64.2429678440094,-14.9043722540354,20.68456234722625,-73.70200067711534,-0.15108297113853877,-0.1243932816018228,1.2112361588712053,0.345581463079847,0.057617990132794915,-0.07933509061621885,nm,0.0
64.26638579368591,-16.850295058582883,25.61482347510848,-75.05768404103523,-0.16229470209634647,-0.45830923361367515,0.546229365184814,0.4082526306234127,0.40404342279801264,0.005645695572096927,nm,0.0
64.27101039886475,-18.841506613989964,28.132323300006558,-76.03502774190513,0.060399308354082894,-0.607092982575201,0.3598368057225872,0.38971144142726943,0.460628723983974,0.02506667201394199,nm,0.0
64.29440188407898,-24.470771958589527,32.4422164560683,-78.46529887558476,0.06460851467150806,-0.3726055194784502,-0.26944498617725354,0.2643169013576448,0.5777131187615856,0.10760395911212135,nm,0.0
64.30408358573914,-27.56714473730274,34.10360073664617,-79.73728272424478,0.10847414740604606,-0.17831976776591904,-0.517913021923775,0.2187554988181428,0.5627527518262918,0.12895568931489082,nm,0.0
64.31061387062073,-30.596634233878223,35.57609975346836,-80.98391448897938,-0.09283607705567845,0.14084253651143808,-0.6818556260141249,0.19747595792547995,0.5309921839798207,0.1491735196572081,nm,0.0
64.31986212730408,-33.10155817952131,36.75440121995448,-81.77340461342578,-0.1204063647785973,0.34436340769326124,-0.7275988553717377,0.16188867838612697,0.4267424732391285,0.15817667622239256,nm,0.0
64.34155416488647,-36.61849806038565,38.844500861090026,-82.57451714456089,-0.31146316843918276,0.6887447156408596,-0.7291625579099115,0.16655591486486646,0.2538130663126225,0.13733339958642232,nm,0.0
64.3471953868866,-37.45506920158016,39.74911868321455,-82.63829759575972,-0.3087042417310939,0.8114489888496658,-0.6599039316301993,0.15202390446521577,0.14277050064673935,0.09965902413906558,nm,0.0
64.36025285720825,-37.80416829237992,40.40044170644237,-82.4998647856742,-0.3780869423432446,0.8063509531717012,-0.6398802355291968,0.11145953243291999,0.06083352291797735,0.0701828456089432,nm,0.0
64.36580324172974,-37.72538965516311,40.82097919580492,-82.35163687533665,-0.46631683262693113,0.7777922937233596,-0.6254704749111903,0.07411758553941195,-0.00984580625852106,0.016805811168911618,nm,0.0
64.38938808441162,-36.418044717903165,40.61668378442845,-81.66490818677212,-0.49089371595216924,0.5178447636409574,-0.5744622541755104,-0.052952212441777474,-0.140501079843036,-0.04803077550567615,nm,0.0
64.3950469493866,-35.24886186492326,39.99828043468306,-81.04358293282377,-0.45046863751689736,0.36603617896886,-0.5145155327478025,-0.10620606293522995,-0.20429279630437225,-0.06233581909554709,nm,0.0
64.41114950180054,-33.80099629401009,39.12135574997631,-80.23562488626648,-0.4275135058835133,0.2833919296048661,-0.43254982619493876,-0.14743120785893443,-0.2583308424626143,-0.05598100734621101,nm,0.0
64.42037677764893,-32.12736101039333,37.98555986596794,-79.15792585241697,-0.38907740342940367,0.24524753702572533,-0.3421830732330845,-0.1872150429590847,-0.30789166230078,-0.029965026923941245,nm,0.0
64.42310452461243,-30.308845311793277,36.66638400399615,-77.92720506323103,-0.30951442926701844,0.24547140560104383,-0.23925660449569802,-0.21158160102366852,-0.3457031336578101,-0.007170125402079666,nm,0.0
64.44677948951721,-26.76618253652945,33.677700670587626,-75.56280576536624,-0.16243296931561305,0.30678721650853324,-0.17919981728022308,-0.24423191969196378,-0.3626495167309885,0.009915258606129611,nm,0.0
64.45442032814026,-25.12276247382,31.98451571353088,-74.49733702406701,-0.028416316146236843,0.25784742404992916,-0.22212985259819398,-0.2658015084870916,-0.3645946975634467,-0.0036758626505453357,nm,0.0
64.46085381507874,-23.603900157587983,30.17357209748644,-73.65501350572897,0.11269217784179551,0.156494643468097,-0.2795446038905666,-0.2868423090323369,-0.35997450325121505,-0.025289243887346022,nm,0.0
64.48870277404785,-20.84120658066568,26.213966715526496,-72.71784991554811,0.5637385021455918,-0.21956534905704414,-0.13472732483761324,-0.3278962513336724,-0.3567962217418491,-0.06207898167687954,nm,0.0
64.49034762382507,-19.609459511291043,24.121846322811255,-72.40595816766441,0.8364926217891923,-0.4253396975478381,0.18761258138313533,-0.3423245386046369,-0.34863640854246736,-0.06692200824991437,nm,0.0
