timestamp,roll,pitch,yaw,acc_x,acc_y,acc_z,gyro_x,gyro_y,gyro_z,markers,motor_input
18.50930690765381,7.802120492958111,-5.080426350389358,92.97402363089745,0.4651868008974219,-0.5116533194146208,0.3319199652277173,0.22166977929574255,-0.10126947141492887,0.18517799953330627,nm,0.0
18.517313957214355,7.258810602069288,-6.005053106798072,93.99276460965203,0.020403249663344305,-0.3906370937452232,0.3202907836803792,0.20140393546743393,-0.08807097613712125,0.18784156924055495,nm,0.0
18.522874116897583,6.330158088625177,-6.882787181159324,94.73978763937144,-0.18547579510613996,-0.18419899727138148,0.07202366293244912,0.1993136743041054,-0.16189322713487259,0.12337319896147163,nm,0.0
18.52905535697937,5.547498223450689,-7.776710606301995,95.09239705747349,-0.12445597784936635,0.14052894139427996,-0.6146281013307153,0.20168423029742383,-0.13042946886994652,0.04555804591334883,nm,0.0
18.538682222366333,5.711730878808026,-8.70222272112205,95.08111162408096,-0.5718137997621817,0.1604810064043549,0.005044895763715697,0.1917119588076663,0.0580227528136911,-0.002487473997711781,nm,0.0
18.553924798965454,5.580547839559108,-9.631614776775049,94.7325091147341,-0.6248002051509013,0.29481467092062635,-0.25843174427625726,0.1977048066341712,-0.0007305509245388755,-0.07876103064999694,nm,0.0
18.581748962402344,6.264324194355238,-12.515736431629682,93.65713745491054,-0.6873252814136654,0.4139153782306006,-0.46761526517648044,0.1898495917460213,0.060446672456800354,-0.038905349681930886,nm,0.0
18.590764045715332,6.476016029537832,-13.355354218605457,93.64596055368838,-0.6682641315168546,0.4270104207717839,-0.5624607728882417,0.17527471395714847,0.06125720029267778,0.0028576917675730536,nm,0.0
18.612002849578857,6.715108401346676,-14.768793693377006,93.70909232265136,-0.7695967797441674,0.43729735941266357,-0.5843386855074609,0.1406992131212762,0.009538519883688772,0.010963082706860822,nm,0.0
18.615219116210938,6.632684400242479,-15.321907370851019,93.66616899424953,-0.7962703722727872,0.4591070030777131,-0.5395286311282814,0.12164599076219433,0.0006955149150953107,-0.01700007706413131,nm,0.0
18.64619207382202,5.892426391100543,-16.152460972517737,93.03946523988694,-0.7429052389044742,0.5347073608214462,-0.5562895086500602,0.08819614321642737,-0.08423510285744899,-0.11055740336204951,nm,0.0
18.647822380065918,5.2967404040546135,-16.40762765011815,92.6968697500191,-0.732139493403708,0.4721943653425387,-0.415092274955058,0.06724331352438076,-0.10243445449740649,-0.1228688677834342,nm,0.0
18.652990579605103,4.419200192444531,-16.544040657491355,92.4387369546755,-0.7073735215123562,0.43017175378936595,-0.38460214993245545,0.045480929756290735,-0.15784657240735328,-0.11996352686094595,nm,0.0
18.672638654708862,1.9640499502940634,-16.25424405530603,92.63470458981395,-0.6941708341827583,0.28503384980280994,-0.363567376461876,-0.02916810753402614,-0.24329099964863815,-0.05208532963873341,nm,0.0
18.688013315200806,0.43721879939148217,-15.762191602463577,93.00916687726114,-0.6646153482712892,0.20753016191693252,-0.44499949987773363,-0.07287116788007197,-0.2893181768184402,-0.02924191427600979,nm,0.0
18.694566249847412,-1.0977281397374652,-15.071618511579386,93.45811019495966,-0.5993852657981459,0.09824773970289931,-0.49843420222945745,-0.11010662887600658,-0.29466083868336856,-0.01867649648297664,nm,0.0
18.722142934799194,-3.653621457855451,-13.284685207465596,93.86977267462495,-0.4042205162534008,-0.13266829552334342,-0.3713014421298951,-0.16241234094490054,-0.23365068692381097,-0.050538994023422774,nm,0.0
18.72370743751526,-4.475049769072373,-12.264287533090455,93.7055921580039,-0.19689698982181494,-0.2775028228599786,-0.23154559412239947,-0.1821588546623925,-0.16465454787944483,-0.06662239766202756,nm,0.0
18.745017051696777,-4.515200799640988,-10.166508110445141,93.17885145153788,0.3188521675985574,-0.7860610183736911,0.2584664619466355,-0.20025857138398018,0.047285136535896825,-0.024789805982988314,nm,0.0
18.752074480056763,-3.250260053441999,-9.135972718405391,92.75400894499131,0.46551889340623287,-1.1181955482379249,0.6179776978392041,-0.2068007590554181,0.24813451265003986,0.047561574102930965,nm,0.0
18.773454904556274,0.35505174911710513,-7.165844221369079,92.66595120411328,1.1423387746608686,-1.3284909637266746,0.704265263586613,-0.19511740697774466,0.3526757644170959,0.09381510366439261,nm,0.0
18.77677297592163,3.05773160357438,-6.328572057594471,92.74661364269336,1.218737437082599,-1.2414662481044476,1.3021341673531641,-0.1813493900960765,0.5377005008748232,0.1094203729460443,nm,0.0
18.800630569458008,7.611505807787593,-5.290931271580664,92.63723230024772,1.473537875234879,-0.29387850533430204,0.6714503108604756,-0.07659845806730811,0.3925513615727274,0.05191056433734178,nm,0.0
18.804791688919067,9.540188826622728,-5.547408049159572,92.70903883552813,1.2581915676202988,0.06863677795451474,0.6731530651874861,0.043764528840422146,0.3949115580703863,0.07101377576040381,nm,0.0
18.828907012939453,11.380244609653005,-7.667044598198633,93.63793816181665,0.7888230620217063,0.18984550891833404,0.18823217876407744,0.25894015368079165,0.13914018100652173,0.12511505308052456,nm,0.0
18.8349506855011,11.638336265672672,-9.207812395425181,94.31598939831697,0.37856659241451374,-0.038236269492201394,0.2251503231378495,0.31364851620396694,0.08159962629017418,0.13740188600088965,nm,0.0
18.857770919799805,10.66190357193121,-12.03282810481412,95.03248538915417,-0.1594223727361065,-0.3275625822592402,-0.152856595842468,0.27771599693456206,-0.09237832096642647,0.005977159705544978,nm,0.0
18.866307020187378,9.647935045569836,-12.993930006078577,94.9497575516204,-0.29890260828960385,-0.22192391140574988,-0.37507650140416915,0.21885465004413765,-0.17068014972268214,-0.1109666492316374,nm,0.0
18.88708758354187,8.045591983415408,-14.18267819939492,93.74835275051173,-0.7239349999512087,0.24135443169038168,-0.21235455512765686,0.11966702969538359,-0.11155562737192494,-0.22132546986425364,nm,0.0
18.892512559890747,6.861152573654367,-14.566898657999335,93.0455581018666,-0.7775336015568357,0.6034914533620581,-0.4483564583646943,0.10093814010619681,-0.2153199205155411,-0.23947033638557186,nm,0.0
18.91770339012146,4.4803150074931715,-15.313100706826573,92.60404367815674,-1.0769143264150418,0.8365992615927175,-0.292306507486946,0.09601314343045164,-0.20910657474094133,-0.09797338695706762,nm,0.0
18.923054218292236,3.002050452140517,-15.669762223340024,92.80497060159014,-1.1335953028269732,0.8046095017542888,-0.47260205677086636,0.09559716569181549,-0.2723179617176182,-0.057005652722608664,nm,0.0
18.938607215881348,0.17752364422289196,-16.239989844357385,93.33683776930432,-1.2649929128841,0.4380162154272973,-0.44894252519443417,0.0728863891705657,-0.24607093593335602,-0.04439291711025121,nm,0.0
18.959972858428955,-1.1948882905849687,-16.285036229256008,93.27262385887775,-1.220466011338911,0.3177619539545552,-0.5537827895270548,0.03515397520623082,-0.2537520235578468,-0.09233463698907962,nm,0.0
18.98109483718872,-2.494288380808874,-16.121737192224696,92.9966039508681,-1.1239792640276796,0.26928058410718153,-0.5775009770621508,-0.007890003044343747,-0.24229358089963737,-0.13016423235526642,nm,0.0
18.982689380645752,-4.886708295863169,-15.062545919586347,92.42985735929537,-0.8560427353051898,0.3411598142011046,-0.5058034893312455,-0.11136645984843684,-0.22657982662768344,-0.10995727117565933,nm,0.0
18.997660875320435,-6.053610881699259,-14.154524648418391,92.25562746259327,-0.6639042720361161,0.40163282232115,-0.5457392053854799,-0.16139680073752824,-0.22442628977312912,-0.05020644074453026,nm,0.0
18.999639749526978,-7.106258650282478,-13.077432323108454,92.46297330634934,-0.516893073790679,0.3837942237888299,-0.5411127708441733,-0.19586207165291772,-0.20469648223143508,0.026281653968215087,nm,0.0
19.00702142715454,-7.990437770773899,-11.894640745958428,92.82599641346562,-0.38358773778769234,0.25445658072691774,-0.49229324970453575,-0.21752500522133256,-0.1745065650389556,0.08878423036687605,nm,0.0
19.029112815856934,-8.69354447980105,-9.45341635233248,93.7672332950837,0.0035239518463167424,-0.3115555793604973,-0.2799520195814244,-0.23063989862345782,-0.025197909288404638,0.11434394208249872,nm,0.0
19.052350521087646,-6.584819524034887,-6.94592080218677,93.58704590869493,0.212897142627955,-1.1155247670295858,0.7019536872091332,-0.2607185724456156,0.2637359959791912,0.020170383141471286,nm,0.0
19.05404233932495,-5.139456483462753,-5.616962710191808,92.89580980724739,0.8563661527714379,-1.2232369797178348,0.6384724766013555,-0.2700386606477688,0.28108491525307944,-0.06376603411305898,nm,0.0
19.061686038970947,-3.001002368792365,-4.239644832748604,92.01283011779975,1.05791886944656,-1.2816313847520928,0.9170231774998178,-0.2817910593516464,0.4230025509760333,-0.10703590794422271,nm,0.0
19.086894273757935,0.6308930875749208,-1.7844802662162809,89.99499389538984,1.451634124544292,-0.8756885287342573,0.885380443110339,-0.21470524142566497,0.3091277609088302,-0.17956177363660256,nm,0.0
19.089734315872192,1.7496801762937337,-1.0479610951073368,89.00205955981953,1.3705438160731374,-0.5028435557431731,0.8725556164680999,-0.13403887172597378,0.23264336018500972,-0.1827440692334229,nm,0.0
19.100276231765747,2.1288197929624055,-0.8638531656117975,88.14845501238007,1.2637983612690864,-0.2839241066442953,1.064265147161553,-0.023582614943699544,0.08392491998709548,-0.17497639545464969,nm,0.0
19.109200477600098,1.885488308048426,-1.3836741556603027,87.49898785909618,1.0732044505262315,-0.15311165233294943,1.2315363948271683,0.11369130028976487,-0.04550477891145779,-0.15506064016430815,nm,0.0
19.1329607963562,0.06594744320534421,-2.9560233248859644,86.67419662909575,0.3328656708284117,-0.06587420833931984,0.39157829681495787,0.14493832570179208,-0.23049544540602407,-0.08060266885727714,nm,0.0
19.143912076950073,-1.2020472062540335,-3.868876231487723,86.63859352895821,0.050022691316628086,-0.16149216919166542,0.31340264439883264,0.17963063172952545,-0.25659604055227864,-0.03282500094284475,nm,0.0
19.151065349578857,-2.5293734944760082,-5.233380275089096,86.85834629984213,-0.30850150274648963,-0.016135651636237786,0.3604879456328075,0.2698237910080144,-0.2727486052027227,0.008844137374214227,nm,0.0
19.162921905517578,-4.03748554979953,-6.581545999002526,87.07111930248354,-0.19606789998870885,0.09847312577682092,-0.4244533911555001,0.2654171873345235,-0.30723511661847264,0.028732615059357945,nm,0.0
19.17082142829895,-4.774188164502798,-7.801665824400169,87.2773188022562,-0.6045823635507167,-0.03394334387580953,-0.3344976089266733,0.24859676587375895,-0.15130559185085016,0.05993547510190855,nm,0.0
19.188608646392822,-5.9728345609511475,-10.267453893463511,87.61587800738553,-0.7243416163730838,0.17856821534576361,-0.5866350793785978,0.23719049740092932,-0.12077283194535991,0.018185967793439544,nm,0.0
19.210972547531128,-5.714009529299674,-11.711071799427547,87.4357143134837,-0.9189442875755748,0.3309971563360539,-0.42424542883922717,0.14414988836220338,0.04401273947317134,-0.0042974577279619435,nm,0.0
19.219581127166748,-5.484289528823461,-12.2525105881897,87.27539584458819,-0.7743224456603363,0.5499243511771497,-0.4603196812172959,0.12254343674875993,0.04736886541901347,-0.008019237153664076,nm,0.0
19.24041771888733,-4.941420589316443,-12.616339360898655,87.15471015592703,-0.7252124444231701,0.6405812784997796,-0.4401913252306189,0.032717899628176755,0.037776507377776235,0.027296739158015667,nm,0.0
19.244867086410522,-5.039670378039386,-12.676906004305497,87.31937674100199,-0.6667062078378728,0.6488030424162508,-0.4549255747798328,0.023278914296103185,-0.01221353421790574,0.043934251349522814,nm,0.0
19.2665376663208,-6.052622350159253,-12.268936174718078,87.71219949581256,-0.6732349553885555,0.46390892462338434,-0.5094736757229381,-0.05477610752383529,-0.12204568904412606,0.01846190612290622,nm,0.0
19.27378559112549,-6.927622483888189,-11.883078288977119,87.82939669108286,-0.6981307576321848,0.4087923961735293,-0.5180971121304646,-0.07167518126765401,-0.16066354545195302,-0.019313651272024408,nm,0.0
19.296164989471436,-9.265886036563098,-10.978819493293019,87.29886245551927,-0.6777450909109846,0.3970872686921634,-0.4893122311081903,-0.09229199723620539,-0.23741454242079665,-0.11930304072625281,nm,0.0
19.29946208000183,-10.360041066841331,-10.599564692220936,86.83595130639408,-0.5065233283297391,0.37883589918907673,-0.6912160953509038,-0.07437504710524503,-0.20390681820817388,-0.1351903989732078,nm,0.0
19.32373595237732,-11.734782519387863,-9.818319394706958,85.95626554243746,-0.14548062941831735,-0.10054139994167363,-0.3898920396840826,-0.08823312180357894,-0.09822162633168548,-0.08857056786342667,nm,0.0
19.3285710811615,-11.667380735584247,-9.159944755126913,85.68106632677014,0.0006494807649468235,-0.5235260870176615,-0.0757876498868077,-0.1177992084366048,0.0298855379656192,-0.019322695656211197,nm,0.0
19.355441331863403,-9.047052834085143,-7.363266165442659,85.85305114806171,0.00970956863402045,-1.0856592400003622,0.7064140532984602,-0.15608766930795673,0.36904188879628164,0.12279558985144542,nm,0.0
19.35802984237671,-7.3758842950418355,-6.370208789229068,86.03667773976211,0.6288146245096993,-1.109204281308288,0.5789629426266534,-0.161798996909708,0.3526906046754136,0.11629707217888134,nm,0.0
19.3792085647583,-1.9139777638713487,-5.259003040374732,86.12952715935693,0.9113465321905388,-0.7024033142673489,1.5261993707551986,-0.023497237483832697,0.6066588514066027,0.09584242471962899,nm,0.0
19.388789415359497,0.5362083133860419,-5.3323678303990505,85.86874214141356,1.304641236679642,-0.4859004802815557,1.1688733116909102,0.06158221039359883,0.4932118842932055,0.036585088059175465,nm,0.0
19.44479489326477,4.499386084871996,-7.325244069078575,85.1420422899772,1.1669561641287374,-0.3453910684778425,0.9886968160283247,0.2944502898072364,0.3219025250532375,-0.023432572890147503,nm,0.0
19.447822332382202,5.326020563525291,-8.979272261622722,84.84237860431767,1.032926201688741,-0.3991435076047025,0.5575519866342675,0.35574624696488205,0.14157360104876207,-0.041346800387182456,nm,0.0
19.45133137702942,5.735592161205125,-10.88465779008171,84.67659797573361,0.6167961764789307,-0.5311146126260936,0.6254664277457193,0.39879078170327625,0.053233232377972346,-0.037663500484726886,nm,0.0
19.454894304275513,3.6522299154744946,-15.725942262759748,83.82880955602535,-0.2818020440742846,-0.43917743361695005,-0.11602723668455013,0.24775079892718263,-0.186015652142115,-0.14711505509394016,nm,0.0
19.469144821166992,2.7732765254560516,-16.859210867634197,83.07010506714998,-0.26915917256196026,-0.2257849171748552,-0.48898707361445837,0.21828035165793377,-0.18634524234581012,-0.2119657289790755,nm,0.0
19.47546625137329,2.367253187801686,-17.893450302031038,82.29182494575484,-0.48208463435062027,-0.12671500813676995,-0.15913236418956436,0.2078967285767118,-0.09583068991913248,-0.22369463918142227,nm,0.0
19.494694709777832,1.3713272888429509,-19.141505687740153,80.91994163360873,-0.5215488441577478,0.3041225712507996,-0.5439697793945732,0.09478262632502307,-0.11548576182555519,-0.18139599880870624,nm,0.0
