timestamp,roll,pitch,yaw,acc_x,acc_y,acc_z,gyro_x,gyro_y,gyro_z,motor_input,markers
0.0,45.87377682141848,18.912803404740412,147.02699582545287,6.351337365624985,2.044615308955747,1.8945063929290604,0.9219841691823715,-0.30997545829101897,-0.07110206084838215,-0.7620560621359199,nm
0.009678000000008069,42.719227585827184,17.993600572012188,149.04810091413793,6.098666984984306,1.9284922567858827,3.8130316317036845,0.6060612668142846,-0.161308690635471,0.6044066529918044,-0.7620560621359199,nm
0.03804999999999836,35.18198828227132,16.02199895761012,153.8722473787553,2.5626570074283244,1.0414709001118112,0.5627282147163404,0.27853300329145747,0.039559604465031956,0.21027784664972118,-0.7608983465384538,nm
0.04755399999999099,35.70624286458647,14.544398245499139,154.13738621864897,1.4938668109164133,0.7412682586615988,-0.14068835795348789,0.038694739516049084,0.31047706114692447,0.025461544393302567,-0.7608983465384538,nm
0.06663500000001932,38.914413835599966,8.170147941841162,156.41500796838685,-0.7007703173327693,0.04141979320641855,-2.8315666549135705,-0.10035440033603485,0.861631805486001,0.2874629502909463,-0.7599142882806076,nm
0.0761529999999766,41.20330950061654,4.17066497960422,160.36340101221865,-2.027253321901688,-0.6001077682930587,-2.3990789844332774,-0.12821568617371926,0.9127161814071635,0.7585297246937048,-0.7599142882806076,nm
0.08559300000001713,40.39141573790943,0.7833680763759872,166.33255040604166,-4.648341487975901,-1.029943906237969,-1.2484610286535096,0.35092843654575323,0.6029666289523894,1.2289074588881335,-0.7599142882806076,nm
0.11412400000006073,21.057233748739726,8.388259666621597,160.6049465367566,-7.425522771321446,-0.9977763011653549,1.4011335396597502,1.6302275077752766,-0.9935058912407085,-1.6613252978921091,-0.7590778387614383,nm
0.12361799999996492,5.142703309837952,3.5699771106122844,152.8822376561756,-4.748573236680892,1.1373848647743439,-1.0318465872324958,3.2960749999464576,-0.3578090899359456,-1.2966069750366391,-0.7590778387614383,nm
0.13332200000002103,-7.1624598992108215,-2.4912734312024094,150.7418159769171,-4.243471926438084,2.8273658049215844,4.184525592792143,2.7457010431850954,-0.09121449216599804,-0.4667211338665236,-0.7590778387614383,nm
0.17118100000004688,-51.55356256489246,7.710087261604067,170.2951623012011,2.1365351381804443,-3.2712971835103595,-1.8437532795903768,1.199359965004625,-1.3505944836927906,0.9002630061819067,-0.7583668566701445,nm
0.18069200000002184,-59.15723602669424,14.285589845385926,168.32745159441546,4.344983993866602,-0.054713950832919335,-2.9464475761128943,1.2294561977904328,-1.5673781682479941,-0.15671197023002328,-0.7577625218925447,nm
0.1997230000000627,-68.47900471372107,16.769931935885822,162.3942863906599,3.8287928809673506,1.1413676761758724,-1.5266635685988734,0.6062496911712948,-0.012295735149215344,-0.32068748944173175,-0.7577625218925447,nm
0.20923000000004777,-69.83199255702613,14.17303817330486,159.9286177388772,3.17381460741671,2.0443133283103845,-1.431858955295784,0.4146168853556892,0.40823591229015394,-0.4431752126285709,-0.7577625218925447,nm
0.21874300000001767,-69.90391591902099,11.567268500580015,157.48849976808376,4.213914544086611,3.50316991473911,-0.6670818515886819,0.20220743934298677,0.48124287773351676,-0.49880940930545187,-0.7577625218925447,nm
0.2377599999999802,-57.86132285921907,8.171223064177195,159.45454297813907,4.127299934971397,0.9441665145852041,0.7551578519885666,-1.432236102611678,0.8490081482516947,0.16849257523019381,-0.7577625218925447,nm
0.26646900000002915,-31.50066866467725,3.684930493759291,161.3498735692685,1.9516011710829346,0.6699947755257037,0.38730458821683983,-1.1813565999942248,0.9071819738281331,-0.1265695740031396,-0.7572488373315849,nm
0.29500800000005256,-20.501988710331304,0.2162578194336917,161.03456496667067,-4.969190807798634,0.6731393898724887,2.001424076083263,0.21316980301862315,0.03439578592839531,0.0978179241095899,-0.756812205454769,nm
0.31383600000003753,-39.39769365918576,0.8051046885602615,161.1906386587803,-8.4810399401495,-3.3617134086601714,1.7809464245067534,2.1986257984528823,-0.7745142472157901,-0.11046602523339667,-0.7564410683594756,nm
0.33285799999998744,-63.6438335649418,-9.263603269749957,155.88778660673407,-5.672039544952888,-3.0347873073197786,0.6481219489602114,2.618515128499645,0.3125762241823739,-0.8134514354834151,-0.7564410683594756,nm
0.342373000000066,-74.20818035592514,-15.97095646358238,156.69209633909375,-4.22607387858509,-3.014389694497229,-0.10417507380142112,2.4298265279260827,0.39841226845257943,-0.3213827720721409,-0.7564410683594756,nm
0.35188700000003337,-85.92043714366643,-19.18225579229421,160.6974935358655,-2.8913334433467397,-2.1674559536902915,-0.7313695711979558,2.3159738181513903,-0.21343743859517356,0.08037108127712317,-0.7564410683594756,nm
0.3709790000000339,-106.08453325339316,-9.734868173936082,166.54171114558451,-1.1915295758918096,-0.9630889314409335,-2.0950849041635964,1.3015189304438746,-1.8056601708599054,-0.12477360264014474,-0.7561256018284761,nm
0.38049999999998363,-114.27445408290743,-0.25394386254423773,164.97190441748663,0.06300115336140129,-0.16026079944251906,-3.2208262819452087,1.1259600101916734,-2.236785484371666,-0.5348708181511103,-0.7561256018284761,nm
0.3900130000000672,-123.04798657827072,8.428289940203234,160.7849114707775,1.4556079486167544,0.8748951719314713,-2.3658538693606768,1.1729191731321806,-2.1716262926971623,-0.7989414740940919,-0.7561256018284761,nm
0.40894300000002204,-138.627781240025,16.77905883924558,152.50888326648294,3.3003950935865554,0.42100978374412995,-1.7456619341295705,1.0978839875053459,-1.111312666098618,-0.1930071947110474,-0.7558574552771266,nm
0.4279669999999669,-156.19166125035593,17.391779496956243,157.57316994557425,3.3758195909840363,0.5679713356955225,-0.3376518172919235,1.5338057577166517,-0.7432395165620496,1.3803927050629965,-0.7558574552771266,nm
0.4374830000000429,-165.30455038203846,19.46934638820112,163.3311811301045,4.540251691411305,0.3756126086171867,-1.2847636984202113,1.492840593673968,-0.9709364924375095,1.7263926907103495,-0.7558574552771266,nm
0.4660149999999703,146.32650116122605,31.204258151358726,159.808779928613,7.471485594470095,5.792446876000139,-1.9519429270249096,3.207273154143057,-1.1871323715542832,0.5563913472126596,-0.7556295307084795,nm
0.4755079999999907,124.54960297277046,24.39004069712466,154.00311476538067,4.604918694048702,6.240706185165046,1.0763528128474855,4.072561884418149,-0.2712737123399668,0.885126198437403,-0.7556295307084795,nm
0.5042369999999892,85.66384788604893,-2.8701366873718372,164.20874138656,-0.39817266030947746,-0.661394608485901,2.3491556463642147,2.1904013752046354,0.5949558036949416,1.1110494931038069,-0.7554357948251295,nm
0.5137429999999767,79.04454344401063,-4.52039986226864,169.84997507701257,-2.4508366446310585,-1.58411687986982,1.3215566784068715,1.3633576434377066,0.024286915153844214,1.042179564427468,-0.7554357948251295,nm
0.523078000000055,75.60823477222701,-2.546206955099651,173.63404846223494,-5.781020154767281,-2.676129204940925,-0.22889067682662081,0.6229565805743615,-0.4904895218666861,0.7141560174486113,-0.7554357948251295,nm
0.5420870000000377,74.56598298473942,-1.7840228100820157,172.7854255659704,-6.850341751411704,-2.8931773432212315,0.4335464984398702,0.20025065138788742,0.14517844999020757,-0.15137941479337844,-0.7552711193242819,nm
0.5611280000000534,68.13557626572512,-5.562143104050166,169.28446049783346,-3.376984285529991,-0.8212540980744824,-0.09153886851638629,0.9879436648884852,0.3310910045589157,-0.5625285904100453,-0.7552711193242819,nm
0.5708040000000665,60.243930964407674,-7.2607887869361445,169.23512556571677,-2.9070880806127395,1.0254763676113676,1.0275050518843278,1.6064747333365994,0.04111931006657401,-0.18613584222369134,-0.7552711193242819,nm
0.5803190000000313,51.025718486837896,-5.4011407787091095,172.30485003004387,-1.5382539306904799,-0.4806116946686975,0.28967483745090283,1.7517560026335575,-0.6615982616213926,0.4089991447719408,-0.7552711193242819,nm
0.6088520000000699,22.971648470419154,6.678886233531477,162.61211722589238,-0.6912914541798355,0.06997022376534923,1.7444172861862515,1.7577293526485582,-1.2534668963683202,-1.1102661955506705,-0.7551311451485615,nm
0.6183670000000347,12.323925855736867,10.099342067485043,155.84877553712545,0.3797834406886635,0.04088153855636247,-0.5313875853281784,1.731629645654466,-1.387630907531481,-1.0379103758699493,-0.7551311451485615,nm
0.6372099999999818,-2.946258646289093,9.980535190185883,147.32928151087253,2.0635194870346854,0.10124386605124604,0.18236433816285505,1.2472345270620042,-0.5072595376682476,-0.34071605772956426,-0.7550121670991992,nm
0.656229000000053,-9.760136553955874,14.653662855621812,148.3773320638705,4.179372651875994,-0.6886629867207433,-0.42252432689808794,-0.09826488032667535,-0.8429460448814414,0.31923640426552,-0.7550121670991992,nm
0.6944429999999784,6.072071995877353,21.549288892387846,148.9057077058803,1.9871618742964883,1.2651621796442218,2.5694316489899265,-1.3186812137495318,0.6774465319911381,-0.7861809113828369,-0.7549110357572412,nm
0.7132930000000215,21.100315330328197,18.932165926065398,146.66867785353404,1.9669970184227885,2.458702591330329,-0.46945483530698234,-1.0747337079877215,1.0928275588027545,-0.6683356464934598,-0.7548250741165768,nm
0.7323949999999968,34.16936921142385,14.12832811448483,151.13766767836543,1.3384012766029127,0.8671188700174525,-2.0352898095788348,-0.5643982815700026,0.9959573196837705,0.4492468167480064,-0.7548250741165768,nm
0.7513280000000577,35.031740583401714,6.740992240038625,161.32036439618366,-1.672875938294685,0.037849993499981256,-0.4490935266922144,0.565758889319867,0.5404103633115139,1.2362405254891633,-0.7547520067220123,nm
0.7705320000000029,11.936885201545977,10.365608149627015,171.1550637788958,-8.192330954066884,-1.8999276342596085,5.550196710582337,2.6970379004096823,-1.425814536762123,1.1316054700003468,-0.7547520067220123,nm
0.7798500000000104,-7.634030438943822,16.79487598638016,167.0096425367993,-7.994405423971303,-3.3448160280861168,2.8202083912441274,3.504089450714652,-1.9699473656196653,0.07170485053731639,-0.7547520067220123,nm
0.7988760000000639,-46.26223967205281,8.857254013142432,150.84753403172945,-6.268689488263189,-4.1269524321745585,-0.5912469454377497,3.806342154298727,-0.17934651024629567,-0.6280647461798209,-0.7546898994366323,nm
0.8083880000000363,-62.153967931355034,0.3335414453025084,149.78506664147793,-2.9194012229112043,-2.2077832710298733,-1.8949757655957002,3.599144571555986,-0.09510595676424759,0.021856281744101237,-0.7546898994366323,nm
0.8179079999999885,-75.69222286794417,-4.29606661474605,154.97133560664662,-1.3296068208049836,-1.4594074811562827,-1.0764736035307778,2.8306632304534007,-0.43682362420603216,0.9288845502391674,-0.7546898994366323,nm
0.8465180000000601,-107.53180952162879,19.078236791709845,165.1296509636042,2.3640238810979888,-0.3906940528298955,-3.2850534256835546,1.5146165447845517,-2.8146430425947653,0.21281085759117913,-0.7546371082440594,nm
0.8844820000000482,-150.20702732682273,35.4089250060107,151.87086269867987,5.41798643336191,0.7044523521956636,0.4556504142177525,1.2848752038615228,-0.26914918548772937,1.634886452117328,-0.7545922357303724,nm
0.8940029999999979,-154.94086076180284,32.481783971251005,161.69492977924668,5.320986540017036,1.5237732772414427,1.1832232065100114,0.9559824536632505,0.22982977861841933,2.492906440044477,-0.7545922357303724,nm
0.9130079999999907,-167.9499790338077,34.19636120880587,-177.7877572671913,4.115176131699404,-0.24922080042933098,1.2491878872057394,1.4134025948644442,-0.5501434842178176,2.4994412293093813,-0.7545540940937384,nm
0.9320330000000467,164.3754220782874,30.56190000458004,167.1172180427641,4.112130313099491,3.2105368704363,-0.19657106283675896,2.630965032050326,0.7634941437939435,-0.5444491315330432,-0.7545540940937384,nm
0.9415400000000318,153.38266091610868,18.76058546730351,160.0941173570486,4.660793046277414,2.3954365105603683,1.0203414271261928,2.5856400260422125,1.696439670067936,-0.47647631015836006,-0.7545540940937384,nm
0.9510470000000169,148.5537388310311,7.670970300568873,159.1620583907983,4.810199657807173,2.5481000633418156,-0.8488571800659911,1.65622912997645,1.7536770893788256,0.03618482084497974,-0.7545540940937384,nm
0.9605579999999918,145.34369597799443,0.13101667934709252,164.4179273996128,2.7056025238850467,4.545384473456919,-2.173030028853049,1.081447989618431,1.234268839338458,1.0941532577174722,-0.7545540940937384,nm
0.9795830000000478,136.74111026102395,-3.8777119616177442,-176.60847118166916,-6.339214533495777,-1.3472756412703033,-1.3196578901365346,0.6426385005345964,0.12116143295747024,1.8079208245770313,-0.7545216737025996,nm
0.9890810000000556,135.7262941180937,-6.952064852941471,-175.46128681161468,-5.705718963957973,0.7769962238752293,0.7284863484666296,0.15912630890704035,0.628336360051035,0.21059082910503235,-0.7545216737025996,nm
0.9986119999999801,134.67957979779013,-11.457512496126357,-177.51674702626653,-3.6689078129215345,-3.4583021784858454,1.7374723612927327,0.15124733750864228,0.9138631256834994,-0.4441280966512732,-0.7545216737025996,nm
1.0176139999999805,140.2891906913525,-22.23685105557595,176.45226013136357,-6.298558288319892,-1.3590612666075517,0.8174997396637518,-0.6189557585201253,0.9902925633841724,-0.423423008061622,-0.7545216737025996,nm
1.0271360000000413,144.91085240461746,-23.993468659306,174.21541999889018,-2.220974140866861,-1.3277160989532324,0.2519853341161848,-0.8189840166429547,0.41997346331069146,-0.08406916928820206,-0.7545216737025996,nm
1.0461639999999761,148.86945953829124,-19.057617948913503,178.22856113278058,-1.8998031615855255,-1.3110029213968282,-0.48116465956358123,-0.1488042508596862,-0.7849548673989339,0.6393822715807183,-0.7544941163701315,nm
1.0556740000000673,146.4796330829899,-13.895089337714566,-177.57950123582398,-1.8528420361535491,-0.17553548424270957,-1.5892750367610597,0.4645567253153461,-1.032037908714485,0.7019362275923323,-0.7544941163701315,nm
1.0842720000000554,135.55087876062748,3.789857907046317,-170.56244145425745,0.8703113256942836,-0.07758405646470277,-2.6760682477995137,1.058743528619334,-1.148329323742398,-0.16278370297166478,-0.7544706926375337,nm
1.093776000000048,128.29208067548728,9.483740762704796,-174.8703146006942,1.7560556092547264,0.7753611001219225,-3.4091316401240728,1.5796334383807062,-0.9414597460461122,-0.7692007037655162,-0.7544706926375337,nm
1.122237000000041,92.07752060114125,5.251711604416333,167.23794966605286,6.254064662502555,6.246475503671321,1.9827495234810835,2.7617369695849514,0.4066387532106151,-0.5437338782482874,-0.7544507824648256,nm
1.1319290000000137,77.59946986185848,1.0152804127601531,167.38654284368224,5.728242160700601,4.021784501755319,3.5517575683402174,3.009975249203208,0.187634247974475,0.18866075321725861,-0.7544507824648256,nm
1.1414419999999836,64.27348646205675,-0.4414961917883858,169.9310105423155,5.4121952655907455,3.2090676640376037,4.62043070224512,2.6738923874058758,-0.24022763737838013,0.5203129159642774,-0.7544507824648256,nm
1.150935000000004,52.535707362625374,1.1600508566573895,171.40089162758431,3.8733298655572947,1.7695463240668483,5.513457252896717,2.268005998514531,-0.6969435392767968,0.30759421864534253,-0.7544507824648256,nm
1.1888079999999945,25.258590376582234,5.205040411460143,164.86809134986342,-2.4455755831369745,-0.19866172548748648,-1.5445562537820707,0.5779835582321917,0.19143298935107153,0.00883793602323604,-0.7544338588180236,nm
1.198317999999972,23.78534510285819,2.558408052366207,167.9303751113298,-3.4113998973279487,-0.30092710707033904,-1.127319465741467,0.41094971351385035,0.4459977444453576,0.6327051806008134,-0.7544338588180236,nm
1.2078400000000329,22.091927054412466,-0.5336349369380547,173.70675771370975,-3.8833952444123354,-1.0830341730560606,-1.116626548567376,0.43386745341220506,0.557339548381675,1.1615630117381874,-0.7544338588180236,nm
1.245867999999973,5.587383811004506,-4.6349699420874275,174.27669002262417,-4.162003658351684,-1.2269889698222902,1.0706851276951508,1.148179539207155,0.061787312404824955,-1.258252187661373,-0.7544194737182419,nm
1.255392000000029,-1.961165974997839,-6.479039355538156,169.19075748753812,-3.534973757027725,0.48647761610775936,0.8045293368334625,1.5434212848284738,0.1486486230976241,-1.162523206179913,-0.7544194737182419,nm
1.2650780000000168,-8.467548011891909,-7.52149122098791,166.75194179420455,-2.0356978682230507,-0.25826810683236173,1.5985039940045087,1.3091027566722104,-0.06566893844526986,-0.6463273870182786,-0.7544194737182419,nm
1.3029390000000376,-39.427375743189856,-2.3609863667413853,175.494291007235,2.347039539771095,-1.2787856036294465,-1.264134108130152,1.111693682804134,-0.8324095582290433,0.293168173502849,-0.7544072463834275,nm
1.3124540000000025,-44.65374708619626,1.3840044476462052,175.65118084794165,3.036530259427925,0.3607730374562861,-1.9225934839356944,0.9871515094367934,-0.8270675048306991,-0.007771875641197607,-0.7544072463834275,nm
1.3219589999999926,-47.374431983986284,3.7902545766649887,174.65646000385794,3.2901512424769814,0.40438314624331095,-1.4814560455000967,0.5026026358365498,-0.5256028727353537,-0.21038733351180447,-0.7544072463834275,nm
1.3409840000000486,-48.37215975838897,3.965087708603237,170.82814164129155,2.886619976269971,1.5406902875427613,-0.9058431290408354,-0.006301685501958319,0.10594166517178283,-0.4392454245286918,-0.7543968531488353,nm
1.3600119999999833,-41.03891760423515,1.3042516632751393,168.42774108462825,3.314030374628425,1.39267595361195,0.14778765384279993,-0.9047932659245729,0.4807074982726861,-0.169848088719091,-0.7543968531488353,nm
1.3695089999999936,-34.12465440484023,0.024912516772475198,168.0791138918196,3.5076416006386815,0.7269353616299741,0.5948413917414762,-1.3031884183646099,0.5342928067803038,-0.05584487392885231,-0.7543968531488353,nm
1.3980559999999969,-14.158785070085273,-2.7076733680708065,167.20006981433366,0.9929453839073161,1.7993063677278736,-0.4171081705360997,-1.2009067752228535,0.41683313132848754,0.09796486256239331,-0.754388018899432,nm
1.4077409999999873,-8.488749472374536,-3.0918723147794904,167.62801419298876,-0.35958941135550393,1.0893601618641542,0.28596264998601173,-1.0898239769049756,0.32458467190721074,0.1912450521287314,-0.754388018899432,nm
1.4267650000000458,-8.300193366680823,-4.380830483306847,169.34190812777658,-3.979470290218818,0.5381815040986109,1.7309579835942133,0.41478980754989375,0.1060945610345815,0.17932341761149212,-0.7543805097874391,nm
1.4362630000000536,-15.196721316173605,-4.288416529829335,169.57082650305432,-6.605558914010062,-1.7327621990154358,4.8817176720358555,1.3509888252064117,-0.2707447019342208,-0.05066059589368563,-0.7543805097874391,nm
1.4646189999999706,-50.38223030851288,-11.050683368467181,160.210611761125,-5.78305476949049,-4.813473353788088,2.2305205156665804,2.4735142814364313,0.29729452743047424,-1.074753119532143,-0.7543741270422452,nm
1.4741370000000416,-62.97053368956528,-16.146840619361267,158.22074716092217,-3.9564483757797824,-2.621767386850965,-0.03123224958401125,2.6532169676620057,0.08443762148346272,-1.0225819216011307,-0.7543741270422452,nm
1.5026589999999942,-96.61391376546801,-12.914336132848796,167.69373362737034,-1.2374448306969852,-1.4420762843876906,-2.012511511750448,1.5682535675141145,-1.4958818929602966,0.10912593714593319,-0.7543687017088303,nm
1.5122460000000046,-104.79932543915275,-5.114034156188317,167.42860249616916,-0.25759636847314177,0.031232873871275362,-2.4242266021605996,1.2505387238229715,-1.8692041380684357,-0.3703190415451588,-0.7543687017088303,nm
1.521763999999962,-111.49911200290367,2.670188426919346,164.3434888706226,1.0512067004859964,0.9158436378337804,-2.1059183412375764,0.9276912283895797,-1.8355533597016258,-0.7218207822666364,-0.7543687017088303,nm
1.531203000000005,-116.85120638559495,8.822863412862718,160.9109486280806,1.962082829180559,0.8308862615408205,-1.8895243296030495,0.6545300877309163,-1.4925603831087915,-0.650636241271016,-0.7543687017088303,nm
1.5597250000000713,-131.09881781247532,12.422960567370374,160.56355689489504,1.454332710544669,1.0349886271332693,-0.6826884756566156,0.9133988559491404,-0.165063251713021,0.5596866882843541,-0.7543640901754276,nm
1.569415000000049,-137.05523264322227,12.170954688453545,164.20015219474493,2.0833877983938205,1.2375343142390154,0.6169561824269548,1.1258187936197386,-0.30421031772802914,0.9808819539881668,-0.7543640901754276,nm
1.5787460000000237,-143.78955633675045,14.91836203746496,169.12200307021385,3.143262812973616,0.23476880459823163,0.2856044865082945,1.1489079385973366,-0.8373439241406265,1.2994291279680372,-0.7543640901754276,nm
1.5882500000000164,-153.79834003230243,20.778078249918014,172.41571125403127,4.9969460577526945,-0.5239538859348378,-0.8973617415276247,1.6955185691878967,-1.4622642478984362,1.271390196723372,-0.7543640901754276,nm
1.5977649999999812,-168.08035977022115,26.92220667530134,169.330772022955,5.599720339445863,-0.5752881911447988,-0.017116325738961997,2.38645624084078,-1.6235978997722196,0.5421871308945618,-0.7543640901754276,nm
1.6072790000000623,174.40889863729,28.0403102061084,159.13226397596742,7.527461512063723,2.740090963102292,-2.5319570200684143,2.9277554444436067,-1.0576063454145301,-0.4112337245567005,-0.7543640901754276,nm
1.6263030000000072,145.1842004578403,7.887051224645586,146.81322727107784,4.605383742180822,1.171657825182522,0.7277989132491846,3.1224484246173247,0.9540829815225554,-0.05670002554479593,-0.7543601703720354,nm
1.6454949999999826,133.39907654437843,-5.975919562360529,156.45795839851158,1.5333259137426383,2.9334961451416963,0.9206974831741745,1.6191204220538107,0.11433249850406355,1.320352856862721,-0.7543601703720354,nm
1.655012000000056,126.82900136862126,-4.631147489865049,165.05662343721954,-3.6581574603662124,-2.0530872724429474,2.0864373867090884,1.1480711360606104,-0.6869271755916078,1.5968288024874118,-0.7543601703720354,nm
1.6643470000000207,125.48669406929456,-1.9784713572404582,172.09301992751753,-7.631178781067513,0.8680992737109563,-1.7826598600556571,0.15762963140017366,-0.5751172743193917,1.391793061836606,-0.7543601703720354,nm
1.6928750000000719,121.94550369534637,-6.243303829864086,173.02698307669544,-4.46799762961155,-2.463162010419296,1.1331848603762535,0.021466236772356255,0.709350331970039,-0.36576185423110397,-0.754356838539152,nm
1.7023850000000493,123.09055907417928,-9.338948251731908,170.5394034904073,-5.89852161983393,-1.947103635436716,1.3342552145554332,-0.13601516451006646,0.6465894081791448,-0.4661739557905346,-0.754356838539152,nm
1.730921999999964,124.45926138103154,-4.136735204715437,165.78355896455912,-0.808022395067708,-0.8177671395763417,-1.260596580913981,0.10024156987469908,-0.7944215886746577,-0.09421047278281387,-0.7543540064812011,nm
1.7405059999999821,122.68517844619711,1.5748645590833756,166.76312744456263,-0.12820384922082226,-0.41252605398536757,-1.5573923914380043,0.07349700390283159,-1.1959196132473646,0.18723440244710723,-0.7543540064812011,nm
1.7500230000000556,120.05831191140713,8.728124474141678,167.99689390823093,0.31889409468030244,0.38090914173715557,-1.9761485805253418,0.19832173093150007,-1.5129325010291972,0.29291395150529864,-0.7543540064812011,nm
1.75951299999997,115.52582032654973,16.07079769224903,168.32681073512768,1.0028149645475004,0.297724964161591,-2.3574932406177447,0.5662293082322882,-1.6210220563562698,0.2599159905695632,-0.7543540064812011,nm
1.7879800000000614,90.2019082617958,25.825489282940744,157.03119136455942,4.3988831800331525,2.9092129449196054,-0.27590466070000286,1.8402530241719837,-0.6993057482564752,-0.04064933389618411,-0.7543515992319428,nm
1.797484000000054,79.65610939845918,23.029888310819906,154.33054323527546,4.868338759946706,2.8611265047309185,1.2750831660594455,1.981739816649176,-0.2824235481061167,0.3347586997435087,-0.7543515992319428,nm
1.8261929999999893,52.80128063914993,16.336597978402114,157.51425094610454,3.525203855185321,1.0266854733979789,3.0799593737541997,1.4140435873830604,-0.4680402540451312,0.7735159011617676,-0.7543495530700733,nm
1.8357039999999643,46.711605101665185,17.14963494491731,157.96216490708412,2.4253867083480243,0.6119759551157272,2.9349309870174554,1.0193963997026585,-0.5931873532459616,0.4408660126015704,-0.7543495530700733,nm
1.8452230000000327,41.068392020150355,18.259437663969646,156.98626259353992,1.3438487749632764,-0.11678624519302318,0.6715786431241931,0.9095877463127289,-0.6176794146217348,0.14856749925140592,-0.7543495530700733,nm
1.8735550000000103,35.992723783321395,15.006138807354036,157.95055629515164,-1.161389496864003,0.34601687885430754,-1.4224316300566826,0.24866161620043256,0.40200354701066837,0.39889145312082464,-0.7543478138324843,nm
1.8925870000000486,34.36775223682877,7.9721747372663145,166.37857697136366,-2.3324417106371897,-0.394794460991647,-0.38109511925017814,0.4230905730651037,0.6577178557779848,1.013375815133913,-0.7543463354805335,nm
1.9118080000000646,20.728818128254623,5.000982093844521,174.25268020785964,-4.435172505184631,-1.6984651617937814,2.4569772309091,1.7487861385895427,-0.21794863344626506,0.8139374672448889,-0.7543463354805335,nm
1.9211199999999735,9.461724871758257,8.440835801376442,172.63805980756456,-4.5718331403204555,-2.8140460352375647,1.6714049287526827,2.1501796124849903,-0.9355646459168165,-0.08743842892011201,-0.7543463354805335,nm
1.9306300000000647,-4.011584132829872,9.97688762043545,165.65344658381628,-4.654829102433245,-2.1013309640569666,0.7641365893664326,2.561747455255704,-0.7966441141236985,-1.0156378541176558,-0.7543463354805335,nm
1.9591689999999744,-41.45597292652877,-1.2640797410511297,153.8500378253907,-1.8919296455245709,-0.8864924769983574,-0.35513403401946075,2.4473443546286706,-0.4616628546925586,-0.013766177818609828,-0.7543450788813754,nm
1.9686870000000454,-51.42182588892754,-1.2527777179018427,157.72860868515735,-0.8702035108141665,-0.9802333075760541,-0.45797160424475125,1.8206271470304776,-0.8182177572433903,0.7049564885824479,-0.7543450788813754,nm
1.9877800000000434,-67.2050282746058,10.803732392458388,165.89646151119186,1.1744942716297406,-1.136364928243703,-2.340631789846609,1.0793305498711565,-1.8905299078284499,0.7654017110098905,-0.754344010772091,nm
1.9972000000000207,-73.75255208446565,19.041448247141773,165.98572137856436,2.609318789347244,0.20417227483469952,-1.9522340679779753,0.83493046767092,-1.9050292492105299,0.29169464130396894,-0.754344010772091,nm
2.0067280000000665,-78.51016605137598,25.064064541541313,164.238273391847,3.1593596290073696,-0.13894870859314049,-1.4084620418718647,0.5483158885013604,-1.3909040319160846,-0.06780700688967997,-0.754344010772091,nm
2.0352450000000317,-90.5927605458603,23.027863050160352,159.19713562082472,2.0768646437195373,2.90573150061881,-0.2873215271789479,0.8558307617506618,0.35744030289112,0.10303581732112942,-0.7543431028791993,nm
2.044768999999974,-92.90060066669932,19.86975570200355,160.05161490054775,2.4335536697859013,3.7274115083448858,0.6523271673224884,0.6239533759870165,0.4429590152516614,0.3589136640468251,-0.7543431028791993,nm
2.073297000000025,-91.45115879594667,21.14261881768744,170.1255827923256,5.549526990503006,0.9930152361186875,2.1545969802811746,-0.34926881566817247,-0.36371006349857854,0.48912975398217823,-0.7543423311702413,nm
2.082809999999995,-91.11157414797889,22.519974416768502,170.91839050861148,6.024644314919003,0.006181102094630307,1.4222631840345819,-0.10780465145668451,-0.2616451398050376,0.1480985955437514,-0.7543423311702413,nm
2.0923070000000052,-93.26302833806785,21.407754369339894,168.94571715428074,4.489687481012797,-0.3781647891824933,0.4227770372246315,0.4322602566199789,0.1490222854921384,-0.21713932966695895,-0.7543423311702413,nm
2.130354000000011,-107.95976217612868,1.925821044798527,162.00526926700502,-3.6410099527819164,-1.4149101693468928,-2.228985927941364,1.2175850476656491,0.7057581973348818,0.07771903293903092,-0.754341675217627,nm
2.1398619999999937,-111.79727389467993,-2.7975481688825705,161.50415728542094,-4.964781228035524,-0.5913123554706262,-1.9783986826480904,1.0264204474701908,0.6569598742374474,-0.08738625179753763,-0.754341675217627,nm
2.1683980000000247,-105.62638229586513,-6.301158379976043,159.74643823874405,-5.544501190355249,-2.013513215471708,0.8997601717067508,-0.7851433022533616,-0.31506686959956826,-0.24110771655585936,-0.7543411176579048,nm
2.1778960000000325,-100.42468369382328,-0.9670427424503232,158.93694018912169,-4.108060371612516,-2.325045214098879,0.38694436869225635,-1.3486433789600085,-0.6345859938589891,-0.12886739715054707,-0.7543411176579048,nm
2.2066240000000334,-87.43885550517184,9.854682464207515,162.2102123940021,-1.017111236018259,-0.5202668758636194,0.805304088655291,-0.5613163686805438,-0.21206744900574892,0.15437844091073502,-0.7543406437321409,nm
2.216128000000026,-86.11811783986286,9.962863042471657,163.45348110636385,-0.05430362873804442,-0.07150275824695103,0.8100949521552939,-0.25517673354287496,0.05651561306811019,0.21891545650680733,-0.7543406437321409,nm
2.225639000000001,-86.26853125513603,8.900646321604443,165.1148841406953,0.4959821772880951,-0.48594627545402325,0.8519009183732579,0.08633289647685546,0.19702261312337718,0.3372045621840764,-0.7543406437321409,nm
2.254085000000032,-99.080029669299,10.154667940552327,169.36461562571307,1.2486296427533523,-0.3218001312270962,0.7760211331096316,1.0965363198566491,-0.6736212783114129,0.421106868525323,-0.7543402408952417,nm
2.2730119999999943,-117.21801115718068,20.94756602508288,170.05758611898062,2.485559587489429,-0.5099888230881445,-0.8877765516741196,1.6851073568191208,-1.560625802647344,0.6419249442315195,-0.7543398984838773,nm
2.282519999999977,-130.45202170518658,27.251506546072324,168.4380615233548,4.0181809058874425,-0.004902534606578682,-1.1714967845279578,2.140155063008452,-1.688221023501166,0.7767198627872962,-0.7543398984838773,nm
2.2920310000000654,-147.06336982993616,31.64192048651391,164.93687871559993,5.943403318586509,0.4357514157161978,-1.472529498648377,2.614520968047784,-1.5162850298403723,0.9384759705394409,-0.7543398984838773,nm
2.330060000000003,140.40043650130255,17.859777759481897,156.83477931061645,4.742979459797495,5.40772525152697,-1.353612628072902,2.9746658624973166,0.32734917475855896,1.2503480359616759,-0.7543396074342176,nm
2.3395910000000413,128.65904610098553,11.041058010203473,160.64724327543837,1.6871429437135559,5.3998670159768745,0.21085470171191928,2.6165653741896744,0.4430530550018404,1.3468308559570208,-0.7543396074342176,nm
2.3492760000000317,117.84039863863435,6.69221538159097,165.62009306142934,-1.7162550729894435,1.3817501626798703,1.704178349346077,2.3010488094462715,0.21001212051843277,1.3259626164142684,-0.7543396074342176,nm
2.3586050000000114,109.68589558844363,4.932186847251171,170.54245025776405,-4.105498357420452,-0.7627408871668264,1.3347293198911911,1.6622364182900244,0.008487757978129678,1.1486666443671478,-0.7543396074342176,nm
2.3681060000000116,105.58831446079137,5.696153078655785,175.45960178719366,-7.356725279773331,-1.4451190700786511,0.7962964977081668,0.7922976584423379,-0.25205910098897827,1.0592701588673008,-0.7543396074342176,nm
2.3776320000000624,104.1827672745881,7.480075726009542,177.68531166819932,-7.79440001759221,-3.739159533933714,0.17627106930174088,0.2577078142536601,-0.37376605541216534,0.4773221638951217,-0.7543396074342176,nm
2.39664700000003,100.48268204128877,3.7011930395730235,176.76255025658654,-5.449832284229918,-3.1928929969107025,-0.18131691389661464,0.3640343366688536,0.5680250151975094,-0.0949947424125302,-0.7543393600420069,nm
2.4251800000000685,93.27449589317682,-4.613388844282747,176.07476669805845,-1.3163040078391783,-0.8898907588721694,-0.2687770597115551,0.46741326603258254,-0.02926628659233372,-0.11975339939259198,-0.7543393600420069,nm
2.4346830000000637,90.77419895746847,-0.5425006870298592,175.18479396967592,-1.475537620516222,-0.06300102957925498,-0.923320488430354,0.43662787066162817,-0.8510945160564247,-0.2010333776871085,-0.7543393600420069,nm
2.4442129999999906,87.0259227666273,5.907667433018394,174.2254659289728,-0.5729809437592644,1.0939832809026278,-0.5557568741167669,0.6276883281036014,-1.355384033627855,-0.1573995875169847,-0.7543393600420069,nm
2.4632950000000164,74.48162462334646,19.41950109094069,168.1507860126714,0.8207457895082615,0.5331920010214124,-1.687246590141841,1.01081826710129,-1.4322351085873708,-0.4202088071851524,-0.7543393600420069,nm
2.4822430000000395,59.668137075971394,23.460773756591657,159.1988434457378,2.3987897889891823,1.8216432005224015,-0.33963771568803075,1.336899748014203,-0.5796738898183298,-0.16207284287893242,-0.7543391497586277,nm
2.51094999999998,44.01423379190042,21.579406577059093,159.06123013155917,3.734602085670795,1.207716231515556,2.372733390927529,0.7910585177035824,-0.3089681013014385,0.39616395431567714,-0.7543391497586277,nm
2.5299700000000485,36.706811976407415,24.375042754725524,155.63886543764178,3.3665644046684142,1.7053389070141058,2.273129251457434,0.4056933741832875,-0.5235014374483032,-0.2291901422837388,-0.7543391497586277,nm
2.5583290000000716,35.256336437234815,24.207501128771256,151.3998523153778,2.4039168528462995,1.641446424365179,-0.4307276380190893,-0.02942941051475435,0.31690064058926715,-0.013525837082097066,-0.7543389710177555,nm
2.567845000000034,38.01299083612729,21.2034189729608,154.23479063409897,1.8244552280980377,1.1824314189317873,-1.0034515488425582,-0.1775571969066887,0.7680124043003032,0.3757579846352715,-0.7543389710177555,nm
2.586936000000037,43.96950018420644,11.370513306886453,163.40322559744513,0.6263024937394558,-0.04447663938319249,-1.366543357313228,-0.11636047164730462,1.1644186041496793,0.9237580532368339,-0.754338819088014,nm
2.5964589999999816,45.53572001515597,6.372703711438636,167.88107611568014,0.007035951293123161,-0.5889951397356483,-1.6484198271418933,-0.04788569366688191,1.046900046387653,0.9407162080039776,-0.754338819088014,nm
2.60588000000007,45.68578859421885,2.7403307242173356,171.7562278635506,-1.1182447333203147,-0.5027504626157574,-1.101053326310666,0.10163117881451338,0.720995991106712,0.8526898308020032,-0.754338819088014,nm
2.615387000000055,42.79280619553261,1.5456692310095987,175.30499781737603,-3.1649902625628523,-0.9466069232935707,0.16275067403663362,0.602840294099787,0.17094384569846374,0.7806016588042947,-0.754338819088014,nm
2.6344030000000203,30.102966960842824,10.197909669785627,169.61521286206158,-7.8486937159491115,-1.271802542152196,2.0992283333154917,1.161547384767866,-1.328541671051371,-1.1807481143097973,-0.7543386899477338,nm
2.64391999999998,16.922852946269575,10.42361846614926,159.93138439678214,-6.884299297775709,-0.47612996802825036,0.3551716393231053,2.4988861727940006,-0.7172218422670485,-1.5362692327768417,-0.7543386899477338,nm
2.6536120000000665,0.5913214128732186,3.2689617126209476,154.49645301579898,-5.651885480315891,1.5030750221878868,2.9976383394404156,3.5487119200998847,0.0615442645438712,-0.7397730809009866,-0.7543386899477338,nm
2.6726340000000164,-25.487001674149838,-0.47663443725616045,160.9022559455752,-2.8253664605053053,-5.168216869249513,2.7878160322084886,2.359552832094253,-1.0591284443914224,1.0048171946987088,-0.7543386899477338,nm
2.681962999999996,-40.97465568803171,2.689143655409078,167.86165725204265,-0.0901727326072775,-3.4288128836141016,-1.4307872739398637,2.821088144333001,-1.4408389109390196,1.4292726128273647,-0.7543386899477338,nm
2.6914800000000696,-52.901774622403714,8.137880400837085,173.3321417589881,0.9542533597761201,-2.126823179017826,-2.0180126578078688,2.170969517202148,-1.462029709177679,1.3158701879640673,-0.7543386899477338,nm
2.700990000000047,-61.27471373120883,14.867513828530472,173.97994159557615,1.9579186013125014,-2.8045293758932166,-2.671421395616409,1.4855212571305731,-1.5193714177731417,0.46461850397679627,-0.7543386899477338,nm
2.7390340000000606,-88.46942713085798,16.680430104710823,164.10749446373688,1.2704609265505744,2.3439349367729636,-1.1810658068027622,1.0908309406769654,0.23053170691227082,0.09129434781826976,-0.7543385801784956,nm
2.748538000000053,-93.14884406056625,15.10764092598097,163.98575390911728,1.9631109337453152,3.740289310162386,0.22548937106645392,0.9529425551552944,0.05513976313047034,0.2320081470901055,-0.7543385801784956,nm
2.7580560000000105,-95.7456499865224,15.884328790789121,166.50679863112077,3.308770887288102,3.2890144523658917,1.112520205311336,0.44508520637572807,-0.27777882693814343,0.6433600811668296,-0.7543385801784956,nm
2.767749999999978,-97.10488998142225,19.14859105552616,171.3327478813122,3.8816991835441947,1.9677788181754519,1.733246053947439,0.1293735854451773,-0.6913376751552195,1.0476971763425813,-0.7543385801784956,nm
2.7865900000000465,-98.90207498772348,26.025290340725498,175.74143958718477,7.521141035606705,0.925115130448384,1.885905865643828,0.1435088837021536,-0.5443264739245239,0.2833439206320419,-0.7543384868746432,nm
2.815113999999994,-111.20856785270358,13.3508488139307,168.78802333459888,1.2856631639907592,0.09012147441111974,-1.1084229790822917,1.0295093622434492,1.1644697201949459,-0.15716644976571092,-0.7543384868746432,nm
2.824689000000035,-115.06685178461,6.493701212303842,167.80688268547536,-0.14379931121071007,-0.9362529086951376,-2.784632167808331,1.0265540693564115,1.1879896525882294,-0.011450696772981286,-0.7543384868746432,nm
2.8436450000000377,-126.50525151432156,-5.335452188263102,168.22086792897338,-4.227893339666257,-0.44129049695582023,-2.3637182145016697,1.3488770164984438,0.8722244282600363,-0.004958681448975625,-0.7543384075663686,nm
2.853150000000028,-128.81055194038467,-11.090700543361185,168.84308136317043,-6.727294035566382,1.3336772882387529,-2.9889393169396907,0.6769064041420525,1.0391483580711975,0.05787798259738905,-0.7543384075663686,nm
2.86266999999998,-127.5882899868072,-16.8490476194123,170.42110927512775,-8.444407799895108,-1.6552244520097765,-0.11873756970507039,-0.026057897878956807,1.1777978657621058,0.37393117660920694,-0.7543384075663686,nm
2.891189000000054,-111.92182471962086,-6.338366652460139,163.8558386473761,-3.173292135919873,-2.5825014752721915,-1.1909888595357148,-1.8100407219058605,-0.8522506837180731,-0.1054770677230378,-0.7543383401543352,nm
2.9007030000000213,-104.86620388553506,-1.2254696624528352,164.3701404674536,-3.1999822912873515,-1.9722634275388689,0.14488621048951741,-1.6359699524305558,-0.5979826812763961,0.19657214083280047,-0.7543383401543352,nm
2.9294210000000476,-94.1963504087969,1.7703989459237344,170.136742241146,0.38796075366713095,0.32988910199506555,1.4929439577898562,-0.0364265778869981,0.22219819300266147,0.49501195242836504,-0.7543382828541069,nm
2.938931000000025,-93.09108554335235,-0.10142135172872849,172.6721837751989,0.9080992179450079,-0.3426864385854646,1.266593223594227,-0.16271717550893958,0.40421858580919123,0.5037737095272358,-0.7543382828541069,nm
2.9767980000000307,-110.53621971152772,8.555950340611062,175.95365424285507,2.0785046260750386,-0.28152872135720586,0.035580703962294395,1.215136212055964,-1.3210793212479783,-0.021868040602567876,-0.7543382341489128,nm
2.986299000000031,-119.67288166403138,15.790345470490688,174.1386835132151,2.5242903418215445,0.1591083662891652,-0.8894062431452274,1.6570604189947202,-1.595643985668076,0.02474344210294509,-0.7543382341489128,nm
3.005320999999981,-145.21212902433166,25.279852731633103,167.20965680496033,5.513373031486332,1.2863486300063254,-1.1672249098791632,2.3342589926575354,-1.1412951812751275,0.36714801553680265,-0.7543381927494978,nm
3.014825999999971,-161.11013006266637,25.693309249919242,165.05161854452416,6.593704056406429,1.8398120054411076,-1.0989963463347618,2.7669619820157143,-0.7680870893986177,0.9392782708764337,-0.7543381927494978,nm
3.0243430000000444,-176.54204860893896,23.36663352651136,165.02304525864992,6.998116032242029,2.4286117380815453,-1.5831958961152857,2.8334201178439242,-0.2775765708726154,1.2762310517594693,-0.7543381927494978,nm
3.0338540000000194,169.20803299824777,19.160281269628882,166.53715131038152,6.062643672161267,3.240593408048983,-1.5402198396550262,2.782753083583201,0.15998319489079757,1.335761978712369,-0.7543381927494978,nm
3.0623820000000705,139.38830145303294,0.5988592363014658,174.64104464220875,-1.0701491473439884,3.6080196311776636,-0.5243331770469868,1.7410452160331862,1.0969850247889643,0.7894035349101597,-0.754338157559995,nm
3.0814000000000306,129.56341329206043,-8.674889481195631,-178.30803071145223,-7.17244077204856,-2.263695152825737,2.275121500450283,0.463843625529565,0.7265241247559281,0.6309939705692529,-0.7543381276489176,nm
3.0910840000000235,130.74404296120073,-10.324885114466493,-178.08445237776908,-4.758210068801577,-0.8028560545052961,1.8479377135210449,-0.24334132101649264,0.32304739660085596,0.08389359166801195,-0.7543381276489176,nm
3.1006019999999808,133.0241193601045,-13.562849111030122,-179.15959556541858,-3.0596929216734083,-5.10645197954122,3.142328542519902,-0.4619147197770101,0.6378410354088532,-0.12027570317306402,-0.7543381276489176,nm
3.129132000000027,151.3202892570429,-21.40810981424034,166.34917782524525,-0.8844998274262327,-1.140118201373814,0.05361188579465299,-1.1936594083755505,0.19456428982633803,-0.7885643673735759,-0.7543381022245018,nm
3.1574840000000677,157.20358050615556,-6.315317953870582,172.50216621085335,-0.7118228361581742,-1.4872855734893078,-1.0965966530819844,-0.19037734206067775,-1.1019925375591288,1.2386251512584294,-0.7543380806137484,nm
3.1765060000000176,155.09841144487515,3.7133237638821273,-174.46555373811677,0.11810105476489749,-1.8075020819726282,-1.5349400933709823,0.5325472715286975,-1.0086481299126937,1.1364491543167874,-0.7543380622446081,nm
3.1955950000000257,144.62935500181356,14.710682128945917,-176.74953619950796,1.6551011083518936,0.9514572080879832,-4.696277913627373,1.262424712527612,-0.8715190160109598,-0.45768728310863493,-0.7543380622446081,nm
3.2145450000000437,120.73965448851564,14.400159259022601,170.34287000052964,5.293468493109693,4.6262818166507484,-1.9616812686203768,2.547844512248258,0.08531497411640176,-0.573837659902506,-0.7543380466308388,nm
3.2240679999999884,106.36977504313533,11.175650984693291,166.60777555172263,6.484776877775746,6.525099563588306,0.8832769084344487,2.8768049692948514,0.06957773866424737,-0.10615893138516115,-0.7543380466308388,nm
3.2335789999999633,90.74266215172445,8.734841598474427,166.60568832539866,5.856987467599985,4.779489106741366,2.9064084833388963,3.1103710485692813,-0.24108043126489376,0.5408360096680866,-0.7543380466308388,nm
3.243253999999979,76.7743085738901,8.410066094216004,168.65207631606256,5.2750857456725955,4.185582395818605,3.8214156369735526,2.7157414521738255,-0.5296000126221645,0.8243893951579767,-0.7543380466308388,nm
3.2717969999999923,42.81145620037061,13.090513183004054,169.4435025099028,0.19681477467128597,-0.49250225335926534,0.12778467085091325,1.964145593450931,-0.5276747534918348,0.2776584546148333,-0.7543380333591349,nm
3.2811320000000705,37.32031856441686,11.763603915769425,169.55798744959253,-0.9944783244989687,-0.8436686697973647,-1.59602013901947,1.1046589206050068,0.06543737123793508,0.2597180001190138,-0.7543380333591349,nm
3.2906330000000708,35.56807778780778,8.285081839805516,171.6186241050175,-1.9814286996135746,-0.9799458029640465,-1.3820846451355167,0.45506115154381793,0.6308430704604534,0.4735179790253367,-0.7543380333591349,nm
3.300155000000018,35.17449062336013,3.2703687473108847,175.59356263297863,-2.6210828810910627,-1.1590061214570224,-1.1820340328160883,0.18990619702817146,0.9896029115261622,0.8031308193850266,-0.7543380333591349,nm
3.3191659999999956,35.52775474194239,-8.516989892797552,-174.68094578995547,-2.825250879156501,-2.4003580629150414,-0.038172448931922856,-0.0815303843815608,1.1831684239383855,0.9423829021573878,-0.7543380220781866,nm
3.347690000000057,28.305439562169777,-8.77784543414016,-179.33559872513408,-4.903914198172229,-1.4772500552754992,1.698856894439738,0.9692233223839103,-0.34836644186214055,-1.06853814865177,-0.7543380220781866,nm
3.3572070000000167,19.006928894704817,-9.145290287631264,176.3823149553107,-4.507308969029762,-0.18737461899821464,0.8867319745560014,1.842210897379729,0.026151142174260022,-1.1450801517321594,-0.7543380220781866,nm
3.3859220000000505,-13.826926654427085,-8.876856600683075,174.9658556936009,-0.34323981993908914,-1.8993096415062265,0.8673268707201792,2.2455804467861396,-0.32358665895378713,-0.177677831756815,-0.7543380124893805,nm
3.3952450000000454,-24.659793306061417,-8.517441240560247,176.2630139740785,1.0055265961182243,-2.011461971999942,-0.09908245909088503,2.1334609922262437,-0.23553759659305692,-0.06936596792836447,-0.7543380124893805,nm
3.4047669999999925,-34.12928194914274,-7.3874407125222135,176.94113079769454,1.3159756910668345,-1.8177879387204128,-0.8086120258075152,1.8620948634086465,-0.33678420139700793,-0.12701391923542074,-0.7543380124893805,nm
3.4237809999999627,-48.01968711254068,-2.9750662759254456,175.26789182265838,1.8662154416156773,-0.41127080856226267,-1.612076776472048,1.181167836158797,-0.5311938301078449,-0.300617501091137,-0.7543380043388953,nm
3.4333050000000185,-52.94645739162961,-0.82491798319102,174.1388886978503,1.4900665200427714,0.31905072928956285,-1.394471755833289,0.9423951553860692,-0.5198680918739249,-0.2582453335949516,-0.7543380043388953,nm
3.461842000000047,-59.572228567010065,6.172305702108245,172.82101676126234,2.4871272068154067,2.757784952493193,-1.3554598175525217,0.20643078916448362,-0.41276438381771663,0.12232455838623242,-0.754337997410983,nm
3.471259000000032,-58.59469437157851,7.026903889015031,174.86628119728752,3.0393320606045813,2.9044682709161895,-0.8291073335004238,-0.2116849087414885,-0.1491530505081629,0.3868056806703443,-0.754337997410983,nm
3.4808420000000524,-54.6447393786797,6.794791028117522,177.4713205475145,4.114261633475446,2.4951650857713177,-0.346885614041697,-0.7804583084572577,0.09958443543780662,0.4390152907126574,-0.754337997410983,nm
3.5093930000000455,-35.77701348091441,-1.2056000165160619,176.58046220913192,3.1476160183424424,0.8414854381804268,0.3862045483716448,-1.2413430602491198,0.7285005123890052,-0.39660206534526876,-0.7543379915222574,nm
3.5188850000000684,-30.732314100757833,-3.711287373520601,173.26274835608717,1.5734249198851995,1.524495082323435,-0.024126315967148166,-0.9595571790222145,0.592032798370204,-0.546847325208595,-0.7543379915222574,nm
3.5475999999999885,-22.078019528100533,-7.445339933065974,172.50456814162888,-2.0443737044760164,0.23598548333737074,0.68453827061378,-0.10686727050780084,0.238312894708301,0.3866703780534122,-0.7543379865168407,nm
3.5571160000000646,-25.3909447612294,-8.86384730950234,174.45447665812287,-2.8188136920116915,0.31117211996213695,0.6843817579372051,0.6853953106135832,0.20654751210384634,0.33820789540422624,-0.7543379865168407,nm
3.5761260000000448,-37.78612193286927,-9.847579018663858,172.3187354852158,-4.24526308770687,-5.326798323993124,3.879338877694315,1.5031813801966982,-0.13652193961441755,-0.7833161485956557,-0.7543379822622365,nm
3.5854659999999967,-48.31144003550442,-12.196759263345784,167.53157622264413,-4.517421439518455,-3.5156679511534135,1.8719468236101207,2.1209148447227757,0.10162261257783341,-1.380566388538288,-0.7543379822622365,nm
3.594963000000007,-58.36621810479669,-17.098434491514325,162.84741166169124,-5.186294826363283,-5.064298206339933,1.4635512054085602,2.135479713664993,0.4511668383190786,-1.4731791000338765,-0.7543379822622365,nm
3.6234940000000506,-92.41124990818413,-26.8686118995744,164.3369220859952,-3.642685600768124,-1.0714179626510523,-0.36052820262041513,1.879034222122511,-0.5842674238196549,-0.3381375679627586,-0.7543379786458229,nm
3.6330169999999953,-101.85232530466696,-22.515056273152403,167.65093045266042,-3.0692590459394835,-0.6887740165327069,-0.701550926785401,1.4581627744927443,-1.256587356324373,-0.17437056244749813,-0.7543379755718713,nm
3.6616169999999784,-120.14629808126531,0.5573711627325343,166.29372811412915,1.4049153214040315,0.4099017612546515,-2.0187489989841496,0.7588525904911066,-1.6725242673351437,-0.3923785069772431,-0.7543379755718713,nm
3.671059000000014,-125.17497148427427,5.507441279442303,165.826596223838,2.3374667997453376,0.06585179185450726,-2.0493910671860873,0.7392655052196576,-1.2027772967474366,-0.08370967061640294,-0.7543379755718713,nm
3.680565999999999,-130.49549698172137,7.567137194049185,166.78819250922135,2.6137695898387148,0.17910663946614436,-1.5315244375017474,0.9303438143571082,-0.6510075618815265,0.3136918007273164,-0.7543379755718713,nm
3.6900900000000547,-136.01750015324146,7.552923687860675,169.53455978688604,2.2361341996705644,0.420736300569993,-0.5167946690941533,1.0730222503874662,-0.22173938843970203,0.6944973856541572,-0.7543379755718713,nm
3.6995880000000625,-141.46232464719154,7.419833433364357,173.6159401301279,1.9181507494000491,0.18608789784285792,-0.7153784124001427,1.072974219842909,-0.1316087867616447,0.9579920837415989,-0.7543379755718713,nm
3.747131999999965,149.2438792908354,23.29647573383107,166.74268587831003,7.2752079472913085,6.6821723929355,-2.8696923464881032,3.9149081655888094,-0.4017779284118377,0.029793294491561297,-0.7543379729590125,nm
3.756642000000056,129.04458672982102,14.712942959128934,160.77869709517523,4.70371217210733,5.425031032145454,0.8542322665234604,4.146283982981294,0.5643756870470432,0.13866022076448856,-0.7543379729590125,nm
3.766148000000044,115.55582488183816,3.184570346810658,161.37225736670638,4.010582821862402,5.342769819293993,1.8791979456706251,3.2727146905372417,1.308206878913226,0.5399630236381856,-0.7543379729590125,nm
3.775846999999999,104.64907434444702,-5.179680853381219,167.15651812555018,3.13294590523381,5.638351777674929,3.272110304385017,2.5568320350550087,1.0152272987521238,1.114881221368701,-0.7543379729590125,nm
3.7853589999999713,92.8407329867318,-7.43054659602271,173.56484005525814,0.9086060017005668,0.09823242226935872,2.4869954381331287,2.392435894409808,0.04880222572131859,1.0181794192968425,-0.7543379729590125,nm
3.813709000000017,77.41970786318085,1.6984372955249758,175.39203091030012,-7.792144952481725,-2.0972112134405765,-0.5593624284649142,0.44492893837107456,-0.41988789052426784,-0.32969926498783747,-0.7543379729590125,nm
3.82320900000002,75.71905808590571,0.027780314714590738,173.94356226895704,-6.0818226956946395,-2.612487634822232,0.3644289735912179,0.3701865847005107,0.30177797306588977,-0.28442866835565916,-0.7543379729590125,nm
3.8422420000000557,68.41224404307727,-9.608382840321974,174.18684435766778,-3.3068036757952077,-2.5674458794045134,0.33862477564852417,1.2034873491761402,1.076441424147447,-0.04094688763999193,-0.7543379707380825,nm
3.861436000000026,52.35000311687836,-16.044083661404034,-179.05402559960268,-1.176211277330947,-1.7664093121966962,2.025757611105923,1.5501588707666378,0.1528091689217582,0.41485415657744146,-0.7543379707380825,nm
3.8709680000000617,45.20149531877951,-11.13000931660968,-178.70679329408972,-1.1600498326631632,-1.9055195170643264,0.5178932414385011,1.411175772207563,-0.9558772693765215,-0.26766277105747566,-0.7543379707380825,nm
3.8899750000000495,31.00650363821835,0.5360064215840801,169.69134070946714,-2.240844629603584,0.41707788686374686,0.9561311947840253,1.495967852605406,-1.2089533412436302,-1.4009943072951119,-0.754337968850292,nm
3.9089890000000196,12.696477915980884,3.30516838448647,160.73262858487365,-0.19752205524280475,1.149281189235896,-0.18145922777749893,1.6041218593835087,-0.5277670385246994,-0.5194986022468505,-0.754337968850292,nm
3.93736100000001,-9.003851148349604,2.1034353673242125,169.26927931777573,2.9275582318552464,-0.2616760244240614,-0.9739513848034387,1.1581363071611062,-0.6158926984892651,0.9399369830768999,-0.7543379672456701,nm
3.946864000000005,-13.199758318205083,5.2896544493393725,172.6318530441243,4.417236069602743,-0.9402522398496492,-0.5813200931290317,0.7283721987622086,-0.7621081116014926,0.7266270921130111,-0.7543379672456701,nm
3.975389000000064,-17.029136773702138,8.168745014394986,169.80416574278192,3.0759059504974724,0.8912635605301902,-0.3690518045707829,-0.20739650440265928,0.04282218148034479,-0.5561678397852958,-0.7543379658817415,nm
3.994414000000006,-10.293736641256611,5.6969781606550445,165.08777770305414,1.8802174765936701,2.0127097388007926,0.09253839030032474,-0.7052273039460512,0.5024773647342554,-0.46642926758952946,-0.5836835396026359,nm
4.013445000000047,0.5178524355544696,2.1618359948038397,166.77548022473513,1.5246952982052546,1.8572777276330381,-0.06675797953908448,-0.9610688425879438,0.6256441920621679,0.29935499872522736,-0.5836835396026359,nm
4.022939000000065,4.744644794585016,-0.32923191960687986,169.57988157200813,1.415805007200804,1.7577674290149783,-0.585739250024862,-0.72501160917762,0.6636646966988733,0.6064227866512247,-0.5836835396026359,nm
4.041993000000048,8.9745694255297,-5.991432658660428,175.56518788566123,0.3844544244401781,1.0105478435891766,-0.6363692208071269,-0.1973732718633125,0.5659744266677631,0.6386939496794355,-0.4386272772653961,nm
4.0611639999999625,4.741175647234522,-8.705922066872196,177.6276545148601,-2.1073139045885485,-0.22732755016697326,1.3422744835671694,0.6703609328289715,0.13047485340430062,0.0037448921199862385,-0.4386272772653961,nm
4.070687000000021,-2.456200975535995,-8.280991053297415,176.07725651869842,-4.5791137916389575,-1.3277560486679927,3.7508425163688717,1.419397025958855,-0.16394257904242454,-0.5113974009286172,-0.31532945427874226,nm
4.089525999999978,-26.03627554809386,-9.362067258779186,166.48447451187693,-5.415590005206566,-3.267810576960558,2.1377621948184706,2.5967403230691035,-0.07723561395663964,-1.5594219578434798,-0.31532945427874226,nm
4.108527999999978,-47.79304645501313,-21.170174492944493,158.22719773156632,-4.221892312653925,-3.588703286717355,1.7919553530304535,2.1873474019546344,0.5247760876870164,-1.2188735249370133,-0.31532945427874226,nm
4.127559000000019,-72.16040537354667,-25.327510343168885,164.1665674204989,-1.786246758378397,-0.94541236540911,-0.3820279674907078,2.176410311726555,-0.7249497545189012,-0.17158555626802624,-0.21052630474008652,nm
4.137066000000004,-81.60516963494925,-19.966935649043393,168.7498578441917,-1.529116688892908,-1.8126169796455633,-1.5985882247579857,1.449167255925328,-1.4470308460843195,0.14137915712928042,-0.21052630474008652,nm
4.156165999999985,-94.59181716168654,-2.01803299578962,169.84100768940147,1.112708035172033,0.9593421498886352,-2.719408324667469,0.8221659576404136,-2.0047250244728914,-0.35641953807600296,-0.21052630474008652,nm
4.184631999999965,-100.74382545540722,8.666325199382975,168.71771223120308,1.7514174866926029,0.9865179376801354,-1.4133949717243304,0.2945519753912293,-0.026701283719937043,0.18734774272126,0.2,nm
4.203665999999998,-101.83166249173317,2.7849871625180334,172.45020998781806,1.1301464095828038,1.680357802055178,-0.4452990352533867,0.1760128447810736,0.6122949369379134,0.4853466686706631,0.2275037313968444,nm
4.222853999999984,-103.62167363737012,3.5419884603804492,-179.86513203819223,2.979075776716366,2.4450627452013807,1.40256225084192,0.09355357818254192,-0.42222210936756377,0.8919446721712961,0.2275037313968444,nm
4.232185000000072,-103.91313442263488,8.87387518083321,-176.7772735777193,5.421806006450805,2.396254114243997,1.5644444841960945,0.08870847543477374,-1.0658645010074475,0.6378709246608696,0.2275037313968444,nm
4.241681999999969,-103.26184990601057,15.084802214503306,-175.82888657952842,7.357610719121615,2.7138703341205357,1.3881876617901678,-0.04625712822241468,-1.2499306790188451,0.14754476614565015,0.2275037313968444,nm
4.2797219999999925,-102.93079964039981,0.7856802189142695,175.19674313218476,0.9207458124416109,1.363208470643101,-1.573073757783032,-0.00781467587491133,1.5275203419264702,-0.32661673354609605,0.25088190308416214,nm
4.289319999999975,-101.00974089319637,-6.404403979410294,173.65836730002135,-1.4260816151351208,-0.7806595854569468,-3.1320852005945286,-0.23732458858653474,1.4716483507945708,-0.20522276489391483,0.25088190308416214,nm
4.308265000000006,-100.3993412935261,-17.05562285572308,168.6996014003741,-4.400019397200558,-0.30605417627503423,-0.7723657256910884,-0.0388988455782012,0.9062154240481283,-0.4905586476009044,0.2707533490183822,nm
4.327281999999968,-91.12770871727744,-19.775599304979288,162.42613759174625,-7.981308165486583,-1.7796095384477582,0.4955666419833063,-0.9473968452770754,0.3771902939056058,-0.23731052959308072,0.2707533490183822,nm
4.336785999999961,-83.85588492879153,-17.43540212423012,160.15874283593638,-7.370784262870424,-2.4077254414438354,1.6492093933808962,-1.4571641544946583,-0.0022975772885944824,-0.005596663246257873,0.2707533490183822,nm
4.355817000000002,-67.79626929862904,-8.675976324444614,162.73563138539046,-4.065735961456018,-4.340596886918835,0.7868684357949112,-1.8177615910077565,-0.21590184014179303,0.8386820859010613,0.2876440780624693,nm
4.365364,-60.742415985749105,-7.584012045210532,165.5412772024252,-3.041525288439345,-3.987815638071376,1.279086905567722,-1.4051056119556011,0.17330853055289633,0.7753273553888606,0.2876440780624693,nm
4.375017000000071,-54.976719820420904,-8.336584817558386,166.21265679178742,-1.4665543266556176,-1.106716032960188,0.9732487685364163,-1.0723652292291728,0.42523225762699807,0.2940595408062746,0.2876440780624693,nm
4.384518000000071,-48.40392233613947,-10.007705054453753,165.38854218094136,-0.4780953706171315,-1.4192199342789111,1.1065278461708388,-1.177976158477104,0.6429522206735376,0.04498784543561719,0.2876440780624693,nm
4.394033000000036,-42.97062788367738,-11.988271210575338,164.42397583196322,0.22618899669747974,-0.7034837838008836,0.9021000824794375,-0.9282802589596428,0.6609449165472107,0.01461930049899237,0.2876440780624693,nm
4.413048000000003,-35.85291177759162,-11.600495380481894,164.04323865996906,1.707490945263849,0.4461683049468872,0.3091261567463173,-0.7035365621144097,-0.05565933720435607,0.23329018964661918,0.3020011977499433,nm
4.422398000000044,-33.80280874578979,-8.729038012898165,165.8372630595257,1.9911396658514608,0.387566864507119,-0.1459842549943148,-0.5401530318492912,-0.45002063082323956,0.44456109990877485,0.3020011977499433,nm
4.4319000000000415,-32.8852043641796,-4.8102069936117715,168.84610631016287,1.9656143884868726,0.8255655676801885,-0.6119480568743458,-0.35006452243902403,-0.7259741425868929,0.6189710385150928,0.3020011977499433,nm
4.460419000000002,-26.427325514898723,6.922242345273777,176.60069374481978,3.0065693268760922,1.1365695928266248,-1.7506986925391799,-0.6103249574660753,-0.49052498621733726,0.2662315882136428,0.31420474948429616,nm
4.46994200000006,-21.79208439025086,7.349096227155094,177.1045013065287,3.1561132365827955,1.0002670506074727,-1.1415716180189286,-0.9247185522577613,-0.034438125408108,-0.0073440931828337355,0.31420474948429616,nm
4.498653999999988,5.9938974758276675,2.9406245414774275,170.61936451733814,4.01786324428538,1.0335379824329947,2.630446230467642,-2.241179328696177,0.6371909618113117,-0.7053059282671474,0.3245777684584961,nm
4.508163999999965,18.024737473502793,2.186185936326601,166.9046362818843,3.350732229774757,1.7561349472525494,2.241437897644133,-2.3289800805896905,0.6312740012987136,-0.7107243135813236,0.3245777684584961,nm
4.527007000000026,39.8009131450536,2.6198064140087594,164.33480155640336,1.1356822734068355,2.5502157614376815,-0.8442057963970332,-2.0403701910457146,0.5487777834433615,-0.05166034248040173,0.3333948345865661,nm
4.536505000000034,50.153995590970155,0.9712165127036532,165.8976033421688,-0.04868209502428632,1.9445352712271513,-1.1159942198390722,-1.9151634710646321,0.8588259190372001,0.34515336057337187,0.3333948345865661,nm
4.574550000000045,73.8363361691538,-21.843430082121372,176.009227732499,-5.732423298425665,-2.1551447605473615,1.882619105249508,-0.45652295258047443,1.1915050396808724,0.7614418896496578,0.3408893407954256,nm
4.584063000000015,75.19264469430183,-24.757778603818252,176.95720557804148,-6.16096317449909,-2.3225555145617722,2.506907743101593,-0.2132559489467157,0.5980295789103605,0.29751058562504634,0.3408893407954256,nm
4.603092000000061,75.27361030313854,-22.69909577441875,175.78713427761394,-2.3402179238436402,-2.1644772981411626,0.20446825722602938,0.11294764755426452,-0.384998982619117,-0.1992743876117032,0.34725967107295613,nm
4.612604000000033,73.84185156610874,-19.569197126455983,173.88924141722865,-2.0831343608864827,-1.0317993419856528,-0.244085537429907,0.21009403618888817,-0.6484325881263683,-0.4834698175472085,0.34725967107295613,nm
4.622281000000044,72.31971459169834,-15.84086852418748,172.15680719222408,-1.3683454982695318,1.0018098366430093,0.8250662246069503,0.19765874513679527,-0.7765519022584851,-0.439734911585286,0.34725967107295613,nm
4.6411319999999705,63.95768957355404,-9.11597728278931,170.69931846230563,-0.043894118602813385,-0.8377421523441461,-1.0921479043826066,0.7672956767665247,-0.6936304726860198,-0.35620801254948947,0.3608312766387939,nm
4.6508139999999685,61.298053068712626,-8.040773818602762,168.73951765498245,0.8176698567571371,0.40204827375665886,-0.08538704347239538,0.479929087734728,-0.30573306891661484,-0.4716312759476616,0.3608312766387939,nm
4.669658000000027,56.30137420349633,-6.709792252503095,168.13174558763782,2.0234325141972365,-0.4318446301835504,-0.49862940445274245,0.4528603907606704,-0.28043138891718544,0.04507863852496762,0.37236714136975596,nm
4.6886670000000095,55.36645348518997,-3.817524131854101,169.75506027638878,2.8801616015865266,0.08467064994315937,-0.15265522250212257,-0.1122398329397071,-0.28186145271484664,0.07456575092453502,0.37236714136975596,nm
4.69818900000007,57.24746527906171,-1.7124104998698007,169.40932867071857,2.962831085950799,0.8383932928056208,0.18608378998607722,-0.44614923265458256,-0.3469577168000076,-0.06579853986497226,0.37236714136975596,nm
4.707699000000048,60.56373538510922,1.2398415668257825,168.57709172478738,3.284200407928191,1.8686385884681647,0.5469380763654011,-0.7643512134737481,-0.4544806118802481,-0.19308961815556885,0.37236714136975596,nm
4.71721100000002,64.84755547500687,4.374520283937929,166.9088934080263,3.5409951439946674,3.066934572591575,0.8250988868931165,-0.9698669018752206,-0.43332426636277915,-0.4240938610908331,0.37236714136975596,nm
4.726715000000013,69.26937518940733,6.983285500508602,164.70306375245679,3.5745035204503814,3.6958218914861845,0.4275533136196269,-0.9818768287140736,-0.2922903768698723,-0.5803601452126481,0.37236714136975596,nm
4.764756000000034,86.95316941356977,-2.3273474281565414,165.06603108650356,1.8271494968018431,0.38019996132162903,-0.6810277930368138,-0.6388251695683306,1.374034141229123,0.2832997589112376,0.38217262639107374,nm
4.774283999999966,91.53274712222755,-8.6573882083146,166.21715731743143,0.7856399272968535,-0.2988204470360983,-0.5533612677368007,-0.5627928592038549,1.4572464913412442,0.4381756399717352,0.38217262639107374,nm
4.802805000000035,110.96088415711715,-24.861472347692526,169.4343225001861,-7.089816795586064,-1.4510097231603845,-0.3892438728583208,-1.0821903098376962,1.2067579809635531,1.0194999364152448,0.3905072886591939,nm
4.81212800000003,116.13879214042295,-29.916823072316987,166.4258112631395,-6.007524801680136,-0.7528484248042104,0.32687937246356424,-0.6745167910783557,1.1904335095863645,0.14151890679316312,0.3905072886591939,nm
4.8315169999999625,126.60946944500847,-32.89819554098339,160.11347667894552,-0.33595174308391423,-3.0847701995792884,1.3244428149022454,-0.7183039758565237,0.3033717975682876,0.33918724845433856,0.3905072886591939,nm
4.841022000000066,130.93544657578832,-30.451372251869163,159.8831736442775,-1.2861387647750206,0.19365239506520077,0.26599691713229356,-0.8619939539652515,-0.2007555028547057,0.6171393687611213,0.3905072886591939,nm
4.859868000000006,137.8521222405228,-23.768154306087617,166.81547369369792,-2.9667556112669304,0.32919293957963963,0.24352649800378817,-0.8111627679570786,-0.4652727728728309,1.0581034330560266,0.3905072886591939,nm
4.869385999999963,140.17556684125032,-19.55770711866065,168.02883973340522,-2.754433545583445,0.8467913867020669,-0.5518968238436862,-0.6055961782381326,-0.7292999416518899,0.4138524107965567,0.3905072886591939,nm
4.888486000000057,142.45998359150883,-11.88219388050026,166.49875593671902,-0.4695052074167739,-0.11112082751013475,-1.5397162452805682,-0.4920520957773316,-0.5742214242785864,-0.1097021770590208,0.397591751587096,nm
4.897920999999997,144.1748281739918,-9.197980049226205,165.31015903004715,1.4502453284580787,0.8143380078308289,-1.8982578336417195,-0.458155482373172,-0.43931014708566013,-0.1752100419583541,0.397591751587096,nm
4.91691800000001,142.05813461789063,-2.4774317886439507,161.97655315310902,2.979409032427216,0.4527657859498751,-2.027635950988039,0.02731096817795588,-0.7520160404205833,-0.368197577141068,0.397591751587096,nm
4.9264329999999745,140.00520721342215,0.026350518649207056,161.13688190665886,3.4253756874309254,0.8680356839881558,-1.687635632141151,0.2310098267141468,-0.6056987310177001,-0.17697167329423383,0.397591751587096,nm
4.9359510000000455,137.13124173265268,1.8328732096643425,160.91411064672894,3.7661118689533053,0.4280738410628676,-1.2568907252454458,0.4261870850241496,-0.5291592003648373,-0.035395592535051215,0.397591751587096,nm
4.964490000000069,119.22326250559823,7.569545472312094,158.78435711280653,4.359085401382726,1.6529233196970188,-0.19687481225178863,1.461398344027605,-0.7741606167269678,0.03156293646900899,0.40361354507581276,nm
4.973997000000054,112.08534859310458,6.154239187251698,157.64344812930395,4.438066846900543,1.8506340272467936,0.23890819894024562,1.422328358097784,-0.2633939931682866,-0.05709762821634959,0.40361354507581276,nm
5.002691000000027,102.99061254401182,-10.043917038034488,159.3229872864387,1.8811288222065825,-0.035230607425569924,1.3156278278701208,0.4016180012414423,1.1469969987435777,0.3558200700350049,0.40873206954122204,nm
5.03104600000006,115.48803533545232,-20.42653396641807,165.58229197229835,-2.3319510485162573,0.3231843613075977,2.0117398275809757,-1.2208116413436063,0.888626494006032,0.9517728320846462,0.23957776772170059,nm
5.040385000000015,124.19823601597025,-24.148845008800038,168.2756551130918,-6.641065985167136,0.19559724036309845,0.725353909073814,-1.4038707664431063,1.0900908222666326,1.1995938073032317,0.23957776772170059,nm
5.059582999999975,146.73878191851574,-35.8395643692499,155.598600775761,-0.3173989143034335,-1.6260311776960261,2.7550866792981226,-1.7011786431630838,1.583560536880953,-0.3526942432521188,-0.2,nm
5.069096000000059,162.78031086006538,-35.96509064097384,148.25875134044293,0.6648185116425366,0.49613140982459386,0.578804242066429,-2.2788781380996,1.2441065647950773,0.41978319529431124,-0.2,nm
5.097456999999963,-166.09057217209468,-25.07942076784313,155.34976308524605,-4.77715178505997,-0.1575989782896767,-0.6533659406064513,-1.6420196071191033,0.3009017744468905,1.991973240544986,-0.2778444913883381,nm
5.106962000000067,-158.13956318738568,-23.536552982857053,160.82768374904845,-3.3916868695842175,-0.36561742894126564,-2.283130862208574,-1.4617281515477765,0.2551943675584095,1.749434959496988,-0.2778444913883381,nm
5.12635499999999,-149.904031714156,-19.286020238986456,167.8799115239348,0.2556515764938873,-2.31137456177262,0.7710561134860691,-0.9559270517255143,-0.30786432827302074,0.8400863926772862,-0.3440123090684255,nm
5.135674999999992,-145.494087541936,-15.162600803235353,168.75174979611913,1.2626202372249717,-2.4462819757634127,-1.8634271834887903,-0.9928515770792602,-0.6378690494082505,0.4359583124506207,-0.3440123090684255,nm
5.145186999999964,-145.53379641961092,-10.621860571862443,168.33451338751522,2.4213398818174174,-2.4114291670359087,-0.41147904435984567,-0.17312260919279715,-0.8931986117442808,-0.08488607410718552,-0.3440123090684255,nm
5.173718000000008,-162.8592201499225,-4.132427894853427,162.5101475248687,1.5105743121262878,-1.095844299928709,-0.9648437457558212,1.5713283210786457,-0.8583723996308946,-0.5347651952813868,-0.4002549540964998,nm
5.183287000000064,-172.48728695092524,-2.0579907322646784,160.85864994525932,2.0714910985375257,0.13748777139521584,-3.6401728298140696,1.696087589334139,-0.998272312964141,-0.43366188185665544,-0.4002549540964998,nm
5.202248000000054,156.56206931459423,0.47117276058639834,160.0607277574464,5.273773774748804,3.2399427491438257,-4.127199034276314,3.217650320052436,-1.3627520277212901,0.025847032694960373,-0.44806120237036295,nm
5.211742000000072,138.81772867671424,1.400255838562976,160.28641939220066,6.999199499838116,5.562762670102357,-3.1873509380643243,3.2772558281743294,-1.3778818015615644,0.10268433097838563,-0.44806120237036295,nm
5.221260000000029,120.55025862871872,0.9310407005436746,159.75819741678592,5.498887887134913,4.330920235300823,-0.06262105311118568,3.4670892041985417,-1.1611691021806767,-0.030353998520739923,-0.44806120237036295,nm
5.240480000000048,91.69557058169838,-7.619383318336738,162.31898334464208,1.1515531602022435,3.867054971266298,2.973978540628722,2.7695778417775023,0.13381559475927468,0.26281750152303923,-0.4886965134031466,nm
5.249971000000073,79.01314953608531,-12.295115041953148,166.55087386011985,-0.4685370672058014,0.7604978396066293,3.4623078503485263,2.66013503613241,0.2269176059698273,0.40437468591340053,-0.4886965134031466,nm
5.278504999999996,63.55130352688582,-13.478758586008222,165.93175230616254,-5.7608922448770965,0.2084438710190925,2.4819377426024074,-0.30861250624716174,-0.2972175631944282,-0.7817619964616752,-0.5232365277810127,nm
5.287846000000059,63.2317372401683,-14.044466654854483,161.43931800188253,-5.2691680759343935,-1.013650514599881,0.12952301583386033,0.09183290131185656,0.0917864346621203,-0.9140187460988742,-0.5232365277810127,nm
5.307050000000004,57.33190774440684,-21.782640948350533,157.71694304730502,-2.6040290403530997,0.23583282763300692,1.770515813233908,1.0408425586735206,0.41780403462200527,-0.3222114203142973,-0.5525955400021989,nm
5.316547000000014,49.89690016377167,-23.013111688243033,161.34533652682998,-1.3402517211385594,-1.3272916461429218,1.5491902898025045,1.3756359637512818,-0.25107500239383795,0.15778373616787186,-0.5525955400021989,nm
5.326059999999984,41.39078518856136,-22.14369448422372,163.64125225911343,-1.0906607986546852,-1.3699573293001566,0.07398271551145104,1.4477975652786979,-0.6391584213694608,-0.19570242734912455,-0.5525955400021989,nm
5.3355699999999615,35.703593117641994,-20.25028763958421,162.53851659977906,-0.6928320956889757,-0.6068381557056941,0.8244298856335764,0.9062142275971314,-0.6716389415079319,-0.6326247086789192,-0.5525955400021989,nm
5.36400100000003,17.35536035845832,-10.983302689510486,151.16432210976924,0.1068357029304014,-0.018904088344172468,-1.1015489765781519,0.8233862908098274,-0.8134272885723682,-1.104637578409701,-0.5775507003902072,nm
5.373919999999998,13.335335952879477,-11.29988958942193,148.1157237732848,0.6890928711351173,-0.09860219820132787,0.5308356375536107,0.7141321413465064,-0.34472765050349347,-0.7653973183747622,-0.5775507003902072,nm
5.401974999999993,0.6779185797537755,-8.343948340673617,154.46772173821898,2.3219691334128676,-0.7558585198833749,-1.3485223670939905,0.3886374532165916,-0.6098974338207855,0.7386100346558578,-0.5987625867200143,nm
5.411479999999983,-1.009798307128365,-6.883400068037299,158.719671310834,2.999163460334495,-0.3509688394768713,-1.7330059505028794,0.19133434028376595,-0.40170750494853985,0.8058783530435711,-0.5987625867200143,nm
5.4400040000000445,7.320158274805642,-3.4833919651261347,160.83396020956144,3.4961423430417633,0.5117279418415533,-0.04098721954079612,-0.9268278599903836,0.22101390256609163,-0.2399248599607967,-0.6167926901003502,nm
5.449523999999997,13.679486558104378,-3.590766300116627,157.8822905831994,2.756227455188293,1.1726687798357907,0.695073748408364,-1.182453578324998,0.4685260777722613,-0.5114063091337628,-0.6167926901003502,nm
5.468543000000068,26.591888401320126,-3.8003336685836153,153.04778231068153,1.9676677291638316,2.2097826117780563,-0.8876042730977005,-1.124188990354735,0.6094633615185664,-0.28276219263529584,-0.6321182779736357,nm
5.4780490000000555,32.44926973944656,-5.436614581067797,152.58377420279447,1.486110518220593,2.158058332730085,-1.2193327153416031,-0.8889814514280556,0.8276790730279897,0.05199643912430919,-0.6321182779736357,nm
5.497073999999998,38.94134836307058,-13.014027571142877,155.85810760410263,0.031186163563260684,1.3522808360663188,-1.5975294257134312,-0.024080943459189905,0.9669266387398079,0.6107127614008709,-0.6451450276659285,nm
5.506595000000061,39.138081860282874,-17.46919790326259,158.83697552688508,-0.616196130838684,0.7503627348349207,-1.1067130253521988,0.31064432299085426,0.837536906826293,0.664947756837673,-0.6451450276659285,nm
5.516271000000074,36.65900246128217,-21.021942651591967,161.56381169707748,-1.4700158367677334,0.24179316938650108,0.13214583452313985,0.6829264359411692,0.5095955114338541,0.41783969306147944,-0.6451450276659285,nm
5.525780000000054,30.82143456114293,-22.14481613908881,163.02885295461513,-2.949188672376021,-0.0024336363362166837,2.5724491675368015,1.1041482465190635,-0.11683124932690804,-0.13256944257093237,-0.6451450276659285,nm
5.554310999999984,3.793084025959139,-15.611591434668139,142.841351849003,-4.5774902212680955,-0.018658699792287615,2.7936228416041877,2.054861135160202,-0.9432570573926643,-2.7694408003005497,-0.6562177649043773,nm
5.582848000000013,-32.0416371443012,-27.771902318162237,139.22413978148685,-2.1183771762219954,-1.69308242808764,0.9900662705352883,2.450242456965803,-1.477725971309305,-0.3928563487204432,-0.6656295915570588,nm
5.592184999999972,-47.9206338179887,-26.02232874270349,148.85595201095666,-1.6379549946567278,-1.7090084053884862,0.008390580468550818,2.097780424807485,-1.9378387469422065,0.3944103611459382,-0.6656295915570588,nm
5.611279999999965,-69.0625788012714,-9.048982282464147,159.7298554745422,0.4487170208657244,-1.3831745268950686,-3.8565650150722384,1.0348502906207022,-2.4556656185974783,0.1285110410859937,-0.6736296442118381,nm
5.630304000000024,-79.35641248635005,1.8931461279835073,160.38162692697722,2.058649725467423,-0.7533319393780002,-2.8990393288178296,0.43602478356573177,-0.8638345983094886,-0.09184891945511212,-0.6736296442118381,nm
5.658751000000052,-88.90177618067631,-8.537661045533907,161.1188038502047,0.8937294283481557,1.828008566947375,-0.7396823476149248,0.7818303243415702,0.7473371850271562,0.1865126942483598,-0.6804296889684005,nm
5.677776999999992,-95.63634274064466,-10.615010012701287,169.30395760594027,3.3845039054830592,2.1488660220837503,0.9876899744578351,0.627142605346466,-0.3144723884831582,0.8930961674604098,-0.6804296889684005,nm
5.687295000000063,-98.41433424344929,-5.766705146437846,174.09841116201963,5.436745571789198,1.1818966122099084,0.706415997674076,0.404804674339979,-1.0401062735011326,0.8799079602771648,-0.6804296889684005,nm
5.696803000000045,-100.27586263341493,0.765623640971358,176.23371480851398,7.846022833339755,0.6864345587756894,-0.21074876230284012,0.26260346173747295,-1.3348391358905167,0.3823051069085892,-0.6804296889684005,nm
5.7158170000000155,-105.9323124586506,2.7909476419449217,171.0577253531206,5.691373160417967,-0.5329055348739968,-2.456593564338319,0.730186101018757,0.2705573125913088,-0.7532082187681596,-0.6862097270114785,nm
5.734924999999976,-115.96626660286731,-10.26823986084017,164.54510926404154,0.659757859311142,-0.092939901836467,-1.3999487780706112,1.1774600455388338,1.1767834846745764,-0.5660131357119049,-0.6862097270114785,nm
5.763368000000014,-133.02015847689736,-30.02593511625031,160.22838668359665,-4.936244070544906,-0.4031985041137097,-0.8992391387645373,1.3311120425291376,0.772984730568223,-0.8549314191527553,-0.6911227593480949,nm
5.78257700000006,-132.7852030883839,-39.40977544998432,155.52476619705882,-5.675008752689134,1.3058494280110755,4.591330659423333,0.09732519358708748,0.8953349740097578,-0.1688160771898394,-0.6952988368342188,nm
5.79208600000004,-127.43745000092471,-39.28517979677968,151.99514400327456,-6.0010093368053035,-0.21788683726644306,4.538619821268754,-0.7530051229302885,0.34297369310333686,-0.027335057713587352,-0.6952988368342188,nm
5.8015870000000405,-122.03075854102165,-33.36318873421996,146.9460240867756,-3.045215152431089,0.1850609463130954,1.735019251593388,-1.3534902280467958,-0.5791442851712791,-0.36687578682660416,-0.6952988368342188,nm
5.810914000000025,-116.65254156400468,-25.980657988422646,145.42875734348067,-2.848509970117118,-1.196467225473358,0.018023108542407015,-1.600151231169725,-0.7075513429567576,0.23107435390153316,-0.6952988368342188,nm
5.820425999999998,-112.28810300792051,-20.617938146056627,147.60804867607047,-2.8704925299603308,-1.114936279719509,-0.43486730210474256,-1.2620878553823172,-0.4527935979587121,0.7818294362804709,-0.6952988368342188,nm
5.858658999999989,-104.71773719047602,-27.31601783139053,160.98881809424088,0.04043642384623206,-1.329010040602592,0.9122287868878337,0.2666315101557699,0.5307180134109976,0.9317234226893898,-0.698848502697424,nm
5.868167999999969,-106.36280073991955,-28.40636763780817,163.8178386978933,1.0237226259628687,-0.8832871216475964,1.7062563714829673,0.34348480579659135,0.1206457558969479,0.41193345719483876,-0.698848502697424,nm
5.90604200000007,-123.98066092426599,-8.195396875232618,164.0403155244353,0.9667308582388962,-0.5061431398122697,-1.2078725161881803,0.8706882126297132,-1.6473119417864486,-0.6018228614837815,-0.7018657186811486,nm
5.934548000000063,-156.06216450301218,0.7958491554785877,161.58620708916757,4.877485916231811,0.6727474171265836,-3.750817495353669,2.3709786178484618,-1.062149809239513,0.23800114516584972,-0.7044303522673144,nm
5.944049000000064,-171.84314013270125,1.0717383727479821,164.7102382239585,5.7690935370552054,1.968171607010044,-4.278140369783628,3.006189041846905,-0.9678680955087832,0.6726074875552658,-0.7044303522673144,nm
5.963081999999986,154.04225832860467,0.5276901916601985,166.8678024406104,3.661424947625095,1.9575605400823592,-2.4870779545326513,3.2742770090373696,-0.5857652771081925,-0.05848283226194469,-0.7066102908155554,nm
5.982102000000054,130.8104745654458,-12.485789960673463,162.862279377342,1.3743096121874212,6.136809175678476,0.032155201092001914,2.5766618530352567,0.9215325791970965,-0.541050962978123,-0.7084632385815601,nm
6.0013099999999895,109.36894262627797,-26.068877888731777,166.6625969751429,-1.4990222794739618,-0.4727844464747471,3.6793491835613032,1.890588202178302,0.6421146521982036,-0.208839366706343,-0.7084632385815601,nm
6.010830000000055,105.08108568694595,-25.991751628146954,170.23930300199228,-6.541325507844917,-2.55806345009332,3.158541912654274,0.7522310751011118,-0.16992650095454395,0.3386377606875367,-0.7084632385815601,nm
6.039348000000018,105.40486627291236,-26.66982825139074,166.01617660565762,-2.1318609942265256,-0.12975104846833857,1.7612510728064132,-0.1758781148724178,0.44985007499044954,-0.12282681902137012,-0.7100382441826643,nm
6.048669000000018,104.16182640640758,-28.87693223348863,166.01337367553694,-2.6733843988302333,-2.2601322839266142,0.7933390440250647,0.32053998278292517,0.37592366914048087,-0.11611502919485882,-0.7100382441826643,nm
6.067698000000064,101.97711302878443,-29.858411009264767,165.8253886048668,-1.9973014928196426,-0.2219398818766016,-0.07131352559355193,0.2285159709334906,-0.16278278627628218,-0.17964680435574548,-0.7113769989436027,nm
6.077209000000039,99.79326482922413,-27.112789650135603,165.6141069514092,-1.4283226229334942,0.4748568629012365,-0.48107098079017374,0.2367523778849429,-0.6278843935498414,-0.2513072989326289,-0.7113769989436027,nm
6.086720000000014,95.7381644425162,-22.428000353310864,165.19881322899334,-0.3400582048606091,1.0153893770521225,-0.47124264795125903,0.47719450832828336,-1.093787060254668,-0.42408830912083645,-0.7113769989436027,nm
6.10574500000007,85.11443052293295,-10.363615511127255,161.90845995467254,0.677429332412584,1.207856777884616,-1.3222579845332758,0.5619688403141143,-1.4294196534396717,-0.650698234258911,-0.7125149404904004,nm
6.1152530000000525,79.10687119073417,-5.708965951886956,159.22423470716828,1.7889746742881205,1.5228662340465602,-0.9387209896264482,0.8138558661376116,-1.274899547015161,-0.7051794453047228,-0.7125149404904004,nm
6.124766000000022,71.4155596637778,-3.314760945637015,156.48851142710072,2.249621245146535,1.3056016857530057,-1.000053768131657,1.2420574261832242,-1.0222507432551708,-0.6679810534534553,-0.7125149404904004,nm
6.134273000000007,63.254104691363764,-3.227791132117454,155.28117500636074,2.684169940856358,1.2375496775799297,-0.37091420407394327,1.4823967707427796,-0.6824938463955602,-0.33444630064254977,-0.7125149404904004,nm
6.162804000000051,42.66884619323653,-4.203957193947915,160.71455421210248,3.807816972114505,0.2344462882735622,0.7699719391164123,1.1365462559408,-0.5230798929802299,0.2643854035137758,-0.7134821908051785,nm
6.172317000000021,38.53402276512713,-2.812916500048018,161.15506867519312,3.7250207339601866,0.29184435273773224,0.405673081485285,0.6903863608997738,-0.5333671344786801,0.037288071204425594,-0.7134821908051785,nm
6.191329999999994,35.7877485980674,-0.31137603675406544,157.82624323085594,2.556240196499733,0.9565547117375567,-0.06287526549735091,0.09661831273478524,-0.2395575264975482,-0.4374311817793437,-0.7143043535727398,nm
6.200841999999966,36.35480268406222,-0.5149599381592795,156.2297238665247,1.7353031457175403,1.206206625029102,-1.059335484460937,-0.08875535686297109,0.08185655168455831,-0.359813944442363,-0.7143043535727398,nm
6.210361000000034,38.16378102389795,-2.2059398026183814,155.90132413724854,1.219425168434082,1.2845019968683498,-1.0019510011622326,-0.1936877511401511,0.4566276593283724,-0.056962896557655705,-0.7143043535727398,nm
6.219880999999987,39.7077317029242,-5.5478036965924495,157.22207668028884,0.6626733094846755,1.0610289827686916,-1.3674559874318317,-0.016908637531247807,0.7369343578733394,0.28538990042241963,-0.7143043535727398,nm
6.248400000000061,39.509554438553295,-19.576715797058792,165.55321338426552,-1.246286526250747,-0.11031286296941287,-0.45888782018647495,0.5138841513649702,0.7395218112899279,0.5644166412072736,-0.7150031919251669,nm
6.267606000000001,28.520566666226333,-19.641577546019814,168.21029210048252,-4.426337956030127,-0.7042201251529507,3.313814489828586,1.1478616880613368,-0.635271935963056,-0.46230662443666826,-0.71559720452473,nm
6.286618999999973,14.476489364174084,-12.700901714439796,153.110582719871,-5.439969169329636,-0.391662741060053,3.292356250648894,1.3229399349004214,-0.9353177604240074,-2.4095298382783374,-0.71559720452473,nm
6.3151450000000295,-19.548383333247624,-22.24992815099888,142.81127400336376,-2.204646493141146,-2.6790933094598635,2.7841845618823498,1.9856428677982885,-1.047403404939534,-0.42961517658574083,-0.7161021152343586,nm
6.3244829999999865,-35.3837232185451,-22.223343623649995,149.84297294145333,-1.3828366776511616,-2.061112804431443,-0.08514264357991004,2.4398417119877505,-1.6311027962602647,0.1988485474783732,-0.7161021152343586,nm
6.33400000000006,-49.12732221506459,-17.91610005407617,157.76894175136727,-0.8677051486101295,-2.0576806814593316,-1.226158483675706,1.9415504506488863,-1.9111974735579287,0.633848844637656,-0.7161021152343586,nm
6.372123999999985,-76.8892973904523,3.4261316134884865,160.1992807123308,1.7812803133187365,-0.02554428309159254,-2.4248941344379804,0.7267128343934784,-0.42338066826516174,-0.14136628311747998,-0.716531289337543,nm
6.381558000000041,-81.14364352946457,1.2276499934734706,159.3450588681427,1.48891672129542,1.404578185282483,-1.7580923995608317,0.9509293215316391,0.11868946528202472,-0.13651776681189737,-0.716531289337543,nm
6.400577999999996,-87.67647100386074,-4.595812667236736,161.28355824917165,2.8100964734998413,2.919911402721949,-0.28790533258838985,0.7348477153454448,0.2736778707542952,0.37093547518987147,-0.7168960873252497,nm
6.429094999999961,-92.35297829197359,2.3439425404501373,172.35354698734443,7.1515125470034215,0.720140389034084,-0.18432516746961053,-0.10576118722474649,-0.872394607137287,0.43181820683999494,-0.7168960873252497,nm
6.448130999999989,-95.71521044368721,3.8632310058241894,168.98997400811828,5.366265922197998,-0.4868467915729194,-1.6207535741931998,0.506884815175387,0.16312621658468487,-0.5650258625100254,-0.7172061656148003,nm
6.457642999999962,-99.60240958399609,-0.7971899719809582,165.735103714259,2.9259094402660675,0.961988249156394,-0.9095157773249295,0.9642511659088566,0.7392232818260814,-0.607442247502801,-0.7172061656148003,nm
6.467169000000013,-101.92442065499337,-7.093134309569233,163.16485736936656,0.9706699340608862,-0.12741262084719077,-1.446049600224269,0.7867769419350672,1.0892461830375169,-0.5110861882116156,-0.7172061656148003,nm
6.505182999999988,-120.28050111885804,-30.65841068095745,157.14153126955128,-5.540524924792147,-0.9863468328794733,-1.6735961826856758,0.8724546127995298,0.5723515581917383,-0.696519208066471,-0.7174697321609184,nm
6.5147080000000415,-122.711702892621,-34.28714641719466,154.48463465017238,-5.703406404191476,1.2045629986460547,0.15100037509912267,0.6726298081600948,0.4947677565026695,-0.7930439869504966,-0.7174697321609184,nm
6.5434040000000095,-112.2849644743878,-29.596001154039797,146.0740111945062,-3.442048920365305,0.18624021073018532,2.389269097442831,-1.2634076282686573,-0.8019750967579989,-0.25724924812762767,-0.6895255883653273,nm
6.552747000000068,-108.0862321663844,-21.66424531510687,145.49466751404023,-2.4316945254919293,-0.6548122391014104,0.033925101406925035,-1.5204064701763185,-0.8872611481571655,0.24908239493875736,-0.6895255883653273,nm
6.571939000000043,-104.3578389489527,-14.900995794612951,149.29277322913538,-0.7360214978821571,-0.9999267943761633,0.2840991868025655,-0.2432651377822599,-0.19072233695401933,0.45818310476717405,-0.6657730661390748,nm
6.581452000000013,-103.78675280760177,-16.58767051831078,151.77995486951255,0.34663692777179633,-0.42721351284895503,0.6430541505464445,0.0706056038119744,0.34869007980359906,0.5369108652792314,-0.6657730661390748,nm
6.590956000000006,-103.68021463439028,-19.731117891307733,155.10057587585632,-0.08508261172298529,-1.0158065003851957,0.09007405199343184,0.2644235170643506,0.5725862797362548,0.7057312767186388,-0.6657730661390748,nm
6.619499000000019,-114.36219183385371,-20.142685771261583,164.11693019748228,0.5654814800236185,-1.21987250999424,0.3146391245748803,0.5990779381828149,-0.7554740240943161,0.07825932020149026,-0.6455834222467602,nm
6.628825000000006,-120.34600517139788,-14.452478813679571,164.97729968763056,0.43625058569213476,-1.1195585738862797,-0.42204131834907077,0.8020188433905368,-1.400907191070905,-0.2320812297761896,-0.6455834222467602,nm
6.647925999999984,-136.46159495280733,-0.451790837820072,161.92292056047174,1.4232647424175295,-0.5449449785795889,-2.580418016684645,1.2910225957606787,-1.8013020936314228,-0.6317648304012199,-0.6284222249382929,nm
6.657440000000065,-147.4317683392618,4.14264735259474,159.0903400674616,3.0272241792668,-0.08162061065549218,-3.3528444479400714,1.762698821957677,-1.5977991010369046,-0.49378107351548406,-0.6284222249382929,nm
6.666854000000058,-160.73512594627167,6.268003760461935,157.87119831980027,4.898482855379204,0.6105325618039554,-3.7291327247814294,2.3107788509375755,-1.366876006026661,-0.0012434147473647803,-0.6284222249382929,nm
6.695393999999965,147.26312561695858,8.41835419932696,163.0003484822113,5.2622376684711965,2.7370761736267335,-1.8268695702841935,3.5024019417806858,-1.1720277229684843,0.734526735513577,-0.6138352072260956,nm
6.704911000000038,132.36550130006702,5.80993305514397,161.99417037055068,3.8800651796943924,4.920556262653571,-1.79558267971433,2.977766294184819,-0.3941337765365889,0.16937343144167832,-0.6138352072260956,nm
6.714417000000026,118.61164367553349,0.3602051425498825,161.81243520740995,2.8311502794600885,7.514546599136409,0.8768290917152628,2.9512466099571966,0.17865232862518854,0.11274028492709949,-0.6138352072260956,nm
6.752461000000039,78.00601971007329,-14.332032243269651,168.6413480547529,-4.901722470328143,-3.3391898822082062,1.5649541464245134,0.953054250150108,-0.11985223708342269,-0.08091463626945,-0.601436242170728,nm
6.762144000000035,77.94161619992367,-13.263601894728449,167.20740350078313,-5.38525772074294,-0.5286387374985851,2.600528221441324,-0.032453496678802,-0.2117855206901552,-0.29012951563122336,-0.601436242170728,nm
6.781170999999972,74.08201045425707,-15.503199264885241,164.9968428358064,-3.786616143071129,-0.9635469594598718,1.2646770175572368,0.6446307080370729,0.33040614017428965,-0.29068138297672297,-0.5908971218736655,nm
6.790499000000068,67.73921090673329,-19.323404750268825,165.654982319401,-3.6113960575094297,-0.6075850003051915,1.0394298096181418,1.36631504905029,0.43250312287404197,-0.24811035725021668,-0.5908971218736655,nm
6.828713999999991,40.77905443697195,-13.870698905874935,167.02184288034775,-0.6219159589661287,0.3830697840433168,0.9193345033129876,0.9236314779038763,-1.0393347753472868,-0.9951752287230413,-0.5819388696211624,nm
6.838233000000059,34.00176833381077,-9.690640897486663,162.83410873362743,-0.16139422602557751,0.32544503409579023,0.43873877812040063,1.0666582542069827,-1.1535784033290086,-1.1142118308748397,-0.5819388696211624,nm
6.866773999999964,14.854861634268119,-6.677708999017075,155.4807350359529,1.628510998046141,0.3322108497129174,0.044227091181632136,1.1277665041314315,-0.45228655401783485,-0.2195119839805675,-0.5743243552065347,nm
6.8760970000000725,8.724138782232366,-5.724680678886488,157.64743177303467,1.8941555124974259,-0.0863053386565543,-0.6981251798045159,1.0444764487708011,-0.6607050065074177,0.30041596419999056,-0.5743243552065347,nm
6.895122000000015,0.16706715025202656,-0.9600295266483257,164.03429473916654,3.1769806367054,-0.4134685686091001,-1.2853360100210383,0.5198341816750093,-0.6620362259989814,0.5751157371744924,-0.5678520179541011,nm
6.91413399999999,-0.07747885525008974,2.779821603253994,165.4595248824885,3.4958710798609745,0.20447616220718287,-0.5225751831002939,-0.27749691368824947,-0.2706978857045618,-0.04607294223098897,-0.5678520179541011,nm
6.942677000000003,13.918894929380752,1.6609896768419539,158.22301382635797,2.4211127933319756,1.8237185514151433,0.13703883848315604,-1.0575325869973864,0.6337846413645248,-0.5603042306111589,-0.5623505312895326,nm
6.952182999999991,20.529440249280906,0.21238347583104839,156.6642420710876,2.3836756151927783,1.9381631975687668,-0.44197996661761063,-1.1092993396992716,0.7792172173836667,-0.2619463790860365,-0.5623505312895326,nm
6.990321999999992,37.25495494373969,-14.257404138910227,163.12086229075626,-0.027262471075306733,0.7412335241059536,-1.5064361596431186,-0.06887045774283797,0.9215806253408338,0.7049056277436402,-0.5576742676246494,nm
6.999744999999962,37.168053561161024,-17.87761500338204,165.41180554715896,-1.0010791468942635,0.3918076789319971,-0.763565610129448,0.2144262072316456,0.6929663110955608,0.5123615061255683,-0.5536994435094987,nm
7.028440000000046,22.92137824158769,-15.20140428154583,161.6460616734483,-5.250636958437412,-0.8047191998032992,3.7241645303573074,0.913538402572407,-1.1474672604782712,-1.3300311211202402,-0.5536994435094987,nm
7.037958000000003,14.354619742923276,-13.66964807047511,152.82534670612557,-5.167726468499148,-0.9970759179311293,3.8217478239461187,1.420506697796793,-0.9213190765799545,-2.282042485034989,-0.5536994435094987,nm
7.056968999999981,-7.325376857207491,-21.65871059052799,139.40138352025573,-2.7139670852516966,0.49860828045327094,5.275862465831668,1.9019459259230094,-0.4549710694785785,-1.548145266195362,-0.5503208430116207,nm
7.066490000000044,-19.14944847992167,-24.53403852494284,141.01665489576524,-2.8294022916433357,-3.635920339658145,3.5410381044179386,2.041650220468753,-0.9533611759123931,-0.6071982420105722,-0.5503208430116207,nm
7.075812000000042,-36.66843828038245,-25.36634041578646,148.33685966272813,-1.7519993310896684,-1.5486198294777593,0.0018125299701221432,2.696106225267689,-1.6937270800449833,-0.10347117733053043,-0.5503208430116207,nm
7.104432999999972,-69.86272474581183,-5.054094867574825,163.50289783085512,1.3607572089824649,-0.367178641856494,-3.7532714421812767,1.198406906702806,-2.0577514373382786,-0.06967897941591936,-0.5474490325884243,nm
7.1424010000000635,-86.3019387467064,-3.078761194522806,163.0811856441683,1.233785779077694,2.4241643697518276,-0.9254292310158069,0.8147680603975734,0.4091191644855734,0.05696253119457809,-0.5450079937287073,nm
7.170923000000016,-91.46782704331244,-2.620658936787299,174.1123674712202,4.578047766082994,2.158409354064622,0.9180771572097888,0.14474171716378992,-0.6037016606295029,0.9873682034770684,-0.5429331106979479,nm
7.180434999999989,-90.73009753305715,1.9128317120380023,177.69578338087925,7.411628249110749,1.334790071076156,0.13798874442659625,-0.2122429078934966,-0.8950658345125021,0.7181134441407986,-0.5411694601218024,nm
7.199453000000062,-90.26321946222497,3.8679440790024904,176.45954921944042,6.063729653255355,-0.5327846916452345,-1.4381672694078185,0.10828720545684917,0.20383615876613168,-0.46436162116185187,-0.5411694601218024,nm
7.22798499999999,-94.7146415043432,-13.113108921725761,165.42942179183703,-1.7461704080998124,-1.620366961171472,-1.9810399795372777,0.32123023058910743,1.1783276228103492,-0.5298531934113635,-0.5411694601218024,nm
7.237487999999985,-98.45826758236977,-18.68551502498342,162.73293271953588,-3.096329262602656,-0.5709872837806477,-0.7289448750686196,1.0011060371085099,0.8736876214948948,-0.7080871578037121,-0.5411694601218024,nm
7.246993999999972,-101.95125929306255,-23.07297256944448,159.52639318555515,-3.9924084250839282,-0.40762742957405446,0.21716917416404855,0.9037090198391808,0.618673533161743,-0.8587602826837132,-0.5411694601218024,nm
7.266010000000051,-101.71173327176837,-29.968344507290766,154.70465115378997,-7.277444717906937,0.44848989196965955,1.4905708863736822,0.070418927520432,0.7338826370725401,-0.22990345035534307,-0.5396703571320788,nm
7.275540999999976,-98.37492820412174,-30.46510852904784,152.35491523745029,-6.92429189295759,-0.6042218023841358,2.747552309985746,-0.4721584751217928,0.34625234259206755,-0.12305414022392319,-0.5396703571320788,nm
7.304259000000002,-89.14017276142008,-15.285788173959203,151.85227089668797,-2.490421505204429,-0.8632380478729,0.7391134388431122,-0.9852927573485775,-0.6370763191078963,0.4214281768528775,-0.5396703571320788,nm
7.323276999999962,-85.45253311288464,-10.481619908306307,155.64985947926658,-0.8122001473626781,-1.1381238551985065,0.12483846239623257,-0.3498440288383299,-0.1481666513494232,0.39074884204461263,-0.5383961195908137,nm
7.332789000000048,-86.23966003762375,-11.058639562188645,157.35501128323602,0.6347510286470276,0.12567596281193,0.5381419811042691,0.1881831688618573,0.04433062984222859,0.3359235402453665,-0.5383961195908137,nm
7.361311999999998,-93.50839040411672,-14.066818720660923,163.4943906621539,1.4710945435755138,-0.2970839598259065,0.5361403701119225,0.742766044371064,-0.22663198066749377,0.23174898593638885,-0.5383961195908137,nm
7.370828000000074,-98.45098922509084,-11.991330430843139,165.33994873012603,1.441983072886365,-0.329489180002239,0.3615579260366062,0.8167930393297208,-0.6593248480779046,0.15438125589642077,-0.5383961195908137,nm
7.380152000000066,-104.21488676106445,-7.734623413227108,166.92428075146745,1.2370321478904112,-0.37784521100775065,-0.43939449991080687,0.9000771800722792,-1.0993079880030248,0.11132677307360937,-0.5383961195908137,nm
7.389656000000059,-111.42739021268186,-2.0594569101497866,167.85473998385552,1.3878202482552622,0.10638079773652402,-0.9176821540519892,1.1578263392580448,-1.4210995118818581,0.04084638412539132,-0.4306367016521916,nm
7.408683999999994,-128.7329246190855,8.334296672390094,167.22237145524895,3.6222775672116274,0.8219158503230021,-1.3755904403661752,1.5605927676571592,-1.288155445118852,0.07951305077522469,-0.4306367016521916,nm
7.437196999999969,-164.4963669390525,10.708790514371458,169.84837034012173,5.858708553647416,1.5825893930824002,-2.2865908680533793,2.500462068414922,-0.3314326141242273,0.7377191119176667,-0.4306367016521916,nm
7.446726000000012,-176.38277128616616,8.452828097095246,168.97205489217515,3.8872343790830612,0.49471773776345845,0.13039829169090467,2.3879907695198717,0.011676059686220838,0.22116270076454533,-0.4306367016521916,nm
7.4752560000000585,162.0907147666441,-11.29249770423662,162.09005715942183,0.1324613808277591,2.1210992246814233,-0.5445655581615156,1.6147926333504503,0.9538034913853637,-0.46899591055017775,-0.3390411964043628,nm
7.484942000000046,158.05290479095981,-16.51381083522694,161.57871183608222,-0.9546035136724675,1.103499123717741,1.6107088356121828,1.0715011033892228,0.7489878319164575,-0.29605204270781493,-0.3390411964043628,nm
7.494456000000014,156.48440179897574,-20.789421689283056,162.17108282905536,-3.546591711835454,1.8694412344413376,1.3605235798065614,0.5491288458323121,0.7215553065957478,0.018388356071031092,-0.3390411964043628,nm
7.522811000000047,171.11509233285545,-30.037897936004885,155.82156671941343,-1.3693277587124746,-0.5623360216734081,3.2786369400483752,-1.1477661237027688,1.0439389676678774,0.09612703764219671,-0.2611850169437084,nm
7.532333999999992,-177.07525185019247,-30.422783489163805,151.91492100988984,-4.151601758343777,0.6366782978505399,1.4569552203165188,-1.7978969376193927,0.967618990451156,0.4100007956826086,-0.2611850169437084,nm
7.541728000000035,-163.55189716926046,-28.40754088430028,147.23970061191443,-5.358724798516095,0.455586563114484,0.8290339350417084,-2.234549482566975,0.8461712986978953,0.3968794901271889,-0.2611850169437084,nm
7.5704319999999825,-136.6305262639571,-6.277498933282844,143.58219193308443,-1.554593394571427,-2.587058486176388,-3.826921540848308,-1.6278904972555777,-1.1067823449687435,0.05941208070890822,0.2,nm
7.589387999999985,-135.1686597557937,-2.4131462944183384,153.6616237068244,2.9861696331049195,-1.4193439388286597,-1.0890800580940272,-0.39290808028081436,0.36499504762144336,1.471487435731924,0.2,nm
7.608588000000054,-139.86586299093602,-13.202093320976763,173.43538589902053,0.8019914853975102,-1.3329453112707863,1.8390934243094164,1.2083386560002454,1.032945136078654,1.7261371187464984,0.2,nm
7.636934999999994,-153.98914389560846,-6.929641242771803,179.62017199271344,-0.8039932891857545,-1.2427437366669745,-1.0601016393079787,1.5421129389947978,-1.508206744704898,-0.700772403629558,0.2,nm
7.646521000000007,-162.80791070173018,1.263096025715798,172.38735929950204,-0.1777874318060689,0.4066945088208291,-2.906827655273998,1.6544303502708393,-1.7516964119657017,-1.6296587876410316,0.2,nm
7.684485999999993,137.92711765324398,-2.5812238498126745,152.45595859490172,6.476731789305774,2.459750179539963,1.1095789866815093,3.144929058311807,-0.8847841038262901,0.38510702366215926,0.2,nm
7.694002000000069,125.03384341246966,-4.219726441112889,157.14624979710553,3.9428365085706503,2.356041986957931,0.671613233840155,2.4701542387448803,-0.8014835619830527,0.7815992635427792,0.2,nm
7.722528000000011,97.3774965317746,-1.8044929837917492,168.05509909910606,-2.823907291452526,-0.8553294254489695,0.5257500078144054,1.5814791232382102,-0.5052171025703187,0.20668774667013423,0.2,nm
7.732227999999964,93.11493106968443,-3.603025315518531,167.96600461278393,-4.217376287145935,0.638641635590547,1.7610877768222546,0.9086984154901927,0.17522524911979034,-0.057827548952077264,0.2,nm
7.760756000000015,95.95687871594272,-18.53917246973374,168.99150685848363,-2.307525528074297,-2.812260485799264,2.472904302024363,-0.27041729432775446,1.3241618673120825,0.14778177931996164,0.2,nm
7.770252000000028,99.97044390928448,-24.774810447656932,169.1632674410648,-1.4738296601912069,-2.58388951799856,2.7812705951320935,-0.496942333771551,1.3678730662300098,0.3319659953953827,0.2,nm
7.789104000000066,111.0937792080852,-31.825412794165402,171.40890459922926,-2.7754077344748858,-1.110705626824697,2.490766547844986,-0.9702944481521674,0.6242909755572829,0.8597249150701833,0.2,nm
7.798424000000068,119.18471970375627,-32.68752476088051,170.4511673637377,-7.245227716166523,-0.19700610377581973,1.2728454725129783,-1.324967399516857,0.38629141957051105,0.6730622393954979,0.2,nm
7.807946000000015,126.88270599123308,-33.75926482976515,165.1552709000095,-1.7214453239160812,2.1330021991586543,0.18850905651177266,-1.21355910266529,0.48229149973218904,-0.21411321245247864,0.2,nm
7.817654000000061,132.35851308515262,-32.13223472599697,160.6814069247311,0.2112783315574267,-0.07883551751814569,-0.08980331601859208,-0.9741723097068163,-0.04100287928318316,-0.29884300132632,0.2,nm
7.836565000000064,138.29674510428717,-19.785201700484127,162.3878287649858,0.660815346031463,0.8966188896688759,-1.2646851280035072,-0.829136670887867,-1.2949737554675336,0.6580533369544055,0.2,nm
7.855591000000004,141.6810525182971,-4.634734478023526,171.41893179576255,-0.23048450085531644,0.3507657218902956,-2.0659248547942846,-0.612827644514209,-1.3124051978360936,0.9672392777316109,0.2,nm
7.88428399999998,140.12352559093887,5.641554289203957,170.01983320149947,1.3535627613147174,0.8771985417247302,-2.859598190103349,0.3657265480638064,-0.39902847115858275,-0.6897876761284862,0.2,nm
7.893723000000023,136.33778858656467,5.714354624065852,165.15080680134946,3.095279809989237,1.6683743524318424,-2.346955404260835,0.7333481929502954,-0.1759355229256804,-0.8989215608259911,0.2,nm
7.922251000000074,114.33504032045714,4.4927740284523034,158.4378959260976,5.7936729316100335,2.2822357664392587,0.6373294853641936,1.5966979623143038,-0.6115982866051257,0.07762553920288026,0.2,nm
7.931758000000059,106.72753493005291,3.924217524139311,159.7692721126306,4.079810234269643,0.7437753781087503,0.6836019015520016,1.459393495390117,-0.43560020174037417,0.3778250069263869,0.2,nm
7.960491000000047,97.32478533816895,-0.777298990600696,165.14809473975075,0.11216705341820538,-0.05662274602144346,0.8659266986868674,0.5949496840657247,0.18010145649356593,0.2700318007812572,0.2,nm
7.969970999999987,97.1746247653657,-3.1639497038799616,166.20307457956704,-1.1597150822703592,-1.2258223678147648,0.3101757197309416,0.14738068500715193,0.45573353033344244,0.21033956948210206,0.2,nm
7.988987000000066,106.02982157193114,-11.706820517660626,167.76603707246485,-1.7292436873366241,-0.9658240956827456,1.3698934808630858,-0.761252118778689,1.166233928244003,0.2730475977380114,0.2,nm
8.017350999999962,134.4371590118801,-30.43842070424239,163.54601953165488,-2.227155383816994,-0.20753366095898548,2.4889233095944188,-1.672755820154026,1.7226548044646965,0.5751262038324402,0.2,nm
8.036460000000034,164.8462834139749,-35.25395792584643,146.49880440386065,-2.5931851969824216,1.0292151011876631,0.7185253983832144,-2.2709147550228126,1.2513152007452006,-0.4586142781571229,0.2,nm
8.055376000000024,-175.01324215549786,-24.373596743420585,135.13339106635738,0.35794950672365244,0.026332300929532083,-2.901685710467167,-1.7892170654311195,0.012280291416346957,0.18142763708936996,0.2,nm
8.074306999999976,-168.99829253831524,-15.944379405675571,152.62643134771207,-1.5109055021446305,0.7037411272200998,-1.355439454018434,-0.8118728842109996,-0.23680437857499245,2.4956048246246465,0.2,nm
8.08374600000002,-166.83746215517624,-15.642693708784902,165.5392775392541,-2.508359368096592,-0.16822616518590594,-1.403334878322617,-0.4115040354464336,0.0927455609589631,2.7011077171939966,0.2,nm
8.103135000000066,-165.1606484287296,-14.614203928943406,-179.2337414787586,-0.8025941715742402,-2.6087600269737674,0.929638995099097,-0.20241276784585066,-0.29080910001127674,1.0348564119041357,0.2,nm
8.11247000000003,-163.73050014525558,-9.4137614400606,179.5948169640904,-0.7136325331997139,-2.3596545179551818,-1.1972654132020992,-0.276688061482283,-1.042797293468896,-0.1744184202729763,0.2,nm
8.122036999999978,-164.65317706650046,-2.280149900345716,173.17320970911982,0.6103911409114091,-1.1616275751113747,-2.617546565864701,0.09326081354167813,-1.4389290647841937,-1.3017589624363386,0.2,nm
8.160022000000026,162.408580712328,2.6439283127826045,152.67259194827344,6.051176902634306,1.7511162716878483,-1.1254386229725002,2.0275193215404976,-0.6707968090775245,0.366258980551196,0.2,nm
8.16951800000004,152.18312863975655,1.9818164029703536,157.46791431850357,5.027621935082705,2.3488489517627458,-0.8460979879063526,1.9102685126912484,-0.7422473520855031,1.0395725949358061,0.2,nm
8.188541999999984,132.56513515078547,5.44965043756239,166.84730818417447,2.18435775093068,3.0055442521294866,-0.1857788815046537,1.7846654392243624,-0.9558746961065231,0.9117730222214608,-0.2,nm
8.20755500000007,114.87626555106412,4.682808586122773,168.17158836053963,-0.9285963113651311,1.6685585588278906,0.049992645154625266,1.6755906491190151,0.05520045412515709,0.14887802460006314,-0.2,nm
8.217249000000038,109.22199914014277,-1.026192871757704,167.8570177793392,-1.432939892089602,0.77457934929834,0.8652606484564548,1.344388187579019,0.8829214423618211,-0.025973067365698453,-0.2,nm
8.245781999999963,107.50612656906154,-23.618490105486714,166.0668522156687,-1.2177505371582287,-1.8689861904897451,2.8962819466654417,-0.22149609283675423,1.346667092101302,0.05075262068289585,-0.22557009568752695,nm
8.255108000000064,113.43890227615046,-26.92147099484619,165.63721516365445,-2.0038401294746646,-1.6185338321508553,3.234908984520644,-0.8797737089698918,0.9037673028284362,0.4216541909674952,-0.22557009568752695,nm
8.283458999999993,139.44892639543667,-30.606831264089692,162.7496908826957,-6.1135480216465945,0.6444027831557565,1.8657162498434106,-1.4669739001971356,0.8498227030231655,0.546259039070589,-0.24730467702192485,nm
8.29297900000006,148.91652145991597,-32.14317238041025,156.91379870623453,-2.4794227375533127,0.6948655486281069,0.46118934881379076,-1.411326239050774,0.8460167626060314,-0.17913362107821507,-0.24730467702192485,nm
8.30266400000005,157.18314568485167,-30.684981549215212,150.57014995298587,-1.3606482828356996,-0.04705214690338084,-0.2090204122888007,-1.394113367939678,0.3629256414491914,-0.40561226286598395,-0.24730467702192485,nm
8.321593000000007,164.4575042792147,-21.981426000260857,149.74004711164565,0.1677050954616928,-0.5653120840765571,-1.390372626421007,-0.7579448377583834,-0.6672478151979337,0.5615632143931887,-0.26577907115616306,nm
8.331012999999984,164.38090947918164,-16.867932634000695,155.80983329176095,0.060908881580823145,-0.5916666150644933,-1.1732166169884892,-0.45634313124098697,-0.9182119531991826,1.2082864503940083,-0.26577907115616306,nm
8.359812000000034,156.71076702685554,-1.4606192505363114,173.62774881453097,0.29087705592157787,-1.5846909795056578,-2.5422114387682395,0.5308034326071861,-1.0818958706117923,0.6436875119308192,0.2,nm
8.378832999999986,143.68468173765393,5.2751413754392935,168.81904588278766,2.072800317410038,0.9958058030180987,-3.464913057095063,1.5159932880009708,-0.7311233869282107,-0.6970379606389654,0.2,nm
8.38826800000004,133.9157542967193,4.77378705063214,163.9309797913134,3.737488919303697,3.0078832930587174,-3.090291239541348,1.9166667081735045,-0.36103493231800354,-0.8043828027076504,0.2,nm
8.397779000000014,122.37514222072772,2.3426145447460303,160.695012336959,5.398364545219473,4.118825136739844,-1.4605232446590037,2.3441757323984707,-0.23767607457292603,-0.501524329129048,0.2,nm
8.435974999999985,79.24005494467679,0.8703998853824423,164.00010017842783,2.3172562326971136,0.9083104685178367,1.921927537854577,1.5310347266827318,-0.6923038797209556,0.19965558168414063,0.2,nm
8.445500000000038,72.99961929426422,1.5203666571292012,163.86230685306165,0.4701158884092277,-0.0025255766675029165,1.3903026891983208,1.1645535977626784,-0.4708025256618276,-0.001558239512321071,0.2,nm
8.46434499999998,68.43258485094682,-1.8032442512965217,163.58881082588357,-1.9717030247299625,-1.2214260684271205,0.08416133841918982,0.20727851321632612,0.48416607390296973,0.018830880087480642,0.2,nm
8.483533999999963,74.90882929229606,-11.39621359750663,163.54821792601228,-2.752465514595092,-1.7387723019597476,1.04543436590295,-0.4840014462050312,1.243331407676773,0.09561247553094807,0.2,nm
8.49305400000003,80.67980497753993,-16.697640070952577,163.2470085079698,-2.6103899886808466,-1.3831330922601552,2.0478576691436428,-0.7713952929795115,1.3375117312052227,0.2211501696583973,0.2,nm
8.512088000000062,91.3665814671826,-24.14892985636534,163.07136105007766,-4.678873392177724,-0.6071598023938257,2.0540745697930896,-0.6994256029962919,0.8736510455452703,0.3852573454897664,0.2,nm
8.521402999999964,95.2509728012956,-27.28530792786319,162.85434487797852,-5.154297622851029,-0.07158223942406457,1.8264027459841765,-0.4858886387554547,0.8059943571817055,0.29466099633044934,0.2,nm
8.531096000000048,98.0956017103945,-29.975365945960757,162.4619727827402,-2.348890624502968,-1.4256861682188084,1.3834737134813564,-0.31648135852055204,0.6634930965851191,0.19493298383174476,0.2,nm
8.540603000000033,101.86117234688038,-29.2285835485044,160.93402149138217,-1.077576190960729,-1.2415125405888774,0.8806462970331478,-0.6690657662612616,0.06394900656273689,0.06661068478550738,0.2,nm
8.56879600000002,107.35862146111502,-10.442383694720075,161.9788359098677,-0.8388069301993201,-0.6522146934344165,-0.8050388571095733,-0.6624095851717053,-1.3801987472065538,0.40218770841446805,0.2015754039628718,nm
8.578295000000026,110.12170303314237,-3.316852548167784,164.854756682009,-0.014235874041620408,0.9273215673243359,-1.049169006628028,-0.9162300150080267,-1.2248449586777548,0.30601304331653284,0.2015754039628718,nm
8.597570000000019,111.45734723211125,4.873887606962055,167.77384507193315,0.09553538312882928,0.2280345952291111,-2.189816013871146,-0.1394403521700721,-0.5189329769557568,0.008321564083946256,0.2029144973313128,nm
8.607002999999963,111.64412070261082,4.896724268140063,167.76773462911967,0.9674850135116605,1.0070620741692362,-1.6857103628799466,-0.03737842370175088,0.0033871464960243468,-0.036601675813923644,0.2029144973313128,nm
8.61651500000005,110.75637411780056,3.8304347390446902,166.64909326680205,1.7115448985440882,0.8894439854511984,-1.3288147516221387,0.2206723348601046,0.16843900248780289,-0.13295169284171618,0.2029144973313128,nm
8.626021000000037,109.70084822814889,3.312995979202628,165.24074896521432,2.160669048227985,0.9470942663682722,-1.163256869662659,0.22991857910812713,0.0487685288584817,-0.19800027813239918,0.2029144973313128,nm
8.654558000000065,106.13986428249474,13.499269473137366,165.78494920040808,3.9843138233578257,2.418109175777805,-0.3123458763992024,0.04572975980736968,-1.1566999992718572,0.029348289005046255,0.20405272669448768,nm
8.664063000000056,103.32722981483245,19.377506145844627,165.57682782664048,4.322263022069034,3.652959115862128,0.07799132269162729,0.24246103354071075,-1.272494610513331,-0.06620613652967668,0.20405272669448768,nm
8.69277599999998,96.55532327190299,13.487263904354162,164.37538659874073,2.3494930882464904,1.1351173843624958,0.5392301005949591,0.30699153048312094,1.2828591756583296,0.11995424909279907,0.2050202216531863,nm
8.711790000000065,98.9276553351766,-0.6686776067895822,163.91563888380855,1.470278450359261,-0.358767034257689,0.8140686379157843,0.13891524406790748,1.2979474755761324,0.07877672460014844,0.20584259236808014,nm
8.721302000000037,102.22151539279929,-4.852257740255812,162.7491173198294,0.7042942290899556,-0.6945726150326674,0.6086170874099757,-0.3823386431749464,0.994988038171578,-0.007252021673326744,0.20584259236808014,nm
8.730629000000022,107.60732465294878,-6.906647464991074,161.17096577920853,0.15654712960053777,0.18935776579838826,0.7186871000166397,-0.8843439812612733,0.7330975813942876,0.048897816941425476,0.20584259236808014,nm
8.749656000000073,119.89044663448074,-9.466905352501156,159.1978258240422,-2.698414280451235,-0.8579518359580667,0.771190395781015,-1.1138174130698444,0.7864942800402502,0.4701721727470417,0.20584259236808014,nm
8.759173000000033,128.40861709597033,-13.381834491183318,158.88324625950045,-4.3205118016782995,-0.7678265471818744,1.651304221061305,-1.2553879386701883,1.3532423788287409,0.7125749678755576,0.20584259236808014,nm
8.76849100000004,138.14274079688596,-19.846537466936333,157.0059565316772,-5.749363087155086,0.5456264167480389,1.6519883792956422,-1.2102768944587587,1.9218322650206556,0.6087612765185504,0.20584259236808014,nm
8.778005000000007,148.45238662072484,-25.93530241248368,148.21213417934618,-5.7533291973023415,1.545282752198313,1.8702428803827853,-1.0937065478032182,1.9743695037698508,-0.5553931002064328,0.20584259236808014,nm
8.79703500000005,171.8220252190198,-24.065995475066835,130.17733311026421,0.5736813755041783,-0.04080858688386035,-1.0343493263002832,-1.798324346641551,1.1121785137133813,-0.21396699218132337,0.2065416074757399,nm
8.806693999999993,178.6402097731909,-18.77341976258804,130.5472254661695,-0.3328072654186048,0.3940837111780093,-2.4908260890951563,-1.6298419998934057,0.2819974255421087,0.5720544783846139,0.2065416074757399,nm
8.825635000000034,-173.27976126354508,-12.80478328424318,146.06863060317104,-1.9266337240050542,0.45353239529018785,-1.1935542206527612,-0.8107608960202511,0.24269740650001817,2.0558808377724396,0.2065416074757399,nm
8.83507700000007,-170.90713218830433,-11.886767673125032,155.75321458031814,-2.2278977401548645,0.023708495505107292,-0.7765147746065102,-0.4954782349442053,0.06510816152939883,2.03908007225083,0.2065416074757399,nm
8.86367800000005,-169.7254917966412,0.8622894034003361,163.52048914440977,0.0035710082826426724,-1.5087691932739027,-3.1070554550823086,-0.250529977457126,-1.1049331046167816,-0.4635687153763064,0.2065416074757399,nm
8.901827000000026,156.99604710069548,10.789146350495937,141.54279657237308,6.125274825021923,0.551436936762092,-1.421321617911235,1.8209808041438447,-1.2019402664217391,-0.06849352326848385,0.2071357703172507,nm
8.911335000000008,146.06789572543977,10.641941013121754,142.46743575802836,6.831121570451579,1.7862624532154565,-1.2124704931231407,1.711411213899006,-1.2996159550779647,0.5910778537966731,0.2071357703172507,nm
8.920844999999986,134.56850432508443,11.98634658196423,145.32720903067016,6.408068649221125,2.8978140887691892,0.04286001228642059,1.6653986515665753,-1.5471682975117962,1.021716821436979,0.2071357703172507,nm
8.949549000000047,104.35114785087139,15.360843213173428,148.62679783079182,1.547561675490675,2.2424232522298446,0.909649747407297,1.419571992289861,-0.7323551066648563,0.4473009993926073,0.20764080873253488,nm
8.959055000000035,97.10172796293512,12.22106475277953,148.78364954931348,-0.17037446980141865,0.7652882456940726,0.594985397265133,1.530844273748122,-0.19542254038577028,0.3777403485607754,0.20764080873253488,nm
8.968564000000015,93.09295633728948,6.611695782458519,149.51593398827993,-1.127010622944512,-0.2347918707712514,0.5061686893492758,1.256069369120366,0.5581564380590667,0.27842953667024145,0.20764080873253488,nm
8.987592000000063,94.55279400953657,-8.056645674771074,151.08565213601693,-0.9117963711226736,-0.9875195423136206,1.8262560284280538,0.41562680075302905,1.477166596221223,0.14636938851007347,0.20807009138552643,nm
9.006433000000015,105.20780329629513,-19.103552685225576,150.9823553151491,-1.610950552072112,-1.2181493346074443,2.2386162509609653,-0.6903465568923935,1.4563192332519563,0.3615493463879267,0.20807009138552643,nm
9.015950999999973,113.66664400739955,-22.442970486285237,151.23630799421798,-2.4840248939161302,-0.02305471917571568,2.4434503931632525,-1.063643897019845,1.3497890584216812,0.6518463052587069,0.20807009138552643,nm
9.044305000000008,141.65547839734685,-33.01500962072779,142.82453368315277,-5.382555041647946,2.2201253356970927,1.221446175607994,-1.167171053587523,1.498129840524146,-0.5334614678940809,0.20843498164056926,nm
9.053804000000014,150.92606616781333,-32.3622591742144,134.36039731685463,0.8605036714926613,1.418870822439513,-0.3196264379695663,-1.2560961147365715,0.9344580937474817,-0.6893681500410543,0.20843498164056926,nm
9.082431000000042,160.21045670326126,-14.172882642363186,145.473528328996,-0.28023857280802583,1.8955156551780754,-1.7903941019446479,-1.3159543386508095,-0.8583113703844809,1.857931936715306,0.2906565920144091,nm
9.110949000000005,165.26058942794108,-1.4296999069771352,166.41326884352972,-2.0554707573872095,-1.0895507375888385,-1.8524670697868373,-0.562844178470206,-0.6076669929199087,0.6037053906913569,0.3605449608321729,nm
9.120531000000028,165.75735305547474,2.1911960839641877,163.67634794202098,-1.2694216393506783,-0.8407092548319917,-2.382442790886078,-0.2832738697343531,-0.6751795862657521,-0.5482199514121385,0.3605449608321729,nm
9.130051999999978,164.1372603700911,4.594458087220168,156.8537368099024,0.5514476166767525,0.47774410788867877,-3.1672408610017793,0.14213213861557505,-0.5625296769795874,-1.345763977654563,0.3605449608321729,nm
9.139583000000016,159.7986930547075,5.2006592193226195,149.03874790503937,2.951640066749166,0.15113953229169097,-2.3767452050511504,0.7156732435626141,-0.5015392048691071,-1.488920260667977,0.3605449608321729,nm
9.158618000000047,147.97142494136057,6.836652619312454,140.79415573367473,7.0533862136900165,0.3587798784568979,-1.5655313919207552,0.840118462043994,-0.9939690307889293,-0.3119620804099644,0.41995007432727216,nm
9.19667000000004,120.79179606174627,16.81321161012861,150.34541797058728,3.5813397718155513,2.0890405234004894,-0.11997754659772529,0.7210657974388631,-0.6375217485144395,0.5087231324469401,0.41995007432727216,nm
9.206144999999992,115.45823108044458,15.455202910549515,150.2723649246959,2.06238122841445,2.649783333435782,0.3781120920799477,1.025533659486653,-0.2717576413021334,0.28220817223939254,0.41995007432727216,nm
9.225359000000026,108.53600494639231,5.204732194677002,149.70636211603102,-0.8891158177753499,-0.27426033331509053,0.7119655843807298,0.8693995074549358,0.9669389159567522,-0.0049154265029948095,0.47044442079810656,nm
9.244193999999993,115.80690157205564,-9.34475147352549,146.77229228478058,-0.07948216767832908,-0.42781596983540343,1.9208252330574507,0.002676171675172468,1.6615989054366074,-0.3123965151762622,0.47044442079810656,nm
9.253708000000074,122.95844448604946,-14.93240141272851,144.2273202804882,-0.36804887842746126,-0.9617323474022187,2.113550504642451,-0.5201450135440475,1.7145350025087884,-0.2064563821523718,0.47044442079810656,nm
9.263220000000047,133.6677118615425,-18.931999260133964,141.96482533042996,-0.3250321786022975,-0.1903312292328818,2.427329614342742,-1.159706701842987,1.870321680201639,0.17341974670718815,0.47044442079810656,nm
9.272733000000017,146.08519926014438,-21.861006336128515,140.34687915848372,-0.912675648915227,1.3324022322220994,1.8335540924598668,-1.447187754679961,1.9160748351374246,0.5438090652146775,0.47044442079810656,nm
9.310749999999985,-154.9726785220606,-16.01057431448466,122.3318309759756,-0.9622488770072742,0.5472977553495106,-2.5241068728191878,-2.4371381560954872,1.47476235454713,0.3033297620528165,0.5133646152983158,nm
9.320249999999987,-143.53551086458106,-10.242476702315427,125.65844590230341,-3.0106542070376126,0.13821648098957673,-3.078453438415208,-2.2022678019971096,1.2052540314908107,1.1834630464045297,0.5133646152983158,nm
9.339202999999998,-122.02040148554566,-9.959610461500983,137.85445964309105,-2.854670181200995,-0.6792344913096685,-1.3095722607994507,-1.2017624515158718,1.7002797252472086,1.4732614691386707,0.5498467806234936,nm
9.358335000000011,-106.29852397750248,-14.997240983558777,146.22819766710984,-0.5161522715641286,-0.9381643726227891,1.3604165641098604,-0.9750274538301744,1.1599758266113154,1.1104679184407364,0.5498467806234936,nm
9.38686400000006,-93.21793380286476,-4.912092718158556,150.05289891271858,1.607346284816201,-1.7115110191805762,-0.10096590758371576,-0.9258324006229611,-0.7426520383115505,0.08906959379065638,0.5808566211498948,nm
