timestamp,roll,pitch,yaw,acc_x,acc_y,acc_z,gyro_x,gyro_y,gyro_z,motor_input,markers
0.0,109.05056205906452,58.092202137906234,-43.89227849464365,0.09068995491980526,-0.15739101123793303,-0.003276763209329253,0.05353728588819956,0.19888427186917326,0.16244420336906815,-0.2,nm
0.00945000000001528,107.47418657641498,59.12773078399138,-43.67396339878597,-0.15737925948700188,-0.4602854884606143,0.07450926282913169,0.02459299469855569,0.2637905875410965,0.2649575153112928,-0.2,nm
0.018949000000020533,104.99915662502308,60.344285721788985,-43.5742951602061,-0.04519304199608798,-0.44431196041459164,0.19677197273632907,-0.012971428183224306,0.3489394539004654,0.4015057398398009,-0.2,nm
0.028454000000010637,101.72977227488254,61.76774807389711,-43.863027823539774,0.29898633063641145,-0.2653674994671888,0.29530127566349584,-0.03202600060479271,0.4252123750075882,0.48101191116113906,-0.2,nm
0.047472000000084336,94.73643581055917,65.10095532619191,-44.14626123435418,0.3109510525586314,-0.494359158443773,0.4732562052794737,0.032307901892900295,0.4554072242994699,0.6268894309160319,-0.27505222448020056,nm
0.056972000000087064,92.13700842215778,66.93960276388263,-43.210150930743815,0.2668207496347913,-0.6327941863029883,0.4199041845835663,0.10204132953789745,0.4136503334861315,0.6607310700449929,-0.27505222448020056,nm
0.06648100000006707,90.60134218437003,68.7976785137821,-41.353942941287734,0.47514422008694596,-0.5089840178545878,0.33988970839046817,0.16538044814219668,0.355066578038985,0.6540981742487879,-0.27505222448020056,nm
0.08551499999998668,90.1240656410852,72.5021782933382,-35.51330056687723,0.4935110762515904,-0.62958032386289,0.21193861920379495,0.24395415372662124,0.2887079887615862,0.6160076708220499,-0.3500454690233434,nm
0.09501599999998689,92.2089379427738,74.55634912011132,-30.481360904588193,0.471836969920615,-0.8515229015016899,0.42963891176143465,0.3234041001971523,0.2850866094171084,0.6038945662440378,-0.3500454690233434,nm
0.10452100000009068,96.7005042331273,76.92240085588953,-22.7600757625048,0.42357138388905624,-1.0195050120684614,0.6881935022339248,0.4089283684392763,0.3315136276639271,0.6589448400345126,-0.3500454690233434,nm
0.11404300000003786,106.68256453833916,79.4238367148134,-9.317054561305682,0.4831144164723501,-1.204720481697867,0.8930799785389231,0.5249944756765763,0.37817703964435695,0.7285420777630713,-0.3500454690233434,nm
0.12354800000002797,127.91734761349612,81.08173815413014,15.910821799887275,0.5217116083703365,-2.0297552972759356,0.7018850482010557,0.6748643405883368,0.3749829793286645,0.8760328586130726,-0.3500454690233434,nm
0.1520900000000438,179.60153902737986,75.40552875713239,70.57553458762179,0.3195683227206642,0.1386877635693098,1.4286327820706628,0.4390936049564628,0.21746809665335284,-0.5305859440317956,-0.4137897268850148,nm
0.16159300000003896,178.36366069908817,74.41283499812789,68.2775851611133,-0.1966619280273907,0.06341308704981338,0.510565926920377,0.1660300588522893,-0.12923380709789384,-0.27735571849722435,-0.4137897268850148,nm
0.17111599999998361,172.1502434623393,71.15121664060491,62.23877126590157,0.07559678354846511,0.9233232877756977,-0.09092285405439461,0.4459713674526381,-0.6048524973239582,-0.08871457326835366,-0.4137897268850148,nm
0.18053500000007716,166.24418011415315,64.83520254795847,57.760679180638185,0.15967143930797711,-0.918604988996484,-1.599297095804392,0.8814816625782045,-1.0138014142947818,0.13719076086722695,-0.4137897268850148,nm
0.19945500000005723,157.35150767446325,53.074086526849676,55.61724903882908,2.052729814386652,1.1267495119177804,-2.2313619343365225,0.5499766823705659,-0.9068517823815148,0.5679311311403503,-0.46797234606743554,nm
0.20897000000002208,155.6737999677177,50.16382673451524,60.70213565806938,4.5359217817832995,2.286720322699994,-3.2814997263549484,0.385573916935486,-0.48560071168305197,1.2750952349922164,-0.46797234606743554,nm
0.21856000000002496,162.2214697638768,51.543610298506145,73.95204970120894,1.1616135758404287,4.423310254731028,-3.950629323671717,0.06451687724056766,0.8679455877954618,1.6885948121052488,-0.46797234606743554,nm
0.22806900000000496,167.27993739334946,56.12746858186197,85.3595964306832,1.958581693615282,1.7966693611568774,-3.8240831270017903,-0.7942703180111107,0.7544203771464958,1.5714092869842682,-0.5140275723724931,nm
0.24710500000003321,166.7108026320145,65.5983313150814,95.7721108240285,-0.607751317993024,0.42050432659048076,-1.7436659111622461,-0.749371380796584,-0.12593191283950284,0.7269911694671373,-0.5140275723724931,nm
0.25670400000001337,162.3960248973014,67.91770363206939,92.26409549431509,0.21480608456763514,-0.7473360835341919,1.0964979608426961,-0.4408657763267987,-0.3712017482695977,0.08447596856963768,-0.5140275723724931,nm
0.26621399999999085,154.75260091968542,70.43105986443777,84.31243432717699,-0.6465433313281228,-2.1115868677072944,4.76186344866067,-0.5192061293926875,-0.5257437694674444,-0.20609699071928134,-0.5140275723724931,nm
0.2852260000000797,178.4602010942573,74.21627563615314,99.31592105326239,0.31837286982123253,-3.88261669906817,5.129519997607417,-0.23920482513304114,1.3064584768327316,-0.7917818757555289,-0.553174514731792,nm
0.2945670000000291,-152.45264859442642,69.28328130244942,123.00100457351445,-0.06491042049302333,-5.374386071056011,1.5367193806390846,0.25400209169321786,2.020413151712999,-0.7757839290332329,-0.553174514731792,nm
0.3040730000000167,-139.43385048857726,61.20207666578938,131.5260600261591,-2.554836268474078,-4.282272620447775,0.3103773280406769,0.6293109437768764,1.841984408840283,-0.6430183548210803,-0.553174514731792,nm
0.32310400000005757,-134.38375849763767,53.96200046902676,121.53943472016842,-3.548198391111223,-2.1462639554865204,-0.7424740556991014,0.31721844271229777,0.22269568185143573,-1.8633971509599339,-0.6147330815917896,nm
0.34229500000003554,-155.43200789347688,55.34657830203783,90.54314445715723,-1.8774283704238015,0.714202803035591,0.4449971640094478,0.028589357501894022,-1.526181085908591,-1.3064487492659485,-0.6147330815917896,nm
0.3516379999999799,-167.33231015179524,54.68719142261325,74.17927084141665,-1.1241098416860946,-0.5348193412542952,-0.9118459187544469,-0.04236805664563124,-1.3663774806067872,-1.460262550329706,-0.6147330815917896,nm
0.36121800000000803,-176.65994242784114,50.64100743866906,62.999970021877566,-0.5575495664445854,-0.8384790709867231,-1.9179155337389628,0.34795647422808224,-1.3449812115568687,-0.864907391123072,-0.6147330815917896,nm
0.40877899999998135,162.345855501782,35.17255780471216,81.28323682489845,2.889089531041956,2.963160559180015,-3.752235062107734,-0.7461061335423897,-1.3377812170298662,2.016899627769663,-0.6387741975681941,nm
0.4181980000000749,149.25345965926263,39.30055193828396,83.07742173675896,2.642420724728375,2.6198206869713077,-2.7568615899855162,-1.1018518796235233,-1.9547215007538215,1.959379848704539,-0.6387741975681941,nm
0.4277940000000626,139.16367561004793,42.804254106684255,84.23071970980523,2.914160976267133,0.8697105793168168,-4.029675112126587,-0.8641639435118673,-1.4366827015347203,1.5468576652459634,-0.6387741975681941,nm
0.43722300000001724,128.4693002566753,44.76660551122028,84.03497708365126,5.720536420682549,0.47013483250595955,-2.0212521837412702,-0.5474877222978114,-1.49689253270204,1.4327609625356874,-0.6387741975681941,nm
0.446912999999995,114.5890545453822,45.717025524963645,84.22251217256468,1.3295307414886042,1.0619339406317954,0.7918597767351241,-0.38728060958407123,-1.9265846780828486,1.9929129761218571,-0.6387741975681941,nm
0.4564250000000811,104.97410954082339,46.774983672255445,85.5827086161885,-1.1145601374124128,-0.12039761919069487,1.7894195790800582,-0.32928334804351317,-1.3073905020252061,1.6620408110373226,-0.6387741975681941,nm
0.4659440000000359,100.99199567023767,48.736277524233216,88.44542668970148,-1.1288122100604092,-1.2528712270329008,4.352417694850294,-0.4216907462968892,-0.5147893735663348,1.1939130702036627,-0.6387741975681941,nm
0.48510299999998097,103.64624129278579,56.31453109375803,95.1042592182378,-0.3225122806192744,-1.6895192402875663,4.236258614698533,-0.8945986795287277,0.4320328453775431,0.1698386457237772,-0.6592091461481379,nm
0.49448000000006687,111.24680621315575,60.73502079010699,102.17282010681436,-2.1395241113073897,-1.6317050360797984,2.754937537565194,-0.9930269616526559,0.6537520667051195,0.1951949786951113,-0.6592091461481379,nm
0.5039810000000671,120.35594024906834,64.71761563387312,108.66805740541483,-1.5674457324315298,-1.2676503333877835,1.8076834017887324,-0.9887521050868422,0.5946498901401309,-0.2308298153370091,-0.6592091461481379,nm
0.5133140000000367,123.74837527145112,68.40289039117474,108.98766176055459,-0.9097398570896829,-1.1630027971830497,-0.2552158873975771,-0.7881599349207213,0.018142066971915203,-0.5082734167504714,-0.6592091461481379,nm
0.5228270000000066,120.33929715661256,69.83566138215866,103.38217288750064,-1.730134849746026,-1.4782614416045918,-1.6707549877371872,-0.2089727904225684,-0.31171111177986416,-0.484474688815364,-0.6592091461481379,nm
0.5418450000000803,107.03349698958893,61.81063002605256,86.73950585586876,1.0372522280525167,-1.1107212917836626,-1.353799528366407,1.1174615043613867,-0.6328067635575498,-0.352462205716186,-0.6592091461481379,nm
0.5608590000000504,90.72335118148807,48.27000536011643,75.57570548451092,3.394378358524982,-0.24233678215209237,-0.913889475547543,1.0987898693495226,-1.1965706575600519,0.41629147092855556,-0.6765788524410901,nm
0.570385999999985,84.38760327032894,43.73187943358957,76.81443983371638,4.709309613541528,0.7667521153569549,-0.5679115037436824,0.6722382649298334,-1.0731214915153522,1.1610032622394653,-0.6765788524410901,nm
0.5798859999999877,77.9915255536052,42.4663521952446,80.85846652012374,4.426572062199309,1.9490508570781786,-0.35743663692972993,0.06703318894634662,-0.9676164594790623,1.6845426856336452,-0.6765788524410901,nm
0.5894080000000486,68.90322094186065,44.37906930381883,83.18266145126587,4.497135440579169,3.6507080478822567,0.3242884924069422,-0.5629788676625397,-1.256931017844789,1.7158232598261252,-0.6765788524410901,nm
0.608429000000001,43.7155275943706,52.46583412239909,79.30866652147095,2.3572495704272773,4.309284551204339,-1.1163963007738307,-1.0687851251202862,-1.4282560578389358,1.1624058682862768,-0.6913431027900995,nm
0.617917000000034,30.752758632721488,55.06034340866408,75.4093883142442,0.6852325293668172,3.3254736369574918,-0.9697073016190038,-0.8284714888063285,-1.3900338046825267,1.1187139380931863,-0.6913431027900995,nm
0.6275269999999864,19.242990685840834,55.28011257659456,72.88534356476117,-0.10706989770076536,0.9459327713687857,-2.0679211743954022,-0.39253222602157295,-1.2568682021929978,1.2228211060803238,-0.6913431027900995,nm
0.6464620000000423,13.70750751929744,55.22266130025052,81.56350955390988,-1.6321490574004704,-1.5319943260805367,-0.8634924049103022,-0.056805606633610825,-0.050697387665445966,1.345430681882819,-0.7038927155867575,nm
0.6559720000000198,14.658603575023939,54.525866174650496,90.38310947280223,-1.7283549052918907,-3.770027494691238,0.49172610930541727,0.14686315714783524,0.09825139162643366,1.5855479611308647,-0.7038927155867575,nm
0.6751709999999775,11.391932469952414,51.07576505091321,103.71896883248404,-1.8383468511878873,-2.9104860513745066,4.715341091028801,0.2946417282252605,-0.38406563822673834,1.588711637660518,-0.4786946701189181,nm
0.6846780000000763,4.256778588013047,51.97569860563666,105.70559142290641,-1.7650285850727354,-2.980311968087707,4.252934324806736,0.05556250226136627,-0.9065729590207655,1.4193982206788394,-0.4786946701189181,nm
0.6942060000000083,-5.821837556381757,53.44249424110926,103.56470519099909,-1.5408479203835808,-2.6798663035306842,2.5059410037614405,0.03241183835558463,-1.257137977056345,1.0461944485583803,-0.4786946701189181,nm
0.7037070000000085,-17.905536753289276,54.16101851344487,97.45372315466516,-2.0183199592732652,-1.3253669229413352,0.8545703572818574,0.12817358790196268,-1.429060815464459,0.5863481682838921,-0.4786946701189181,nm
0.7130290000000059,-32.40779812794665,53.532474410568774,88.6325760406156,-2.134134360313202,-0.2986230810043509,-0.5234678382360733,0.22654453439544295,-1.6995922050520273,0.42993317858821506,-0.4786946701189181,nm
0.7321340000000873,-54.59278709559589,47.21069077504462,75.40725754001743,0.4929403546169125,1.385256921216868,-3.007903944047419,0.4827038127450128,-1.2517865053548685,0.121184988761668,-0.28727633147125464,nm
0.7416430000000673,-59.21871905023136,44.35353374865911,72.24394836886675,1.8035766701287197,2.576146769645081,-3.6073295369359366,0.37395377174255867,-0.7773646853747448,-0.10048258413656815,-0.28727633147125464,nm
0.7511590000000297,-59.757473088906444,43.41923108531304,70.84868181556614,1.8423950772351085,3.213187638055328,-3.6460907551639283,0.1535496337409221,-0.1320462481628031,-0.3133233184339089,-0.28727633147125464,nm
0.760682000000088,-57.06660308582835,44.25001890146274,71.87663120191924,2.334735234758835,2.745373203665074,-3.100207622416168,-0.03484452959821801,0.4214168987219877,-0.2415264474194266,-0.28727633147125464,nm
0.7796130000000403,-42.83528380853361,47.64903964809154,78.82610451417474,0.7035431391577515,2.0879239222818864,-1.0522241103998984,-0.06247074455561414,1.1203227219527567,-0.39621506431201764,0.2,nm
0.7891240000000153,-33.94292868521895,48.61244521206545,81.88194709019885,1.2605256365292075,1.3944220568750738,-0.6985726234942862,0.009358239203807753,1.2037475810058544,-0.7150853405032456,0.2,nm
0.7988080000000082,-24.611952583812492,49.412231239150024,83.8197786275916,0.1442438181462259,1.6942292907881489,0.2812571307030901,-0.006066280539483696,1.2361296831609032,-1.0234917439744435,0.2,nm
0.8176590000000488,-15.263342014377205,51.60538367763928,86.65284245460983,1.4281624541064004,-1.4382081433765164,0.02755815687117931,-0.1866563425897052,0.42384658780751916,-0.2142504984786293,0.2896141381298257,nm
0.8273360000000594,-13.639918503059459,51.458148994315955,89.84098214488074,0.589794301790824,-1.6616173294727987,1.7789223009734567,0.03544180753716113,0.20098270737186355,0.34381193568103147,0.2896141381298257,nm
0.836859000000004,-15.44209456144219,49.592838511682544,94.7656827011469,-0.2693426843313345,-1.1940313505650801,3.8409584141951085,0.3837477787913114,-0.21451320867275533,1.223523567365578,0.2896141381298257,nm
0.8463659999999891,-19.595492461708584,47.876398669842224,101.10832284889946,-0.7156395305880975,-1.764970830264451,4.725207642935159,0.4183546802192736,-0.49668990388884104,1.8504655909299523,0.2896141381298257,nm
0.8654040000000123,-33.761462063586976,50.802390801152974,110.32601202043038,-1.8799231411530795,-3.681991709428567,2.9099026492932794,-0.12645841642595235,-1.2368953519028116,1.860386359152866,0.36578615554017757,nm
0.8749109999999973,-45.14480365440402,53.97483534032569,107.70794274024892,-1.796217634580329,-3.6454326094162046,1.569285431099279,-0.13945328408164867,-1.5223129127879678,1.1809063625323408,0.36578615554017757,nm
0.8842260000000124,-59.89973897274765,54.8094792209654,98.67993024154528,-2.2988108229714594,-3.380021464157767,-0.16238170052793804,0.23779336689113342,-1.7081160041652412,0.47960051547025734,0.36578615554017757,nm
0.8937460000000783,-75.23167282148096,51.079030594087826,88.38099824728981,-0.9727562936448569,-2.188316753440841,-2.299646528080498,0.8618560715789143,-1.7922931907238717,0.2843860498747389,0.36578615554017757,nm
0.9128430000000662,-89.71602983461761,36.400180361026216,78.75654274894119,2.0902581632836323,1.6609682804074022,-3.998786969825259,1.4014851218119115,-0.8877877817116134,-0.18064909400278253,0.4305323703389766,nm
0.922343000000069,-90.33846910874352,30.541516424470654,75.58552976655179,2.4381554912650802,3.972596755162341,-4.035628635531408,1.1214833755369227,-0.3617106659242938,-0.5673445111232318,0.4305323703389766,nm
0.9317849999999908,-88.41015633234841,29.227142256400654,72.61452677984025,2.8812965414930094,5.605560986095037,-3.692566452568243,0.3447529048421039,0.25017200027183795,-0.7875995426167605,0.4305323703389766,nm
0.9413789999999835,-84.77389980973322,33.852490533065556,71.05243915118197,2.7316995088587555,3.2410478291250526,-3.543152074495491,-0.6870492991647157,0.8789748376691736,-0.6922780575745634,0.4305323703389766,nm
0.9603430000000799,-62.54202859633545,46.52663463217269,78.4965776847608,-1.151826444882577,0.740327177217587,-2.4878274751739395,-0.5296159336665516,2.295755503645512,-0.7843203289257356,0.4855666529179558,nm
0.9698140000000421,-45.762537705136765,47.86876856167582,86.42203649492247,-2.4476221589477687,1.3304859171197427,-0.7151178828260198,0.04286724349186685,2.293965157542484,-0.8101785157193065,0.4855666529179558,nm
0.979530000000068,-31.018254277069037,45.985381177767245,91.40237616660268,-1.6817096965641076,1.6027186810966079,0.529833607077168,0.4173832701740278,2.0064351508931884,-1.120673863621551,0.4855666529179558,nm
0.9890250000000833,-18.689729654369117,43.549180051068475,92.22988733772328,-1.3239678712775418,1.0052201808464034,1.7814310065352106,0.43173504937013907,1.7678645488356906,-1.560233157977666,0.4855666529179558,nm
0.9985420000000431,-9.628691012894945,41.786972217500335,90.84605423399205,-0.0567637525862291,-0.6086586899268412,2.25376801226044,0.3163294664626612,1.3446667170434985,-1.5120397039169566,0.4855666529179558,nm
1.0080609999999979,-3.0135234896035663,40.07100777103947,89.44403175889649,1.308922319556134,-3.0715091301758712,2.6112876409289507,0.33989938868751646,1.0031911616728033,-1.176442784804624,0.4855666529179558,nm
1.0365830000000642,9.736466140257821,40.059995480208364,90.9743158045414,0.3015237978659019,-2.4130208765086105,2.9725425751376715,-0.38876984831412364,0.4755205826056389,-0.15188622531401905,0.5323457931100881,nm
1.0460890000000518,8.824000669486152,42.17356338992415,91.37341520806834,-0.09734691421119115,-0.6887276782113265,1.5894464748739117,-0.42062175666586327,-0.1467907748562406,0.1813331306730457,0.5323457931100881,nm
1.055447000000072,6.191402619657016,44.067661608647335,91.06940121396323,0.6086819584087328,-0.8299968226851764,-1.1101602033171394,-0.37018863959879533,-0.39406635848782895,0.23416693414318746,0.5323457931100881,nm
1.0649310000000014,5.699533942321135,45.17763733193998,89.73428491761315,-0.5716597700317658,1.7861179532826714,-0.2784661715259713,-0.22181612697362843,-0.07208430020870005,-0.25786653744076116,0.5323457931100881,nm
1.0744339999999966,3.431754919537328,45.61233495729026,87.00341294728449,-0.670103397589923,2.695976418154102,-1.507703143154321,-0.0952119767816554,-0.3163985542503971,-0.29085109431709494,0.5323457931100881,nm
1.0840420000000677,0.9172923728391497,45.41022913949862,83.55183153259371,0.16150310611737803,2.145321580587412,-3.0435213137638573,0.012624255061655126,-0.3547129377314262,-0.41322262524191705,0.5323457931100881,nm
1.1124849999999924,6.280656624706308,41.460763806405495,76.74892361857792,1.0578166629551924,2.385951027390342,-1.0236087886236664,0.39081519546666954,0.4618917996027456,-0.7685115911127415,0.5721080622734006,nm
1.1219919999999775,13.613305010802135,40.531800187270285,76.87953421674871,1.41921774264961,2.9113830922078776,0.47361609570787777,0.4340062289060305,1.0373280206862103,-0.9378904132676563,0.5721080622734006,nm
1.1412010000000237,31.89319768451809,41.52300424596082,82.13413867489963,1.7084689264147659,0.702971616643222,0.5147366877899161,0.07125775387426621,1.41885493046194,-0.4803325826486559,0.5721080622734006,nm
1.1790690000000268,71.66800362554089,45.510133047696634,101.51940861255196,-1.3693392546629501,-2.8352077074093724,0.3724618595774499,-0.4424677788255038,1.1919676273497128,-0.2984248144466674,0.6059059910622162,nm
1.1887460000000374,78.87297888126994,47.08294269836614,103.00617707696433,-1.1891780745266882,-2.6919594678890237,1.2649909461692108,-0.5159951450990717,0.908888878782115,-0.655359910415999,0.6059059910622162,nm
1.2077740000000858,85.85682053023304,52.035237035419456,98.11610180460073,-0.128996830666922,-2.5794233369419572,1.7135234028154758,-0.5923997157452829,0.2575966660230337,-1.0961351022409667,0.6346342305327095,nm
1.2172860000000583,87.20645673694956,54.1879676277153,94.19507462839532,0.13596991219906163,-2.7774705279735024,1.4017492863331296,-0.44629227188453,0.11598038631660855,-0.9894688985426577,0.6346342305327095,nm
1.2267970000000332,88.86782868264478,54.78174968688789,91.2377069523589,-0.22744757257158554,-2.6114427107981837,0.563451603149806,-0.127573461922361,0.18809502185919125,-0.8358074114916874,0.6346342305327095,nm
1.2363050000000158,91.85561896049147,53.458194881739196,89.8247410167281,-0.04247574232113293,-1.67130406986157,0.3184400201557978,0.26294189337893153,0.3528575316238586,-0.7298982424954601,0.6346342305327095,nm
1.255316999999991,95.36292213903752,47.070474674434614,88.23669428008586,0.1354079065637197,0.029958717592834472,-0.817956860597781,0.7264565334727789,0.16212167735588542,-0.2549885396217366,0.6590532340826287,nm
1.2646500000000742,96.21316956417691,43.427643039009055,87.29967371674006,0.6072128253260006,0.9816799416419306,-1.2122710031245085,0.7346760482285628,0.09019148730724627,-0.2704095143907745,0.6590532340826287,nm
1.2741730000000189,95.95108765590629,40.48780994651804,85.57143112868054,1.1589826885510401,1.6702807780634534,-1.1086368953998178,0.5858506916418578,-0.07624313854161836,-0.2787997693149588,0.6590532340826287,nm
1.2931820000000016,92.289838752518,37.783784405147145,80.34685134278436,2.40158630378967,2.4856079842015317,-1.5269721125257532,0.14165402592948612,-0.29828294111264725,-0.2780078114870444,0.6590532340826287,nm
1.302703000000065,90.24262915758122,37.45712421608635,78.21579243243042,2.670653808734639,2.403114267714031,-1.2242301758644245,0.0038813867632427356,-0.33101435302167526,-0.1520204196154473,0.6590532340826287,nm
1.3217170000000351,85.77887467376658,36.777803431283964,75.1457482744925,3.347174193380336,2.126435911759851,-0.4904789852415962,0.010584956217984135,-0.33404597721898904,0.061684926134060035,0.6798093871000601,nm
1.331230000000005,84.22487978592949,36.275157086861284,75.70893474427281,2.8445200339799266,2.193051628253177,-0.1533113845799783,0.03392437545599392,-0.26746528041848244,0.34414777115168504,0.6798093871000601,nm
1.340738999999985,83.74815165829841,36.2587511251547,77.97155524005848,1.6022045853876807,1.9061341766886288,0.04699496326047067,-0.014867845475023645,-0.07583276985020213,0.5628025722423309,0.6798093871000601,nm
1.3504330000000664,84.98798629342298,37.186119848270266,80.9117997928943,0.5393535856468851,1.688157932761652,0.21244235249908347,-0.14596057028294654,0.22993053505405214,0.5175294624249485,0.6798093871000601,nm
1.3599330000000691,87.98318707854015,39.439635566148326,84.01096369271093,-0.370479040795378,1.4306288910782905,0.40400468354521885,-0.3841391210341532,0.527118594434674,0.34825139687832657,0.6798093871000601,nm
1.3789520000000266,99.69771819051918,47.704221609895455,89.86073994618586,-1.9777991935975419,0.8220711975567513,0.5335956312388269,-0.8937865435133291,1.0124771142031483,-0.2970020597375333,0.6974521171648768,nm
1.40749500000004,135.42014028933377,61.3247487373898,92.86341710419204,1.4886989206715937,-2.868198047332214,2.0889383998197606,-0.8457230614122503,1.4461449980046706,-2.4465366496675713,0.6974521171648768,nm
1.4170070000000123,153.53437734863058,63.59870265688492,94.27360041457625,2.0054992218158705,-5.450467432974574,3.163596904702446,-0.5540403377640221,1.6431211587237156,-2.9026988778279827,0.6974521171648768,nm
1.4263460000000805,174.88227487187714,63.8162124362765,98.70338033615384,1.5889563347153004,-7.472395203659538,2.421408318615845,-0.25737037539011226,1.8688311863319016,-2.9566868892167477,0.6974521171648768,nm
1.4453620000000456,-154.73959519402825,53.04223095232474,105.69602780149152,-3.3890927135847857,-4.473856551358683,-1.1342420825123498,1.0636658043709653,1.476026171233058,-1.5707954240145636,0.7124484377199709,nm
1.4548730000000205,-151.0667047527864,46.23761470692956,99.9204935441368,-3.858447574875017,-0.5597135468708717,-0.9582684163902173,1.2237849347114924,0.7701778424854095,-1.7563890233807926,0.7124484377199709,nm
1.4643750000000182,-148.86769409929627,42.26741017205441,90.0884321716705,-2.203877013245641,0.6266197442270441,-1.5605008676873764,0.7648633249047587,0.3873359761937417,-2.3376483118753217,0.7124484377199709,nm
1.4738820000000032,-148.52518973451762,41.26838146280283,78.75928230905747,-0.6844734308897913,1.1039449899894096,-1.70114628707216,0.20400903605107298,0.03371206101214039,-2.4006960944464604,0.7124484377199709,nm
1.492917000000034,-150.1917215522553,41.77346557082561,58.14624413599419,0.7635326552991708,0.949274466232203,-0.8200355429591284,-0.02496161621318967,-0.03519312722126151,-1.9259249591889207,0.725195310191801,nm
1.5024250000000166,-148.1082542683053,40.76374699646432,52.88324941262734,1.3921966507950976,0.7972262045444426,-1.0222661464335632,0.34415527910647,0.14524307971114364,-1.3801699945698005,0.725195310191801,nm
1.5119310000000041,-143.84326975530362,38.21662758676862,52.35406189675355,2.8116356065869477,2.0571154590067797,-0.6821741955620253,0.805073933043017,0.21469609401961862,-0.6798519353725802,0.725195310191801,nm
1.5214399999999841,-137.24103879875148,34.31006922298902,54.679108669524624,3.0548285452140833,2.9795368649020277,-2.1457332365793182,1.2618500490738447,0.39196081959321194,-0.3302613773021991,0.725195310191801,nm
1.530958000000055,-131.02077052673502,30.491541458336947,57.32992514005737,3.442626291039501,6.167818829696141,-2.302435740121736,1.2214448227131611,0.44368013175283844,-0.13757990784707208,0.725195310191801,nm
1.54046900000003,-127.80000665567829,31.012211199433775,57.70602238843437,3.8939519257424577,4.1286398272986045,-1.9088695030206222,0.2094972996756805,0.5232259096388978,-0.25413978938698467,0.725195310191801,nm
1.559570000000008,-120.13459923788076,40.28713126496091,60.06904200928719,1.3965406306261,1.6400143934591702,-3.227843392516602,-0.5102019118266173,1.196016662865296,-0.21161806631778088,0.7360301517928565,nm
1.5880110000000514,-96.1646756815694,49.25713712476219,78.55885654645854,-1.9765011867635027,-0.47835599189968664,-1.523598664012176,0.13865303187716507,1.4693127569626923,0.07904191854687367,0.7360301517928565,nm
1.5975310000000036,-85.21535079791063,49.08321800113363,87.70226603101057,-3.428904348991181,-1.3753919749625425,0.08041610551498396,0.20679985929735661,1.4161279018405615,0.169578910331026,0.7360301517928565,nm
1.6072240000000875,-75.60715504800005,48.33569090664632,96.42661620996022,-3.7722402443900926,-3.299254934447102,2.898563441722117,0.10477024087008198,1.2721629501603633,0.29874728948285784,0.7360301517928565,nm
1.6262420000000475,-62.05314549189728,50.03192553179,110.7660101030994,-0.7085586749901268,-4.647250135302058,5.3300543865695,-0.5821248347634304,0.5575159439976982,0.273882557408629,0.7452397671537537,nm
1.6357490000000325,-59.59260759187093,53.8521453863562,110.53005280987854,-0.37047232274581937,-4.609046056777217,3.970734842140016,-0.8240695048629606,0.014370354270634211,-0.4332531466394498,0.7452397671537537,nm
1.64525900000001,-60.62358001089264,57.049172415776376,106.02066240904114,-2.4146141668490535,-4.4057705521164285,3.0323115263106235,-0.5731570756940478,-0.31163615815139006,-0.7300425052513019,0.7452397671537537,nm
1.654779000000076,-64.77434563827352,57.53894874720107,100.09827992235107,-0.913484946014833,-2.602804399417732,1.2227734107099153,0.004886113878133516,-0.45879273820627187,-0.48524687421974777,0.7452397671537537,nm
1.664111000000048,-67.8179789611769,55.5863258099625,93.03101184448585,-0.8079985325337103,-1.975682122901726,0.047305816483237347,0.4266760995715357,-0.2877196179854479,-0.9072065498059663,0.7452397671537537,nm
1.6832160000000158,-71.98968483139556,46.01272664865527,79.09872944046576,-0.2653024353079404,-0.2186018939319122,-1.9474198029678464,1.066601319227035,-0.40759181499052644,-1.1126801614858437,0.7530679402105164,nm
1.6927110000000312,-71.20049738309184,40.51705247292462,74.18469022227086,0.5450896411189273,1.0042431856838308,-2.481812602936768,1.099142325410557,-0.13654423306431152,-1.201191549630166,0.7530679402105164,nm
1.702225999999996,-68.19745300099984,36.729009688855065,69.3812264112804,0.24380125434604727,2.142096322453712,-2.721005316901333,0.8671209984194312,0.2138136281208973,-1.438789476301398,0.7530679402105164,nm
1.7211650000000418,-57.08497391335288,37.44383102806914,61.411555799136146,2.853837841203582,4.55740165058009,-3.3500853526125076,0.19286437623416303,1.2355297403141434,-1.5595832484398209,0.7597218873087646,nm
1.7401830000000018,-26.862945287513703,46.62408426033397,71.22972276671898,0.38090219225074823,3.4343136015733107,-2.359726956365642,0.20775247810362554,2.67865639762243,-0.944853248610271,0.7653777423422755,nm
1.7497040000000652,-6.003949775398971,45.341725411726735,80.1252396976528,-0.29551052720288173,5.696756167312832,0.658309352081801,0.9714106984979561,2.7403036996548678,-1.1587560383812692,0.7653777423422755,nm
1.7592150000000402,9.692200829154276,41.41863430214218,84.04821938328367,1.6199573104592146,5.226200109339439,2.004033232582234,1.092293882654717,2.1524104272294116,-1.3293612555628571,0.7653777423422755,nm
1.768899000000033,22.634468594198847,39.783345558466664,83.40515611342008,2.495123782386271,2.4642908632995066,1.8166608900236627,0.5418583191196894,1.9213120918099948,-1.79048230153143,0.7653777423422755,nm
1.7972580000000562,54.06945606966676,50.55783796773432,77.86186833372888,1.0914602937596483,-2.1324921302928246,-0.21729304886051673,-0.7578328831640436,1.4049484929443408,-1.3636424113120236,0.7701852191207599,nm
1.8067680000000337,65.37089799950297,55.01532896428136,81.34046888295417,0.18054814284501655,-2.5281747684773452,0.21705928877799507,-0.6242400839350062,1.508523105337827,-1.0286341147135267,0.7701852191207599,nm
1.8257869999999912,88.83210013006116,57.45077182535729,93.4992846998789,-1.7185623202591171,-3.1821923754720336,0.9256327021911444,-0.030184409636309383,1.2365716366316462,-0.6766843779201513,0.7742715743824716,nm
1.835484000000065,97.61250874084612,56.36898300785226,96.60330962357082,-1.4504405119255694,-3.0747372920180776,1.7199460522318886,0.13331283938241115,0.973553282922767,-0.7932724331490272,0.7742715743824716,nm
1.8449920000000475,102.86207785958852,55.35134878129681,95.78456250419539,-1.3459190022306051,-2.9542262297927318,2.0814855150768237,0.14034595118035859,0.6082277426335598,-0.9937542272885824,0.7742715743824716,nm
1.8640020000000277,109.44556598722427,54.95243704511512,90.20638743706908,0.07215186331617642,-2.319449077055206,1.415156740598371,0.0023058784095529956,0.3766552648287287,-0.9906923009595644,0.7777449763549266,nm
1.8735110000000077,112.66049794612647,54.667921139808094,88.8570955378964,0.17643315466805976,-1.9292361805006342,0.6445398944023765,0.0607806698628768,0.3704737344269121,-0.7629797824003154,0.7777449763549266,nm
1.882846000000086,115.24967645799417,53.562733661500495,87.40663163922001,-0.6068192304435778,-1.0932947452700708,-0.47091988504697896,0.23203189107513475,0.2962598780867978,-0.6787902838181317,0.7777449763549266,nm
1.9018750000000182,120.98448892591475,47.71407376498632,84.57590976711332,0.7711336022389846,0.3953072222141576,-1.295778079611596,0.7013713372694191,0.2508069311626911,-0.6357704452232703,0.7806973680315132,nm
1.9114590000000362,121.27075511351002,44.1790970594905,82.53569604901497,1.0942842150369785,0.8441935209477283,-1.8580740087481478,0.7089625972023682,-0.04029261837024618,-0.4317306882944063,0.7806973680315132,nm
1.9208869999999933,120.23653675493205,41.03952602945125,80.15130538499773,2.4014539848798124,1.3726343534462702,-2.0027930776927265,0.5993755700012909,-0.24553971602837,-0.321051200104892,0.7806973680315132,nm
1.9399120000000494,114.36691607234181,38.08443644353652,77.43175604833202,2.7058302765102273,2.1148704868493824,-1.6260202237575052,0.056331817038539726,-0.49786099344202994,0.229093688009618,0.7832069009566119,nm
1.9494250000000193,111.81229542415862,38.86835482650697,77.32759306780328,3.1831271733449453,2.072044241301305,-1.4030991288250052,-0.24139866396100057,-0.35588366686481,0.3376650157942178,0.7832069009566119,nm
1.9589399999999841,109.43765754493555,40.70687352063389,77.78450461310617,3.1373824417557894,2.049531299330022,-1.165754643853127,-0.43923096755472796,-0.27638048011209715,0.4462099939327148,0.7832069009566119,nm
1.9684530000000677,107.0804615439541,42.73035549068985,78.76222749485308,2.533308962680312,1.971296734072586,-0.788849603489705,-0.4695070767505356,-0.2614452129563946,0.5644444376563444,0.7832069009566119,nm
1.9779570000000604,105.29225277348799,44.38059486587255,80.09481869012788,1.3501043099085537,1.7428503849843113,-0.3489017201178783,-0.37352004627863816,-0.19357375035253965,0.5711566624442893,0.7832069009566119,nm
1.9876460000000407,104.90943151001608,45.44005574133522,81.61541904187558,0.4831435771852601,1.481538980528176,0.1816250152459948,-0.21865547531902108,-0.019415024613233866,0.42351228557399595,0.7832069009566119,nm
1.997158000000013,106.31766474468674,46.07458012447922,83.4506857071861,-0.4508456512930201,1.186005918207509,0.7961253719745985,-0.10020586736583732,0.21159504938730037,0.23863501722300895,0.7832069009566119,nm
2.0066750000000866,109.74415942268979,46.70338435634631,85.34146373360893,-1.2053562601862677,0.799727213554719,1.4772263115337283,-0.07792855808252536,0.4830570909969985,-0.041805265382502815,0.7832069009566119,nm
2.0256840000000693,123.3815606412558,49.85973960452622,87.11097296979592,-0.5024669681099654,-0.16803218894425528,2.489764394601891,-0.34401396965094433,1.094796102124182,-1.0511289616634685,0.7853400039429458,nm
2.0352040000000216,134.5938760336202,52.76349479122151,87.89396640002242,0.8884463604871786,-1.2773967730800995,2.279645969575607,-0.5138381566369385,1.4278084560589803,-1.5147040944603523,0.7853400039429458,nm
2.044721999999979,148.93254525432033,56.033008781014274,89.84059946072742,1.3104226605139355,-2.4589403937932355,1.36646236320433,-0.6138338377081057,1.6832459069440338,-1.871556542386652,0.7853400039429458,nm
2.0540419999999813,166.81105570693052,58.32656675854104,93.246702559467,1.199503177472958,-4.4297937623597425,0.5714557727343,-0.5040697587856262,1.9232698968857467,-2.2769750879213975,0.7853400039429458,nm
2.0635600000000522,-174.45751884561543,58.28260527557507,96.42086921657707,0.25505030602503936,-5.819339244225547,0.43488379994686194,-0.15639691237019207,1.9588290880587271,-2.546986776581928,0.7853400039429458,nm
2.08256700000004,-152.87740794895478,51.424651842607034,92.83305343984905,-2.7236373886090255,-3.7101574178704015,-0.6765976627752046,0.7790481514669902,0.923530670534753,-1.9673486840967491,0.7871531414813296,nm
2.0920879999999897,-150.94441881010215,47.470223783691566,85.33136831335047,-2.381093590533921,-0.10492838310518396,-0.08634875276841361,0.7965677003087794,0.2424591782826552,-1.863068271920237,0.7871531414813296,nm
2.1016180000000304,-148.81242401951334,45.34728772138251,75.90941234436227,-0.9988189850659019,0.5152408791561416,-0.9138667887691081,0.4673723847029232,0.22448305569750793,-2.287925856358857,0.7871531414813296,nm
2.111197000000061,-146.9055134849356,44.86811820556118,66.57198068278707,-0.08915529565054171,0.4878321859944108,-1.8368828762320695,0.17667879651319118,0.22666650539198696,-2.2439378750705297,0.7871531414813296,nm
2.120614000000046,-146.4223988611865,44.58593626609622,58.428875693109795,0.9815458011428088,1.8182088049963363,-1.5378292597933738,0.0818605490802157,0.0364817609319005,-1.805461391193684,0.7871531414813296,nm
2.1301320000000032,-144.22985039517192,43.40908934207308,52.13180266436469,1.9476503264759575,1.6490418816971313,-1.3587590454332532,0.37356234793448084,0.12754429799613953,-1.6546503314053802,0.7871531414813296,nm
2.149150000000077,-132.67617140534668,40.36137582650578,51.349337706452516,3.0572418139358795,2.662255048242461,-2.136318254972482,0.9000016485976807,0.592497867938353,-0.6366816529959519,0.7886943083889559,nm
2.177673000000027,-113.29667089443878,35.56502464111698,58.917901574033145,2.4746024856268996,1.7320533239222997,-1.092734548286315,0.6769652423028186,0.6773006454353979,-0.2282701915689587,0.7886943083889559,nm
2.1871909999999843,-105.63084063817946,35.61386600454257,60.90551037905352,1.1441025608610704,1.1942796283836623,-1.4508503297036517,0.615631141367149,1.0849646088847678,-0.526784293379191,0.7886943083889559,nm
2.19671900000003,-97.45948040400404,36.96310033278746,62.83603294697248,-0.05344812520499351,0.7504835645333656,-1.4203849020021857,0.38153288932632007,1.2902253546667424,-0.6192934161233983,0.7886943083889559,nm
2.206388000000061,-89.49751036909511,39.57910612462857,65.32319856199724,-0.017136480303201883,0.2665692556541835,-0.6615232854240145,0.07416862485930119,1.3539794986404805,-0.5280746245007327,0.7886943083889559,nm
2.2254159999999956,-68.2038851167249,46.1512246642009,75.62759339461621,-2.249184487284199,-1.235773790796047,1.0666434061608272,-0.09349451750400568,1.7766960775028466,-0.40100005189587085,0.7900043002604382,nm
2.2444370000000617,-48.72029781782745,47.66632126446675,89.19995693030229,-2.2001361008054796,-3.362396764313267,3.737451198841155,0.07787859985292757,1.1158639623677582,-0.08933363140867363,0.7900043002604382,nm
2.2539450000000443,-45.485092342363394,47.259208755979344,91.42565407447951,-0.9474470789672985,-4.0557248501746015,3.4409669478827674,0.07815002097705792,0.43856496484888363,-0.09642469716622064,0.7900043002604382,nm
2.2634570000000167,-45.445730870140814,47.52512825546315,90.54737408154057,-0.268448922841516,-3.492363516698859,2.828351424779743,-0.05354681496675214,0.00439162094275013,-0.2762172416686351,0.7900043002604382,nm
2.272968999999989,-46.24553159296603,48.72344011389173,87.31780361482946,-1.282719203910977,-2.4667519093832433,2.2501803161099234,-0.24208110390025925,-0.10308059836207814,-0.6383706560199987,0.7900043002604382,nm
2.2919840000000704,-50.16869478213308,50.2325496148516,77.55118756477785,-1.132462338942073,-0.8522472595241208,-0.18188195311257985,-0.1234956144775839,-0.2827264541378267,-0.8549322023760344,0.7911177933511981,nm
2.30131700000004,-51.83068016529527,49.45361397225312,71.78253443146573,-0.7187848591453986,-0.22609939156678144,-1.3056499277099007,0.09503411492359763,-0.2467610764132532,-1.0382615235093897,0.7911177933511981,nm
2.310897000000068,-51.81874411721194,47.50537872421238,66.43301061144562,-0.47762963987210744,0.8748866858518092,-2.2262314214696275,0.3662675119835127,-0.13474031684015983,-1.2056987910038526,0.7911177933511981,nm
2.320416000000023,-49.91647655705741,45.01373854283062,61.6689629001522,0.3293713612536315,2.095437235030542,-2.8405418373897104,0.5645199954497753,0.022235717720712533,-1.3503724789873317,0.7911177933511981,nm
2.3393670000000384,-37.31610595587042,43.31425561574397,57.00720683242875,1.473429976808491,3.6593586701604166,-3.0213148819193543,0.5876563917620453,0.959899073708884,-1.3401963311215919,0.7920642624783442,nm
2.348883999999998,-26.96368026489094,43.60383532788357,58.49278295840019,1.603812977789631,4.00858391417424,-2.078307479977601,0.7526055597443454,1.304779348657168,-1.1593141574670116,0.7920642624783442,nm
2.3583909999999833,-13.700047115857469,42.771169978108276,61.69145029813822,1.560573566615297,4.457451855818694,-0.9112253245423612,1.109938735446831,1.595260482236919,-1.173366777799151,0.7920642624783442,nm
2.367902000000072,0.2112366610121843,41.30384665426323,64.69375494353856,1.8885766445750312,4.38392703800834,0.8193384977385954,1.196924635707835,1.7125781921459644,-1.2291668783182381,0.7920642624783442,nm
2.3775850000000673,13.247269134273973,40.23804222119288,66.4801461610598,2.51268919573074,2.8059089211962203,1.3848036752928923,1.014647161749549,1.7104431378518934,-1.2979324121896334,0.7928687612364183,nm
2.3966050000000223,37.594367017583274,41.23525658471942,68.16163167460994,2.599597810230359,0.24811019180754895,1.3660000243030748,0.4633900279205263,1.7410949554189585,-1.3297534883781326,0.7928687612364183,nm
2.4061159999999973,48.52774353320316,43.94255408771681,69.91723804588374,2.0405277433106233,-0.7672184411694968,0.6548610218243338,0.07617610800554483,1.6987254849215168,-1.067143925227611,0.7928687612364183,nm
2.4156430000000455,59.31725415290596,47.5411043837664,73.24202243360484,0.852506959305969,-1.4481634474557044,0.0585628445572956,-0.2004313272688189,1.6581532799402992,-0.8041648236745055,0.7928687612364183,nm
2.4344750000000204,79.59413922028567,53.827919126757976,81.94798191905814,-1.3439629737289396,-1.6853327405424505,-0.26247555796045735,-0.33718104419502815,1.269221806671691,-0.576832052687838,0.7935525851807812,nm
2.443964000000051,88.38427093196029,55.83729375927884,85.20520660991704,-2.2724792136004264,-1.8651736577843794,0.3883478116238631,-0.28339084514089685,1.0523014977742549,-0.7133134390410193,0.7935525851807812,nm
2.4536770000000843,95.41011555750141,57.397873754709245,85.29805280790157,-2.419526531371422,-2.216667014885703,1.4547966843191158,-0.2458888610739694,0.7976905758385439,-1.1060140127929445,0.7935525851807812,nm
2.4726950000000443,103.87427862763806,60.73364242408043,76.34241488864123,0.49830354273369987,-3.7895768968836068,3.109505230555448,-0.2621487930740084,0.4091618940003251,-1.5789124653350617,0.7941338355334897,nm
2.482210000000009,108.11032718165067,61.613747977147554,73.37939278672937,-0.7256643632114835,-3.5449929567858267,2.563000659681923,-0.06269208242086535,0.44151355008679316,-1.3090993241398154,0.7941338355334897,nm
2.4916950000000497,114.89563222793066,60.78491162503487,73.47763677461826,-0.6064071211507484,-2.609802372853009,1.260734986001218,0.3467020450495366,0.5789653250790803,-1.1351514651255783,0.7941338355334897,nm
2.5010480000000825,121.27524581165635,58.19820631274566,74.36097705954596,0.2423852939230602,-1.7963368246802096,0.030640560945521002,0.6782735280840041,0.47783189151880123,-0.8914823314200458,0.7941338355334897,nm
2.5201470000000654,125.4667385698462,48.865498676189894,70.36510657850455,-0.2968087903024119,0.8868377571935463,-1.7221142989285148,1.0801082099703063,-0.1424318872774683,-0.8181961557462871,0.794627898333292,nm
2.52958000000001,126.90470746351896,42.886640394150156,66.58676100619259,1.5458771314321391,1.0193789831936286,-2.0573900651874144,1.1894350611272746,-0.2531468083801665,-0.9624655759358592,0.794627898333292,nm
2.539085,126.8723152365438,36.93832494023172,63.268689739022534,2.0030096607883077,1.3571809510120667,-2.126954478328099,1.0784224670680407,-0.5096805094112531,-0.6595070893062103,0.794627898333292,nm
2.558099000000084,126.0589933254107,28.737507179773367,60.18538513016035,3.0526681474792716,2.0710043605729633,-1.8793921260628934,0.5212884953852116,-0.3559183892940333,-0.12015390952972932,0.7950478517131239,nm
2.567613000000051,125.73105924395931,28.156963496743014,60.59906092446208,3.5920861183225807,2.1329108187977357,-1.8273392809602955,0.07233543743060572,-0.10779802461235403,0.16022993819199952,0.7950478517131239,nm
2.5771290000000135,125.15979625633437,29.803013908276245,62.13099067141573,3.46078540839381,2.0493062861198017,-1.408159966892071,-0.3374691726626406,0.07134559829321659,0.43595939078551194,0.7950478517131239,nm
2.586635000000001,124.33858091494913,32.94284590300615,64.42046716312548,2.92529579410197,1.8933874207883579,-1.2775254201436963,-0.6248943092857286,0.16008459055770108,0.6374976253251707,0.7950478517131239,nm
2.6056500000000824,123.61576050170825,39.74621027500269,69.36794669354933,2.034478628406579,1.8635928038918448,-1.0476468966891528,-0.6066207209299235,0.22061740913701075,0.6146922515320704,0.795404812085981,nm
2.615183000000002,124.41947346162823,42.330906614730495,71.95588907572656,0.7587270287255005,2.0365780892088154,-0.4354184708936473,-0.4479636107929999,0.28765346451717383,0.5060276726891016,0.795404812085981,nm
2.6248709999999846,127.15603059871547,44.65432764008104,74.24342160545099,0.11934202368778005,1.743264374342423,0.27270951464973264,-0.32832624924179377,0.516593197271481,0.1741263686318664,0.795404812085981,nm
2.643888000000061,139.5461564046872,51.32443043104358,77.17559318179929,0.441852585886732,0.601925602527453,1.2831894824145889,-0.5259283097397116,1.129574731539667,-0.772142576170468,0.7957082284029096,nm
2.6534010000000308,151.01008081652262,56.538488493012615,78.96432737558892,1.16751184280469,-1.2908245203333115,1.0034048528189008,-0.7335898034249574,1.5393461712336753,-1.392648526890884,0.7957082284029096,nm
2.6627180000000408,168.5963328030066,62.38262570471818,82.91599436697034,1.2474166916897456,-4.402347756877678,1.1280821435556971,-0.8588835396682636,1.948978763762634,-2.1476418378223365,0.7957082284029096,nm
2.6722409999999854,-165.77535809538,66.49863801142838,91.82619971317963,-0.030844498581891235,-7.903195722332782,2.133106011368732,-0.7013827988461253,2.2363276244260395,-2.778089654360747,0.7957082284029096,nm
2.691248000000087,-117.16134541193131,59.63914914816846,105.51028575525294,-4.846627014410619,-7.65039883942399,1.6066261221610838,0.728145429832575,2.068839437988204,-3.021104369438427,0.7959661322722988,nm
2.7007620000000543,-109.98785470242706,51.652333780296686,99.72877065717854,-6.163525443368382,-2.847383057158466,0.3889132544255875,1.3822045069799749,1.147264081406023,-2.4099274274250986,0.7959661322722988,nm
2.710279000000014,-109.32966805700939,45.72303492582471,89.65691983239883,-4.0038466621958335,1.6168026069498516,0.7555619213878771,1.1775733630026493,0.1905595099543076,-2.208546793288246,0.7959661322722988,nm
2.719785999999999,-108.29395387234759,44.03470094613945,78.672760703716,-2.0335575642554096,1.804355174917463,-0.0914976182569338,0.3506326192852647,0.11545256876757314,-2.4623429922673847,0.7959661322722988,nm
2.72930000000008,-107.60065482344483,46.14609751073902,69.06254740982229,-0.8235102254903977,1.3524857229878855,-0.983686136442103,-0.38179116599185414,0.21170417324812715,-2.1482407795697256,0.7959661322722988,nm
2.748332000000005,-106.34855740251413,53.159757370060525,54.70059956242059,0.6189592271277998,0.5878233417863502,-1.1714472551582706,-0.4295317428988562,0.5028299149656554,-1.6409634276408749,0.7961853505612797,nm
2.7673350000000028,-99.23019974433251,50.606870910278936,49.813151854986884,3.208926543435395,2.942882012762713,-2.340218295955108,0.7217912379634351,-0.00048440675465363076,-0.8735693220139226,0.7961853505612797,nm
2.776849000000084,-95.18574783803953,47.30094577530333,49.825377580081756,3.194742648535325,4.071075289633724,-2.5941265736475025,0.8494097508483603,-0.01860625791955493,-0.6787666631769378,0.7961853505612797,nm
2.795880000000011,-87.64740721365357,41.89836603223755,49.92539129644881,2.4213163961048094,0.4222524865688475,-2.028496650885581,0.8813692536577657,0.14096428014325643,-0.6309087568246,0.7963716861069134,nm
2.8054560000000492,-80.24321932545408,37.590061355410164,51.157041227882424,1.7448657487503731,1.936934252454983,-3.036136079239993,1.3894374690608586,0.3357088164386312,-0.7613714016890842,0.7963716861069134,nm
2.814903000000072,-73.23883568828778,33.82039879154207,51.825862257593236,1.9701817311021912,3.8701717461357066,-2.548467021349063,1.2986317844554223,0.42483877963344224,-0.7431246041807023,0.7963716861069134,nm
2.833912000000055,-56.58049593326638,36.65479263115955,53.0570739367814,1.2426186660270817,2.150086988909805,-1.8215438733786042,0.397443871678947,1.6268134746614724,-0.8474921961842917,0.7965300713207021,nm
2.843430000000012,-44.407193377734465,42.41900373230016,58.76993033831536,-0.0728439517728355,1.6700610390322144,-1.1795687401736341,0.10593306005130769,2.2006256965947673,-0.3634214016041303,0.7965300713207021,nm
2.8531229999999823,-28.9930999406944,47.96579137914667,70.37050841322369,-1.1457222024340081,-0.004644212390091466,0.3458505818516878,-0.05122828540653181,2.4357544091310643,0.23397304799885987,0.7965300713207021,nm
2.86262099999999,-11.740924558971182,50.27955083086513,85.88105871516146,-1.6888877223593295,-1.991356440096565,2.342371136950473,0.029381024812649287,2.3017208049144773,0.6240532381618679,0.7965300713207021,nm
2.872137000000066,1.601625399395972,49.04777717045635,98.87727537869276,-1.5876565366378925,-3.7041042835465054,4.398610751615183,0.18297009043155663,1.7345646452046906,0.6807564202446836,0.7965300713207021,nm
2.881650000000036,7.063604656845692,47.828114112000016,105.10269086977306,-1.7156379753679385,-4.223458867513146,5.8668591692109455,0.09091234742015346,0.7597931785035531,0.5064073665917315,0.7965300713207021,nm
2.891157000000021,5.252735731994966,48.74086513884438,105.53918591522478,-1.1575132695088854,-4.539509900246897,4.72515128879203,-0.11245611170301055,-0.2814139360898805,0.3403023365817099,0.7965300713207021,nm
2.9101830000000746,-3.562364147094013,51.938112376525446,97.85665192596176,-0.876463640223774,-3.268702584678338,1.5118036371673973,-0.1840829622950266,-0.5440484740369589,-0.428361316864351,0.7966646987524224,nm
2.9196769999999788,-7.538531549240068,52.17328234181404,91.6688056646079,-2.7939432316718436,-0.8731797769877113,1.2540258819936991,-0.003578890632735519,-0.4911650473992904,-0.7454491516372224,0.7966646987524224,nm
2.929025000000024,-15.032066666833067,51.54975713507358,84.13958664267753,-1.420569994051968,-1.1473546040346594,-0.9749176454141284,0.09634330673597924,-0.9291691019496381,-0.4661638022346446,0.7966646987524224,nm
2.93859400000008,-20.333023061984697,50.27685487481212,77.02192436299063,-0.3628940905690067,-0.944020822152748,-2.2162551696320576,0.14617505493343527,-0.7003775424203877,-0.7393513864224194,0.7966646987524224,nm
2.9481230000000096,-20.996890054993433,48.8075618317388,71.34006806145719,-1.2012861954128073,0.8419700070653782,-1.8998926265994087,0.2609772338357354,-0.16099686981032005,-1.1652172951079047,0.7966646987524224,nm
2.9670620000000554,-16.178561441871217,46.92876453497696,64.06547897918554,0.4832015118694338,2.297749628938095,-2.1671097052340333,0.3184655425329455,0.42768866864930527,-1.2291924507471716,0.7967791320693848,nm
2.976566000000048,-8.37807973904277,46.94522745609552,62.44994727805383,0.9992108994169021,3.5946887915585792,-1.8660722595349475,0.47592709975408415,0.9560581938040221,-1.5054456027820506,0.7967791320693848,nm
2.9860889999999927,2.198166475894118,46.61709692031635,62.49180152895407,2.071938110426941,4.554243826147539,-1.4388024678130789,0.7284172970166666,1.2571368464218475,-1.5473967469732073,0.7967791320693848,nm
2.9956030000000737,14.067615153953042,45.32953822074077,63.82145256466627,3.3153344096045756,4.752090082619153,-1.1143012452098426,0.9768606661937331,1.3574424239404979,-1.4230163416272452,0.7967791320693848,nm
3.0146210000000337,38.45757800330501,41.93008165836535,66.90494756872427,3.937782919969655,2.5023369883014577,0.28824455738866106,1.025778256814279,1.485839951690775,-1.3269277491319416,0.7968764003888027,nm
3.0241230000000314,49.47375122892864,40.84333336528163,67.34360063055928,3.468546642001241,1.0396891854778971,0.3306081253639893,0.8470187103257756,1.4389447005607974,-1.3165192442708653,0.7968764003888027,nm
3.033636999999999,59.60084723241949,41.19426295156763,67.79729154110417,2.8351762032595853,-0.10407748341811641,0.4148854177634351,0.5229044508422626,1.4399247165597961,-1.178016700185779,0.7968764003888027,nm
3.05284800000004,79.18981913514573,46.98713627586577,73.05030975399087,1.036604763204213,-1.1363974299653286,-0.0012877100439001614,-0.22486185531033698,1.5616569739415136,-0.5923755129399199,0.796959078460308,nm
3.0623600000000124,89.69693498933368,51.119869045940675,78.26393127324151,0.6036824336215885,-0.9833259252784019,-0.28063500105155315,-0.45080524836870733,1.5416451685908796,-0.4163458692931299,0.796959078460308,nm
3.0718760000000884,101.15519649906136,54.930866581428674,85.22523579677231,-0.26542200966882223,-0.69879704357473,-0.5552040652600602,-0.5474023831066007,1.475745473933261,-0.301210896610677,0.796959078460308,nm
3.0811990000000833,113.8503090342866,57.717764493804204,93.38565621262521,-1.4182244102700123,-0.5092884210022607,-0.268264684012286,-0.5322109379996027,1.4150688946485428,-0.35509079198874854,0.796959078460308,nm
3.0908880000000636,126.72165987178553,59.5879868441982,100.41566278683949,-2.0225802675931837,-0.5439011166230978,0.6643304230608219,-0.5257698397499981,1.2843741224377438,-0.6831831669017691,0.796959078460308,nm
3.100389000000064,138.64229387051233,61.617696450618844,103.96332902243608,-1.3832429922946443,-0.8945169304737032,1.3589577234484331,-0.6397849572498614,1.0590328362055252,-1.2834582521738587,0.796959078460308,nm
3.109915000000001,150.03499235416155,64.14722517240942,104.61106234096366,0.19598119438008726,-2.211041864093909,1.8511614637574019,-0.7446646481351473,0.8831415414862992,-1.839970595888602,0.796959078460308,nm
3.1289199999999937,173.0757292444495,66.1415381885814,106.18203176524257,0.03939061643724633,-4.05625451852106,2.489916520498411,-0.27494975819783607,0.8670842020396744,-1.834878483985792,0.7970293548210875,nm
3.1572760000000244,-176.13611590172988,57.98690068517288,95.23173433980294,-2.0020377582087905,0.3689561427657684,-0.5704857046204149,0.7075365966884344,-0.12386494577670407,-1.0911597572303053,0.7970293548210875,nm
3.1668070000000625,-178.96161461172738,54.869096808929974,84.32766484383895,-0.5307751582712282,0.6870100110937626,-0.9715381595334391,0.6254687512980796,-0.3120269904617235,-1.75076756010973,0.7605849389827232,nm
3.185807000000068,172.8082972641301,49.54118712558459,62.33315898495091,0.6785963989666661,1.0621691337679235,-1.0930855564817963,0.2721530894921735,-0.7654550332548896,-1.33715754772267,0.7605849389827232,nm
3.1953210000000354,170.68042487000878,46.48544884101974,55.23046060706075,0.9359623438788404,0.9462585733186967,-0.9153020777872987,0.37796779069863407,-0.55996673485348,-1.1379895743868214,0.7605849389827232,nm
3.204825000000028,171.2605322018361,43.59766736061558,51.963280694350814,1.3908052424247097,0.12195152754884281,-1.1851427853509768,0.5156205873697756,-0.2762614735390413,-0.7837844556300954,0.7605849389827232,nm
3.2143389999999954,172.27255381662866,41.43328506278367,52.01728671511755,1.748783980063946,1.0219836389892754,-1.1650951428516716,0.43379759612469115,-0.1493852105707413,-0.13676017944250382,0.7605849389827232,nm
3.2238490000000866,173.82069738715347,39.84377683942845,54.18005008676731,2.218328031866879,1.400081668520814,-1.8321793096314871,0.3956995066830789,-0.004027536618529168,0.25946450790464515,0.7605849389827232,nm
3.2428750000000264,174.99966357091122,38.26837146195488,60.76990072095331,2.9659987742757687,2.394731163468905,-2.0861392496797286,0.07162940652607126,-0.0178693927559879,0.7174611734729435,0.7296071855201135,nm
3.252371000000039,174.78123847511105,39.48442801191269,63.738482579376246,2.9709084386572084,2.317142399147909,-1.9285543279259594,-0.23151902083291445,0.08378794761761008,0.6924536937316883,0.7296071855201135,nm
3.261895999999979,175.08371875836502,42.15945035175301,66.49027405752803,2.5975756643031516,1.866279881451647,-1.6440463008557886,-0.46644225444994225,0.2684924769548585,0.59045437489076,0.7296071855201135,nm
3.271404000000075,177.33704183335385,45.483972469841866,69.62399094044414,2.043274618255596,1.4836328907571423,-1.4196528161224395,-0.49485272996238694,0.5520069227936544,0.3937586854311719,0.7296071855201135,nm
3.280921000000035,-177.57053660055672,48.83388871656583,73.43864019735756,1.9035771682041767,0.15406188174260077,-1.041114599890092,-0.41453595562397544,0.8702870340723972,0.08877212707141206,0.7296071855201135,nm
3.2904290000000174,-170.0950174068655,52.64643778269612,78.54001150521437,1.5041138711433721,-0.5660278978024268,-0.841440578282455,-0.5079188354427212,1.1034413111762087,-0.06246704834373977,0.7296071855201135,nm
3.3189630000000534,-117.67060658531639,59.87675490262295,108.62115514486328,-2.027165251102559,-5.6275448702410005,1.5180604748135684,-0.5758184068984996,2.1497064875147536,-1.4512609229737918,0.7032760950768953,nm
3.3286560000000236,-96.2846592033046,57.84795377006714,117.18076124618162,-2.9667028172072643,-6.2190460241327425,3.247886240687526,-0.48768068180877233,2.187306987531743,-1.9582779620686976,0.7032760950768953,nm
3.347666000000004,-73.09639658075307,51.39916789745956,112.6781774262799,-3.746468635873054,-3.3541529901601956,3.803144474700086,0.1450766057681386,1.1406500346256558,-2.5059555099942474,0.6808946682001598,nm
3.3571850000000723,-71.74381576303095,49.36661935249706,103.01029526695595,-3.949848243100322,-0.8423837136277045,2.950428992156569,0.3327234835085666,0.2925072313590068,-2.2457819429081076,0.6808946682001598,nm
3.3762179999999944,-73.32597032050381,51.617674821999984,84.08896025476943,-0.8520588622322468,1.0847555660254748,0.44283487061484306,-0.4537084889656781,0.018991760468152083,-1.8860282599621756,0.6618704553549346,nm
3.3855210000000397,-73.06433940940957,54.93998567658084,76.95439383670362,-0.8705967589053595,0.9624148405215888,-0.557802514703748,-0.6538932203249677,0.1393619834214869,-1.5754053804838313,0.6618704553549346,nm
3.3950530000000754,-72.9193995335134,57.84343096377424,71.66460575914601,0.7454036965840024,0.7995710720990677,-1.1473399381124736,-0.5580542105961241,0.17132599772379978,-1.21375738070587,0.6618704553549346,nm
3.4046369999999797,-70.76256461291216,59.27280457238281,67.20634099845105,0.6413497502681751,0.5465784678022185,-1.8756193953287232,-0.1911386450612719,0.31225771948797737,-1.3727458642711003,0.6618704553549346,nm
3.4141440000000784,-67.93693960243591,58.442639740707605,62.850374052153256,0.6617486036089143,0.875446666598519,-2.6558656422590587,0.2738799566141425,0.1974945637650369,-1.4551436454398006,0.6618704553549346,nm
3.4331580000000486,-58.59513798065526,51.53424970916343,56.66211539656661,1.1868903326684594,2.806074582909955,-3.6303516224551196,1.0212560588366952,0.15315244925483215,-1.481770079111378,0.6398228156185715,nm
3.4426890000000867,-52.377369461452936,47.975777888012786,54.92818658006361,2.73993106146252,2.679749576776051,-3.320955966766743,1.0413134655312717,0.2694609658734275,-1.3882303231979372,0.6398228156185715,nm
3.452103000000079,-43.348098771613834,45.875169945799534,54.379103283966465,1.350757911415011,4.117356355017106,-1.866454810107434,1.0554056407422445,0.7680957688061538,-1.5013598563378616,0.6398228156185715,nm
3.471131000000014,-18.895181287909757,46.15134448337676,57.505021707362324,1.8382533750944778,2.7445048802820384,-0.3483378556604245,0.967300797835801,1.7178161756312342,-1.4852062190626343,0.6210823218426628,nm
3.4808160000000044,-2.710030303656421,47.13978317734923,62.74418728646235,1.7995258269125969,2.3984263214990755,1.1601172244615094,0.9416918140988054,2.0234522075873764,-1.2587591618563976,0.6210823218426628,nm
3.490333000000078,13.294940579939166,47.33699922440677,69.8285227349949,1.7207685026225283,0.4531714616754757,0.88653127491981,0.8442253238750425,2.0031076510835355,-0.8686318512750372,0.6210823218426628,nm
3.5093560000000252,41.929789908258485,45.02293212889625,82.4887815072959,0.9434958584499654,-1.3063487365206317,1.720327864617005,0.6140655402028372,1.7418850953741234,-0.7172669825802505,0.4317918877506126,nm
3.5188650000000052,51.34128591245719,44.414482041146236,85.93520914509078,0.28647515019560504,-2.060179102429999,1.2378733944549032,0.25940509351401675,1.3189284717045011,-0.5720706211460248,0.4317918877506126,nm
3.5283739999999852,58.27505645980599,45.330151388380614,88.23169608678774,-0.5337063745594822,-2.3363674263269423,0.808203364872298,-0.1307080206313718,0.9922090076404055,-0.46052030590922904,0.4317918877506126,nm
3.5473910000000615,65.18674128854148,49.520858326180125,89.78513155626463,-1.117707904069501,-2.157981125576584,0.8616460078907153,-0.4316889645168437,0.25558885589887365,-0.24303563685187898,0.27089501877237,nm
3.556905000000029,64.31745248792126,50.73936578193645,88.1066813770563,-1.0596736959853503,-2.1028576096861076,0.6929109077567714,-0.24625407409698988,-0.10666509507223157,-0.18412219392625886,0.27089501877237,nm
3.566416000000004,63.124843729826026,50.55864846107023,86.06524425509858,-0.45922272952872617,-1.576693384863629,1.023160383129726,0.028648283762676367,-0.15283707200792077,-0.21024453976082663,0.27089501877237,nm
3.585439000000065,61.28605663204018,47.80779208479996,82.67352340061257,-0.6819958553243699,-0.5577200549106497,1.0089262554919214,0.28996860122906204,-0.17942298445798843,-0.19289480582240778,-0.2,nm
3.59495000000004,60.035713837603566,46.73492323164656,80.62882498513993,-0.6936729416119254,-0.2076141848224557,0.44465236784144907,0.18842020767799098,-0.19913162655281802,-0.22538797378146794,-0.2,nm
3.604473999999982,59.17660634154057,46.470633192919735,78.10453519390127,-0.15302997074890165,0.3999957632404769,0.08158857806216088,0.03060858461896199,-0.12570368009155067,-0.3804316787672187,-0.2,nm
3.6138090000000602,57.91012445358528,46.81457959243905,74.51383215412694,0.498289759691193,0.8735209018922753,-0.4557800768171804,-0.1077165674680186,-0.15253975922668503,-0.5346169052052927,-0.2,nm
3.6232969999999796,56.034636230403834,47.212894861019684,69.74619713388373,1.1282862930936144,1.1528620972292847,-1.348623834400787,-0.15391338283116776,-0.21886603697542967,-0.6799765995866367,-0.2,nm
3.632805000000076,54.57055204970757,47.209106427436744,64.7842522260198,2.0521414281878925,1.4198950405650663,-1.8134340843503851,-0.07553705188886732,-0.18366711955022116,-0.7785648667737801,-0.2,nm
3.6518389999999954,53.677227411063626,44.47671073719171,57.68595714064637,2.900235655029142,1.0617168654385063,-2.2969945294014735,0.3345849197374139,-0.20116930102642633,-0.5875343764819881,-0.26612808581565073,nm
3.6613419999999905,54.468674111726685,41.2499102188114,55.685630932769875,3.5672533358730183,1.0260951799865243,-1.6098111823671353,0.6045535632816045,-0.2584564407747805,-0.4943434560323029,-0.26612808581565073,nm
3.6708399999999983,55.04463032642314,37.50854056537297,54.784150517453504,3.4668050159219965,0.5624071301843916,-1.2201626842401718,0.6667384243763368,-0.35485337761149577,-0.2352086042701187,-0.26612808581565073,nm
3.680370000000039,55.666979034130804,34.21080321677814,54.96925137332742,3.073624614284231,0.18404960513109403,-0.7873696541688121,0.5984253170773719,-0.29808590373312344,-0.01751058767588856,-0.26612808581565073,nm
3.6898780000000215,56.26043863711107,32.25627755279029,55.91824170594189,2.719965965425501,-0.06655111116791798,-0.17515414110960906,0.37867694223158727,-0.14072590959985665,0.1513041923791011,-0.26612808581565073,nm
3.7184050000000752,56.24583847416895,37.75040273310817,60.706577577867336,1.3177835333474799,0.1837121829642112,-0.4277081255715466,-0.6102255558611351,0.37151423314715076,0.42565060345652866,-0.32233695875895385,nm
3.7279130000000578,56.24351931107245,42.16744099441006,63.12129883381504,0.6543807725873209,0.2645725044548255,-0.8125402600807128,-0.7805118644726714,0.4186955814596398,0.5512531366899992,-0.32233695875895385,nm
3.7374300000000176,56.32832107939289,46.35620030622728,66.02920754261592,-0.3768846949325749,0.07777463258657455,-1.1433075773803134,-0.7527210575997014,0.37340557833188553,0.634510375779909,-0.32233695875895385,nm
3.7661450000000514,53.67603969576691,50.66692117428442,72.85354861254113,-2.3655148589274013,-1.9253212142691871,1.4187336900521124,-0.0463254102619996,-0.26110875519564136,0.6061577975754222,-0.32233695875895385,nm
3.775655000000029,49.65136851868763,49.35515742591151,73.21275939849204,-2.768454016935922,-2.9896340599380284,2.6092546130642855,0.10002346444867606,-0.5724531941142006,0.698108761186183,-0.32233695875895385,nm
3.794670999999994,42.511572374289806,47.93495031904622,75.52078875788379,-1.507032688195606,-2.137677178574812,3.8288963048617886,-0.10205347493874577,-0.40602063296750085,0.7596345149386309,-0.37011450076076147,nm
3.8041840000000775,38.79127198203198,49.18405782912803,75.83378005807009,-1.9196558575935425,-1.912346072045512,2.3537846440712054,-0.3647722230840945,-0.4160738042082696,0.6259803452835837,-0.37011450076076147,nm
3.8136990000000424,33.43246366296268,50.76034907105,72.94334939623535,-1.118912846524204,-0.038070505858776776,1.06279346999692,-0.489142415301128,-0.5800790289557107,0.2237647254510402,-0.37011450076076147,nm
3.832628999999997,16.348343998928836,53.7735800165729,59.92206410477699,-0.037513742157296165,0.8837205808915928,-1.8661264118114569,-0.6734244482493998,-0.9038463542825064,-0.11882088149512098,-0.41072541146229796,nm
3.8421260000000075,8.37067886489369,53.135612964665214,52.5836565430758,0.8284453226978279,1.3500991642297335,-2.322394605478027,-0.41738380129324393,-0.8632315954429384,-0.2956147287726942,-0.41072541146229796,nm
3.861056000000076,2.9047563911402587,47.870359973193224,46.106461023298024,2.570175803236376,2.217369907816421,-2.2426526637006625,0.3781081770110788,-0.46632646566732544,-0.2588841426088191,-0.44524468555860397,nm
3.8705770000000257,4.382401410809691,44.805250496222804,47.1627408099597,2.7716657773282583,1.7375590945160562,-1.920378362197213,0.5873408925965341,-0.2726989077038638,-0.028972264692353908,-0.44524468555860397,nm
3.880094999999983,7.75147355203884,41.7505068482501,49.43546661164782,2.7224258449583707,1.3736894498798715,-1.2036764181925035,0.7838524255474257,-0.040151975960587054,-0.014888420726235795,-0.44524468555860397,nm
3.8896000000000868,12.241124425620391,38.734961825184925,51.60255764498934,2.8885142084193087,1.307676679691736,-0.5030917207430096,0.9026857503488809,0.1458258949428847,-0.14760646670698116,-0.44524468555860397,nm
3.9086240000000316,20.811633079213596,35.858555126904236,54.37260930697587,3.066475595983285,0.6252211264657058,-0.2832941176650927,0.500038101527619,0.4523486846940139,-0.23573364718710874,-0.4745860685404641,nm
3.918127000000027,24.72140392087206,36.765606141367954,55.655147348021195,2.850870572320557,0.2847277871860487,-0.5483935776377584,0.2136619612640094,0.621018354968772,-0.17966823037566,-0.4745860685404641,nm
3.937147999999979,31.391214082979754,41.15670451632036,60.694644319464196,2.0393617562611013,-0.09069835224925432,-1.386202839267273,-0.17340161746550256,0.6701189373440382,0.2535946564534596,-0.4995262440750452,nm
3.946659000000068,34.40053836335251,43.717884545944415,65.34615023881395,1.3044045487246079,-0.31289778697874293,-1.4951524844037472,-0.25427919855051756,0.6298548275662897,0.5918255362584415,-0.4995262440750452,nm
3.9562690000000202,37.25910957624223,45.88912053900247,71.44994508201091,0.08138505816668172,-0.7967298320949122,-1.497442475441812,-0.25411747788387906,0.5383512331457825,0.8907023087825382,-0.4995262440750452,nm
3.965671000000043,39.363331553299176,47.30778424333828,78.07193409989095,-0.940880655280625,-1.3179966083685484,-0.8675123462479664,-0.198041717666496,0.35414654290628605,1.0876174228333269,-0.4995262440750452,nm
3.9753800000000865,39.128465032908935,47.93704394475683,83.89415925013996,-1.4293281764589763,-1.7561315591453333,0.4510864062567315,-0.13026317416081484,-0.012072653141549105,1.254943499795655,-0.4995262440750452,nm
3.994384000000082,26.650929712494637,47.38230138830531,90.00810910306922,-0.7299480517357525,-0.9892336914540593,4.339037798437091,0.06767584081287782,-1.1142553904588703,1.6325339853268173,-0.5207253932794391,nm
4.003897000000052,17.24172381285608,47.47018705866205,92.4468242542404,-1.075672968253879,-1.7705199738976543,3.6092207561967777,0.013771839840782563,-1.2765373696481253,1.8032631839090545,-0.5207253932794391,nm
4.013419999999996,9.661497851312964,48.114179747948896,95.7089922751829,-1.3927806365484692,-1.7497412094258271,3.1811051164264956,-0.05237692635632031,-1.028305761494359,1.6957534069266784,-0.5207253932794391,nm
4.022927999999979,3.264407751312642,49.61666389186739,98.37407194774491,-2.1940514511373683,-1.132334533750384,2.95401677207209,-0.19180523392900098,-0.8753445501561047,1.4068559220629002,-0.5207253932794391,nm
4.032439000000068,-5.686016530401925,52.03823860382602,97.71869600087479,-2.735380848320127,-1.1262932622312618,1.522066037167503,-0.31564749860928915,-1.1909693430399881,1.151934420404758,-0.5207253932794391,nm
4.041772000000037,-18.213032873577614,54.201929388620684,92.25525649615749,-1.5252119768629933,-1.7820670668501453,-0.20461236627885018,-0.2916392083549318,-1.5376353486629655,0.7963275874978484,-0.5207253932794391,nm
4.070379000000003,-52.158312483457244,46.09561853355366,68.2230198438535,0.7126282431546088,-0.00664799582768069,-2.533118198699311,0.5248052239383901,-1.4266192650466663,-0.07417251977889615,-0.538744670103174,nm
4.0799030000000585,-57.003295356675494,41.697648960499784,63.761779344482,1.229196376221258,0.5724376860909779,-2.409853720465894,0.5247498468169062,-0.9941374344782258,-0.32911386298562795,-0.538744670103174,nm
4.089407000000051,-59.03336685598625,38.526999248176985,60.78215092162948,1.5237671559071317,0.73369830762485,-2.3811460468319026,0.4202125437672069,-0.5685820088743005,-0.4385751296595063,-0.538744670103174,nm
4.098836000000006,-59.498960706108555,36.545574294085114,59.03977467444172,2.1616768496459464,0.6288303537691228,-2.1897964464958344,0.30741612445411076,-0.26165542788315244,-0.3768646318818908,-0.538744670103174,nm
4.108344999999986,-57.74642542929277,35.405710014938805,58.36219415125766,3.0717253129099555,0.8142129603301566,-2.2316889916692713,0.342378200026578,0.12520588938017713,-0.40821964167985864,-0.538744670103174,nm
4.127369000000044,-47.78691220570757,34.75539236727912,58.831537003470785,3.369133752227403,2.9864631663788526,-2.041665062275996,0.4934051629557229,0.7733514961101785,-0.5832557923687688,-0.5540610554033486,nm
4.136869000000047,-40.649136977943606,35.39965249281095,60.32634646215398,3.4492965506375772,3.371710708008542,-1.896857214435224,0.480463138317963,1.0744805638792652,-0.5409489244768847,-0.5540610554033486,nm
4.146386000000007,-32.56798527384245,36.37095112394474,63.81407271324674,1.9777758825973641,3.635940353556099,-1.0186815183847238,0.4432041598060407,1.2490237747590414,-0.241103726068524,-0.5540610554033486,nm
4.155892999999992,-26.877121673479746,37.189982809024215,68.42897075125664,2.214073098019519,2.040037545499978,-0.7242569228859842,0.2206615861597254,0.9005920914471238,0.2640314405608679,-0.5540610554033486,nm
4.16540800000007,-21.02502904304121,38.444630302501984,72.88855156940379,2.7773421918381045,-0.09810001959557148,-1.2011459871431778,0.0709734604899674,0.9564910196384693,0.20242385596215026,-0.5540610554033486,nm
4.175100000000043,-13.979720144483936,39.85990570509466,77.59275044834801,0.4528503609967678,0.9711259625961528,0.9671748495055379,0.006587746885662466,1.129986963649947,0.08284779936148441,-0.5540610554033486,nm
4.184604000000036,-11.779114993482922,41.186776503226746,82.63277627842957,0.6737639962254215,-0.440023331517322,0.6873052259362951,-0.20411625598265498,0.3754988200277858,0.7396192394111943,-0.5540610554033486,nm
4.203622999999993,-12.772738260064981,44.241270590528146,96.15146975598971,-1.502958762899271,0.4223891347271156,3.321627294291285,-0.330995054347272,-0.1054834125689843,1.5780759393515296,-0.567079982908497,nm
4.213146000000052,-17.64551361697268,45.50098093984108,104.76248654108137,-3.701131475280411,-0.2172381019415169,4.836653188426163,-0.12173665574655501,-0.7286312583278131,2.3992539753527486,-0.567079982908497,nm
4.222645000000057,-25.657901375976667,46.43930596640657,113.70195343100549,-3.8734224436789546,-1.2435475379778178,4.3371929279631125,0.19231233172515738,-1.1188784731728056,2.9301420793089417,-0.567079982908497,nm
4.232154000000037,-34.230472668591794,49.03268273304285,120.68468708032812,-5.167197393362055,-3.1121839202398918,3.778543738394427,0.06837540558792132,-1.2676065699160879,2.6519424622926753,-0.567079982908497,nm
4.241494999999986,-46.7061703229618,53.33905663091849,122.52483888861495,-3.946524962485063,-5.68271164737348,2.5306360595388657,0.09235076917830252,-1.7863962845575505,2.2736064600422083,-0.567079982908497,nm
4.260520000000042,-81.27916757996373,57.24243167536988,109.15791984301427,0.2659864785194011,-4.311137256874708,0.5625408634294258,0.6580722345411063,-1.7849331408837081,1.0854303672222132,-0.5781460712878732,nm
4.27003400000001,-96.28515840835907,54.40375774685758,99.41925125679077,-0.38153842616040096,-3.7639469954182143,-1.002448654833907,0.9650915544356561,-1.489491940108567,0.48897284133784746,-0.5781460712878732,nm
4.27953500000001,-108.43871112870147,48.97790408403413,92.46422409413344,0.22810769094920985,-2.0918377781577258,-2.0479010215221956,1.234461805723201,-1.3835981011443421,0.4811565118965277,-0.5781460712878732,nm
4.289127000000008,-117.08310181601773,43.22377768729661,88.68866406972103,1.2011230016659888,0.25026657981205286,-1.8869763082893212,1.1626566712767799,-1.187326582164099,0.49011760303797164,-0.5781460712878732,nm
4.298641000000089,-122.79393374828615,38.74514682098826,86.15096312299043,1.0461565595726603,1.1254693374355542,-2.206937407635375,0.8568756975350992,-0.9019697538953229,0.24065658616322275,-0.5781460712878732,nm
4.308151000000066,-128.65244595954394,35.62707835705236,82.72889051336126,0.772451266505727,1.5477707343785667,-2.7049708080236314,0.5305818646018603,-0.9896893319627988,0.023166138822529853,-0.5781460712878732,nm
4.327083000000016,-142.88418076010538,31.58109044744423,71.85166589353084,1.9129366089949988,1.7743929658180453,-1.1244789941671398,0.02440265130135104,-1.218740907335032,-0.41913604299446255,-0.42036758287210696,nm
4.346114000000057,-156.4664684601295,27.391200503704766,62.31131843899704,2.3575376287745504,1.5068951950501102,-1.9395182292481408,-0.09661600262822824,-1.3724101122578045,-0.1149420504701079,-0.42036758287210696,nm
4.3556180000000495,-162.96978399274133,23.982226391700728,60.726177578269485,2.6311461987410447,2.0059973754297182,-1.4755055494678506,0.04052870584751013,-1.35598748047016,0.24662625082124628,-0.42036758287210696,nm
4.365134000000012,-168.07299344633364,20.999859450741766,62.436402532554105,3.165410291438376,2.2732219941213105,-1.7327166646616343,0.076220559076469,-1.114221731502344,0.732663963277658,-0.42036758287210696,nm
4.384142999999995,-177.6379486592127,21.860505135389218,72.24790644852126,2.3875273222185514,2.527930131363759,-1.8620810825795306,-0.6808788419066943,-0.7239031300829252,1.5100576896027833,-0.2862558677187057,nm
4.393666000000053,177.8307268213318,25.722166912157054,77.29603085349116,0.9986802491850234,2.685213076116744,-1.5546033788033848,-0.9674459154283647,-0.5940155488826322,1.474713264277757,-0.2862558677187057,nm
4.412706000000071,171.59097791760286,34.70300947920513,83.20285282346347,1.0058584318610324,0.12883798694700865,-1.1853006496557943,-1.0077809741775852,-0.4589376197417777,0.9267062432687617,0.2,nm
4.422375999999986,168.7529883665039,39.13682589947357,85.19046760211587,-0.18009115140145676,0.10699244878319965,1.1471616161928777,-0.9312073530414636,-0.3591783238732561,0.8130499887617585,0.2,nm
4.431891000000064,170.29416272552493,43.70006093645675,88.06652882672617,0.6263122418032919,-1.853622421605948,1.1574010850948557,-0.8984586846065044,0.2878367779689294,0.46253865687795087,0.2,nm
4.450908000000027,-168.36592651707434,52.31277449991984,105.47267985085327,1.3353356959686966,-3.2784246250660227,1.964227158272844,-1.068837098110765,1.7330438518068918,0.09824157178259468,0.24105657772258524,nm
4.46993800000007,-132.37947854869822,47.950321842353006,130.83376326190498,-0.7798161411810515,-2.558429863061241,1.1838574830187876,-0.521910737898116,2.208111992681747,-0.3402996235947297,0.24105657772258524,nm
4.47926300000006,-121.26875249183847,43.11233403379279,133.60044516459374,-1.9348588816593029,-2.717801572721644,0.8489797521449544,-0.32745841732172176,1.8029517157035155,-1.0017530993759391,0.24105657772258524,nm
4.488941000000068,-114.5201371040496,41.02073756841885,130.94557276826416,-2.063010577476634,-1.8750088927860868,1.07387834347213,-0.3659278449636455,1.0238354041931033,-1.4525596417343762,0.24105657772258524,nm
4.498459000000025,-111.13510784804475,42.76160009831298,125.8211096367257,-1.7370769083665676,-1.042120218416073,0.7805882177160702,-0.5883201807785305,0.17778288689827093,-1.5271157704389133,0.24105657772258524,nm
4.517490000000066,-115.81663474834393,53.29439775947043,109.002753735234,-0.05429033946257002,-0.5854415202113658,1.0224504514096677,-0.8520972589775367,-0.9462659325468152,-1.4183798282535147,0.27595466878678265,nm
4.527001000000041,-122.44587956039788,57.77046264821412,97.80565205901716,0.18790716986163625,-1.1475526498406874,0.9386286002747315,-0.6952333815561496,-0.9402305576478519,-1.2692558990877694,0.27595466878678265,nm
4.536508000000026,-130.17733210068076,58.88467999970788,86.88183902144662,0.3498429163118475,-0.8673008383287093,0.6903291476713198,-0.187375177967898,-0.8188407153619902,-0.9701162027379776,0.27595466878678265,nm
4.546024999999986,-135.76866885004264,55.99227031067766,78.84984686169476,0.3913234942557605,-0.47460208039830626,-0.020750560086985587,0.5019709944705745,-0.6662067308409365,-0.7273307601135537,0.27595466878678265,nm
4.555427000000009,-138.3589262016938,50.07203549683992,74.83721815297876,0.24732363645673536,-0.10318976995263962,-1.4247329827877093,1.0858218689540124,-0.5714397525854141,-0.4223254041119413,0.27595466878678265,nm
4.564932999999996,-140.17375371700334,43.09193260766376,73.74874058237093,1.022442798388564,1.4589546558811841,-2.2327275197667795,1.279725018418366,-0.6183927454576292,0.03508445146582421,0.27595466878678265,nm
4.5743700000000445,-142.44670634569465,37.2133673247677,73.62645656813116,1.9679469178312872,3.831622917113467,-2.48918510125315,1.032865289372154,-0.6649085033705447,0.27517692020105056,0.27595466878678265,nm
4.583863000000065,-145.047896826647,34.01700467830072,73.44526788968561,5.191484259712877,4.262407082915069,-4.527730526909244,0.4938323031932454,-0.587696752784777,0.2847597760846294,0.27595466878678265,nm
4.612416000000053,-148.187496353136,38.540191291592585,76.53355281511648,2.2550539590359033,1.8753399113423335,-0.901271420602649,-0.6889323721415865,-0.08663698238915483,0.2945488356825996,0.30561804619135047,nm
4.631497000000081,-144.0461518623413,47.296803375518145,81.7506890455388,0.7116075647815785,-0.7351044913162348,-2.361734222071801,-0.7741733230595998,0.6587505803699368,0.31621400089205626,0.30561804619135047,nm
4.641038999999978,-137.08397399824688,50.60781855409756,89.72027639214721,0.5018508712469775,-0.6065623681777648,-1.6126024022680245,-0.5895848524976333,0.9618295974726466,0.6116187614338195,0.30561804619135047,nm
4.650449999999978,-124.10008232260486,52.08257754289728,102.4234658847317,-0.6670659126509962,-1.3611479183529682,-1.6447237604210736,-0.4571560420019122,1.5801333215746396,0.5842156367549165,0.30561804619135047,nm
4.659973000000036,-106.6196519891515,50.7803501148287,117.35024415138705,-2.4382868639233086,-3.065199789546019,-1.3077492302228348,-0.4885927971252853,2.133810692706049,0.3064595335287236,0.30561804619135047,nm
4.679172999999992,-74.25533981124538,43.06175201885139,138.3347518815888,-1.3771507777172824,-4.860876172573441,4.363897459002193,-0.9219132201795458,2.100661316535161,-0.4236670906331175,0.3308319169852331,nm
4.707707000000028,-50.851644688624965,44.15416111930506,135.55873712676734,-0.9173617116360986,-2.256746620335571,3.030208665133822,-0.6483470949391964,0.07160911974891977,-1.3228076604586316,0.35226370716003336,nm
4.717212000000018,-50.351980576605335,46.493768881272466,131.37777543957495,0.9508424898954758,0.8100208786435321,1.5159041036691447,-0.3896419638029612,-0.2714887890645291,-0.9068421419714979,0.35226370716003336,nm
4.726722999999993,-47.72760503688426,49.90126903988546,126.80348863737272,-0.387870789444152,-0.38037217693376874,1.0141637641216015,-0.7523827532649193,-0.15837968387166,-1.305604978939006,0.35226370716003336,nm
4.745561000000066,-52.604069192203575,55.42768518783046,113.43483151016207,1.321140686983147,0.2316161523745692,-0.42746713592150654,-0.13018589559468655,-0.6366353384945781,-0.8087481355870739,0.3704807288086136,nm
4.755066000000056,-55.989896566142775,55.84602221436574,105.33112531336805,0.770457343025548,0.13987652434722286,-1.2407558820763183,0.04798597845117815,-0.3876831761440603,-1.1450158855259303,0.3704807288086136,nm
4.764655000000062,-60.10555539855258,54.975336019495806,95.95383053092596,0.061017874163258046,0.5590386850091975,-2.2285477223828667,0.2583095064634661,-0.42536286517408733,-1.279086913173407,0.3704807288086136,nm
4.7741680000000315,-64.99415379103733,53.05941770610391,86.47265172879419,1.6494633913122618,1.343395964789914,-2.970776646817223,0.3972090644161311,-0.5640729373076115,-1.1880893074450776,0.3704807288086136,nm
4.7931930000000875,-61.150494053683914,50.61357023484816,77.44882488763729,2.4697618675226907,5.687966041963644,-5.176609250164636,0.1502397180490554,0.5548630036200316,-1.18184732162825,0.3859651972099068,nm
4.802706000000057,-52.748124738663535,54.14269312653726,82.39678006241462,2.327683075216627,3.694479053360887,-4.667615656021739,-0.5151128360638996,1.1340083555758615,-0.3415403440017288,0.3859651972099068,nm
4.812216000000035,-37.34982884331129,57.00939559756366,94.11053108133503,1.1526756877462268,0.6529130681994456,-3.2537485060853144,-0.5131399598250423,1.756045961103297,-0.16350812337170284,0.3859651972099068,nm
4.8313340000000835,-8.720799396979606,51.11748527491746,114.11186260462705,-0.8093997424374726,1.622665257852122,0.5255254458674932,0.31644630288752024,1.562184718694492,-0.30259169678982534,0.399126995351006,nm
4.840842000000066,-1.741566398076124,47.78577869360021,117.3632161343538,0.024018525963989068,0.7163612270105668,1.2598504168006497,0.20652428150967655,1.1081607156067308,-0.407878041070126,0.399126995351006,nm
4.850347000000056,2.3874987902809846,45.39417073423909,119.29567706676225,0.22822838902999318,-0.38576382950236754,2.774519674397872,0.15173042676127088,0.7278171127019892,-0.22639759509836596,0.399126995351006,nm
4.869377999999983,0.27268840913897135,37.96283271313526,126.35353014841729,0.4164141031758795,-1.1028394129728731,4.390030116862155,0.853562992500726,0.12397410458604148,1.248983211561541,0.4103145237709403,nm
4.888400000000047,-1.8490784556475326,38.8761770753206,144.05666847376483,-0.7370557985925797,-3.2518778768719017,3.859089613413758,-0.22055591677961184,-0.3186409167110023,2.0141519498811906,0.4103145237709403,nm
4.907422999999994,-4.117121623893819,47.59268016040604,153.98485147652409,0.08047134762152443,-4.307760985733706,1.9978934019062762,-0.12780391502632957,-0.9927282973609344,0.7102742861103903,0.41982392292788445,nm
4.916745999999989,-11.947608316596115,51.204871704123974,147.6376983784273,0.3806766970176041,-3.7972589194812465,0.35496988532183205,0.5409585058822628,-1.1271747541674373,-0.14155974474952912,0.41982392292788445,nm
4.926261000000068,-23.47220025131412,51.68439480138599,134.1605048452099,-0.31791109496193687,-2.963864812310046,-1.4058427976559436,1.0569561816847832,-0.9771507796953298,-0.9636026270156497,0.41982392292788445,nm
4.945341999999982,-41.27886771566111,44.416613639855676,107.215476792163,-0.0626254544552524,0.2711015771068606,-3.316183968259606,1.1561769907108275,-0.5238786866426057,-1.479763350351349,0.427906912211287,nm
4.954872000000023,-43.07963854949807,42.30459390392099,98.68510696002429,0.23786321974042457,1.354289308075837,-3.03256566803775,0.4713578890166128,-0.15819439580190103,-1.5461861546388451,0.427906912211287,nm
4.964387999999985,-41.068341333718614,44.08633104277963,92.92547234253288,0.30169271516572943,1.644245838852898,-2.7924979875816915,-0.38677894532767904,0.2556871461997907,-1.5124072338148145,0.427906912211287,nm
4.973887999999988,-34.78177363057121,48.95783332271057,90.67700211115724,0.9408446510917255,1.2158795375078915,-2.945323545667617,-1.0049439549633568,0.8343030274547701,-1.4161731832312858,0.427906912211287,nm
4.983384999999998,-19.764489244048907,53.94020446367235,94.39431902808434,0.24362048970172098,1.4153628837088164,-3.2850867890359075,-1.073523474531079,1.8285177335023608,-1.6013999051956318,0.427906912211287,nm
5.002339000000006,25.075458655546907,52.822471093375825,112.46488942602485,0.6020950492552022,5.543135412494607,-1.3101089365861598,-0.3220216882525886,2.5667537669184406,-1.7489862429325893,0.4347774531021792,nm
5.021363000000065,60.18689466405605,45.18746185596885,116.9461197749182,3.2412607987185815,3.555533503607913,0.6752329181576742,-0.32315450844279087,2.2355369343778424,-2.2157720753693253,0.4347774531021792,nm
5.030871000000047,72.94696084511506,43.83040299636199,115.9858013750246,3.4306744496100112,0.42181297183924876,0.5228144135219982,-0.5644783805752089,1.7544021331847166,-1.9143835954816097,0.4347774531021792,nm
5.0500769999999875,98.67211683497901,47.27187061810301,120.82829465656688,2.0800848502088667,-2.7507719154601458,1.9317124722696024,-1.3104141477405227,1.3730299697461659,-0.9830975526072855,0.4347774531021792,nm
5.05958099999998,111.46056415308675,49.782037193708234,128.76582273311837,0.47190503210985696,-3.5299133486851946,1.4740801658616016,-1.3715098870126663,1.1109698762314162,-0.20412895839200368,0.4347774531021792,nm
5.078616000000011,135.23901213500318,48.943002340013344,147.18323724828056,-1.2677282050477492,-3.2115718739106582,1.0938036101533524,-0.9190926234049969,1.0782332480210157,0.20630677086047355,0.4406174128594375,nm
5.088119000000006,141.6394609075138,47.46947262896554,150.37305547738978,-1.5693894902871321,-1.8629738897399473,0.6280693931978604,-0.5717715677316613,0.6977855856762086,-0.16561702624488034,0.4406174128594375,nm
5.097455000000082,143.2420621204414,46.812230565030255,149.30316007433902,-1.805246801137867,-1.3950424978932092,0.2260088324555907,-0.12156118792559761,0.22405808165584937,-0.36280968782611134,0.4406174128594375,nm
5.106960000000072,142.1701456960282,46.56717664869647,145.32216325825053,-1.823038775872716,-0.8929708387706904,-0.23669132065191104,0.15002839882829921,-0.037810794301960875,-0.6017157396378185,0.4406174128594375,nm
5.116664000000014,140.3830905716276,46.40132557257629,139.7666952996874,-1.0081485925259184,-0.41406599774797864,-0.07836679980951387,0.2152830459682594,-0.12272138889022663,-0.8313681295096655,0.4406174128594375,nm
5.126166000000012,138.02395968476966,46.830196003050204,133.53668408548103,0.32402570346638715,0.05870331855691036,-0.2547643067912149,0.1765614697243372,-0.28413957432560677,-0.9033862791939595,0.4406174128594375,nm
5.145187000000078,133.27765814909876,49.472728992971405,122.7998840427899,0.983720025236502,-0.36997390531404484,0.13304224730285777,-0.10384791236157442,-0.389738793860373,-0.6368767718831128,0.5087316232008889,nm
5.154700000000048,132.52241780908443,51.16391826692756,119.47540493037519,1.5140006929303291,-0.43523212650167764,0.07052252202298005,-0.24086866117509967,-0.2569488296691681,-0.5069696525286871,0.5087316232008889,nm
5.16402400000004,132.012445847057,52.63896681123652,117.16684547490425,1.440132708672668,-0.50022197799611,-0.3035342293292854,-0.23099791165111522,-0.19484755085704195,-0.32941027285508995,0.5087316232008889,nm
5.173541999999998,131.23905529753276,53.24255142291519,115.10187624962508,1.798786623783879,-0.36341008210484127,-1.0672481059337722,-0.06794388183010541,-0.13651504263319555,-0.2304511033719086,0.5087316232008889,nm
5.18304599999999,129.6824655899931,52.253000320486684,113.08306304368726,2.534302397339478,0.0006626041053464666,-1.8151029694319487,0.25791319530371304,-0.09146736379101737,-0.09220851299150137,0.5087316232008889,nm
5.202056000000084,124.22354691283974,45.37714413396994,109.60768088941687,2.8970425316070534,1.155442217316389,-2.4375135564362944,0.9046776073652556,-0.0812035370848178,0.16249434587036496,0.5087316232008889,nm
5.221074000000044,120.36266863808959,36.93359097849424,109.1527602973807,3.243617594588942,1.9610788846716787,-1.9047350214235186,0.8192373755027875,0.034334217126879445,0.3359130884059608,0.5087316232008889,nm
5.240104000000088,120.73594827668893,34.54654029116439,113.26866176191803,1.6700856465834966,1.4330081527852494,-0.5175393982692374,-0.034462030018659356,0.12407892792872044,0.4517644308427244,0.5666287019911227,nm
5.26881800000001,132.14157070200116,41.42007712028001,121.82231123059384,-0.4647884329938622,0.1182228624635093,0.5922342156154471,-0.8322342332382888,0.5299427500451244,-0.002561540901294244,0.5666287019911227,nm
5.278342000000066,139.02165074321852,42.56050521770993,124.48436585836718,-0.5999779533865429,-0.32531064218952804,1.0567006619959538,-0.7466523687509005,0.7351493846653644,-0.2652966105185331,0.5666287019911227,nm
5.287843000000066,146.45820845340725,42.742844224902406,125.80717903650921,-0.6992642553154531,-0.6179115864171228,1.712203403149825,-0.6551756017711448,0.8767183462349251,-0.6261547771647072,0.5666287019911227,nm
5.306863000000021,164.00173653916355,42.44568562637886,125.8551238580663,0.2454398155569279,-0.23395065435304624,1.9447315226674695,-0.7737154975461729,1.1088374367701253,-1.1693263251188248,0.6158412189628214,nm
5.316389000000072,174.70621126002658,42.84576195385492,126.19758823205143,-0.136862968573242,-0.11912626644078514,1.7094371087085043,-0.986845839138657,1.2298609421459812,-1.3064048900325802,0.6158412189628214,nm
5.325886000000082,-171.2266502820504,43.70334714690644,127.23360370297698,0.9060840597333719,-0.6809145260750827,0.03741174514756541,-1.356548335282334,1.5437993802032994,-1.6494378893132107,0.6158412189628214,nm
5.354242999999997,-129.1724495991377,44.95969453175475,129.58914228425752,-1.216456374461568,-2.7727632547066214,-0.3482071683608767,-1.1710206791317603,1.3516191834327003,-1.9108521265212177,0.6576718583887653,nm
5.373444000000063,-111.86460272955385,47.78489876452438,123.9634985916319,-0.7717857260704564,-1.4432719045627993,1.166466282248698,-0.8391828027059541,0.5411026910447974,-1.680940716179154,0.6576718583887653,nm
5.4113250000000335,-115.8866431507195,51.85191851218241,101.47924151285973,0.768315871958622,0.7674353768406534,-1.066475495444456,0.18554630759813368,-0.5112602147207632,-0.6019546661571992,0.723450538886062,nm
5.420885999999996,-121.32206249980509,50.662353605697426,97.00004204167318,1.2253801864080045,0.5630932424912198,-2.720020823065538,0.34573955065910295,-0.6317730551826455,-0.11609119346802343,0.723450538886062,nm
5.430406000000062,-128.6242452180213,48.63320853925075,95.30587668985291,2.080633946015021,2.2872818747176273,-3.034120815712942,0.5070225733166235,-0.895522957891775,0.7245371798193507,0.723450538886062,nm
5.439910000000054,-134.18253563112307,46.2727495192196,96.85363622584012,1.7256240711734743,1.5968273945369433,-4.082412366277762,0.5512801096523473,-0.6971142896895187,1.0917868227477345,0.723450538886062,nm
5.458855000000085,-138.60055811241804,42.37699840127432,110.09687335523492,1.9248901237681537,2.9586777808607194,-2.3427369942349974,0.34062124887495576,-0.03749771609430756,1.779193520168404,0.7491397803235198,nm
5.46844800000008,-135.96801545522646,41.895307257205005,118.97444287500274,1.2290120606908073,1.571897514077712,-2.6073253170700346,-0.07216210179971833,0.3953150774596371,1.4833025477691077,0.7491397803235198,nm
5.47795700000006,-132.7186231830721,42.36772370902008,126.77916856512329,1.4086379819732808,0.08167689722928598,-2.3543663877967287,-0.33934326314350544,0.3541909775401901,1.1814727853475084,0.7491397803235198,nm
5.487565000000018,-129.49813222172574,43.34258316236428,132.80943415218687,1.6473185103067929,0.9427341936249012,0.4216148515200373,-0.45120640646836957,0.23850091982037214,0.8034026165286303,0.7491397803235198,nm
5.515914000000066,-94.8585105773678,40.68112071263544,144.8266462134274,-0.18494518249171682,-6.72359545783712,-0.5435423817497382,-1.1549689352553323,1.6640841511415028,-1.1836126550148198,0.770975635545359,nm
5.525425000000041,-82.11252836074739,36.53384092065834,143.89827163133316,-2.0270568146208867,-5.0685444537980215,1.7962411500589377,-1.1407976946293497,1.8342979863760616,-1.7987010494377853,0.770975635545359,nm
5.534933000000024,-64.47284544686755,34.375186891784644,140.993176288682,-4.7337715467131485,-5.689432915508244,1.9923449315245088,-2.0259048523107266,2.0924478820782553,-2.6692256906504896,0.770975635545359,nm
5.544623999999999,-47.618518900403835,34.918224234984066,137.24384022044637,-5.395690072950154,-3.6753784214596994,3.9209379945781477,-2.173403502160758,1.7380456565169093,-2.665691959516329,0.770975635545359,nm
5.573162000000025,-5.0033462736670415,44.17584679807589,136.37518639035076,-0.809583339348052,0.6272815778616945,3.03250384095826,-1.9116300277662577,1.1100607994985077,-1.6725295350851248,0.7895361124839222,nm
5.5826660000000174,4.945501853849318,45.904879094840034,137.72210068185487,0.9950290879600708,1.1044953541884677,1.0138404091656643,-1.26887012224927,0.702430981369842,-1.218357081229266,0.7895361124839222,nm
5.601703000000043,18.90551526789399,49.25393741083894,134.1527364313406,0.1732735467052904,1.1283420865530935,0.035352600126186795,-0.8058478392890976,0.3016889310093919,-1.6111279142654091,0.805312517881701,nm
5.61103300000002,20.850356728298475,51.55730878728823,128.5969464010461,0.6760766158005281,0.8978634252496109,-1.511444853319859,-0.5109765915054019,-0.12043069941449028,-1.5227248699660254,0.805312517881701,nm
5.620607000000064,21.889657556549174,54.015143940331505,121.97039058326077,1.0427477360942692,1.4099864272079836,-2.7086442006020035,-0.47475581663108124,-0.18389042687879362,-1.6445988050505582,0.805312517881701,nm
5.639636999999993,32.506755181795725,58.44789791312074,113.45345325448258,1.4397792751548066,3.0713323665332153,-3.061484637671545,-0.6823564148387327,0.5034659082442337,-1.8738391179230878,0.818722462469813,nm
5.649068000000057,44.4814083110115,59.21318781249591,114.74122029557005,2.337189982863916,3.4322227118766713,-2.8732176937469074,-0.6503356651500524,1.0687629579087734,-1.8733335625309675,0.818722462469813,nm
5.658590000000004,60.816787131777645,57.65173651951741,119.08727751371697,2.9180086006331183,3.563103401475138,-2.1991779273951253,-0.49823531384410996,1.6653973504863058,-1.9297547914342694,0.818722462469813,nm
5.668085000000019,77.41409292416472,53.638081534392796,123.70766137625553,3.2405433371990915,2.4024604720086074,-1.3953188664068397,-0.2915373422511217,2.014743490500451,-1.7865887770436943,0.818722462469813,nm
5.677592000000004,91.79183785852813,48.237004756486705,126.62615788917842,3.1920244574097723,0.6291562033824141,-0.45468694739329696,-0.15878148666112488,2.1022408262021623,-1.5927337741701155,0.818722462469813,nm
5.6870910000000094,104.00360610009996,43.21085884028578,127.81373827919263,2.792554232755846,-0.8046386357733952,0.569180231845007,-0.22667778778959766,1.9664782321460543,-1.4380339055578433,0.818722462469813,nm
5.706405000000018,126.55303790450378,38.758651182346384,132.0129885188959,1.0573396492183174,-1.5815248886293392,1.3971052152803756,-0.9526370836300373,1.5200895028842853,-0.716725382697804,0.8301209153697081,nm
5.715821000000005,139.40711249531685,38.46296897739461,137.7970630717108,-0.35753157764184285,-1.1225330241697782,1.744135079472382,-1.3661499936907846,1.4722563739328691,-0.2983619327608286,0.8301209153697081,nm
5.7348420000000715,165.49950174656925,37.78038993913036,152.34673095682103,-2.6776709912187058,0.030715103297882986,1.3228776968920595,-1.6474396757031102,1.1220514048313754,-0.08197687189602161,0.8301209153697081,nm
5.744346000000064,177.56914372589478,36.775202907091796,157.12763132503952,-3.14322496014025,0.22681651104785558,1.128677639325757,-1.650531514590072,1.0005932670495987,-0.5082943503152196,0.8301209153697081,nm
5.753691000000003,-170.60896130318682,35.77344434139557,158.0059692365258,-1.508930461607533,0.20232493173770108,-0.17871849703725973,-1.6857210044581565,0.9123496039185192,-1.2240648399175438,0.8301209153697081,nm
5.763193000000001,-160.0792258073319,36.085687577687594,155.21520187732256,0.2484107052158733,-0.5998429596963634,-1.3647129881095055,-1.5915296609542515,0.6202658798331613,-1.7933920713981464,0.8301209153697081,nm
5.782215000000065,-143.22165683191574,43.052277964238726,145.21156895811708,1.6403418416920401,-2.097495586992495,0.33131856327319537,-1.5223261518360933,-0.09271774609735729,-2.0870787084418967,0.839809600334619,nm
5.791731000000027,-134.1614734884599,47.30939741113838,141.43029695265025,2.5852755642390837,-3.1433768772453194,0.8285055248809484,-1.5356495806235948,0.080700452239714,-2.040200077709408,0.839809600334619,nm
5.801244999999994,-126.55492731747267,48.74787334431581,139.31750131496227,2.2485903834045886,-3.8336743897231473,0.7498616275283339,-0.9684061883694947,0.4276100045868762,-1.5534427116298375,0.839809600334619,nm
5.810928999999987,-122.6437263388841,46.97305594244067,137.724137547308,0.9370456606090872,-1.7581399507322304,0.7422146894382555,-0.15812017338401263,0.6144335589533843,-0.8997615200108373,0.839809600334619,nm
5.820449000000053,-121.26136092478046,43.81571406347288,135.33607542780672,0.006732809524147899,-0.2704725883327021,-0.1461636895775236,0.2940847561733461,0.5931326708324609,-0.6757777731022253,0.839809600334619,nm
5.839356000000066,-128.19158832515825,39.87780355494782,127.89582034606259,-0.2527772869786933,0.5013150744497195,-3.001454153402091,0.7413813465027115,-0.5174384556933667,-0.03074132965258435,0.8480449825547933,nm
5.858375000000024,-146.869443793321,41.51979333224345,120.14624959310107,1.4274560429261565,0.39128513575588453,-5.4808796766655705,0.6249086051506126,-1.3927238198310747,0.5611930874736405,0.8480449825547933,nm
5.867797999999993,-157.29284681520454,41.028038357528054,118.21410104926802,1.9700525912548543,0.9598827550529319,-4.873287973240803,0.8507087289202071,-1.3191013545168249,0.9681492857539523,0.8480449825547933,nm
5.877394999999979,-164.2611651556131,39.12180848851012,119.82226859106785,2.6652894167599084,1.239020383322302,-3.075558119027738,0.8511261682416291,-0.748445658620193,1.2310651056333062,0.8480449825547933,nm
5.886833000000024,-167.4559511114039,37.43665906773814,125.72426220057186,2.981334923629257,1.7259161867151531,-1.2535753761627186,0.5559229446211588,-0.24089003451190474,1.6282260081034658,0.8480449825547933,nm
5.896523000000002,-167.50856489577708,36.54654607216344,135.15031347318015,1.9745380410783044,2.37793509955191,1.3327402436532216,0.14270887504792265,0.10842225683361592,1.9825531014537958,0.8480449825547933,nm
5.906031999999982,-162.74334438844141,36.11508409808129,146.80283765186587,1.0505241193730994,1.9545867550253926,2.1897298893326416,-0.541590061856361,0.5509015069691032,1.7658021008079212,0.8480449825547933,nm
5.925057000000038,-139.4090582243234,30.293699527377917,161.9268928900214,1.6997956490602826,1.0810394362694138,0.7810708366448819,-1.8255866555584603,1.5297403567099004,-0.38291497084830545,0.8550450574419414,nm
5.934391000000005,-124.4965236472449,25.254730820018192,162.16847284594385,2.166699438270849,-2.4866643101023307,-2.734007341239202,-2.203111088486789,1.769096662768032,-1.3438880476281623,0.8550450574419414,nm
5.943896999999993,-109.65077816260087,20.933338859062378,158.69004545887222,-0.22603809480013334,-5.294801745399565,-1.9263560445614922,-2.2894006453268396,1.7278723472574862,-1.8588580418720952,0.8550450574419414,nm
5.953401999999983,-91.45123461570027,20.19798339664022,153.85779847820478,-2.6517910430121523,-6.557921947880344,-0.5373432879567467,-3.0678955563761363,1.507561312767964,-2.239624234705736,0.8550450574419414,nm
5.962919000000056,-71.48297396760925,23.77199899079565,149.28624768185426,-3.508132389657614,-6.936690633879657,1.42357232116919,-3.6031110042495067,1.1431172238852647,-2.402763153065498,0.8550450574419414,nm
5.972611000000029,-52.85986079703215,30.20569251738235,146.86961921592624,-3.576934499738865,-3.97081583912732,4.545547937458332,-3.5005706719349607,0.6743714772853793,-2.171951612865984,0.8550450574419414,nm
5.982105000000047,-33.37693150965842,36.275785246633816,148.16808883654141,-0.6285264805271722,-1.404339826203106,4.15054700687463,-3.400692999444123,0.737502090159164,-1.8815078912330188,0.8550450574419414,nm
5.991529000000014,-12.361505565111116,38.687769207449,151.98851121405727,-1.7100485733152742,-0.5955544637707673,3.491865923315051,-3.1310396169785406,1.2511398426613254,-1.803304111824337,0.8550450574419414,nm
6.00095900000008,3.9289208609166537,39.41382304171241,153.96832847572043,-0.7228109053234709,1.0084992360742047,2.753545555059619,-2.3227499086190058,1.0223550096519538,-1.6620372321398298,0.8550450574419414,nm
6.0106530000000475,15.611456421701204,40.720662911949624,152.85660276937114,0.724301201223559,1.6321582581626732,0.6842663284017617,-1.7194332251526616,0.568661823211359,-1.728821598330426,0.8550450574419414,nm
6.020171000000005,25.242603079501816,42.974782082301274,148.92391709987194,0.5382457072419367,1.1290849161665515,0.09115763795317745,-1.47692152650572,0.30633095385916737,-2.0732982975400485,0.8550450574419414,nm
6.039000999999985,34.941391134460424,49.0524075114526,135.36541194333287,1.2207878646632488,1.9001465179618662,-2.0975769197134326,-0.794563244469493,-0.1758353287452855,-1.9608560939294197,0.8609951210960173,nm
6.048524000000043,40.197263996651984,52.26246612054792,129.52896094144583,1.5556354195198365,2.1632382637710026,-2.4228083276313424,-0.926544817415279,0.05975033251947988,-1.9817689939798941,0.8609951210960173,nm
6.058023000000048,48.53127347127768,54.74164136191656,126.57425802964868,1.792902677289136,2.63638749835265,-2.058290087725447,-1.0038521076021434,0.47717812658338415,-1.93329214174412,0.8609951210960173,nm
6.067536000000018,58.837168459238484,55.60035587565874,126.49232847676468,2.450420140817248,2.4027599258056482,-2.3691209250540255,-0.8400921641710695,0.8453364777366227,-1.7113501069553463,0.8609951210960173,nm
6.077042000000006,71.41508746552155,54.345009525686166,128.49194681903214,2.447892851740829,1.9988115871158563,-2.3325503856419294,-0.6808554771125354,1.299006090048472,-1.663568850399331,0.8609951210960173,nm
6.096070000000054,97.5148330039915,46.79685479238659,134.24821335915462,2.5110907494278685,1.1027284616365605,-0.9928759007395638,-0.4718492032018273,1.790236323271225,-1.3123148492791545,0.8609951210960173,nm
6.105579000000034,108.79916404889862,42.19702322847689,136.57800953469308,1.7380944685480697,-0.36273182263249265,-0.13823703547919247,-0.4983401816581144,1.7857883250708104,-1.0677090439725545,0.8609951210960173,nm
6.115265000000022,119.83955339919964,38.28491215284193,138.8323501541696,1.3113800384048324,-0.8290534785394852,0.8351907231186827,-0.7168112252252764,1.7144187722136466,-0.9143424359004629,0.8609951210960173,nm
6.134295000000066,140.72589397639248,34.22982330796026,145.2014723559411,-0.6516391131761241,-1.0924929089200057,2.273657310095787,-1.1709917514927626,1.22354019913316,-0.3452292914740973,0.8660526752019818,nm
6.143794000000071,150.91744436828884,34.01245744776171,149.64331903290883,-2.0476982882750696,-0.8414252531292836,3.090514092490542,-1.3984429333940551,0.9447206462086879,-0.2567107361718374,0.8660526752019818,nm
6.153309000000036,161.6275209460705,34.971301420197726,153.36264985424958,-2.3858210687947787,0.07829143111510775,2.606308223421296,-1.6427104400772556,0.6736501331098275,-0.47076678719313964,0.8660526752019818,nm
6.172341000000074,-177.06309014489625,38.30664458683649,155.26791754918418,-0.6648627810745777,0.2664323513309053,-0.5627165835898882,-1.6527950548668622,0.3919177104721886,-1.3254028755065734,0.8660526752019818,nm
6.181672000000049,-167.38108836424266,40.044029835764384,152.06703198335103,0.7622424524189845,-0.430530706695089,-1.1287158941654882,-1.5011598509517172,0.35509215693458984,-1.8627876526944496,0.8660526752019818,nm
6.191176000000041,-159.22610277922465,42.901003475140655,146.56481116439394,1.8526944759951687,-1.5996358616537876,-1.031020434489536,-1.3453393414342083,0.1326150384480544,-2.1795908472045813,0.8660526752019818,nm
6.210195999999996,-145.11696478233395,50.959951634510944,134.8312825554275,2.5328368948277475,-3.0171092735620757,0.3699569978113858,-1.225596400424495,0.06196735348123035,-2.181438230340367,0.8703515961920516,nm
6.219693000000007,-138.85931836454824,52.7513193681382,131.27219559781759,1.986358861508652,-3.6246393238245536,0.12977775241740394,-0.7912313515216637,0.3205551169915692,-1.6955409171142988,0.8703515961920516,nm
6.229400000000055,-134.81189902321628,52.23946482751787,129.18403606224663,0.5030068093131475,-1.5711703881815084,0.2906768232387846,-0.24045365685951367,0.44291198703309337,-1.06031883746898,0.8703515961920516,nm
6.248313000000053,-132.39984030156177,48.41507384947202,123.21497899183278,-0.17923397780528946,-0.5991482711073618,-2.434190926197025,0.3675036136937205,0.1825095255177409,-0.638610057006457,0.798123127805447,nm
6.257833000000005,-137.3923682914153,47.173523870843006,118.73502052928434,-0.11920507503158118,0.9719915446895268,-2.7851551257413467,0.5579162338742771,-0.44689691741065946,-0.1567587423291416,0.798123127805447,nm
6.2673449999999775,-144.55111398683152,47.35443079512598,113.81004809652492,0.7994459602358069,1.0411208992614664,-3.827065484490856,0.3969378372085028,-0.8868155084050292,0.06695266915979113,0.798123127805447,nm
6.2768330000000105,-153.59586248837005,48.19362519027652,109.51820400671286,1.800927885619265,0.6977120165008277,-4.648935964140857,0.2922209159406278,-1.1910800333935903,0.4819574504287103,0.798123127805447,nm
6.295870000000036,-165.99086702664337,47.78728029509003,109.04604319656687,2.274834328492517,1.1506157736330234,-2.540515704468825,0.2609147237266724,-0.45754840062440677,0.8980688461228993,0.70540465863463,nm
6.305302999999981,-165.89008867122297,47.43616251195625,114.55621847673596,3.1495139429459487,0.47534922559221193,-2.2465916829778596,0.06082397422658378,0.038137059159517796,1.0878430700063568,0.70540465863463,nm
6.3148100000000795,-164.0563490916131,46.947940381085836,122.87985100866634,2.4484010584498224,1.5303048078550598,0.1699865011522775,-0.03240116454802258,0.2650294714795884,1.4530555188115621,0.70540465863463,nm
6.33401600000002,-148.39249146543338,44.36035152122034,142.14169801831778,1.832535818054289,1.0822602506974617,1.0059182984266735,-0.76660795449189,1.2391171151963705,0.5127578683770279,0.6265939598394354,nm
6.343527999999992,-136.35427239768347,40.06080863826789,147.76153764000745,2.0680146222306557,0.4976732028055121,0.9074357447617156,-0.9612459899673284,1.7290208557615832,-0.4330316785789034,0.6265939598394354,nm
6.371879000000035,-93.27868252992872,28.121428668891905,144.4649219451921,-3.4890027957009386,-5.356603238456046,0.05561210712562367,-2.078537747948822,1.823892377636175,-2.353751894502909,0.5596048658635201,nm
6.381383000000028,-75.27503502819323,30.543763501414364,138.74602928937978,-4.306362910285707,-6.607066532541451,1.597149042178055,-2.7677318824282677,1.5773428081380914,-2.9024133068144087,0.5596048658635201,nm
6.4004019999999855,-42.389888677041796,41.90224349585265,135.9947112428357,-1.196373367130775,-0.8534565896704968,3.9370915329300784,-2.7216821532971225,0.992554221198468,-2.034926239834414,0.3825498658338863,nm
6.409913000000074,-22.661770090849895,46.0600449787714,139.29305786810815,-1.7951699921890425,-0.6875623725924791,3.351897487305078,-2.655274380778686,1.305495611833748,-2.088218703729528,0.3825498658338863,nm
6.419617000000017,-6.682960172071886,48.293227175869156,141.56290396429807,-1.2096617325189711,0.6489587115194014,2.7525764384689704,-1.9598666017142785,1.0429967808793104,-1.8956188151111861,0.3825498658338863,nm
6.438451999999984,10.892529452120339,52.27074324433933,135.8561420244543,0.2760829093468051,1.3784971099115506,-0.2547127107442662,-0.9817260961601505,0.2796995487668319,-2.0484887592063816,0.23205311580869753,nm
6.447971000000052,14.45492200282899,55.15558463469484,128.64863484118703,0.1041890497624398,1.6892244787903834,-1.0429213909855073,-0.7138472133556434,-0.07497015667572342,-2.0167476860474687,0.23205311580869753,nm
6.457542999999987,14.331059719992485,58.105571648756865,119.97415986623363,1.2599832689453514,1.4687699835575208,-2.2212044184695188,-0.4823586212495993,-0.34350651307651847,-1.7139674475514162,0.23205311580869753,nm
6.467053000000078,14.595709113316095,60.393954501076195,112.67744185759572,1.736673761076954,1.2576573608771882,-2.7384093473975177,-0.423238065395247,-0.18079516661163078,-1.6735837972727163,0.23205311580869753,nm
6.4860009999999875,24.7553677114295,62.67900670808504,106.95379236149984,2.0089171200623164,1.8001855545076777,-2.4663438403421636,-0.3419231849580567,0.5508251052833597,-1.5127033411565747,-0.2,nm
6.495514000000071,35.1924743710455,62.483134935552954,109.43988417545229,2.3061316708957937,1.5367230369646672,-2.540356723743056,-0.26660595222174427,0.9256838357564078,-1.4363488962524564,-0.2,nm
6.505006999999978,48.54775841330827,60.860328505325576,113.80100573251798,2.2224811251727217,1.7365179040846,-2.1220349048774865,-0.16856117664430986,1.2976161506728323,-1.523102566036366,-0.2,nm
6.524039000000016,73.72797009904166,54.141417232601526,122.5568909313661,2.422916856986375,0.5280351845678003,-1.4335144019463195,-0.019361498165164324,1.5189933536257165,-1.111271981227077,-0.2631142701501058,nm
6.5335600000000795,83.92641992169425,49.984940043457826,126.31816460964814,1.9010353161610414,-0.59489630244795,-0.7649516503180674,-0.0230478318094177,1.5042255766705586,-0.8367095803329624,-0.2631142701501058,nm
6.552582000000029,95.80545650855916,42.79583244476975,132.03077875435312,0.8705846817966476,-2.311472364334235,0.1959517490387917,0.08771062165114771,0.887874894301909,-0.01690260974929094,-0.31676139977769574,nm
6.5622789999999895,97.32539773209204,40.48790787542215,135.1595550095619,0.37151074552201246,-2.4318203460766354,0.46270684925957534,0.179121416054782,0.4827927293573543,0.46873299725273204,-0.31676139977769574,nm
6.571776,95.315932839413,39.173797528962425,138.0164639588625,0.1682948527332598,-2.5083662360859718,0.8193061541076462,0.405478286688356,-0.021629518437208933,0.8377670025691359,-0.31676139977769574,nm
6.581283999999982,88.75164637265131,39.05182669877353,139.3605333152062,1.0404756574785528,-0.70048649465828,1.2801311233500423,0.7829180654822366,-0.6542505665298752,1.0722455113328229,-0.31676139977769574,nm
6.590805000000046,77.39814539828575,39.89390771880897,139.21799590475933,1.4447064090339836,1.0561142918819468,2.0098794837940153,1.223891032664705,-1.2686221191106746,1.3540669922619055,-0.31676139977769574,nm
6.600300000000061,62.78726041875248,41.352131501980715,138.09938003470663,0.865464231645578,2.143506475104087,3.502491477438711,1.4805840349110213,-1.6796923145211706,1.606318355670865,-0.3623614599611472,nm
6.628848000000062,14.088153774124285,45.25423810072275,130.36087068982988,-1.9637883222579129,-1.0081492793222626,2.799942985828875,1.3262117426191742,-1.774187100590053,1.5449505063664242,-0.3623614599611472,nm
6.638365000000022,0.38650174931855,46.39245691032172,128.2521838071927,-1.2912065050058614,-1.9202581704666493,0.693724393748643,1.0419513368522582,-1.6192941532911946,1.4588450177645236,-0.3623614599611472,nm
6.647693000000004,-10.001192244230035,48.16621265161448,126.96317822275634,-0.41242082711454126,-2.034711111408145,-0.9375080126498115,0.5855106039351261,-1.3326391667161308,1.1871356856008164,-0.3623614599611472,nm
6.657206000000087,-17.2995448824744,50.738525616704734,125.98614855667593,0.5835850950576237,-2.146207203416805,-2.1369315167763188,0.15511913391282237,-1.0699638966858764,0.8251918115111225,-0.3623614599611472,nm
6.666785000000004,-22.404178306598478,53.663419019922664,124.4321121698119,1.26604354023658,-2.012171006353906,-2.674053779888711,-0.11439607681100732,-0.8504814290400569,0.40834493674834055,-0.3623614599611472,nm
6.676294999999982,-26.2066539611625,56.22234524673578,121.58338058171259,1.5697953346784932,-1.6409583753195658,-2.9317988353856457,-0.18976879845234665,-0.6469293832052944,-0.03750781651697671,-0.3623614599611472,nm
6.685802000000081,-29.17215552824819,57.83258452665945,117.17308952277051,1.6257009435443204,-1.12326960410497,-3.2216958135077123,-0.12177616107519947,-0.440115281974328,-0.4766400563544986,-0.3623614599611472,nm
6.704818000000046,-30.185719510216355,58.01004596134806,106.98332754612403,1.510931634815286,0.6371477855813632,-4.383340587322941,0.023952252497429705,0.10243263811327365,-1.1943698195134405,-0.40112151111708094,nm
6.723840999999993,-15.87793327925531,57.14892500580517,107.7771015044827,0.8820120724283339,2.694074722926061,-4.362071657491207,-0.2167625706460918,1.0120199684721936,-1.0845852367210527,-0.40112151111708094,nm
6.742780000000039,11.598376591806785,52.86845402012509,125.02921882805657,0.5319864516478077,1.7841057988783875,-1.5506742259878763,-0.2605556935178394,1.6773337959329704,-0.29667517234049423,-0.4340675545996246,nm
6.771505000000047,27.97868227046491,36.74132141509039,141.20971788429205,1.6708727982302276,0.389893599100755,3.3731328570101162,0.743160786180774,0.688683200411329,0.7819570132153335,-0.4340675545996246,nm
6.7810120000000325,22.775346133239044,34.198396905170405,143.8834387634107,0.956728624424369,0.5128284615665322,5.277475058417249,0.9841333923743255,-0.11314433059596408,1.1580943591005433,-0.4340675545996246,nm
6.79051800000002,13.910540694116637,34.050122157602814,146.2944319495622,0.19585682613976446,-0.3800016334150612,6.379978002974894,1.2233672676578289,-0.8176572528986153,1.4781768732273244,-0.4340675545996246,nm
6.819063000000028,-25.052291593898552,40.328412866049675,145.62437361046477,-2.3235797285020805,-2.9582756703214566,1.9847384311134155,1.456503538597229,-1.7443922993143801,1.3798868268017574,-0.4620716915597867,nm
6.828388000000018,-38.18559389882007,43.38678697329822,142.4723318125619,-2.076449980520559,-3.3675666862350697,0.2859030152934857,1.2271888737062244,-1.644046190021445,1.1277835665767653,-0.4620716915597867,nm
6.847490999999991,-61.866293386953245,46.86419274515664,135.1251003643865,0.7404722441051014,-1.0616141230830334,-2.2308999250463373,0.9236971377630333,-1.2396295162085031,0.8044670875421344,-0.48587520797592454,nm
6.857003000000077,-70.93036584526206,47.94671363577993,130.9581661297721,1.1639971842022347,-0.6109609747068385,-2.4738720665229184,0.6791980604314686,-1.0453268184479956,0.5039925139857968,-0.48587520797592454,nm
6.866508000000067,-79.15350870285512,48.85039996644165,127.07201538872822,1.724834688261395,-0.07592063378537192,-2.406476506531104,0.5488791205522436,-0.9616867450834,0.4032507962921801,-0.48587520797592454,nm
6.876029000000017,-86.6065239735767,49.78014688223077,123.52164960072501,1.9592189328755094,0.47722672557712587,-2.193051204979838,0.4110790122868112,-0.9003324916819826,0.3765205828744627,-0.48587520797592454,nm
6.895035000000007,-101.45674231834582,52.00180309919509,115.88116635461759,1.7536047284484166,0.548854652098416,-2.27368117639561,0.26189218929761277,-0.9683725811517745,0.37920331415805375,-0.5061081969296417,nm
6.904555000000073,-110.25143092323559,52.81675873177018,111.53711852987483,1.7612841351736366,0.8510509335215837,-2.28992235454339,0.28259229966615546,-1.0474810927957172,0.5007731128854607,-0.5061081969296417,nm
6.914070000000038,-119.0448285017768,53.08712803840438,107.79487962654531,1.6006893181676165,0.6885991739634622,-2.6529283738732063,0.3050425093230045,-1.01568062520997,0.6562283027868558,-0.5061081969296417,nm
6.923568000000046,-127.40613108505079,52.47404414541567,106.10119671962717,1.6793495402535765,0.32647178769570795,-3.099108021569731,0.41255198146958727,-0.931558034143925,0.9809053236574401,-0.5061081969296417,nm
6.933081000000016,-134.21168824163837,50.805630499728906,107.68578294057419,1.5540228737977704,0.7053096727967652,-3.001861027855991,0.5652928271068224,-0.7121846745580462,1.3993432395924053,-0.5061081969296417,nm
6.942586000000006,-137.75067280457876,48.228960393898575,112.77826193910008,1.3627494060125356,0.5472312162527674,-2.9711205903309112,0.6443777783647369,-0.2545628936541216,1.5993636064722505,-0.5061081969296417,nm
6.961534000000029,-138.187562744751,41.48782568711098,129.7944721194569,1.3285922757737088,1.0104008186644735,-1.4534022903595853,0.536680237631349,0.46221814256150606,1.8813351761688055,-0.5233062375403013,nm
6.9712240000000065,-135.8328652722586,37.867618696207415,139.33423731319166,0.7705630496390452,1.0122178301866327,-0.1452252448028935,0.2672892687385528,0.7670692441655171,1.705864820997615,-0.5233062375403013,nm
6.990248000000065,-123.91681493058088,30.179145277097017,152.98340853043211,0.7552104356371988,-0.7328035643360657,1.534959373435805,-0.6624232663462715,1.2777301700019896,0.4139627767185185,-0.5233062375403013,nm
6.999756000000048,-114.44540485823758,26.618191476886306,155.3522689206978,1.1062611813108651,-2.7901932401404355,1.2427908113278219,-1.1863686864711431,1.3708493697451856,-0.3622765560154246,-0.5233062375403013,nm
7.028301000000056,-83.15731616494259,24.410357691105734,148.8501652601449,-1.0479671416590592,-3.583454906401303,2.952949285885387,-1.7098422970563547,0.6489572510604613,-1.6261570160900587,-0.5379245720593618,nm
7.037793000000079,-75.61205935349834,27.996007928153908,144.15096097262148,-1.0888716426173848,-1.7246511012319146,2.8806013381009974,-1.5282624900128134,0.149974618710301,-1.6053681362068863,-0.5379245720593618,nm
7.056815000000029,-64.14728067975304,39.02791803451788,138.10430525805415,-0.24922265943954033,0.6864446018259742,1.003055903741164,-1.4342951710509557,-0.3095459565813935,-1.0957992118215385,-0.5503501564005634,nm
7.066326000000004,-59.697063792364304,44.44267561497901,136.8370586012454,-0.15896881053698567,0.6319747522862027,0.23094578613547476,-1.224090524373409,-0.34957664819808343,-0.8451810555181442,-0.5503501564005634,nm
7.085181000000034,-59.84787114468265,51.23440414986191,132.21194839480026,1.2743630185140473,1.428379486490488,-0.7413282437917063,-0.21839226950186794,-0.5247106924189392,-0.3371042992919407,-0.38123233365171827,nm
7.094684000000029,-64.88116799794655,52.10249560276209,127.46023504819775,1.2915897010942874,1.2461037662174868,-1.0574025849204924,0.26596485801597575,-0.591279481620948,-0.15915569444356586,-0.38123233365171827,nm
7.104196999999999,-72.95409303856393,51.34127086466862,122.14946467024858,1.2393865219507103,1.4039115354448883,-1.34416439732489,0.6954847731823939,-0.7347846111902571,0.2069350422488192,-0.38123233365171827,nm
7.11371100000008,-82.25168397578375,49.62318583542053,117.96792885519376,1.1963286945998457,1.8482259230905107,-1.497966184564237,0.8897420014422793,-0.8525176893951935,0.5995264295420507,-0.38123233365171827,nm
7.132808000000068,-100.57846853136395,46.83191755608075,116.05085931352804,0.22145145372187638,0.5424654282629543,-2.714597620984432,0.7626450576136913,-1.0469500575760888,1.401316150222575,-0.23748218431519996,nm
7.142316000000051,-109.96756087621101,46.240640570049685,118.26378041155361,-0.14830165900764194,0.44058563980702703,-3.0779763036049395,0.6960468615702313,-1.0968879867059098,1.80623886332961,-0.23748218431519996,nm
7.151821000000041,-118.83326089688823,45.766814957096216,121.37653338753019,-0.24960400808145566,-1.0931074414165156,-3.8627556923981627,0.6961340151903163,-1.0229202798097825,1.8986192651238172,-0.23748218431519996,nm
7.1613439999999855,-127.6164125102339,44.57109139843137,125.26046982401338,0.9861469829845663,-1.501878343084746,-3.6484205143744513,0.8819570752506862,-0.9049068080850757,2.0225603779325705,-0.23748218431519996,nm
7.170777000000044,-134.49464469291118,42.217163469782726,130.93204361015665,2.1580434496094534,-0.17116648949390575,-1.9774508258784922,0.989927164104489,-0.49689664998461397,2.078944727774431,-0.22973717373616293,nm
7.189966000000027,-134.82459141014436,34.5937015173409,148.60286205282344,3.1474019172733976,1.0233340519449738,1.0973893342990892,0.19340618542528615,0.8791930040710233,1.681840625702574,-0.22973717373616293,nm
7.208993000000078,-119.20126917072754,24.39434129253592,162.42962808425355,2.1337787215660535,-1.0542630761649145,1.041306221382887,-1.2204208650034485,1.6195000882307118,0.059381139598741424,-0.22973717373616293,nm
