timestamp,roll,pitch,yaw,acc_x,acc_y,acc_z,gyro_x,gyro_y,gyro_z,motor_input,markers
0.0,36.0897406679614,1.7792993289285912,125.38661646013934,-3.1933099530477085,-0.7190182311054146,0.970593629580896,0.9034185315229832,-0.9717307058604316,0.5400946340788544,-0.36049068398644324,nm
0.009522999999944659,26.855349963564795,1.1435717779177397,126.95541526740564,-3.347515711982711,-0.7536732536946841,4.507405132130273,1.1940317129054971,-1.4179714952092808,0.36051299926360014,-0.36049068398644324,nm
0.019022999999947388,13.277928414037648,1.7694690922730751,127.21846350004918,-4.285032899237064,-1.9507478588284561,5.017679930475969,1.5401953983502172,-2.2444444058219957,0.12151054931950697,-0.36049068398644324,nm
0.0378729999999905,-17.970062755048883,2.9300245793381148,122.38746454277984,-4.878473680615713,-3.0198253446005205,1.2316315909972018,1.6841749306822462,-2.57101083555147,-0.48597246468439403,-0.4231688024622299,nm
0.047404999999912434,-32.203326172895665,1.3778767173418338,119.00092291778347,-3.775828906089542,-2.327112477484171,-1.139950460908849,1.7205058040702699,-2.2926977611749533,-0.5672315714675789,-0.4231688024622299,nm
0.05697399999996833,-44.2491147306795,-1.309356168316769,116.88264242181505,-1.6210988020785257,-1.1584231312680469,-2.3338370056936615,1.6045608538818008,-1.8807403954471829,-0.42112691295678767,-0.4231688024622299,nm
0.06649799999991046,-53.371802674822945,-3.5720032904204326,116.97103928422682,-1.1663421886597416,-0.47950106120615194,-2.158811843590885,1.2363353772832162,-1.417564345098965,-0.1609736175357997,-0.4231688024622299,nm
0.076012999999989,-60.55828590978534,-3.8952199904704448,117.62379616904094,-0.6484430140429587,-0.14754182225084123,-2.0201884764037654,0.7210166068040852,-1.2439026589533295,-0.051958434592028716,-0.4231688024622299,nm
0.08551499999998668,-66.2230554400674,-2.1395281512901265,118.20718793813239,0.5975746521635851,0.44790582961984604,-2.0318421196212078,0.22418239532749545,-1.1648589839342753,-0.02769564997097693,-0.4231688024622299,nm
0.1044449999999415,-72.12379001134124,3.7331241182587807,119.3177409991133,2.2444980744213763,0.4517029238683424,-1.884824120939249,-0.29201214798572406,-0.660933309296092,0.06281674170592001,-0.4764452031666485,nm
0.11395599999991646,-73.09088166807621,5.44777955377966,119.7883988921574,2.9462260828165987,0.5275497467099621,-1.832494160016506,-0.2026805232692612,-0.3379077525264797,0.04794762883504012,-0.4764452031666485,nm
0.15201600000000326,-61.14779432586905,-0.8661540548998651,117.76653303207596,3.3720096121920258,1.5431546969850891,-0.7598028373800307,-0.26260754136348946,1.4567209098316658,-0.21010927713084365,-0.5217301437654044,nm
0.16152499999998327,-51.38685454546967,-2.0198862238051642,116.48316588878181,2.15957036505517,1.0798905074985952,-0.10051409488989302,-0.6847399390455574,1.84500723209163,-0.1918609778072628,-0.5217301437654044,nm
0.17120999999997366,-39.745597275445775,-1.7915664955244275,115.35397259100311,1.3738265466877975,0.5913171966528664,0.45016591406247,-1.0529628174299785,2.07960459072399,-0.07341582919533615,-0.5217301437654044,nm
0.18071499999996377,-27.706570063626085,-1.0093734612524765,115.35538955787526,0.8887950432896776,0.5349224852187883,0.8391172408817992,-1.1641397395484685,2.117117984943971,0.16058960500412692,-0.34875078766469836,nm
0.1997440000000097,-9.135713433551476,-0.43038703439005466,118.50177918607665,0.1905159444503186,0.9072427409569107,0.6917332398222619,-0.7347105003929743,1.3920625513038458,0.5095305322276735,-0.34875078766469836,nm
0.21876399999996465,-10.510989133876702,-0.5416087018122422,121.84811956284796,-1.8163518146774738,0.00949042168686796,4.062059680581337,0.4175277548424786,-0.6667710595356894,0.2614009769232756,-0.34875078766469836,nm
0.2282789999999295,-21.079005860293318,-0.6878011056593734,122.06665460742039,-4.475564660917784,-2.2007914664378747,5.5962664825716155,1.1494725118134868,-1.778095713630398,-0.032376901295832115,-0.34875078766469836,nm
0.24711500000000797,-54.37810842965972,-3.586010586588838,118.93085861739573,-6.56955935103144,-3.8398491866653024,1.0392443221898422,2.075625325358181,-2.8076115819432776,-0.6327225879068952,-0.20171833497909822,nm
0.2662209999999732,-85.52228415184727,-8.821406182153174,118.61274085484307,-3.233346623975789,-2.2237751214253416,-3.5426985918702973,1.8787492203213403,-2.4087067784461254,-0.31395551901092533,-0.20171833497909822,nm
0.27573599999993803,-99.03555388816238,-9.725521135700813,121.01690827334853,-1.1767521646345849,-0.6025036331421054,-3.0496889742722075,1.492803842178024,-2.2210126351849526,-0.04567681686982617,-0.20171833497909822,nm
0.2852429999999231,-109.35391045303595,-8.75747000565385,122.11680763549977,-0.324859295868748,0.28220595788962055,-2.672730815039412,0.9093981791545759,-1.8348796301638448,-0.1976685367279556,-0.20171833497909822,nm
0.2947589999999991,-117.24418075429844,-6.812521014208855,120.9373208846765,0.7959884439223284,0.8531449399923922,-2.2669089619742833,0.49215942847392197,-1.5357582675988675,-0.5335600984322094,0.2,nm
0.33270199999992656,-134.46076599955185,-1.0528465497603547,113.27966606523081,2.543993888391699,1.0565579408879406,-0.3102322658985079,0.330325718035948,-0.652688601384116,-0.16649634498783453,0.2,nm
0.3422239999999874,-138.27152587153313,-2.1594560204173248,113.82124861540731,2.7306772563470063,1.196372286477362,0.22343564005648103,0.5078043153183387,-0.6102618020223574,0.08690074418458461,0.2,nm
0.3517229999999927,-142.76674062409757,-3.159341457528807,115.60229065096085,2.7316348167650797,1.3657561444557889,0.12491553682042976,0.5576954771762364,-0.7325610862536501,0.31450568959244535,0.2,nm
0.36122899999998026,-148.81772660120143,-3.547192022613209,117.93491570768299,2.6002338269956504,1.4585444751187395,-0.023596508542865862,0.6139023061184957,-1.0442358716871358,0.39562018929084514,0.2,nm
0.3802650000000085,-165.13652161198826,-2.435269943934678,121.29918219332514,2.7210255443667326,1.0777523210508846,-1.03285105149871,0.7436292856581573,-1.584986295501524,0.175553243055592,0.26471983453589537,nm
0.38977299999999104,-174.73360448311533,-1.4200786847371936,121.84440284393261,2.9887590020303776,0.9190397666684649,-1.6591059207688785,0.8319589695478408,-1.7413678402412298,0.0442696414304305,0.26471983453589537,nm
0.3992919999999458,175.69247042610402,-1.0455717510303733,121.93998930595876,2.7925298630594946,0.6723312398938855,-1.338385020242679,0.9482751255694695,-1.665617346878621,-0.022137135043606187,0.26471983453589537,nm
0.4184769999999389,163.96675863225443,-3.4245745937076877,122.96905379314879,1.2366949146647084,-0.26016215590621783,1.4836006450393824,0.717544390800229,-0.5383742828591627,0.12202863167212312,0.31973169389140643,nm
0.4280039999999872,164.50858192109797,-5.242275834367126,124.41584767313823,-0.0049060064436519885,-0.6399613720136094,3.4012658419313375,0.2429815238314005,0.29196055987188896,0.29781079360207513,0.31973169389140643,nm
0.43750199999999495,172.1293989893077,-7.258894193583063,126.125914440367,-0.41786167970911964,-0.04305821267499953,5.5377313261875,-0.5460341531136642,1.4706621453051152,0.5077956289126418,0.31973169389140643,nm
0.44683499999996457,-173.2056471677403,-8.796534373040352,127.01665008206143,1.1316253510638214,2.5200708266437664,-0.5607435345812691,-1.4852469936690798,2.5162371218175403,0.5870651855360915,0.31973169389140643,nm
0.46585499999991953,-136.86860559303759,-6.758212218168656,122.87915826511971,-8.417749168903514,-0.42122735652471993,-4.016550991843149,-2.6382644929545784,3.0277868232276455,-0.2968343915116626,0.3664917743435908,nm
0.47545900000000074,-116.42276617334599,1.6087229879663647,117.5413144638079,-4.966035526240757,-3.0293448602401463,-6.293514969655756,-3.493157334440929,2.701853266981599,-0.869944023935467,0.3664917743435908,nm
0.484882999999968,-99.51067804243382,9.493407968571702,118.86609904225159,-1.6231296037954326,-4.238100442459536,-0.48192978874192516,-2.975366277146873,2.2307970340713967,-0.06367630130277611,0.3664917743435908,nm
0.5039140000000089,-60.40739690315323,10.02098300948294,131.24530518683525,-2.40931835802862,-5.422248117592604,0.7685473024464208,-1.98690024037904,3.245858241723391,0.18501714823519927,0.40623784272794755,nm
0.5136039999999866,-45.05063977017746,4.950992418569039,129.43526908213948,-1.3723879966028762,-3.6864595799116056,2.6890437661712165,-1.20554074551847,2.979131105595098,-0.7613465527287937,0.40623784272794755,nm
0.5231149999999616,-30.842790319095133,0.4312453713631991,122.43073217901687,-0.0353473910384722,-2.0291687046034914,2.617961799523622,-0.9404188532311694,2.833071233026398,-1.5279767413198235,0.40623784272794755,nm
0.5326149999999643,-17.09596942015485,-1.3826668849799826,113.4343443147251,-0.3773753926886373,0.6950594709613127,3.7844623874324683,-0.9717392427488423,2.6050131484748364,-1.7690557611657352,0.40623784272794755,nm
0.5421119999999746,-6.6876435521122515,1.5721580656522196,105.63795600195971,1.4779412090313926,2.1697950484291044,2.8242418627479444,-1.254813427546029,1.7693731440432907,-1.5593392279422909,0.40623784272794755,nm
0.5704769999999826,17.424058842976184,9.07904446019877,106.03437395824548,2.178782980409601,3.1137249739497777,-0.06124934358684882,-0.31279841727405283,1.8662289288838725,0.3919355171445136,0.44002200085465076,nm
0.5799989999999298,27.34256426417199,5.7909741314897545,110.29143237980149,2.7438537896546364,3.18560442855216,1.316312441685605,0.009871314343448706,2.077308054513014,0.592797600947566,0.44002200085465076,nm
0.5896859999999151,37.36403435235581,1.8254404051534272,113.4779961677165,3.2165100253170538,1.8741981237412446,1.438991643496133,-0.011664060673585405,2.154576011548454,0.5028674356736635,0.44002200085465076,nm
0.5991899999999077,46.79192469177853,-1.8505635084407075,113.82889862941299,3.5439082770790704,0.6917005227182274,1.598472803518798,-0.08473891878344887,2.0249660282783,0.0707799050744726,0.44002200085465076,nm
0.6085299999999734,54.435281792409285,-3.310550584368642,111.80202345795132,3.325464793080936,-0.037351917604324804,0.6651632038403109,-0.3236371484260254,1.5231543179105718,-0.33602277755995746,0.44002200085465076,nm
0.6275499999999283,67.45800750418333,3.2888443061397217,109.37609005752569,1.7154598408880515,-0.771555119595935,-0.4170081338144226,-1.2930612824361611,0.8825640838062815,-0.10578692686775827,0.4687385352623485,nm
0.6466609999999946,76.03888990135256,11.658758636967745,111.18119579295308,-1.0940917901791685,-0.41218890774448247,-1.7938745961353144,-0.8777729327549374,0.4047962916841249,0.11007922856645033,0.4687385352623485,nm
0.6655919999999469,81.91619706833002,10.62035407688981,115.11157708191388,-3.236849077571022,-0.5928823179965351,-0.8671586614160939,0.11491854742479725,0.6325863295313121,0.37000768765656306,0.4931475895088916,nm
0.6750929999999471,82.06074501391518,7.13922632698319,116.88652141339264,-3.7498857901290936,-1.0252513482563674,-0.098528025944971,0.6146919449054351,0.33028931046158627,0.3888036703250505,0.4931475895088916,nm
0.6941229999999905,75.67685929670355,0.8584164963565334,116.46032750458923,-2.7416005732254094,-1.5733593984400942,0.2522760371923334,0.7904309794291017,-0.4146324851434779,-0.177990626040138,0.4931475895088916,nm
0.7133289999999306,65.03341924459309,2.6137406874101585,111.82721624313636,-1.6445705523565202,-1.6270287558966363,0.8331754451940886,0.11555567579393872,-1.3293661698578676,-0.5523957121385612,0.5138952856184532,nm
0.7226559999999154,59.49679011597613,5.8410894083112135,107.95517749002775,-1.4665354812593225,-1.6565694232819073,0.06671003678036355,-0.2274205734354443,-1.260480314647397,-0.7552158413168334,0.5138952856184532,nm
0.7323489999999993,55.843237505605,8.46609566822911,103.29043133957862,-0.36227838225163933,-0.6507481774429371,0.9737662984055181,-0.3067228837698082,-0.8422164405918284,-0.9408301070108308,0.5138952856184532,nm
0.7608989999999949,52.7780452399986,9.60999042515671,99.41309234268107,0.23840902600546435,0.4763604969784223,-0.06168886549015212,0.13404204405133688,0.2727980346901443,0.22218277994006527,0.5315308273115806,nm
0.7703859999999167,55.65704057393937,6.936112677752235,101.68533487020164,0.9885629844231344,0.6553450518914512,0.46897288667399417,0.42331319576971316,0.6580920451931646,0.42353015031949637,0.5315308273115806,nm
0.7894109999999728,66.02654439398358,-0.8448341366535586,104.51766033464824,3.944709560763222,1.2953830116949172,1.5538003447335234,0.45272908908085974,1.3379332651411553,0.255184820481921,0.5315308273115806,nm
0.7987359999999626,72.21783354712866,-2.938200636245547,105.364498159276,3.5017455915106965,0.6551492620393516,0.5981139394755016,0.08977365731713426,1.3050979772828248,0.2913248510818942,0.5315308273115806,nm
0.8082489999999325,78.2942909882537,-3.099489313358436,105.64159849218258,4.2147756105276795,0.9210125512503959,0.13184899565053235,-0.2897228391546648,1.1805333369645468,0.19807528597026855,0.5315308273115806,nm
0.8272660000000087,87.98538199703819,1.05189692336407,105.87855992919584,3.171272332050214,1.4632832437008527,-0.7495881378689196,-0.7213342042313452,0.6433476284701858,0.13666764633045755,0.5465210377507389,nm
0.8462979999999334,95.88822005988197,5.204365883368952,107.61036995951105,1.3994546009362072,0.9376520782115256,-0.7139640821640598,-0.5549911298454123,0.721296089443271,0.1409439739802231,0.5465210377507389,nm
0.8559910000000173,99.73604182869369,5.54431706048218,107.87938145159161,0.09030999253623913,0.45077938719654576,-0.47558541191165643,-0.29694217315573584,0.7103921887642561,0.037008631347256356,0.5465210377507389,nm
0.8654960000000074,103.90567675322289,4.745254748689229,108.09758695946508,-1.2936609205002334,-0.14536301675258895,-0.021475798375517524,-0.10229389209277183,0.8404006681336117,0.032072027216013946,0.5465210377507389,nm
0.88450899999998,115.60749352074629,2.157390037498197,108.39484691712182,-3.073726877602387,-1.1681697407279092,1.7390077896591947,-0.17188911316728028,1.2711994987344994,0.01487819183936796,0.5592627166240234,nm
0.8940379999999095,122.99125385940903,1.9471120091266632,107.79717595638307,-3.1507978547994013,-1.0805421301999873,2.3135386804303524,-0.4130530935002657,1.4186289612436869,-0.08037351496453013,0.5592627166240234,nm
0.9130569999999807,141.97176878972633,4.565722514317009,105.95888094722474,-1.786567818437922,-0.41091976614363634,1.953383928687074,-0.8900032955217237,1.8779384150693539,-0.16579708109925806,0.5592627166240234,nm
0.9225689999999531,154.54557225470546,6.242062916644399,105.14132937645854,-0.43399235849309836,-0.3050690823831964,0.2540524303218933,-0.9756483854625391,2.3313103962476163,-0.22172238391874374,0.5592627166240234,nm
0.9319769999999608,168.8388931822618,6.961782307448681,104.3582725729852,0.39848286254167997,-0.9620691148398657,-2.76931550820539,-0.840058336958125,2.7177801526815992,-0.29989646429061156,0.5592627166240234,nm
0.9414869999999382,-176.80539641063706,6.401869359441879,104.03915869114493,-0.7833577501597281,-1.910547435850175,-3.53231227148353,-0.5916023559771388,2.7931476555428403,-0.3977940949723354,0.5592627166240234,nm
0.9509989999999107,-162.32318902070696,5.324252915324439,102.82272252933625,-1.530112957263168,-2.373150851377078,-3.1642750038936716,-0.46075834312246056,2.8538361814951863,-0.5383024699208586,0.5592627166240234,nm
0.9699319999999716,-137.34453223931814,4.056452892949581,98.94276389482344,-1.5827597078490931,-1.1879200191031465,-0.9919398945251069,-0.28489543570070525,2.258418776427656,-0.5919849545263075,0.5700931436663152,nm
0.9796269999999367,-128.2314881864385,3.419143742463033,96.61511691248745,-1.1156554668395537,-0.5178743644275599,-0.27142095693607016,-0.12033751906334551,1.8205870321835633,-0.5839621191225844,0.5700931436663152,nm
0.9891349999999193,-121.53028115619283,2.727688321353121,94.44927508530849,-0.13208131046926327,0.009648112423919063,0.4169632664194627,0.008374031666721692,1.3464784993698637,-0.5050941953490411,0.5700931436663152,nm
0.9986559999999827,-116.99413582220686,2.101493886245472,93.0007863222614,1.0046540887957611,0.6717064951517743,0.8216812446292933,0.06602400845457451,0.9133809485167077,-0.328169137682069,0.5700931436663152,nm
1.0081659999999601,-114.34999495376837,1.4260529161451463,92.2084661037169,1.4546416776330584,1.162677586500904,0.6993855813292759,0.1110243520553292,0.5346091655591763,-0.1749716388548761,0.5700931436663152,nm
1.0365279999999757,-117.54306109336471,-1.9312209271932805,93.61774186768777,3.495282699759144,1.4183678322033495,0.688391763180909,0.28611174172884096,-0.4505386468768824,0.25461032902816005,0.5792990066522633,nm
1.0460239999999885,-120.22718107596602,-2.960722023218639,95.81177317754155,3.2457783234269417,1.50851003750892,0.49108912096862833,0.24989885980167584,-0.5179758566956655,0.41613572980709174,0.5792990066522633,nm
1.0555369999999584,-123.05851531396493,-3.4536311358365674,98.22233660215366,2.8431653661432206,1.5118781289273384,0.016154561759175744,0.16738334263627883,-0.5494812624567886,0.4507501858341691,0.5792990066522633,nm
1.065044999999941,-126.22124842144972,-3.2137012555703057,100.40149525770093,2.30497424628063,1.2145525379793314,-0.7931241311768059,0.05505204699948127,-0.6313509441672266,0.3993652571491848,0.5792990066522633,nm
1.074555999999916,-129.49378428292624,-2.1105502050013314,102.52729985128984,1.9538851867489653,0.8851935271402473,-1.1950067671977067,-0.08494242178422663,-0.6852702322291422,0.34878900602559654,0.5792990066522633,nm
1.0936479999999165,-131.3598384386557,1.1667678080302017,105.01192848486068,1.4739402455658628,0.26155032318591204,-1.9259404121247536,-0.3252241926589531,-0.04172139294064369,0.14885138753849814,0.5871239901903191,nm
1.10316499999999,-127.91711456736711,2.4742715262964543,105.44170427409996,1.0493818333827192,-0.12010542408319436,-2.3066118145295182,-0.43398567595025633,0.5953857908278981,0.04622865222074862,0.5871239901903191,nm
1.11267399999997,-120.1763873587042,3.5040017722983876,105.73542509276321,-0.9191885700512137,-0.9239532513765613,-3.688403717186063,-0.6136683662724557,1.4351137043336515,-0.014503317651294543,0.5871239901903191,nm
1.1221919999999272,-108.02103524627103,4.194818246319757,105.9715951226862,-4.1424873533412,-1.9040171322322812,-3.972847420422842,-0.792616177741531,2.298658405128706,-0.08504829464821101,0.5871239901903191,nm
1.131619999999998,-92.03481520680492,4.505506302806079,105.89250746376655,-7.1448417854628525,-3.0673057233790577,-2.5922662472451563,-0.9288730929862239,3.0535584427197047,-0.20977082712057865,0.5871239901903191,nm
1.1508289999999306,-56.364127267585964,4.5628191018431155,105.00068442365485,-6.199870944243116,-3.060882501981469,3.309191763626904,-0.9207680599961423,3.380012041529031,-0.3777421667425571,0.5937752261976667,nm
1.1603430000000117,-40.4426011007173,4.73232782868262,104.03337554216851,-3.3663009990470063,-2.0846592289404926,4.780124524667251,-0.8295571006474105,3.068823585060948,-0.450772492014928,0.5937752261976667,nm
1.1793549999999868,-14.608160689014198,6.044028810066542,100.99630009971388,0.31860611664828337,-0.16279603116020222,2.959726879106094,-0.6269118377188186,2.204561148190165,-0.5575957551118519,0.5937752261976667,nm
1.1981929999999466,-0.28155896120923657,8.582423591467451,98.04845117761938,1.7990865517570476,1.418379173587402,0.15784092105890124,-0.44308698396672097,1.1518854869552386,-0.4167856080069415,0.599428776803912,nm
1.2172130000000152,8.240202332751698,8.906018212856813,98.0930756550033,1.8648338990477777,1.7919535147264976,-0.5951509786624491,-0.021167902165244563,0.7739283830400827,-0.027694796194338348,0.599428776803912,nm
1.22672799999998,11.758669869060352,7.4116413524629765,99.17749298117393,2.216180840050796,1.563309420626544,-1.0543374026600025,0.1911142145408695,0.7348010983780724,0.11698389452910622,0.599428776803912,nm
1.245939999999905,23.365632881194255,3.2535816742410852,101.91242621793383,2.6024090954630004,0.1995094382593272,0.7652545829787973,0.1702664012910116,1.3769423171088002,0.15901567266370165,0.6042342948192206,nm
1.2554450000000088,30.663045446650262,1.4104569193016672,102.6571285822812,3.333654795374844,-0.30739275769590124,1.075179007605081,0.04947173437029236,1.5057607819188543,0.08947916228625412,0.6042342948192206,nm
1.2649569999999812,39.3270966754613,0.5681018368617753,102.99367563698533,3.834282809245574,-0.4860859242329185,1.3094119891373117,-0.22100144453248788,1.7294518407780395,0.03733753018958806,0.6042342948192206,nm
1.2744679999999562,48.922001861710065,1.101848140010644,103.08782102813525,3.9498250807943993,-0.3523276685238405,1.357468043870162,-0.5328507242925028,1.84948532514155,0.04961639054650246,0.6042342948192206,nm
1.293303999999921,67.14363518969515,4.485632192294912,103.90297425330844,2.4721817107792647,0.630907694541791,-0.4570756314805452,-0.7675011876038768,1.6749872485627302,0.1350305671533663,0.6083189851322329,nm
1.3028189999999995,76.09354240831597,5.796097699530973,105.19291365702962,1.27653302423021,1.0058924057190635,-0.7034043901408547,-0.6936395884907203,1.665600818990997,0.21555537071722664,0.6083189851322329,nm
1.3123429999999416,84.1521979124376,6.133691726614184,106.96817135968405,-0.21089016791002352,0.9617886941274258,-0.8810493858589775,-0.5023434751965461,1.5257792377979795,0.2979336028204576,0.6083189851322329,nm
1.321837999999957,91.20940812413265,5.368547116363704,108.75045644943874,-2.4408132003205267,0.2876207210276788,-0.9152300249727231,-0.2794986129552821,1.3862931502198843,0.3177018686939833,0.6083189851322329,nm
1.3503619999999046,107.91704048740988,-0.045062629768845966,109.94006667892414,-4.621508448256392,-1.677794678660153,1.4053128703648585,0.04629282425574518,0.8817915864479712,-0.03812907289653374,0.6117909718982933,nm
1.360055999999986,111.55798284039422,-0.8498606253883552,108.58828913882195,-3.01057370516036,-1.4833154094230365,1.3973457631334938,-0.08661764103931513,0.7414079414396466,-0.2170157558814847,0.6117909718982933,nm
1.3695679999999584,114.33753665091976,-0.48372332029333837,107.02367266413391,-2.3782060687594826,-1.160578414484209,1.2384956705747943,-0.23888812925595457,0.5077457861762122,-0.2654366595798427,0.6117909718982933,nm
1.3885909999999058,118.25744318469665,1.8301119999277626,106.115769911813,-0.7352399265593602,-0.3741035749751712,-0.17712403405979213,-0.3466879454988768,0.32207547417714877,0.03408050817534126,0.6147421606494448,nm
1.3981059999999843,120.60939163394139,2.880613342868487,106.08367622754865,-0.24781883626712756,-0.16057758843757428,-0.47397600464559936,-0.3316850597293712,0.3943561679601922,0.030011874093302186,0.6147421606494448,nm
1.416943999999944,124.35438193331753,3.40737911866475,104.90438374606019,0.6416957081261375,0.17719025066725144,-1.0815844911020058,-0.060007393352275264,0.33499986156616474,-0.10496290536574533,0.6147421606494448,nm
1.426466000000005,125.50241628989833,2.3356302690461512,104.46724194996773,1.2108369106917538,-0.04821518315642025,-1.155710916963342,0.15016194053288864,0.2760890282822556,-0.04728034493394506,0.6147421606494448,nm
1.4454690000000028,125.86068671482943,-0.15849238354578063,103.9079802181652,2.2278444309679264,-0.45486372401607705,-1.25055515978314,0.2176278376511883,0.031663883754325134,-0.003399911111802265,0.6147421606494448,nm
1.47400899999991,120.55619185040572,-0.2506977311391019,106.61434043338227,4.025256022431858,-0.0677022638331069,-1.1801865242075713,0.04350911447014173,-0.5544665225564881,0.2824345137048596,0.6172506710879234,nm
1.4835180000000037,116.91801490423664,0.6534961536340105,107.8271615510119,3.7702671295025447,0.1396684703106139,-0.5375389344432558,0.0421388624559527,-0.7492482444745611,0.25560619469207546,0.6172506710879234,nm
1.4930249999999887,112.34770626625982,1.5008561293714602,108.92841307514057,4.11479062471451,0.612286793524465,-0.056782323474083074,0.1275441560472656,-0.9215143241329781,0.22981115290957224,0.6172506710879234,nm
1.5025399999999536,107.17624459483453,1.9116516608413028,110.2301192345722,3.3312606987237263,0.6502901718417912,0.2864189734727964,0.2698634707378103,-1.0023411363542267,0.27435386876179607,0.6172506710879234,nm
1.5217480000000023,101.3163141977052,1.0149046042077545,113.65336492457506,0.5561630607572372,-0.22551679397550722,0.7376993793111297,0.26615508087740214,-0.2722232191388001,0.3787662149855671,0.6193829049606303,nm
1.5407709999999497,105.21274807121144,-1.2682233529762845,119.60036943556874,-1.3544573661907493,-0.9690627227225052,1.4042244800011106,-0.05585787950318557,0.6368347410803592,0.7637524411224917,0.6193829049606303,nm
1.5597779999999375,116.29146805514583,-4.672697022754923,128.54903688325805,-2.164470066917242,-0.5115210134971494,1.8607756767637542,-0.4353929742944857,1.2642501213281414,1.105052256503912,0.6211953037524311,nm
1.5692919999999049,124.11083537941344,-7.692686425240664,132.28282874997697,-2.1932624299620413,0.24142355578466987,2.0150434729604134,-0.5406263638690919,1.5797807130576114,1.044022816531765,0.6211953037524311,nm
1.5788109999999733,132.5576613170768,-11.876511331125485,134.13215873561288,-2.7924809514992814,1.7659407874286568,1.5509428177192108,-0.520183661094408,1.7908241208781028,0.7986117094333417,0.6211953037524311,nm
1.5883199999999533,143.32923573627843,-17.45446469642075,133.98583076881079,-2.9570001378194295,1.8642132883202605,1.8604307865702627,-0.6337869628956874,2.27876097581779,0.6803511144185415,0.6211953037524311,nm
1.597654999999918,157.45237931744862,-22.656943129293854,131.51282643393628,-2.6007975415888085,3.1974906539815686,0.7831042663699468,-1.0405152036361753,2.6534843003227366,0.4774901440938581,0.6211953037524311,nm
1.6071569999999156,172.91951145481144,-24.16150213479031,125.26445853628718,-3.1655355857616643,3.281165867969401,0.3269477482743699,-1.5276822178291556,2.410811530279848,-0.014425793996130363,0.6211953037524311,nm
1.6166729999999916,-172.79020359772795,-20.903005756338732,118.18334246455991,-2.0175721021451487,2.711397511195201,-2.2490319405381656,-1.940489357681969,1.9040605030190265,-0.31483522677385223,0.6211953037524311,nm
1.6262609999999995,-162.72329843593891,-15.109817771421405,114.64531894702733,-0.8350244368788046,0.11749711792240805,-2.866458195362125,-1.8891988610721908,1.2009453099310172,-0.08290345005201369,0.6211953037524311,nm
1.6452899999999318,-149.08318981176905,-7.390929994545669,124.79594207195346,0.5232676819818427,-1.111792245745353,-2.805803180816315,-1.0507896097460687,0.9043236904891394,1.7400212297516233,0.6227358427254618,nm
1.6547029999999268,-143.44409596679418,-9.857149506219146,134.69974225764233,1.5378940728029,-0.6257535462950835,-0.9908006292370951,-0.3339873571343181,1.1759428760557296,2.149219445405891,0.6227358427254618,nm
1.6642329999999674,-139.20395910572307,-14.806022106001445,143.98089203864586,1.8314870206566118,-1.5744853507489938,0.2703208722241574,0.01687003842865064,1.2946032284396076,2.036226304187143,0.6227358427254618,nm
1.67374099999995,-135.1704856036281,-18.877974355627636,150.10699910161162,1.3703421732681438,-3.2633577298745697,-0.1355974170418231,-0.20488856319867704,1.1059797133699993,1.4584408959747808,0.6227358427254618,nm
1.7117869999999584,-119.49148775878477,-7.759754204036478,137.7466931121731,3.2479476507284684,-0.15388457005602577,-0.9162778258890392,-0.6879530372285183,-0.5731600275162859,-0.6668286812243602,0.6240453008525378,nm
1.730801999999926,-116.82539512408658,-6.561733848766954,137.02236086359545,2.656677844913109,0.3994095101799404,-1.9719402763396292,-0.1743565558019158,0.4593159750452617,0.16905771020491328,0.6251583402605525,nm
1.7404040000000123,-115.46461670384905,-11.142865299386028,139.4411096955053,1.7994875736313407,0.7595634994934285,-2.3611707493846152,0.41071673146367427,0.8641874791998763,0.5251867466846686,0.6251583402605525,nm
1.7498170000000073,-114.94136442038402,-17.676008818552297,143.6348139588632,0.4862202649600623,1.2955495508478767,-1.6963446272488187,0.7349537867347973,1.0888476242153458,0.8636938272686628,0.6251583402605525,nm
1.7688459999999395,-110.18638186447163,-30.605071252356563,149.6417072295698,-2.5185870471691265,0.74741378698502,-0.7344097257611181,0.13225456489847015,1.3499725517571706,0.6415506561491114,0.5657643490235008,nm
1.7783449999999448,-104.17545560519623,-34.834831050755966,147.05000606045246,-3.25104425754075,0.2559328268149097,-0.15206774411032478,-0.41741089905160156,1.2516907014959147,0.1319787178566176,0.5657643490235008,nm
1.7878640000000132,-95.15906052560015,-35.80471526899055,141.56206260292052,-3.8435790278631994,0.5150079244791095,0.827011949436761,-1.082540233637706,1.0156457564275,-0.053080127622043324,0.5657643490235008,nm
1.7975609999999733,-84.47871649551776,-33.01656460112033,136.69159507682355,-6.435825353124616,0.8100170379633284,3.6622319260470535,-1.6980152307995469,0.7322622637502971,0.23654066937970572,0.5657643490235008,nm
1.8259039999999231,-60.98161083093004,-21.898496472170955,140.665187131878,-2.671131479186073,-2.718004690022625,-0.2228024573713663,-1.4179649577579587,0.9255028704783201,1.2548394609642313,0.47236729780323705,nm
1.8451179999999567,-44.90669619448866,-27.66500854239937,139.8120968079462,-0.3260609781826566,-1.0232594060219538,0.39337336236920956,-0.7204551775279285,1.499132583419567,0.3054314440694336,0.47236729780323705,nm
1.8641470000000027,-24.346703149811216,-33.281433666295236,130.62236384743264,1.066751290947052,-0.9921266281302443,0.8484654264706225,-0.8249380859317139,1.5472009303433762,0.1161035500256975,0.47236729780323705,nm
1.8829769999999826,-7.469760403615259,-32.85490689783622,127.30811010850204,2.50334373764189,-1.4134352226091471,-0.31331478081517583,-0.9801014242484178,0.9397821376795673,0.830409168563009,0.43589196293478266,nm
1.8924859999999626,-1.4626917248031066,-31.92987573069427,129.10738280603968,2.99717111791673,-1.8519559577564093,-0.3984671580127668,-0.774404191519893,0.6843092672949189,1.0045833875665255,0.43589196293478266,nm
1.9020009999999274,3.930413801109918,-31.484971789313803,131.27469515963955,3.068535533014854,-1.6371460222853527,-0.8040174200878988,-0.6616116148357731,0.6450200956489315,1.0014022645277498,0.43589196293478266,nm
1.9115019999999276,10.79868142611143,-31.198405813873165,132.01866196893724,2.7838253811252462,-1.8193131244008727,-0.5184059729940883,-0.8234511078969251,0.840883322771309,0.8812636569611576,0.43589196293478266,nm
1.959058999999911,62.773060712977056,-21.824618814723348,111.12567082928273,1.399407814598416,2.4060336758660874,0.05414163104440266,-1.2595212555796336,1.5615257238068614,0.23718980013200458,0.37853449885413815,nm
1.9685849999999618,72.6012354914935,-20.935026620760404,109.6943958862919,0.6361261860630975,2.3105882685643033,-0.37822273413302554,-0.8038574565076124,1.656447481746371,0.455292604865078,0.37853449885413815,nm
1.9780849999999646,81.50981045894643,-22.599925613954202,108.99221698300204,-0.5919088496221866,1.4799486538030389,-0.3819890170542777,-0.23451210446364693,1.673445069709414,0.5215811427961439,0.37853449885413815,nm
1.9875899999999547,89.03674361038777,-26.16060977626305,107.81713242592323,-1.6983358364911918,0.5779080407612642,-0.026873459514890046,0.2427262650696726,1.5275115957048302,0.38808626626425025,0.37853449885413815,nm
2.0067849999999225,100.39293097939186,-32.8995108314008,102.67719835792764,-2.915483334523924,-0.5412232568610239,1.180435143773888,0.3215368563762265,0.9904022914874178,-0.05780757603008545,0.35613408382804856,nm
2.016314999999963,104.07471084130268,-33.166457133116744,99.42536099278261,-2.4825340560852904,-0.41742009263517593,1.4002103404039559,-0.06549896849202055,0.6164740728956513,-0.24898390194937933,0.35613408382804856,nm
2.0258099999999786,105.92704181506123,-30.61007852774421,96.70046088437685,-2.0016456991784226,-0.23865041820549768,1.6235119690843431,-0.5509992959406058,0.23972374026801713,-0.35016923212524553,0.35613408382804856,nm
2.044846000000007,105.73782388800953,-18.958607599491316,91.88559259574063,-1.8766992812211591,0.44723134200329706,0.8770184847468878,-1.314279214575466,-0.11180975732815367,-0.5342273565928395,0.3370937310558724,nm
2.0543409999999085,106.43908483740884,-12.497712560344398,88.95155015542716,-0.6011291661076708,0.5599411806678107,0.12116590638443832,-1.2953138515201776,0.12421773558842578,-0.5740624931696786,0.3370937310558724,nm
2.063855999999987,107.4110812883973,-7.680436358626059,85.77456790112367,-0.011583426977811749,0.3099563268143971,-0.5461009495023095,-0.9551332863894239,0.23522114056768792,-0.6145159516317682,0.3370937310558724,nm
2.082716000000005,108.78656677029608,-5.814663397609382,78.9996026902755,0.47808961246614234,-0.8334251731761089,-0.7171557001223463,0.08921134739389454,0.09767833641100061,-0.6984188068349324,0.32090943119952275,nm
2.092209999999909,109.27665742514593,-7.94945178509741,75.31930601883026,0.7133125952314512,-1.1663581218432841,-0.48036298717099873,0.439140858465645,-0.0002655630179803256,-0.7248229269164917,0.32090943119952275,nm
2.1112299999999777,111.85267821624001,-12.4957483931401,69.5323379251608,1.8292160652156955,-1.242185205726035,-0.48846077381640945,0.45884772963762444,0.17390067605179338,-0.44559861094490266,0.3071527763216255,nm
2.120743999999945,114.133233530015,-12.691169334103796,67.49248900298473,2.912603441200693,-0.975525802230192,-0.8335821797633186,0.1998187811655302,0.40006416186050203,-0.30890670694861383,0.3071527763216255,nm
2.1302559999999175,116.31755359236422,-11.269736025416412,66.02316435047882,4.25870081646863,-0.6203187824112437,-1.2924620950196077,-0.09212329355365334,0.5053843483572322,-0.1755935704694631,0.3071527763216255,nm
2.1397569999999178,117.25253849144006,-9.145855440120547,65.86309126065791,3.7439128461585987,0.08079323189375734,-0.9161671685716106,-0.3129306415497514,0.34214444023830226,0.03731205082668007,0.3071527763216255,nm
2.1587899999999536,115.36254222122965,-5.466032318041457,67.46570880981149,1.7689692776678225,1.4313652592242543,-0.09772872773620943,-0.38865915121254396,-0.07164197907031518,0.1332898966099023,0.29545961967541284,nm
2.168474999999944,114.559056482608,-4.071785663378031,67.01616817147449,1.5624272900350682,1.3374312553901666,0.24866911839883862,-0.3195592506706696,-0.0396165648828541,-0.09334873688174342,0.29545961967541284,nm
2.1970059999999876,114.7405656996641,-0.5568460272817427,64.98638062602873,-1.998035011605539,-0.13632967817331795,1.4241544610008197,-0.24183146307272108,0.18994486461026872,-0.08826880944178045,0.28552043652613207,nm
2.2065109999999777,116.52335870231107,1.998647104495019,63.991019497597726,-2.700745860180544,-1.1553818279162067,1.764231478599216,-0.30732353471441515,0.543036999688501,-0.16431419801221855,0.28552043652613207,nm
2.2160369999999148,119.35420744128491,5.631631202345135,62.72289155664293,-3.0647807741398494,-1.8703281054613683,2.1330628131650946,-0.3946560671933715,0.8327191042041289,-0.23304847117618863,0.28552043652613207,nm
2.235053999999991,127.62426984762506,12.210464678093446,63.866322540145184,-1.9379799195986473,-1.8854715580092047,1.0774066134401752,-0.07739376971957058,1.1013631909167123,0.18172248505057925,0.2770721308492434,nm
2.244570999999951,132.07329153406297,13.930312753945481,65.79434974409469,-1.716449363451029,-0.7365096924681881,0.44405986216420307,0.06057632362589638,0.9312859136601684,0.27386862789445054,0.2770721308492434,nm
2.2539019999999255,136.17668953772096,14.234119531243087,66.86705672274998,-1.2494796948027203,0.6397858604352968,-0.7156596776555325,0.2663573184446476,0.7530668715857216,0.08972289756903248,0.2770721308492434,nm
2.2729190000000017,145.0175856382615,9.674995765085399,64.7665974678311,0.27080787957445623,1.35887206099807,-1.1088182227861991,0.8660999807063963,0.524649343273096,-0.5435585822912102,0.2698910710238881,nm
2.282432999999969,147.9338619252619,6.625635114536286,61.24318716073975,0.32873682654096426,1.1514922516202821,-0.9046099212459575,0.8068923837301932,0.23751594924462288,-0.7879336895935745,0.2698910710238881,nm
2.291971999999987,149.87926021897573,4.295351575147267,56.891058084789115,0.46482666457901745,0.9111774725682901,-0.9879984610061935,0.6000513814410852,0.09237046416895991,-0.908383692103544,0.2698910710238881,nm
2.31096500000001,150.54537823826215,1.626823980058032,50.74370696041966,0.748997399831752,-0.7322840048683383,-1.604550477898031,0.09704657666562888,-0.2045927931818003,-0.4591823345150413,0.26378717017233605,nm
2.320479999999975,148.3646801177565,0.979746121867549,50.47360321046175,0.8004129506538503,-1.0174518713166627,-1.649260813885281,-0.1766644664118427,-0.4194257199553105,-0.04412513616251983,0.26378717017233605,nm
2.3299919999999474,145.12794493703805,0.6408663233716104,51.751198195356004,1.146607988978094,-0.8468020196589199,-1.6621124783807464,-0.3541994550773556,-0.5464348419950636,0.2800892974599859,0.26378717017233605,nm
2.34900899999991,135.68815126786842,0.3185675788986613,55.36488275906469,2.9525008963929125,-0.3753099536724212,-1.5016077661097933,-0.6063903844905179,-0.9101495100289644,0.34946884130863026,0.2585988544485168,nm
2.3680200000000013,123.59051554828889,-1.5014096328054527,56.541669285395024,3.6505984425642595,0.18358753379865014,0.09459978763660862,-0.4603010772078104,-1.1376307795898817,0.027852614137861154,0.2585988544485168,nm
2.377615999999989,117.05109886494509,-2.6099943744790197,56.78518939630195,2.972076982545524,0.11284272397665907,1.2075053288260782,-0.5320474225223236,-1.2153724071844136,-0.025661989311608388,0.2585988544485168,nm
2.396733999999924,109.3072439367377,-1.206856285177467,57.39431063235909,0.41004597615647687,0.11256200128958825,1.5377965800213373,-0.45099276925296894,-0.2111007851357487,0.019589779663846726,0.25418878608327045,nm
2.406244000000015,107.6737369870863,1.3431912266073565,57.45493011502408,-0.6494728522526633,-0.3318564616546369,1.9272227280958276,-0.6065659223750361,-0.0005257064931022495,0.012207304035038936,0.25418878608327045,nm
2.415752999999995,106.21338783503141,4.967914252953601,56.656990924243054,-3.384649626497272,0.42107254223381546,1.5025144699624515,-0.7679617472582434,0.1504865669399465,-0.12508793019016307,0.25418878608327045,nm
2.4347879999999122,110.87906003313225,11.899716970152488,53.88882122171137,-3.584609372271809,-0.9622796391241765,1.892867972553541,-0.13842836603872252,0.8429242711170826,-0.25701763255656696,0.25044022797281107,nm
2.444299000000001,116.20523483368244,13.67980046693893,54.39256605245128,-3.1833589700604397,-1.1460015128132102,1.9967106400276255,0.32313232331112135,1.0504994429843695,-0.06944661372608962,0.25044022797281107,nm
2.453803999999991,122.36058732415944,14.816375257186198,55.903730861863956,-1.1527303241621638,-1.5785351527956655,1.4424976472621545,0.49869358732262276,1.1085380483148493,0.0654108357488964,0.25044022797281107,nm
2.4633099999999786,126.7346495244545,15.74646734188799,57.22737879377991,-1.5172830507119688,0.3042880315888118,0.3331768725611169,0.31189505201578965,0.8065422420834292,0.09707334332159712,0.25044022797281107,nm
2.4821569999999156,139.35061215012402,14.461145009757988,57.750761829006684,0.6630439993967155,0.39983257964303776,-1.3044879387471373,0.9050638171487672,0.9820849674813514,-0.35283913924780524,0.24725395357892058,nm
2.491665000000012,144.27844417747247,12.384259122814193,56.39413820267039,0.5395664902438185,1.0780833344607603,-1.3468208050015626,0.8714880296382072,0.5777652944910247,-0.46537521447935315,0.24725395357892058,nm
2.510764999999992,150.56279748582372,7.894147349692796,50.793437523013566,0.4893106445916649,0.48903994118461813,-1.4075735430953145,0.6515962489322612,0.16901341672390255,-0.7121406683360125,0.24454562034411365,nm
2.52026699999999,151.69386640710425,6.496381134727884,47.68632425520318,0.4232287730068424,-0.23505753531088316,-1.6683697109134135,0.3589332207927938,-0.012898015967437244,-0.6466765816199598,0.24454562034411365,nm
2.5393040000000155,149.1367946227832,4.349445640460639,44.945161631442794,1.1349603175872152,-1.4698379173755685,-2.4596057227160992,-0.12753062625618178,-0.4494717462231742,-0.08416720093727288,0.24224353709452776,nm
2.5487379999999575,144.88564356561605,3.070126893791367,45.87298024549293,1.5065382178898927,-1.018000001617765,-2.0107972271645362,-0.41360262279307675,-0.7843719012347953,0.24089091113734898,0.24224353709452776,nm
2.558239999999955,139.63977775067977,1.9506876479438149,47.59520458019012,2.6845375700251157,-1.0653309656647763,-1.981758359763872,-0.5557681829203969,-0.9172567541599252,0.3907897700161211,0.24224353709452776,nm
2.5772539999999253,125.47425652972446,1.2409843615175913,50.41418940993024,4.395328420676143,-0.16153224626910873,-0.030398675281831378,-0.9765431246837589,-1.1945831228056543,0.2643799052945313,0.24028676633237975,nm
2.586952999999994,117.1156036625168,2.0433151900747024,51.61322657466142,3.7753729731996266,0.333718498879637,1.3492409518394213,-1.1739823483436722,-1.201771691190692,0.2312764854037547,0.24028676633237975,nm
2.596469999999954,109.8398525359034,4.5439675714396035,52.389917765229654,2.0987654937624596,1.181274234572442,1.352342997630877,-1.2877089430180613,-0.840565780357336,0.18966144745628355,0.24028676633237975,nm
2.6154980000000023,103.39416212375335,11.761139618870928,51.251736155214736,0.4275568483843166,0.22648202131848888,1.3485191589978225,-0.8232354917334034,0.11075117330005511,-0.11343148497771453,0.23862351118455394,nm
2.6250139999999647,101.32057065564423,14.627305065032536,49.67648718396032,-2.090960347995264,0.3946124176332365,1.2491201925248092,-0.6999012554758447,0.05438650226632753,-0.19789694726877136,0.23862351118455394,nm
2.6345099999999775,101.55233847571347,16.605595976293404,47.70235381233378,-3.755941607694263,-0.40914323488595683,1.6889378678759939,-0.26771426574992513,0.29540248999420876,-0.3842888310307088,0.23862351118455394,nm
2.6440399999999045,104.8963221489295,17.77373021663388,46.741392017584985,-3.9264157751979276,-1.7698958560050777,2.799525154952002,0.2634782904540516,0.6279671812141844,-0.36212499188090247,0.23862351118455394,nm
2.672568999999953,122.73880642317523,23.808589208668504,53.580939018549415,-1.1876264688393667,-0.38311218273504505,1.0044423324322644,0.17875239782484142,1.1194673146619258,0.39101650738305516,0.23720974430890202,nm
2.6818809999999758,128.48420354238866,25.872960801685206,56.2041423354458,-1.7895242960974471,1.8055030522479205,-0.2953966488487199,0.2654060561064914,1.0904169899497393,0.12049954503384891,0.23720974430890202,nm
2.7009819999999536,142.94608678511847,23.86848649079069,56.73654903061898,0.5951619732825301,0.725541740324957,-2.110089354770973,0.9326701218939808,0.6831480496530515,-0.588383176861917,0.2360080424645979,nm
2.7104170000000067,146.7203486076806,20.009664901241518,54.487039278397305,-0.40739940090117005,1.481413302534441,-0.8905984187260226,1.033896764638215,0.1416905808016144,-0.7323582551282626,0.2360080424645979,nm
2.719934999999964,150.10244676632513,16.164023146402663,50.369020732573524,0.11023655177063134,0.34531798135392633,-0.9658856398649588,1.0034875053219185,0.04025416750737476,-1.0343337241560955,0.2360080424645979,nm
2.729432999999972,151.76900945513458,13.55813036965607,45.702570359229725,-0.08286002663093203,-0.47574216220954335,-1.0601390660334307,0.6043090191734909,-0.109196586640564,-1.0325259682164531,0.2360080424645979,nm
2.7579849999999624,149.74954493066727,8.252138024179578,42.83331158787009,0.6200771174975598,-1.6741302008325425,-1.9935759150654937,0.0031138582855486587,-0.502608597736144,0.4007700660348744,0.23411836631442964,nm
2.7675649999999905,145.83634540960344,6.974175878834298,46.13218605241349,1.484537532261206,-1.2519402177561696,-2.1291767437837588,-0.37500704785613354,-0.7263108157152357,0.7732563684653889,0.23411836631442964,nm
2.7864999999999327,133.09051139000098,6.431933876425697,51.92842410171352,4.779500338220211,-0.509935799998135,-2.113686150839486,-0.8752356974955464,-1.1242421312487392,0.6558232575974626,0.23411836631442964,nm
2.7960039999999253,124.23378437980628,6.000346965152938,53.593975812929614,5.013628237006191,0.6220834378197018,-0.1510444426093207,-0.9953587983406343,-1.4567900603901403,0.4858835052501632,0.23411836631442964,nm
2.8055249999999887,115.5792398207588,6.2205500089823795,54.38697318436994,4.417363656149549,1.061621553730976,1.1348288108344489,-1.045221426507492,-1.3697364558503409,0.2911163981797724,0.23411836631442964,nm
2.8152259999999387,108.28423747344179,7.675259874208955,54.62726134482333,3.7700465595691415,0.5634823544621556,1.2109025708075296,-1.076384393494275,-1.0135509262936189,0.1749810157939956,0.23411836631442964,nm
2.8342499999999973,98.73880980006975,11.696389773426718,53.98271496055172,0.4123718169925956,-0.06392165292227409,1.398924995467986,-0.7444694687059273,-0.36987952996831214,0.016788828181100196,0.23338037116929636,nm
2.8437490000000025,96.08381879410184,13.478908682765603,53.11963163750754,-1.6051560451164837,-0.2706665702472682,1.4204424649001,-0.5953894856120864,-0.20501558948964343,-0.049757619798071265,0.23338037116929636,nm
2.86277199999995,97.67804312529861,16.578654282668833,52.40514277954035,-3.377330079181521,-0.9294761982903059,2.3967325388142524,0.012769676329914229,0.48847547652134354,-0.03581037878185036,0.23338037116929636,nm
2.8722869999999148,101.41347606695376,17.69417641967115,54.32392416208785,-3.352093466502499,-0.5584158733815584,2.252953265823111,0.2482353270764535,0.7063835378489177,0.20794087404753928,0.23338037116929636,nm
2.8817909999999074,107.77961733152813,18.714267597235974,56.963897302992514,-2.622718439772324,-0.11973188248885389,2.372297721149764,0.5169392249676903,1.1134556286433928,0.18527349569023993,0.23338037116929636,nm
2.8912990000000036,114.94320913771183,20.23030932922845,58.72923510168679,-1.2565011523821992,0.3937990776872182,1.8734883231900523,0.465883467387646,1.3047348325552928,-0.06314447113440153,0.23338037116929636,nm
2.9008099999999786,121.84839863157728,22.021400047633396,59.61370852565039,-0.7700131594774561,1.6413507778402776,0.5862903429236589,0.3561298830840819,1.2897844236382257,-0.26110256738837206,0.23338037116929636,nm
2.910323999999946,130.1776173919019,23.04195969521822,60.26810495001799,-0.3616531567271529,1.534069943472104,0.12364634625660963,0.5982936703499099,1.4332108306954854,-0.44613826558538633,0.23338037116929636,nm
2.9291660000000093,145.47861224036737,21.72373114471349,58.62435179419549,-0.872951223322264,0.6825743019123485,-0.5824763992943404,0.885537504723777,0.9995235445289865,-0.79657677271369,0.23275307529593306,nm
2.9386919999999463,152.4112666698526,19.948139506915897,55.72182960074812,-0.6686615016452612,-0.879968584950012,-1.0915275390382277,1.0026918093884214,0.8962718575540762,-1.0545289313750021,0.23275307529593306,nm
2.9481949999999415,157.67097707461147,18.372262846536856,52.35880492861901,-1.2799517447557711,-1.645769115834869,-0.9991730282468074,0.839859086277539,0.6192975123511052,-1.0099552441645714,0.23275307529593306,nm
2.957698999999934,161.27367535611126,17.21536164778289,49.78679040652375,-1.6800853472596262,-1.2599943792451986,-0.6297766682981091,0.6117838563217546,0.38844675761698155,-0.7352957465500748,0.23275307529593306,nm
2.976801999999907,165.4208562365138,13.515700159557168,50.12466953459617,-0.6028921638574316,-0.9738853945601309,-1.7320208343481125,0.49625014685423874,-0.10839843960968706,0.17145024155379285,0.23221987380357426,nm
2.986321999999973,164.18817726832705,11.114166694138117,52.503057333741644,0.13117035407400177,-0.29855388767545477,-2.08095764564323,0.22457877061891945,-0.48901050286154957,0.5414635949971258,0.23221987380357426,nm
2.9958129999999983,160.63197556060587,9.398691103332268,55.003654904037624,1.3960496346882447,-0.08237468140705645,-2.903403452229132,-0.13727649259538055,-0.7678960881649366,0.6338129768164735,0.23221987380357426,nm
3.0053329999999505,154.18828156646566,8.492987155722117,56.725588014176154,2.5434529447919596,0.22470613904657422,-3.054407963896083,-0.5646041841901778,-1.156141672639077,0.5403493087050105,0.23221987380357426,nm
3.0147680000000037,145.8741372531098,7.719859660016487,57.40970625712259,3.8082184796246374,0.15470209668286738,-2.784791305296382,-0.7639552237674995,-1.4673996183498776,0.34402079911685185,0.23221987380357426,nm
3.0529849999999215,105.48907736213205,5.522159646719087,58.643329303889885,2.7102588185543954,-0.32646480727399696,1.6868816276667071,-1.0970110767608088,-1.5345689049866607,0.23551197675052288,0.23176665253506928,nm
3.0624950000000126,97.02437208398635,7.5294221015674285,59.525452437047136,1.2540367740461231,-0.2306307034074672,2.3966336419250234,-1.2056790156057495,-1.2419334486446603,0.2983486536281434,0.23176665253506928,nm
3.09103099999993,78.22718934043654,16.750368167597866,56.813787043415324,-2.6703692573966666,0.027593828921801157,1.2009224308890836,-0.9518021772733081,-0.4998721423843739,-0.11379553117993,-0.2,nm
3.100360999999907,74.52149842387182,18.08375875691651,56.13650312433985,-3.95221992605118,-0.1789749076337645,0.01751136701390186,-0.6129734020175803,-0.4436288666873812,0.055209579283929194,-0.2,nm
3.129054999999994,69.8068102676226,14.905585544607892,60.29543963807995,-2.062669763878155,0.052873293620917604,1.6514484173453028,0.12930907929080507,-0.3347814073773392,0.409500073038705,-0.2,nm
3.1385709999999563,67.58271492172868,14.41854141544855,61.96918261232527,-2.1393484646615097,0.5215814142998013,0.7973025949564007,-0.12219757641633172,-0.42461615100873323,0.41625074314051946,-0.2,nm
3.1576109999999744,65.59666444672663,15.22491485862491,61.76317017105194,-0.40026345729353807,0.9767845053886792,0.6199320758689078,-0.14637980437370013,-0.0459352120665076,-0.17536287455791588,-0.2,nm
3.1669339999999693,64.27886483825692,15.902766611398913,59.8141452662916,0.2837579053205294,1.2635039157623156,-0.336198689536721,-0.24215041077388502,-0.15603541784369243,-0.3517876648675042,-0.2,nm
3.1954660000000104,65.6767131274312,16.259191036916015,56.10548803062812,1.796161121613339,0.0665336882695943,-0.8269994770817715,0.19429157283268692,0.06160429083815487,-0.23926914384809803,-0.2,nm
3.2049690000000055,67.14151300382683,14.560515437211913,55.167338126445834,2.327493971523638,-0.3533372364224949,-0.7337469216254546,0.4406713698900216,0.041487598664732894,-0.2740188570383966,-0.2,nm
3.2335079999999152,72.21394395434353,9.091799854722503,55.93535679974279,2.8994119557160762,-1.3744817204405833,-0.6217135245373346,0.43228744768138005,0.13388616946808699,0.08819293605929751,-0.2,nm
3.2430140000000165,73.61439861556357,8.41795653053971,56.450086233441915,3.314023620078484,-1.3495102126743201,-0.39608611714791453,0.26633748356686066,0.15522890353366792,0.060476885221925576,-0.2,nm
3.2715599999999085,74.63315475427312,11.529341321785013,59.19365490075381,1.6117271053608238,-0.14143473435311243,-0.41000304624032213,-0.28428765002640527,0.18544344386660097,0.22839537707676616,-0.2,nm
3.2812549999999874,74.14173880648143,13.354933131627458,60.1154715873693,0.6282523258268001,0.188165453745766,-0.44525750998626906,-0.3643190257813504,0.101883871689512,0.20561713043337232,-0.2,nm
3.3000809999999774,73.29764638440597,16.292334806641097,61.74115960702353,-1.9519533398970055,0.3822180988278379,-0.4223399928880702,-0.23666333287809316,0.1061017934458163,0.17194126207220636,-0.2,nm
3.3095919999999523,72.14563609076163,17.18356683936916,62.30597205634138,-2.624469930121658,-0.0839868271837464,0.40760117059453926,-0.2614051677311059,-0.11133417951578327,0.17946516246967412,-0.2,nm
3.3190889999999627,68.13978430254107,17.46090314769461,62.32500976954554,-3.205028902499245,-0.4742169650587006,0.42523936805068896,-0.40407620195445354,-0.6529168342177278,0.21102714655731183,-0.2,nm
3.3288109999999733,62.71836450357096,16.985349973749294,62.540773250319695,-2.569898626599631,-0.9573848136534764,0.9541801644476124,-0.3923595379988558,-0.9646915087712641,0.28939838936354384,-0.2,nm
3.3383119999999735,56.6861121570533,16.213006208291027,63.56917107287515,-2.3428419748119427,-0.7670070497151514,1.2462270538057538,-0.382387283487083,-1.1037914587844544,0.4569067591823211,-0.2,nm
3.3668539999999894,32.910502224221496,16.945386507551365,64.7433508408955,-1.5388209748781234,0.579889602600063,0.5238601461516968,-0.8296513527127276,-1.4838586152899387,0.23538610754874778,-0.2,nm
3.3763509999999997,25.562929767049386,17.388507641243418,63.05333428403577,-1.011700041346348,1.1691741048693438,0.3654391050039983,-0.6905732833333,-1.2281693908137992,-0.04567779235744563,-0.2,nm
3.3952039999999215,14.806798575006576,17.2124762054189,58.78853628436587,-0.1377163746118271,1.2656823187037356,-1.1743335833230977,-0.3873518034358602,-0.7897019808355579,-0.24513749681362013,-0.2,nm
3.4047140000000127,12.88035053801897,16.50872358736024,57.382973481241415,0.30799627468997676,1.1090292684102467,-1.0445118817230794,-0.07432756241593509,-0.3882753658493913,-0.23949883162676694,-0.2,nm
3.4142209999999977,13.217000869680955,15.528233935737761,56.821005725489975,0.7493009894687455,0.8912622306697418,-0.8686448461909917,0.20025864134812124,-0.05199355468607895,-0.16131920391584278,-0.2,nm
3.4334299999999303,20.727088964398554,13.61935054063829,57.66496451469189,1.3104478144646505,0.30146825610816297,-0.10698101427603633,0.6896768675546676,0.7175300695089057,-0.10046154075300057,-0.2,nm
3.4429209999999557,26.98500744981788,12.58918070904314,58.06548629577612,2.0740783127175795,-0.008350396226614128,0.41862239228654013,0.8254981950797576,0.9230224386872302,-0.1683065608783375,-0.2,nm
3.4522660000000087,34.26109753594422,11.85265097212116,58.100887769627626,3.054279764961991,-0.3178773201309512,0.5663860204350768,0.8802490937488419,1.1297386189148135,-0.26056982156907216,-0.2,nm
3.480784999999969,55.35254001176887,13.58417275669483,58.5466738936712,3.445525059499315,-0.6596057593021604,-1.0871982009972945,0.4225083828298814,1.0895872029755744,-0.1560920297405305,-0.2,nm
3.4903039999999237,60.087814537114504,14.602299956054257,58.95821518986406,2.656763754114736,-0.6991294450551584,-1.357085159823025,0.3037265427793468,0.8918929959187752,-0.12527068533018818,-0.2,nm
3.4998219999999947,63.02948975971348,15.563451955382833,59.36101404986166,1.6029539459545128,-0.6962104078951239,-1.5551536062674634,0.1266389626323459,0.5870612340654928,-0.0581825140997505,-0.2,nm
3.5094249999999647,64.4712993350913,16.668100751064205,59.95639285365621,0.21913349035983543,-0.751081789993311,-1.6300924463948037,-0.050527779570698955,0.35129412161908496,0.06673309502738992,-0.2,nm
3.537864000000013,59.55028328168748,20.525911992231602,63.03261943667675,-1.826420091661555,-1.1987448075846852,0.20764678158118124,-0.5369371414408316,-0.5539245607444965,0.4526081379023732,-0.2,nm
3.547553999999991,52.35259768646341,20.691931389724818,64.7180076118129,-1.6562594571890858,-1.4320456474209462,0.4104775756065693,-0.6202975872326293,-1.1990758268723982,0.7695492182761178,-0.2,nm
3.566573999999946,34.77594547915406,17.941668141006414,69.6032937295964,-0.7009114286639638,0.10104250576444927,4.4352632254021,-0.3561609880144944,-1.8044546313110326,1.0273396410356708,-0.2,nm
3.5855889999999135,9.652128638469538,17.153816969260678,74.49058672055355,-2.3525230526249783,1.0455433650303085,1.717745671989705,-0.6806091023891451,-2.2613067364351123,1.0143667532499716,-0.2,nm
3.604426999999987,-11.348004765692279,17.09275598164968,74.07251399555305,-2.6961147694707552,0.9189738027668728,-0.9098194738272933,-0.4406033817527997,-1.9372476443045863,0.2492546828586768,-0.2,nm
3.614027999999962,-19.629493108041288,15.521414902935112,71.80976795976598,-0.9444000116394042,0.20376331505651368,-2.7666209322425397,-0.15642277232674706,-1.6153964914067545,-0.1333747436854114,-0.2,nm
3.633047999999917,-24.84048084489157,9.717197069508567,67.74688704369322,0.27753170757092654,0.8361478595409776,-2.449651163081943,0.49050232978950054,-0.42356179963669893,-0.39541907217863936,-0.2,nm
3.642548999999917,-23.425083201706006,7.586962302652623,66.91902540878529,1.2841816589626585,0.795692326776754,-2.1890459732816008,0.5015770682506375,0.0955002038413358,-0.2647713753734182,-0.2,nm
3.6519949999999426,-18.4570867548966,7.127855187403222,67.11606202253492,1.3266519633109306,0.5428310503962113,-1.7916547728176218,0.46953792115061915,0.8731109668433781,-0.10117951537216316,-0.2,nm
3.6615130000000136,-10.273640844772052,7.559272717565138,68.42912859275644,0.7384396311876005,0.5887109400948726,-0.45857263676874865,0.5375216792172905,1.5370152134531547,0.08673171813468224,-0.2,nm
3.671194000000014,-0.22839784083544057,7.675980611156812,70.49735746247765,1.3342679355645624,0.37365607593255695,0.7271261438164468,0.682534748758354,1.8744491811967903,0.20255480901295592,-0.2,nm
3.6901980000000094,25.23337311921104,6.742215776161082,73.95942864254813,3.244234276312936,-0.076965715370864,2.6477859061172286,0.8582969152618468,2.5020499262514098,0.06643921955833976,-0.2,nm
3.699718999999959,37.96942753524703,6.844344585903443,74.7263467143406,3.7238263985594875,-0.5555638960686405,1.3987116004614393,0.675944733720979,2.441623711693944,-0.03701213977157992,-0.2,nm
3.7090469999999414,49.613798471131155,7.558537476369606,74.91742074492294,3.046341543626906,-0.6589766459666045,-0.22068050026100852,0.47895841407385226,2.268429386705864,-0.1456467642822538,-0.2,nm
3.7376689999999826,68.58846750387775,12.692799551109953,75.35726601766505,-0.8846310643637937,-0.38524879969901543,-2.295899443087112,-0.23771032747632836,0.6378746825234792,0.007286866369127731,-0.2,nm
3.7471009999999296,67.8832550610373,14.280542725270713,75.6125185119506,-1.20764772944197,-0.5551347855446669,-1.6460863941136192,-0.34243335062483415,-0.05310459561700808,0.09232396480572563,-0.2,nm
3.756802999999991,62.23462546780296,15.021744349008504,75.21292966592182,0.002610662701475718,-0.8222593655825757,-0.2045215832654546,-0.416729670813363,-1.0228132767889735,0.1515852785371413,-0.2,nm
3.766300000000001,51.74196938629111,14.596161810355373,74.34778376081782,0.1801789389740274,-0.8478941040618093,0.8483717410687117,-0.44117027899305317,-1.9849183274087479,0.24934026245653998,-0.2,nm
3.7853269999999384,22.02044358532822,11.48129626852773,73.8795066112346,-0.7912245657919111,0.06988454475874317,5.895029631920945,-0.5509371360548229,-3.1608658923722563,0.5669796760045156,-0.2,nm
3.794830999999931,5.154949222888391,10.142073083879865,74.71797146821399,-2.771414329750871,-0.07337802668146844,4.681263793801888,-0.616406836029573,-3.2721085553807856,0.6239174434430762,-0.2,nm
3.804350999999997,-9.920006542758214,9.0400343598437,75.58018923538583,-4.583919860863165,-0.02024772490564336,3.177329902600661,-0.5283518772947693,-2.939021658770134,0.4981405026070146,-0.2,nm
3.823266999999987,-36.432479480718584,8.060845863758741,74.77025663569597,-2.068001783349369,-0.7549506097598937,-2.3044990766654414,-0.5351661232064783,-2.3922353451508025,0.014727776695229192,-0.26826445169739355,nm
3.832771999999977,-44.86724813154577,7.380237806038982,73.56112344022173,-1.15455752341049,-0.5276082696259535,-2.7818725688269796,-0.3154286929997167,-1.6498917568636131,-0.16231678302536345,-0.26826445169739355,nm
3.842286999999942,-50.6399775166682,6.465014035134366,72.43017827772545,-0.5309218922202231,0.12193540348212473,-2.8822091873051847,-0.15438388500924122,-1.1520707800206864,-0.21169353466585747,-0.26826445169739355,nm
3.861313999999993,-54.77363936950362,5.857434167068454,70.39098448324464,1.3930570359624737,0.6915043193123694,-2.6676944686515207,-0.03706490655358482,-0.09395550780661228,-0.2633403339400999,-0.32628923564017803,nm
3.870812000000001,-53.11313920910963,6.316556805788716,69.77943846658451,1.5530699362253282,0.7683584208172746,-2.4053254221712033,0.025415852390873413,0.34236348799484645,-0.203177584951467,-0.32628923564017803,nm
3.880241999999953,-49.77361988073999,6.798335532687758,69.87118502788466,2.2043576982203725,0.6288570239462349,-2.2951769838083176,0.13796639038757136,0.6571697946546593,-0.08039352359936307,-0.32628923564017803,nm
3.889772999999991,-44.121912540813916,7.130602795294377,70.35875990578847,1.6355001402802618,0.7717792535500836,-1.807435545084807,0.3197047638433685,1.0793140514946746,-0.03966888888804405,-0.32628923564017803,nm
3.908790999999951,-28.6149341933593,6.766721002747834,70.5903809369567,1.6892299176284757,0.8832369950105639,-0.1578997727579156,0.6226443713979468,1.5547272851519012,-0.18344885402127376,-0.3756103019915448,nm
3.9279889999999114,-6.198443820695054,7.003814814789262,69.50874400240444,2.004965386237123,0.9844738548688178,2.2356088398684673,0.728601965900002,2.2264383846720794,-0.3223219224965295,-0.3756103019915448,nm
3.937484999999924,5.315352170764448,8.245078740473925,69.49470201882413,2.6070570752768996,0.23552397729819144,1.3606901626634407,0.5765667806959749,2.2263159009393827,-0.2258695863131996,-0.3756103019915448,nm
3.96583099999998,31.88116597206363,10.302523067679898,73.5475901609447,1.3795866742556082,-1.1414257550317894,-0.5539583846999153,0.3327466365551358,1.1677732202195625,0.1851482177959237,-0.4175332083902066,nm
3.9753670000000056,34.10774600202406,10.646607753740785,75.3313836237097,0.6071799070848864,-1.2866239204658214,-0.8092415709028495,0.05186715574852189,0.44094118633841556,0.3154921423117171,-0.4175332083902066,nm
3.9945559999999887,23.874693430159333,12.376367698141445,78.37711091373738,0.19503952391260276,-0.8635252903610148,2.7542980677817126,-0.49630823338970026,-1.4518486864651143,0.5291301910855183,-0.4531676788290691,nm
4.004069999999956,11.224844827434355,12.553361913226713,78.93629353658496,-1.1775298916843224,-0.2774623382142579,5.387856873929437,-0.5105215850729412,-2.42160335279615,0.556314928991518,-0.4531676788290691,nm
4.0230980000000045,-22.900361048032043,10.717795860155203,78.71031495854595,-5.645772195977322,-0.009302232999450688,3.927967487255177,-0.44995722399859645,-3.4669172817139198,0.4887692159582278,-0.48345697870210225,nm
4.032412999999906,-39.61640161784193,9.719643286965418,78.17363351505689,-6.706990924099773,-0.35112047837569865,1.3133778433171195,-0.4438464476256519,-3.271342589736807,0.3340862863679748,-0.48345697870210225,nm
4.0419259999999895,-55.42548323223448,8.51301620375832,77.55962642604626,-5.05666131495902,-0.8673633980605097,-1.5648705304775767,-0.40132141722200965,-3.1098828754477257,0.2245001999374998,-0.48345697870210225,nm
4.06103399999995,-79.5212024680968,6.3029617444842945,75.42371524713475,-0.5891207208168956,-0.3880590402029351,-3.0539723090009363,-0.31022389608824164,-2.0351734640980985,-0.06544266690132301,-0.5092028835941804,nm
4.070539999999937,-87.8747175941101,5.668464105245838,73.5933046400625,0.5970929078144162,0.03734866761672565,-2.962264838080305,-0.32224484525873104,-1.6368937198337012,-0.1915763365457672,-0.5092028835941804,nm
4.079966000000013,-94.41097853229157,5.221117102469534,71.78194954108994,2.059798326777373,0.15055558051644777,-2.177982794129005,-0.30241507003782453,-1.2702989743976045,-0.23824009582987926,-0.5092028835941804,nm
4.098997999999938,-101.650870669292,4.183066893007551,69.13512734521885,2.24968244136352,0.5167342371454949,-1.4933270064482125,-0.09182437660888962,-0.6195839127418409,-0.1784877542617677,-0.5310869027524469,nm
4.10850999999991,-104.24516728349575,3.1796389828211695,68.16379798484425,2.703561957663231,0.5282367739261892,-0.9062636622715389,-0.0015930092516228378,-0.5558405562496466,-0.1612720160082488,-0.5310869027524469,nm
4.127536999999961,-108.67524551507273,0.1557552577281513,66.41248002858617,3.015617165494895,0.48953451183564817,-0.09233849806971288,0.11944243257849266,-0.5465646726986719,-0.1408511776484305,-0.5496883190369733,nm
4.1370509999999285,-111.01788625650514,-1.2918912469991262,66.11066587994371,3.6345557255820062,0.6775863515952121,0.6633196578421544,0.0766558602643764,-0.5459719331240424,-0.06525170458698779,-0.5496883190369733,nm
4.146547999999939,-113.16348467682373,-2.190413327497243,66.16591021758882,3.441564638021369,1.0994242045579776,0.4038773194580433,-0.009041862331420503,-0.46540825007635206,-0.0020898881340426366,-0.5496883190369733,nm
4.156058999999914,-115.59105490558339,-2.473605430692939,66.54317119518923,3.3314138829939854,1.2651459649246408,0.44179388897515415,-0.14271784587243405,-0.467513485147597,0.055740076558273705,-0.5496883190369733,nm
4.175073999999995,-119.86109279438006,-1.1384135540214306,69.19574301076635,2.3578034545047855,0.9038116515998492,-0.035198939389628196,-0.32050660544660614,-0.300831092281947,0.33920624070417377,-0.5654995228788209,nm
4.18458899999996,-120.20516382390716,0.3764013502859111,71.47340612007756,1.1615017684015123,0.9632066115734229,-0.7992480132254464,-0.3087390624325498,0.03720512762272998,0.45580754901703013,-0.5654995228788209,nm
4.19417599999997,-120.17746414393972,2.678700931935214,74.10557346813405,-0.37897099903417375,0.6970278738346254,-2.047122745864377,-0.43872148731420807,0.1416953600079481,0.527151357914856,-0.5654995228788209,nm
4.2036059999999225,-120.45727870495273,5.562340413053605,76.99798849871176,-0.6551982385646653,0.13349740109498295,-1.0880265390365351,-0.5731484051992348,0.08995686115494646,0.5834553061928639,-0.5654995228788209,nm
4.232148999999936,-106.71654924142565,13.029229587141884,86.29994466150622,-3.9202032327423315,-2.764080754725908,-0.6463907867260904,-0.2106748355377386,1.2624131491145756,0.3857519575498362,-0.5789390461443913,nm
4.251147999999944,-89.15238139701276,11.51142922555011,88.91075218065478,-4.519591110855593,-4.143619602610722,1.0210601937595645,0.36787903966090985,1.884001211843997,-0.36096341651467684,-0.5903626409201261,nm
4.260688999999957,-81.49020899071164,8.410535658397967,86.22480571729895,-4.98762406034714,-2.7789635288336187,1.4454981253053132,0.6843033127928375,1.4836039564845853,-0.7929883626350632,-0.5903626409201261,nm
4.270367999999962,-77.58650205320293,5.265061036269537,81.70717317842661,-2.169646572196839,-0.14899432533645127,2.368853114470514,0.7076982888969591,0.7060715383548853,-0.9975184755004607,-0.5903626409201261,nm
4.289391999999907,-71.87636376858377,4.466389398005648,72.3544074644482,0.009631381559474605,2.291898823140426,1.2202991123101543,0.02147031051937155,0.5078265493006385,-0.8623532125384306,-0.6000726964795007,nm
4.298907999999983,-72.32846533309821,6.188642571295897,70.68166701581556,1.246419479344612,2.1625310351019644,0.586276645623155,-0.3560281867814161,0.023976992209076585,-0.32631336883264445,-0.6000726964795007,nm
4.308234999999968,-74.79859106419079,8.066722210386233,71.17662436390542,1.2355742977444082,2.2657140530998876,0.28574659259418667,-0.5158948228628667,-0.3410133893986876,0.16073970507074303,-0.6000726964795007,nm
4.327440999999908,-81.71367262901761,8.201152676320875,71.32500314459695,1.8577719603306762,-0.3354492270686239,0.3077429838251,-0.031050702507942823,-0.6659586966372127,0.06558263221619762,-0.6083262437049691,nm
4.336944000000017,-85.11933968941402,5.31996193875894,71.777579953345,-0.13208321521490793,-0.12625805532807782,-0.41887022051419276,0.33316344673343096,-0.8250855291006284,0.1704636709964959,-0.6083262437049691,nm
4.3464629999999715,-91.87207630980473,1.268895133752069,72.93517767962862,0.9367823392407372,-0.29093711336254285,-0.14564893100121562,0.3691119041619468,-1.5309787850732435,0.22424573862621092,-0.6083262437049691,nm
4.365481999999929,-107.1478607898928,-6.022470526463706,74.2332817590063,1.0333773977403715,0.13924084424154148,-0.18804868120124343,0.21264399587545468,-1.6137200227159982,-0.12210408521686553,-0.6153417588466172,nm
4.374803999999926,-116.1958937288552,-7.819104951233131,74.39835439601309,1.7412528301467292,0.48400107907527296,-0.21545157359136347,-0.14019963526893622,-1.8281634081730995,-0.18542366758286566,-0.6153417588466172,nm
4.384312999999906,-126.06881046191994,-8.1074524146466,74.64663471351382,2.327513980184095,0.8224128917232632,0.10805716781308161,-0.4666766367140518,-1.9013980771613577,-0.22418090496046558,-0.6153417588466172,nm
4.40333499999997,-145.98111024343055,-6.731331024772624,74.42241433995873,2.480792506469743,1.8094015192746469,-1.492864851008966,-0.6800833610574758,-1.9199330824468182,-0.2956992947746169,-0.6213049467170182,nm
4.412848999999937,-156.15140809154673,-5.616295422964357,75.20264397024256,2.626676404417445,1.3376550488045513,-1.2927148794734498,-0.7450481843654098,-1.8942628037392062,-0.06300297864174227,-0.6213049467170182,nm
4.431877999999983,-171.19774114265917,0.1479594588756954,80.65634115602619,1.9293211479002499,0.5302294083157082,-1.002158740602998,-0.9229435595054057,-1.1024467755529959,0.5897172752775073,-0.6263736564068589,nm
4.441381999999976,-175.60623874308797,4.323991749591061,83.59826739681196,1.6149948144245783,-0.2510567787456428,-0.42039972585565805,-0.9492102346925093,-0.7588795422567052,0.6229902531801733,-0.6263736564068589,nm
4.451083999999923,-177.47870147199853,8.771961006078552,85.8639003732678,0.574406984009757,-0.375179615557103,1.5243221312146034,-0.921549584662031,-0.28896939578124636,0.4961966223346206,-0.6263736564068589,nm
4.4794259999999895,-158.20657100328398,17.456465175742622,86.67748592059124,-0.8659204060455189,-3.260388202851017,-0.5342783850427463,-0.19824078355497585,1.8438047407603675,-0.4608678602907047,-0.6306820596432235,nm
4.488929999999982,-145.75458621176728,17.805445937736344,86.43953282886592,-2.933463345961615,-4.33392173445633,-2.1579780285144547,0.08353075585096431,2.3740512814747317,-0.701118646175344,-0.6306820596432235,nm
4.507953999999927,-118.0071051489304,14.286182435217151,83.03607714666347,-5.51714718967545,-2.212560827434454,-1.2343303669441335,0.7822906918357279,2.6258301883069497,-1.2324445631926741,-0.6343442023941335,nm
4.517472999999995,-106.1553405328361,11.508849235531883,78.76274191063109,-3.3989325897983207,-0.45767383838705383,0.34487586542843246,0.9146499174402384,2.1966299501758617,-1.3675430947525395,-0.6343442023941335,nm
4.527157999999986,-95.84619752008541,9.873077310045595,74.06733536012388,-2.3930394739359757,0.9598510523990859,0.9094819059709385,0.793245166575398,1.8960666118951985,-1.3285263346711647,-0.6343442023941335,nm
4.546180999999933,-79.85935320372846,11.43972531427274,67.09140736295048,1.3329044728848676,1.5837235971946386,0.5803761632476866,0.22959936443081677,1.436197834607726,-0.8432095346112726,-0.637457023732407,nm
4.565020000000004,-70.12427579337368,15.961521517494887,66.70680877901589,1.9911093474730208,0.955002961379627,0.11806224957006631,-0.08805505489233946,0.8674755533706484,-0.11408828711857608,-0.637457023732407,nm
4.574536999999964,-67.01775073627887,16.906512702252886,67.32966327504712,1.811486092446938,0.28531495514245,0.056653842545511375,0.05877944880101618,0.6232054149010889,-0.051142072674592864,-0.637457023732407,nm
4.60307499999999,-62.301604008780366,10.425266136557028,65.75878798614046,2.102421752322842,1.2690292161118266,0.36179876972811753,0.5951027588235159,-0.12280950513021366,-0.24957526468168353,-0.6401029218699394,nm
4.612578999999982,-62.88943441349334,8.009437642370537,64.73744383314646,3.7848248710913297,0.9127894735069634,0.3099440705586228,0.39079139070187574,-0.30811900573307904,-0.18598572629220453,-0.6401029218699394,nm
4.641112999999905,-64.4168186922569,7.305255135736536,68.31976503551067,2.4871461426840833,0.518289797099712,0.13521593458565753,-0.22877444204320246,-0.1430698587354085,0.4924745097834133,-0.642351935286842,nm
4.669818999999961,-67.65758453928963,12.077336174953217,78.47581406829302,-2.0842536727545,0.2994380797662924,0.3568727575724848,-0.4484002021249426,-0.3747392170352736,0.7860899639168023,-0.6442635966912091,nm
4.679154999999923,-71.04843932305042,13.578377805663461,81.91321555467367,-3.1109930083298183,-0.49729624447016313,0.5552984131848336,-0.40763784800758246,-0.6022677266879269,0.797427160305969,-0.6442635966912091,nm
4.698178999999982,-78.1915507157374,14.223481514550832,88.64115320575485,-4.004568100143074,-2.711979631494037,0.59601014511115,-0.009946145385074533,-0.7253600682266685,0.7717707485033188,-0.6458885088849212,nm
4.707673999999997,-81.39056112726848,13.422908607141192,90.50704850242768,-3.4540037803167567,-3.492592165701987,0.5344932933186743,0.1571307692574238,-0.6229922191218663,0.48310234958668263,-0.6458885088849212,nm
4.717203999999924,-84.37103856145873,12.353119199478186,90.2760707148318,-2.9824807233397133,-3.4512025269641446,0.7168633516872484,0.21953225414674418,-0.5797634064747017,0.03393117768000688,-0.6458885088849212,nm
4.726707999999917,-86.98531847283756,11.233960634678228,88.02605105172618,-1.8350948620410787,-2.4346290418380843,0.7013335376991782,0.21759199174859958,-0.5150530613576555,-0.40305347350910453,-0.6458885088849212,nm
4.7458990000000085,-92.54263840422828,9.512891189797815,81.36755933338578,-1.0355899507094224,0.2929824228216471,0.36284953498399897,0.06510134117461142,-0.6207250709222596,-0.6759933788042366,-0.6472696842495765,nm
4.755411999999978,-95.85716235614794,9.2560219519765,78.26627523121569,-0.10525502031858466,1.4002103129923922,0.11115654550957922,-0.06354318411156162,-0.653598758372486,-0.5826538577058996,-0.6472696842495765,nm
4.764743999999951,-99.63001008889984,9.271312036010444,75.84827090541928,0.5019286896466588,1.661337325599156,-0.3399549069997917,-0.16840306684908776,-0.726179574266253,-0.42179988654030887,-0.6472696842495765,nm
4.783770000000004,-109.3944284012313,8.314165157205862,73.72844179434888,1.0994638414746882,1.4792457559393195,-0.43578789110009497,-0.11440907380669506,-1.0156339423760605,-0.06902327894449534,-0.6484436833095336,nm
4.793284999999969,-114.65167915575,6.510690293736758,73.27982078401276,1.2000986583317608,0.8507301955778349,-0.37325786059794197,0.051740485256266955,-1.10302077541001,0.006079526306449222,-0.6484436833095336,nm
4.802800999999931,-120.5437962745666,4.11539735177063,73.91344168925609,0.872518429363092,0.39912849181386345,-0.8137952453505668,0.13063473281131288,-1.2617567426859504,0.19464616743752705,-0.6484436833095336,nm
4.821840999999949,-137.64961418390183,-0.756088060969854,77.12034542676388,1.0567456736173644,0.34008475871509597,-1.276175657524338,0.007028316762479069,-1.944814958628861,0.373878296712118,-0.6494415825104971,nm
4.840915999999993,-161.49518948791882,-3.593328965702073,80.51381198584922,2.0421794010580725,0.5979068630600469,-2.7442149372568947,-0.26597378684761697,-2.5697831360588346,0.1793108283972945,-0.650289796831316,nm
4.850430999999958,-176.10228082967924,-3.481060296476239,81.74655271704755,2.9803151781099197,0.7960088039732455,-3.519285804579462,-0.47188633420390186,-2.8787877009180423,0.06518595941451645,-0.650289796831316,nm
4.859932999999955,168.46270284140982,-2.7126920939489683,82.51815703074197,4.988805044957704,0.6602793513553825,-4.286473128130385,-0.5737165036014384,-3.0338556278268047,-0.013319148094312522,-0.650289796831316,nm
4.869374999999991,152.07538224399138,-1.8270729530276224,83.6106731166017,6.1981420680094885,0.4079316074623728,-2.6616519374442404,-0.5618743240449506,-3.232728402837395,0.025690542126002396,-0.650289796831316,nm
4.888566999999966,121.6748949105222,1.3601139336369834,86.2402355652282,2.863894520141882,-0.45046834484677123,1.6488697892750122,-0.6291271800555528,-2.81295006084405,0.2892421247615655,-0.6510107790040122,nm
4.898068999999964,109.27355044009111,4.458217328973475,87.0756313551756,0.8870692880739839,-0.7899127990094166,2.234286299903059,-0.7618395666653345,-2.4391792790799536,0.2921571069029543,-0.6510107790040122,nm
4.907585999999924,98.72581276457662,8.055936293159789,87.11943117105965,-1.2520032840069608,-0.9544816951693091,1.8571695029757107,-0.824105397527127,-2.0602001956346854,0.23845442497360217,-0.6510107790040122,nm
4.926437999999962,81.27139449577423,13.08059895728051,87.10172446335159,-3.492090693748686,-1.0500017307344642,0.9775405773577686,-0.45255565499917344,-1.696898341294241,0.4347783041806751,-0.6516236138508038,nm
4.935945999999944,73.42076459744995,12.83942820820008,88.33805352731856,-3.5028032702152982,-1.6158681597890188,0.2565202589955533,-0.01290257503431186,-1.5328666271072824,0.599753079087293,-0.6516236138508038,nm
4.94564099999991,66.99137201664914,11.176475852732986,89.96800224952763,-1.6605202080199482,-1.2835783326513057,1.8700680638756948,0.3139974926136066,-1.2643691490225664,0.5940387754753877,-0.6516236138508038,nm
4.964650000000006,45.64721448733042,10.02090357547968,92.65915594960404,-1.838702619262895,-0.5344252465973566,1.525833244760058,0.07272731278717288,-2.4221789489449197,0.6342975439865799,-0.6521445234705767,nm
4.974172999999951,33.8606501525364,10.94287130132863,92.37038089222567,-1.299441671819854,-0.3453944442684039,1.7983950278159884,-0.08199310841974218,-2.3274799636903145,0.3718644837073728,-0.6521445234705767,nm
4.983680999999933,21.947182152285617,11.500012833973091,90.0698932005571,-1.7232307190948706,0.21389325027999065,2.3594228982917733,-0.061232056126360464,-2.342657533911307,0.005452935736152005,-0.6521445234705767,nm
5.002695000000017,-2.4220080534003587,10.229083153524023,83.05898249061595,-0.7806246862480541,0.4699927608809691,0.07960346580741427,0.022167191894622847,-2.2511632056374364,-0.3664529652840647,-0.6525872966473837,nm
5.012227999999936,-11.554553720209821,8.335685330800906,80.6154892472194,-0.6737938019242549,0.3640667280209149,-0.22132767328804384,0.128232802855629,-1.8405198470933934,-0.31734947577924555,-0.6525872966473837,nm
5.021543999999949,-19.47773745088064,6.00253145973161,79.62653304254951,0.22534429471204565,0.2560795866982024,-1.058800805110429,0.19679459613556713,-1.630852465365447,-0.10213170478230167,-0.6525872966473837,nm
5.040572999999995,-30.20589743670638,4.241930733899614,80.77220621769939,1.130886726554388,0.1145936718244154,-1.6125730459196737,-0.11982247501972286,-0.9186290989120149,0.20002514303310764,-0.6529636538476696,nm
5.05007999999998,-33.43559488172328,4.960657417129609,81.57584692344781,1.8757045650739455,-0.11876493158554807,-2.083383234855904,-0.24022693531386397,-0.6155751099394154,0.17789013570161524,-0.6529636538476696,nm
5.0595859999999675,-34.776340339384795,5.587226511025967,81.93535602581682,2.253339161725874,0.10378221856492728,-1.9641188680407276,-0.16231866269599654,-0.2468494370561523,0.07408971487707713,-0.6529636538476696,nm
5.07860699999992,-30.78530596400958,5.802084867149937,80.35217319001707,2.6378616057756963,1.4129231224338916,-0.981194547381442,0.09826010464515744,0.6281500486451199,-0.2764866004057306,-0.6532835574679127,nm
5.0881129999999075,-25.722469328346744,5.870416560127701,79.1790353518578,2.0314160774079255,2.0943338493248467,0.3456441500766103,0.16694169767990027,0.9952177289294253,-0.31059721675353175,-0.6532835574679127,nm
5.097636999999963,-20.050532211671364,6.403457641554515,78.35055573858128,2.402396761444453,1.9066905370426013,0.31924497538383984,0.11744992639783237,1.1287514492859987,-0.24640045634255686,-0.6532835574679127,nm
5.116653999999926,-5.599992854111907,8.656763411810408,78.73809255975299,1.910484948087102,0.6087119418617998,0.026347477823582644,0.09213282582442742,1.5445049921133847,-0.00935387572785026,-0.6535554755451193,nm
5.1356759999999895,5.206294323621951,9.533847216172962,82.42594664661878,1.565525374437522,-0.6075085750949824,-0.08429690986489045,0.07159053709919386,0.8428195040883728,0.3644146230258835,-0.6535554755451193,nm
5.14537299999995,7.387334158302112,10.095548391905616,85.06394490882613,0.9298285921806045,-1.0241360446860797,0.5108315206272039,-0.06405740818165709,0.4403786834601151,0.5027007318668714,-0.6535554755451193,nm
5.154874999999947,6.245476970897862,11.051749730267126,87.8492804567055,0.06636927488599802,-0.9547080676084113,1.8525125331910561,-0.2053907616402293,-0.21250199682277765,0.6233694272895712,-0.6535554755451193,nm
5.183397000000014,-22.723831037569674,14.063784324892278,95.40362340976068,-4.725800673602978,-0.6098585507910065,3.888867160386179,0.048084602254289066,-2.5832440688052545,1.0047705667255151,-0.6537866059107449,nm
5.1927389999999605,-36.77345113831445,14.566058389134541,96.82567976777992,-6.406119834801635,-1.3491591715505757,2.5593358098373855,0.20283867537213052,-2.7217808928687197,0.8802599118323259,-0.6537866059107449,nm
5.211752999999931,-65.71963141343133,14.079810344925514,94.41550363924735,-3.286639796618177,-2.275345358054177,-1.8324438309983202,0.4232098844203646,-2.7028004364175477,0.1977656019637789,-0.6539830667215266,nm
5.221278999999981,-77.11289089851677,11.752120878217484,92.15738164222338,-1.6813450246683932,-1.9437630239731882,-2.447510382743716,0.5912541503283788,-2.193484422053137,0.0590300483049431,-0.6541500584106912,nm
5.24981600000001,-99.23188605839692,4.1579511348158125,87.21944241504427,0.8826218017101585,0.580325318006904,-1.3730220911004707,0.3170145347300488,-1.1225056782526504,-0.27204478756965556,-0.6541500584106912,nm
5.259305999999924,-103.8861988644863,3.604994425339772,85.47233657024955,1.1964142335497912,0.8161904744007975,-1.018841503792775,0.05103581781066322,-0.9347751775094356,-0.28662747647922737,-0.6541500584106912,nm
5.278328999999985,-111.31515355907568,4.516884618268553,81.95207983321839,1.1492748517159947,0.6825629197246414,-1.0204333609149578,-0.19459356175963,-0.6791174296235032,-0.3184802190806085,-0.654292001346481,nm
5.28785199999993,-115.8807584706169,4.377183607527496,80.01718444302264,1.617305221777322,0.45168773867204765,-0.6824925098026294,-0.1153641557739022,-0.9042182948104673,-0.3164005910395344,-0.654292001346481,nm
5.297349999999938,-121.37181936861906,3.125710665810177,78.47894766163955,1.9312184740782519,0.3392797942550381,-0.2850775826663447,0.04138112185837709,-1.1241843721764597,-0.23600902510334096,-0.654292001346481,nm
5.316367000000014,-135.23899479729775,-2.171766684157962,78.43992819229533,2.3907373580087143,0.963012297271768,-0.09933371996292403,0.2686104059883197,-1.6090779585325128,0.0988464260788201,-0.6544126528419024,nm
5.325885999999969,-144.05543101937215,-4.796476890129437,80.38809131320464,2.434904851885828,1.4845231880355791,-0.2539284767711199,0.19249110127417443,-1.8277018587842642,0.28189418106831626,-0.6544126528419024,nm
5.335395999999946,-154.34564692426764,-5.952288687369815,83.46969284523925,2.2851219168604033,1.9702549513575545,-0.6183631720399078,-0.05901220137485259,-2.062297733943018,0.42248997458311977,-0.6544126528419024,nm
5.354496999999924,-175.92768007517378,-1.9383345138175976,89.3431743878032,2.2128335333895492,1.9580609873726453,-2.9889591714545194,-0.6555833938289872,-2.1041682672190953,0.37284939910188614,-0.5832507549156171,nm
5.363929999999982,173.15659868546186,1.718225903833408,90.44489590489182,2.9067042206988187,0.7789000000878833,-2.626355413397444,-0.7344244422927015,-2.183145276524148,0.21554235895678314,-0.5832507549156171,nm
5.383130999999935,154.6152599652879,8.265507256356138,90.41802998076615,1.0650097958089735,-1.1895531698587039,1.1362755201385217,-0.5857565345514697,-1.5881553655243126,0.16272671642213837,-0.5832507549156171,nm
5.392652999999996,150.01870588540032,10.987147358852635,90.6601171426179,-0.08499911460887757,-1.8442377301356119,2.8626468132969967,-0.5364451222114778,-0.9120107334610393,0.2021214575983541,-0.5832507549156171,nm
5.421165999999971,159.28434761795683,17.377964692729883,97.02098756620862,-0.17663471556940932,-2.0959672174034165,1.8398530435080511,-0.37368851810290427,1.3085192915068515,0.2801472130700412,-0.5227631416782745,nm
5.440018000000009,179.49811741056342,15.331952305404688,102.90404465816732,-1.6942014911728123,-1.4377317290142126,-0.9597718602241653,-0.06303856004258561,2.2140619466314386,-0.19857684741676646,-0.5304155720667466,nm
5.449610000000007,-167.7359086686124,11.95683706333209,102.30705267805601,-2.38698283518578,-1.5002238165592194,-2.853105275400542,0.11537512330182352,2.5697858465341015,-0.7218840672364538,-0.5304155720667466,nm
5.468546999999944,-144.12176401851198,7.363456067659287,94.0741745344114,-1.7869548736755687,-0.426056363902792,-0.3520569199363433,0.004796445580314571,2.3058649496914803,-1.2811397865512,-0.5369201378969478,nm
5.478051999999934,-133.37007508941653,8.083306243611684,89.60627967487285,-1.4738198131846623,-0.2729172817198322,-0.8001702194047002,-0.21268783427428067,2.1273671567143793,-1.1809662107475185,-0.5369201378969478,nm
5.4877389999999195,-124.99211065114793,9.794432344411375,86.324051066318,-1.1121295079068882,0.3880817282145427,-0.01651017055705985,-0.28006658912921134,1.66856539895441,-0.8684876202270728,-0.5369201378969478,nm
5.497257999999988,-118.4821126033508,11.31768832407283,84.60627829970039,-0.5943083077221042,0.5794505858904585,0.059662799044336925,-0.20088458357605554,1.3014980553543831,-0.5482933466348772,-0.5369201378969478,nm
5.506759999999986,-114.38673310344076,11.605233833055264,83.95743411136785,-0.17523330586259211,0.6556456013662739,0.3135047225377087,0.023327003850778977,0.8051317486307505,-0.27436049490737746,-0.5369201378969478,nm
5.525788999999918,-114.08281037084207,8.200768926443496,83.75225518605113,0.25714802858935243,0.6614682362888851,0.05613917247907705,0.42361925161345665,-0.3149984283873703,0.0366744061166326,-0.5424490188526189,nm
5.535310999999979,-119.62817491386814,5.115871954920466,83.9871459710842,0.954575419951736,0.630767258184581,0.21654229995336258,0.49758125843061096,-1.161695402103244,0.15057953265060528,-0.5424490188526189,nm
5.544819999999959,-128.12085133895624,1.7149314289758382,84.56397777018331,1.0362888786804025,0.955121724013452,0.41188078912273346,0.5097082112625139,-1.75574794279125,0.18791445901860016,-0.5424490188526189,nm
5.563634999999977,-150.64080269704777,-3.047814190762947,88.18680556318553,1.4021236373212882,1.2246099642876547,-0.9999560608583372,0.2148710367590095,-2.473987935306036,0.3122725931711213,-0.5471485676649392,nm
5.573228999999969,-164.10573026537696,-2.0620441215015908,91.17042363035195,1.4688718609685174,2.230208356855385,-3.451978414779057,-0.20407636350115718,-2.6912002070356937,0.4106671878324982,-0.5471485676649392,nm
5.59226799999999,165.11474579527132,3.579405338170042,93.60868340142007,4.3220238482912725,1.9578045842265615,-4.090006341635549,-0.42717090633259813,-3.1619727487486067,0.15942926320425332,-0.5511431841554116,nm
5.611393999999905,136.5638250437894,8.824512787014081,92.99819456003611,2.5163384824748314,-0.3221291919245093,1.2072972186629594,-0.3795149840323835,-2.7371317209693213,0.2657380271988254,-0.5511431841554116,nm
5.620904999999993,125.58573059898156,11.659152227643146,93.0512953717451,-0.7582435799372773,-1.620965852005072,2.957163197212793,-0.45128183133603267,-2.189144285339502,0.40100316699322375,-0.5511431841554116,nm
5.630400000000009,117.345425469324,14.80029996591445,92.73045510903842,-2.412129170461209,-2.4055815316008844,3.362862858338128,-0.5464094946638314,-1.6353252779706187,0.31306824932784577,-0.5511431841554116,nm
5.668448000000012,108.66814912635967,13.891523428725698,95.31979540066598,-2.747684766289782,-2.0595465062373632,1.4628119107913904,0.3579735910631067,0.16400650700494432,0.3179861207870217,-0.5545386081723132,nm
5.687296999999944,106.91138970215756,13.438464460933975,97.09404108648404,-1.2795799902706897,-0.04438393475480719,-0.6338634525574913,-0.009345078876531184,-0.37485446654852417,0.25387573233283633,-0.5911140794909486,nm
5.6968089999999165,105.08823811096875,14.026594198270143,97.50547374908513,-0.99146287986918,0.7618336715541304,-1.5189487709373615,-0.07187165783368711,-0.36664735290422745,0.16893792785790743,-0.5911140794909486,nm
5.706320000000005,102.75420083227768,14.338803169144581,97.37546372466313,0.43635301650150277,1.0828621999943062,-1.547735096101088,-0.0033397080437802284,-0.45727402301178793,0.08842382566710491,-0.5911140794909486,nm
5.715919999999983,97.85173605837855,14.220994912689207,96.2101494328754,0.6623609156308228,1.0038391168066942,-1.7734180688753243,0.1360601600368366,-0.9415728503410965,0.008936513262917558,-0.5911140794909486,nm
5.744356999999923,76.94012735338471,9.861614994071694,91.10643114213988,2.823536416487585,0.16429896517749926,-0.010315910201437793,0.42160302389647275,-1.559573758914666,0.05534297856790919,-0.6222032301117888,nm
5.763570999999956,60.85140971995115,6.938520609350997,90.39157890166507,2.591120309671262,0.11510327075997406,0.8002934617428837,0.26509559693669676,-1.519908152684474,0.15800572552184355,-0.648629008139503,nm
5.773079999999936,53.79939255375705,6.261013880666156,90.34482710430876,2.274710150143875,0.49205768207143985,0.8760204651392702,0.14587702295460195,-1.4020363362304376,0.13203226840179025,-0.648629008139503,nm
5.782570999999962,47.97014170008668,6.202831891654507,90.29601933072244,2.1792325607452967,0.8953673972112735,0.4968709876008733,0.018998446997616252,-1.1605903812553802,0.10022790560864048,-0.648629008139503,nm
5.810932999999977,39.1459556642295,8.523663640003237,89.6432465627691,1.648346504443568,1.3258905676782573,0.17879403688370282,-0.22027109090394745,-0.3306021688584781,0.010659611552445951,-0.67109091946306,nm
5.820626999999945,38.998772285572734,9.884999187737428,89.48803530557443,1.1567010472820338,0.9705752925493131,-0.036581784810244225,-0.27300646540706164,-0.026560195528279512,0.013640074139196738,-0.67109091946306,nm
5.839472000000001,40.541773333433696,12.800697077255773,89.81149920296502,0.0980425302463969,-0.24476925781606582,-1.0758697617171473,-0.28512004593632884,0.20756847620893842,0.07177625925706098,-0.6901835440880835,nm
5.848987999999963,41.715548030801905,14.117553783020655,90.51441722823796,-0.3931993294740899,-0.7451437060527714,-0.8620803162369876,-0.2640079878455614,0.22853433924291963,0.1418551027061992,-0.6901835440880835,nm
5.858493999999951,41.38940768308297,15.351072850052615,91.66302170755883,-0.7162914829809979,-1.1168410755287326,-0.44754179028456986,-0.24617316229921377,-0.06737218325873622,0.298073987959577,-0.6901835440880835,nm
5.868186999999921,38.21212729617841,16.319504737098505,93.1555654978397,-0.6732062620428848,-1.1191569339958463,0.7104516373307126,-0.16894371885011994,-0.6198525175653268,0.499630173972581,-0.6901835440880835,nm
5.906213999999977,-8.6126230915888,14.81164597666537,97.47751967315372,-4.59952320809569,-0.8596722986663445,3.7682370242053764,0.4895117809508541,-2.9339862616279375,0.8290589125752148,-0.7064122750193534,nm
5.915550999999937,-24.183087351694688,14.488186816436668,96.91139152535271,-4.570602241813971,-1.3927211625355067,1.3987897691431794,0.45151056731171946,-2.984493892545106,0.6019166501289804,-0.7064122750193534,nm
5.953672999999981,-67.21965170976131,6.75201317593744,91.71517293559113,0.07573215437517898,-0.010037319542183575,-2.2003034539250317,0.5270194706797253,-1.4280372541533264,-0.10193412487822884,-0.7202066963109329,nm
5.963188999999943,-73.17386209069463,5.1783463756451145,90.90657621071244,1.0220260026762105,0.5190158811541735,-1.8517771852393432,0.34581554653638535,-1.1773002678811226,-0.11403393313454271,-0.7202066963109329,nm
5.982141999999953,-80.91501873679938,4.850604480559015,89.49617620066981,2.079338111067242,0.8129916751772044,-1.273224953937953,-0.0486217094300094,-0.6402694850328106,-0.15362611090983255,-0.7319319544087755,nm
5.991634999999974,-83.44934256543549,5.35565921615145,88.51704637862669,2.188015966146189,0.7597052910597483,-1.2412239922176738,-0.10916001591683056,-0.5038045961686605,-0.19237518250931337,-0.7319319544087755,nm
6.001141999999959,-85.97598999635285,5.5262012258795155,87.36273004582951,2.994035240488427,0.8930605326861971,-0.7011695226435016,-0.05157505288246027,-0.5021424131371067,-0.22162480714274208,-0.7319319544087755,nm
6.02968599999997,-87.86131038145463,3.7873079785922257,84.81965236557112,3.4006142636218892,2.1348472479111718,0.1269109145902081,0.13242217063605388,0.007417991207269139,-0.11522187711277244,-0.7418984237919416,nm
6.04870799999992,-86.02878569871972,4.806027604170871,85.77054562229445,1.9074069588664258,1.9388258314086608,-0.12693536516424328,-0.17998543988278665,0.2191342503831207,0.16416954567290015,-0.7503699227676328,nm
6.058222999999998,-85.03649219931319,6.5748652482284875,87.48634056951114,1.0071047241609736,1.4028074936722157,-0.3193009217303727,-0.341921180292865,0.2181866653906753,0.32406013330639794,-0.7503699227676328,nm
6.0679289999999355,-83.6079569169956,8.748506860982832,89.74661582566362,0.4333624412729459,0.5564884698704573,-0.25965748598708077,-0.4280613003727061,0.2941263116189675,0.4264938996452072,-0.7503699227676328,nm
6.086752999999931,-80.99183087829252,13.207188149905903,96.89678458503276,-3.587161248228957,-1.214850158282771,-0.17132650441719185,-0.44403118551607684,0.09188230710719185,0.7622575905785112,-0.7575706968969703,nm
6.096254999999928,-81.00542107531162,15.146498154265753,100.83596655950906,-4.423591517136829,-2.0766154262583836,0.5105939146391466,-0.3830704329488266,-0.06242260517624003,0.7967581628283112,-0.7575706968969703,nm
6.1247999999999365,-79.39601413901397,16.958961863143767,107.45862543793065,-2.9147833549956945,-4.8688865742294825,1.8356706822573492,0.07600247669360026,0.07955451965137152,0.14576873970263207,-0.7636913549069072,nm
6.134311999999909,-80.02274443638068,15.07209874832487,105.74252336734386,-1.914994190761879,-4.126745548847501,1.399253768202484,0.3965312749189379,-0.007476296982763908,-0.31606384121132247,-0.7636913549069072,nm
6.153504999999996,-85.60359394301076,9.247795458788703,98.73937173781131,-1.2288045113376596,-0.0876757247066353,1.1032777005948224,0.6820090292594642,-0.5203660285346576,-0.6830363388254056,-0.7688939142153536,nm
6.17234499999995,-93.98592298476098,6.269363648614106,92.81370841039448,-0.2825537176310028,2.0773016925543235,0.018047604458475537,0.26419470808916934,-0.9514177442381908,-0.38991781943595066,-0.7688939142153536,nm
6.181850999999938,-99.96125746818439,6.1393815467705215,92.04846875096585,0.024436806852436772,2.15858318450233,-0.2780222170501608,0.07850111888207169,-1.186930988164668,-0.06601150489100634,-0.7688939142153536,nm
6.200882999999976,-113.43349461127343,5.633906450653219,90.41812183585719,0.2915777628466235,1.2284742470222958,-0.8177221392790631,0.13576596859602605,-1.3761649660825008,-0.1185824089205877,-0.773316089627533,nm
6.210385999999971,-121.72822813291128,4.326208567954269,89.899103858441,0.3706428679171709,0.6404561708886544,-1.3434964939513587,0.26824014184678807,-1.6529060167927985,0.009906132893482375,-0.773316089627533,nm
6.219996999999921,-132.08523399315993,2.378740369196483,90.18832771603803,0.5908936671435083,0.24655945190657572,-1.7374971516090718,0.39073292314120806,-2.0690994284135775,0.17879007094481011,-0.773316089627533,nm
6.229471999999987,-144.24581866019906,0.06823482644920208,91.15842146246662,0.666850676018829,0.6634018063682644,-2.4246125551778075,0.4898285309640072,-2.4276352706996804,0.24529617686762506,-0.773316089627533,nm
6.248502999999914,-175.96694483150148,-2.902299735504409,93.693726860447,3.3765113763127346,1.6920571663309678,-4.537909720863016,0.34746238592393874,-3.4866765235296144,0.11327279086318431,-0.7770749387278855,nm
6.258021999999983,164.67973047895387,-1.921978736533753,94.54335551887264,5.885452029772253,2.369594073606151,-5.306692328912152,0.08381617065375224,-3.8729269996291786,0.005438242272027433,-0.7770749387278855,nm
6.286658999999986,103.30849463138787,3.6402893555725258,97.4841173610223,4.4290615234654505,0.6458904470645456,3.4291922618196966,-0.01672958189795245,-4.046671892483069,0.425001948592534,-0.7770749387278855,nm
6.296154999999999,85.44343014331483,7.147751867355673,97.40542837520603,1.5593592814511839,-0.7466837886956488,3.53628378315533,-0.22960064967345015,-3.6217053450448975,0.32017504901265403,-0.7770749387278855,nm
6.305673999999954,70.00152263926186,10.416970502691779,95.88601942674704,-0.15955075158882817,-1.9812170866789012,3.6066664515956086,-0.29269200460200295,-3.1108780602276034,0.16949957879494193,-0.7770749387278855,nm
6.324688999999921,39.4495572178833,10.79717927893826,96.0947126185337,-1.4419629937524214,-1.9019913639008692,0.8327020193713697,0.45200581038203913,-2.847545538282565,0.8948740798414245,-0.7802699604631851,nm
6.334210999999982,28.106976228628167,10.339345367697325,101.16105158952823,-2.185238093698229,-0.3817268672249763,7.45065022579959,0.42546523618737536,-2.1961657592337267,1.4277843125927407,-0.7802699604631851,nm
6.353049999999939,-8.039580004694567,15.73369846499548,109.9177516522341,-5.7262737530555246,-1.8844801843363697,2.408929980669066,0.5775896157210411,-3.8431667703089016,1.596428367587978,-0.7802699604631851,nm
6.362556999999924,-24.88543625196433,18.352723131310103,109.5708536705643,-7.275819233016703,-2.4798488471427698,2.2032209428616887,0.5997651247814154,-3.213202097797536,0.9205043279193902,-0.7802699604631851,nm
6.391182999999955,-72.0377529709779,9.444964244300808,95.67188832496824,-0.5016204787946893,-0.7683089411417078,-2.937313528236775,1.5681286563138987,-2.1110655259424815,-0.13986806210508973,-0.7703995627696298,nm
6.400671999999986,-81.3870795074459,2.496507876114776,95.50577591498806,-1.186198151120697,0.3535084480316012,-2.452886565913171,1.5639092898032927,-1.7189447055766016,0.16079977314034416,-0.7703995627696298,nm
6.429147999999941,-103.83938319781504,-1.4787130244260638,95.08523477026837,0.6233314822234625,1.0359912685224537,-0.9948215096446016,-0.2784655570175053,-1.273295629402267,-0.1959383282314774,-0.7620097247301079,nm
6.448156999999924,-119.1026280502515,5.253512087844556,91.79981883693664,1.6613676241626183,0.5820325381810323,-0.40576215831896656,-0.5384940410908436,-1.5604075113683131,-0.34581778670405083,-0.7620097247301079,nm
6.467178999999987,-137.07041302641483,3.234668958845415,86.69945549760578,2.1361441071773513,0.2558135943481512,-0.6752672459523659,0.4243287541984671,-1.9879409003899169,-0.24656694125624498,-0.7548783623965142,nm
6.4766839999999775,-147.9161493729832,-0.6512272364616187,87.68406888789417,2.214913135037102,0.7651207086064146,-0.8025488747128544,0.6690470621594019,-2.2056991101791463,0.24519066143055723,-0.7548783623965142,nm
6.486200999999937,-160.32711561904608,-3.510631731622758,91.92645464164873,2.1565870033482453,1.760451304089961,-2.2311038148921982,0.5624887358300452,-2.484384445829227,0.7556689064578588,-0.7548783623965142,nm
6.495702999999935,-174.91510237174475,-3.3314700301703124,97.79379849542737,2.133893199313079,2.581653435843127,-2.2440729842452907,0.21142103543157417,-2.907092560903925,0.9941758967550298,-0.7548783623965142,nm
6.514737999999966,157.34156694428762,6.208870234763426,104.43085394683165,3.0261748695580497,2.140222414055152,-2.755519773469341,-0.4938653235861092,-2.8392300804972885,0.5176925773150868,-0.7488167044129596,nm
6.533940999999913,132.61091898405905,14.771759249843873,101.13783656222674,1.101108804767954,-0.5629566151983082,0.8761404913007773,-0.14501100289071692,-2.3989383527271433,0.06767313482628436,-0.7488167044129596,nm
6.543446000000017,123.61966832513552,16.21801133835696,98.67236913499538,-1.0297662240376657,-2.5004836333777503,2.830645838617368,0.013683704072998286,-1.757730025431848,-0.011975131849188225,-0.7488167044129596,nm
6.552962999999977,117.04720805910512,16.720914992557272,96.44554205877348,-3.0457756564427214,-3.9425453555671517,3.7189648484557942,0.06641145884553164,-1.2636038720072682,-0.07244705437172602,-0.7488167044129596,nm
6.571980999999937,113.66038538187858,17.2382275987174,97.56765234374029,-2.3561794172385166,-3.5461382118412175,2.9654734699914593,-0.05666901277941922,-0.06931397861831827,0.41493814243793126,-0.7436642951269381,nm
6.590815999999904,116.46564052104867,19.448974591262257,104.40434732847527,-2.420442080288606,-1.142485026156297,0.5107922230217663,-0.3510549326856003,0.251169894549749,0.5025009327277421,-0.7436642951269381,nm
6.600315999999907,117.40049008330128,20.39274629296311,106.32613030810685,-2.1624058624148126,0.18720046473932847,-1.3064865439303521,-0.22914131214714162,0.11937891718712809,0.3208563983294792,-0.7436642951269381,nm
6.609933999999953,117.8963309795215,19.563390299499442,107.38650996703194,-1.9633563671812324,0.7239904757224677,-2.376569801724452,0.13188630061303855,0.13736779211337255,0.17841717002937718,-0.7436642951269381,nm
6.619441999999935,117.5561928284123,16.834332230390537,106.58912679777228,-1.1635414626779317,1.2572384539898256,-2.564665902410247,0.542293957756262,0.09548501929046233,-0.035368824245912076,-0.7436642951269381,nm
6.628935999999953,114.7924680672744,13.222239391032385,104.44805207997783,-0.3197074560350766,0.9122848394191609,-2.152865312548695,0.8403851813960733,-0.3211671286007512,-0.28457172126811414,-0.7436642951269381,nm
6.666905999999926,85.72265613337598,3.6876852356630643,98.41721590887047,3.239362529893573,-0.19437453157409298,-0.43439091018618337,0.3777724625833097,-1.9025535194933183,0.24191671907392062,-0.7392847472338199,nm
6.676418000000012,75.46996584183815,4.70630769694814,98.56599609465435,3.706739796573209,0.22949779020437105,0.622504021471457,0.10103458858158686,-2.05511613810988,0.17982436111194453,-0.7392847472338199,nm
6.6861129999999775,64.63417894298235,6.231600203827009,97.61072115104164,3.2335530882828865,0.925490637164387,1.1765912633788245,0.0024126321308487308,-2.181492473647479,0.01598183862664026,-0.7392847472338199,nm
6.705138999999917,45.04764935040788,7.034053103093079,94.65835787327543,2.738073404425529,2.0939511545409544,2.182466582479279,0.19391725466751614,-1.781651998684464,-0.04401489472968638,-0.5548022631806901,nm
6.714648000000011,36.91068915030797,6.136701460259305,94.2015895477778,2.043264682421063,2.061778567309784,2.3886086216848628,0.30404083297333423,-1.6004947504325113,0.09570484405218425,-0.5548022631806901,nm
6.733575999999971,26.725681434556744,5.681524790818751,96.26063190845669,0.48811151093383365,0.9485325478631873,0.6609883799202553,0.015533367738846428,-0.7092350720734573,0.3495698517272888,-0.5548022631806901,nm
6.743197000000009,25.100157683123804,6.82412232883907,97.41454178570442,-0.12100951463270734,0.10557421291541391,0.09914142427507905,-0.18879707270196144,-0.34869887724526943,0.2664108066548853,-0.5548022631806901,nm
6.762196000000017,25.774999452437406,10.148246715660878,97.07864476508975,-0.07732069091447667,-0.5346962138526116,-0.3722322253696114,-0.3911818586470818,0.17289586933424317,-0.10901120727058643,-0.39799215173552993,nm
6.790719999999965,26.83724985255472,16.771795881999044,97.72766839955841,-0.5035394218283142,-0.7410541273010907,0.1503377846027991,-0.29979004976612394,-0.30665702406061285,0.3180852391093131,-0.39799215173552993,nm
6.800233999999932,22.3252510583306,17.082117610499346,99.6192309542598,-0.8383220514392584,-0.5502365627356552,1.1470324116654556,0.06826999935481598,-0.8644986692495567,0.6585325593293347,-0.39799215173552993,nm
6.80974399999991,14.443329620320924,16.457421635714166,102.23760099767281,-1.6128335342075153,-0.3540743464860266,2.5397206334116484,0.4096536659598943,-1.4612254967419291,0.9747516498238756,-0.39799215173552993,nm
6.828770999999961,-9.90480744921086,15.797787172228027,106.67737026819164,-4.23184486211659,-1.5386767906020167,3.2760146698255537,0.7212090980998863,-2.4793188545594123,1.0272874144137518,-0.2647035570071437,nm
6.83809599999995,-24.269970656192587,15.92515105256506,106.37608753897165,-4.340586128513127,-2.3570701795858824,1.5048939003646737,0.7702335844229574,-2.6590421839035168,0.6652644248089526,-0.2647035570071437,nm
6.847613999999908,-37.9633857658609,15.029980294206926,104.26920004408485,-3.4405631087557134,-2.6354452958061168,-0.4512217369918974,0.8808490833557271,-2.4985472461927998,0.21683044208557328,-0.2647035570071437,nm
6.8571119999999155,-49.943684225873994,12.302028879915046,101.53422209615282,-1.8075048511287817,-2.258677692395126,-1.91275883221563,1.060250271943603,-2.146878190732204,-0.07607500022212282,-0.2647035570071437,nm
6.8762349999999515,-66.05702192254557,4.84578985540425,97.69031799656034,0.16068675048601935,-0.11814188973049429,-2.040288701131064,0.9006479210924677,-1.2046329650103578,-0.2566182023842408,0.2,nm
6.885734999999954,-70.81431196272847,2.7753687843602557,96.39581348993099,0.6459717966503643,0.6158381747560098,-1.7630355323866116,0.5306284269830772,-0.8910145160950119,-0.268151891232897,0.2,nm
6.904674,-75.22260306777645,3.7788198285437695,94.6091272648844,1.7197564427812664,1.1336793385966653,-1.5338218016861045,-0.2273250021443782,-0.2682184220442368,-0.1829408633756398,0.2,nm
6.91418299999998,-74.91891937447795,5.589451950002907,93.96208517758052,2.0776770280989796,1.0110961992996974,-1.6301523546866912,-0.3664117535042697,0.03289287801182949,-0.1624368955400301,0.2,nm
6.942729999999983,-63.95729302576768,5.416991291077795,92.17833071772701,1.8741348485393177,1.2593010822677468,-1.4590030914735088,0.24774051545060552,1.0606299568733697,-0.21991171086276906,0.24358977196805673,nm
6.952233999999976,-56.66542846684373,3.277804802440451,91.11296475129225,1.3618312249038458,1.6546503228023024,-0.8779527897608773,0.3878784104996008,1.46751516361184,-0.2930216398940385,0.24358977196805673,nm
6.961744999999951,-46.78899589160226,1.727378168953785,89.51463950524887,0.37017232701735436,1.914057334059245,-0.04147289877120212,0.3032094094592409,1.9774852160427023,-0.3558129488250343,0.24358977196805673,nm
6.990452000000005,-11.171083119646674,6.526453841711881,89.5720298474225,0.5980711911179857,0.13828222861608966,1.247740002934809,-0.47043211584514494,2.4347344648050333,0.26650868485095164,0.28064107814090494,nm
6.999961999999982,0.5154125578492783,8.524752419052971,93.91548020223598,0.5952366727606623,-0.965903329990651,1.1630612470518993,-0.4694481885489953,2.3081604439767434,0.5599567996773583,0.28064107814090494,nm
7.009469999999965,10.397313980873689,9.244511568562082,98.17378710169115,0.691829805579291,-1.6968097054553724,1.0407224113359421,-0.33786075372412905,1.9321617869888372,0.6787365495314978,0.28064107814090494,nm
7.038004999999998,20.802336383212786,13.190628672708222,106.08880993927971,-0.45106675158908943,-1.3262338897538328,2.158081456291501,-0.36118111482865295,-0.29807520989483804,0.3821442950531178,0.31213468838782593,nm
7.047521999999958,15.097508692069729,14.907689016051227,105.9166574384654,-0.983549299992053,-1.266940856552099,0.6135974753623927,-0.02473941376489471,-1.1605615153397486,0.2430116627262326,0.31213468838782593,nm
7.057021999999961,7.163897502646304,15.160399681239971,104.49015178945083,-1.952542305129037,-0.4546685453579723,1.50841792826146,0.3568897034057502,-1.4937303076393573,0.07943410754952353,0.31213468838782593,nm
7.066531999999938,-3.209448816329492,14.482498977900223,102.43077610393145,-3.2083197145995834,-0.10455754159451007,2.0232593139802946,0.6048900660098061,-1.920456666221357,0.054071834640070114,0.31213468838782593,nm
7.0853779999999915,-23.8526238624739,11.607543324176564,98.8105681108705,-2.148253652445755,-0.35209353086639694,-0.829483147162145,0.6387510048447459,-1.7087593901897171,0.017685974299029388,0.33890425709770877,nm
7.104478999999969,-35.85291990962897,7.9443716603870405,97.85309345974531,-0.2713595769623659,-0.2866680161241195,-2.612792788529754,0.4673265999301711,-0.9463398788379229,0.07181087516520847,0.33890425709770877,nm
7.113984999999957,-37.784431402086895,7.182989015605746,97.73425018912114,0.3571733944237179,-0.20439236233214608,-2.88568155605722,0.20360870806254078,-0.35904655745580943,-0.004787203679460085,0.33890425709770877,nm
7.123493999999937,-36.805523417508844,7.157306378855283,97.43014936549197,-0.06690328024047344,-0.2791302676872424,-2.550397156077694,-0.020728862604117444,0.19352884931094755,-0.1003869349257977,0.33890425709770877,nm
7.133005999999909,-33.909629653562874,7.248226514262606,96.91539120748897,0.18412512902881495,-0.04400370679282879,-2.3093969728659522,-0.0898314221350124,0.5687888502425287,-0.170231284160357,0.33890425709770877,nm
7.142550999999912,-28.484198831881116,7.081441265426275,96.1178211055279,0.32757559820802673,0.38411063758530817,-1.9163740341388067,-0.08763924621397234,1.0753587501267818,-0.26071977072992775,0.33890425709770877,nm
7.161648000000014,-8.628008728766272,6.364536005024694,93.31437404312123,-0.1768086335658551,1.6402256272093092,1.5862282646186667,-0.08534770720229844,2.27374400843048,-0.4862720563810773,0.36165839050110915,nm
7.180667999999969,19.022417215589954,7.1893989578950785,90.67987576602492,3.2262186418003562,2.4770346133734567,4.042355365737462,-0.20767867193451545,2.846324236434678,-0.4219085376260554,0.36165839050110915,nm
7.199522000000002,48.77729294030947,9.174678134384406,91.5263555457342,3.792749079326251,1.0264529577478703,1.0296690432512958,-0.17946944641128276,2.8746870560533346,-0.17254673802162795,0.3809994038939995,nm
7.209019000000012,61.50898453692667,9.02474356148496,91.98509987311651,3.1342842933029074,0.10126101378673284,-0.32062439215571625,-0.034575164885589406,2.517773803239375,-0.19576912696506013,0.3809994038939995,nm
7.228034999999977,80.91549899146841,9.144774131995856,92.56301173870794,0.1552891778739588,-1.5154955937229078,-1.0759813810328098,-0.14759330676359766,1.7161909520842507,-0.13516821035233678,0.39743926527795626,nm
7.2470579999999245,92.66920036159514,13.082763580683551,93.68993481513503,-3.2211366904804146,-2.189195555737913,-0.15939069489280044,-0.5448591669199352,0.9496553507699882,0.05817052091591422,0.39743926527795626,nm
7.256572000000006,95.54862599793007,16.07956388094871,94.08592709442767,-3.669621521110845,-2.01511450986073,0.049691257295453976,-0.6345021828281201,0.5188483555078904,0.03874066536876125,0.39743926527795626,nm
7.275594999999953,95.85455963085131,20.053138920007452,93.19189627560611,-3.5064429745392403,-1.3250872414785362,-0.73585099715675,-0.25265170174248536,-0.10397380415661053,-0.04614622940071808,0.4114131474543195,nm
7.294623999999999,92.00347772449882,16.467664205135314,91.36475115385429,-1.0232146821679193,-0.49566108593385305,-0.7060448713121614,0.5742431115773645,-0.48310020980944723,0.03536922627018888,0.4114131474543195,nm
7.304305999999997,89.09238132788077,12.33647398914075,91.09932868947163,-0.570191386030488,-0.29161625522627826,-0.5490138736155867,0.8388974478494537,-0.5476281809352965,0.11678267371592319,0.4114131474543195,nm
7.313823999999954,86.40463192263331,8.035602062809463,91.13794807254794,0.37086757505718987,-0.17758727781088432,0.04941118852479116,0.8710857796189757,-0.5138839632867201,0.12959286004562473,0.4114131474543195,nm
7.332848000000013,80.10965008984716,3.1821307976716757,91.19076910789462,0.6701557641318586,0.17242383725160004,0.07813845960280301,0.3275885654168241,-0.6107152819460814,0.04839459229308323,0.41292105400307555,nm
7.342359999999985,77.80807763089543,3.317452250395317,90.63491377763081,1.1168422263556566,0.5198097690276464,0.24334831127630238,-0.020007159026771554,-0.4604857347422922,-0.07050745658314306,0.41292105400307555,nm
7.35186699999997,75.83609629579921,4.568909899385653,89.35744750183612,1.5016578747966927,0.9410832883616593,0.13943119915922036,-0.2508610687190408,-0.39375533165895776,-0.21224465159783934,0.41292105400307555,nm
7.361181999999985,74.3065346264976,5.957839858484672,87.59474165920699,2.0578265298044203,1.3424094710613172,-0.24330893955125615,-0.28627842142363746,-0.29728973695397143,-0.3081401799603947,0.41292105400307555,nm
7.370689999999968,73.89157750950754,6.6010167629552035,85.95977299863124,3.0495916019617075,1.410264279345974,-0.12627061126315312,-0.13320675893883815,-0.07505031367326964,-0.28993321481326745,0.41292105400307555,nm
7.399243999999953,76.74386364638927,1.8440569296799019,85.69308046575797,3.13226276090957,0.3510123987904159,0.518352845605631,0.5158426253270638,0.23565465370022273,0.13030726602620185,0.4088125954886451,nm
7.408920999999964,78.8041616094431,-0.4127563969893591,86.35283800223505,2.5507156398719872,-0.14302638337617118,0.7946400994232077,0.48034263381945,0.3791649712198248,0.17726415585759775,0.4088125954886451,nm
7.418435999999929,81.39424761836382,-1.4296457893380323,86.90865525596486,1.7691283070860262,-0.4489850449072273,0.788744552138891,0.23499043539637277,0.5051293686659367,0.1774759093246557,0.4088125954886451,nm
7.437456999999995,89.34377380879012,2.174662887796733,87.16057329798618,0.7679643691400391,-0.20155400599646417,0.699290743074637,-0.5015435593985054,0.9369995327651867,0.06966805784810268,0.4053204057513793,nm
7.446956999999998,94.65568890467243,6.2726062064455785,87.3782232960915,0.3234201374510778,0.21979790923568013,0.562049681712458,-0.7638679043200916,1.1023333946582345,0.07316822459986205,0.4053204057513793,nm
7.456481999999937,100.65963243090664,10.68332763022673,88.31070414515904,-0.6764600492952295,0.5316788928932088,0.3116139613645105,-0.83126400000425,1.2258776030493297,0.13006161490010523,0.4053204057513793,nm
7.475503000000003,115.69831513485906,16.464245263778757,91.44302579498124,-3.4194760455258146,0.45769822117238246,1.2616631481513019,-0.44316097994450926,1.5384940637641447,0.01592608474927494,0.4023520444747033,nm
7.4945149999999785,133.10512064236931,17.421095055811108,91.05117797983554,-2.053942531639419,-0.5335773622752915,1.5153822224394697,-0.06456658789824632,1.6827752097484248,-0.6138492912670395,0.4023520444747033,nm
7.504031999999938,142.8519014794387,17.20111820024807,89.02109890391225,-2.083485408597138,-0.9730964167671806,1.4585031201382987,0.050855906717894035,1.8622855981085655,-0.8884587310937697,0.4023520444747033,nm
7.532385999999974,179.70767296007608,13.663061386106575,84.73419190366562,-1.7452976987456448,-3.005136818046799,-2.33626698803424,0.5457030871860413,2.33910511586618,-0.8013921055643565,0.39982893738952874,nm
7.541967999999997,-167.74308392335672,11.209844945561956,84.05906381349357,-1.804568396913397,-2.1094636696128033,-2.7035263974987545,0.7266437710684975,2.392796645163446,-0.6756007960842743,0.39982893738952874,nm
7.560910999999919,-151.33969157704615,3.9827805682587996,82.20161976570748,-1.6009876899769493,0.6186138863942179,-0.8368176826102861,0.9207767826946662,1.1337356079907592,-0.34918549459648757,0.3976842963671303,nm
7.579935999999975,-147.72250294171872,-0.910900986642781,79.08487510569071,-0.029542971105722595,2.1985527197803663,-1.05297203198408,0.32756788329909403,-0.03008050611006507,-0.3170581882115971,0.3976842963671303,nm
7.589441999999963,-152.50171306244195,-1.546645985271105,77.77197795531531,0.6684638850819151,2.324078295958985,-0.28166770837469884,-0.06715924398548974,-0.9622375110039514,-0.28328764647802424,0.3976842963671303,nm
7.627491999999961,166.46894509389182,-1.243441847712174,80.34540732084957,4.177543001240336,0.9912929318493311,-2.730656592105978,-0.8757270289176848,-2.752040184627876,0.34287645227946917,0.3958613514980917,nm
7.637001999999939,152.88352969157015,1.680034392381158,82.52147570384699,6.55580882033596,-0.31148131908002963,-3.0784666992790606,-0.981600590821926,-2.6016417208031726,0.4437191621036242,0.3958613514980917,nm
7.656199000000015,122.68008434355615,10.227499578368555,83.54979910752604,0.5301197738494976,-0.3571889060714044,1.598914757598513,-1.200226663269746,-2.8458084524130776,0.38313286852462847,0.39431184835940886,nm
7.67522699999995,103.96285332741304,15.843282592366224,81.20306476718186,-0.7845451033760888,-1.4625546204341384,2.4352883942204038,-0.6523263652121503,-1.5299046247644295,0.20288965714049073,0.39431184835940886,nm
7.694245999999907,89.15065511444091,16.406413149054146,81.235893528199,-3.6178787661859273,-1.8448360989782484,1.4221106451671879,-0.11382707407729732,-1.1261633206245922,0.4501326356400782,0.39299477069152844,nm
7.71309599999995,81.53520313820334,13.469413386583302,84.60617011861034,-4.377356609680042,-1.206763058087691,0.754601075573237,0.2541934423998456,-0.7195358386707149,0.5316996555006062,0.39299477069152844,nm
7.722769999999969,79.48112491093018,12.327323557720355,85.71084289342367,-2.770033551198048,-0.6475204851086429,1.2658930026568593,0.19400259704880266,-0.41884821105883696,0.3130891787710192,0.39299477069152844,nm
7.732292999999913,76.89215266350128,12.442972211590604,86.08555212446737,-1.66830330138143,0.028973792056711155,1.2719909613979354,-0.059374690789376114,-0.5034184750525479,0.18619400737874814,0.39299477069152844,nm
7.741626999999994,74.42210913769686,13.511313441475048,85.7147314994778,-1.9693600049592912,0.4186001255870325,0.03015650846602807,-0.24787564337109916,-0.4654569664266266,0.036730282928022474,0.39299477069152844,nm
7.751310999999987,73.94860773575851,14.544555601446278,84.38570738786834,-0.5134229893441152,0.9610071824780911,0.46722917596478,-0.21401308518833478,-0.073763656869731,-0.24321753329892884,0.39299477069152844,nm
7.770160999999916,73.42228270545917,14.498388119316612,81.2052099490023,0.4509587971626115,1.018951351088886,-0.45769622823530115,0.09356277548612775,-0.03164862065119846,-0.2705171215476335,0.3918752546738301,nm
7.78934199999992,77.08831800956358,10.600996779720731,80.60838261578552,1.4275958884950262,0.020110131783476193,0.1749626597357062,0.5304788294994551,0.3050084050406564,-0.0900036742375987,0.3918752546738301,nm
7.79867999999999,78.98214157089903,7.891344693112544,80.27231200089156,1.5028412483854932,-0.3698022484486864,-0.1952408216257089,0.5978075863985094,0.2782935608168087,-0.10165890242838443,0.3918752546738301,nm
7.817704999999933,84.37364785493408,4.044815904833143,79.68396338917566,2.7204427731763015,-0.7470293633631356,-0.17727732740049348,0.38668879766797937,0.4933015499584145,-0.052643838373282764,0.39092366605878653,nm
7.83671599999991,88.871837338627,4.177394377051474,79.77414163512563,3.2210507913703648,-0.17592963981227364,-0.5462666990416412,-0.02351113094024674,0.4248092253398957,0.027949637805784515,0.39092366605878653,nm
7.846235999999976,90.26364134068847,5.158554427234971,79.92689837353666,3.2150477795061567,0.23560482296021262,-0.4520870720920483,-0.14410846303003103,0.30826193770338217,0.043603534573194644,0.39092366605878653,nm
7.8749449999999115,91.68596572386815,8.077246763984961,80.23053600927598,1.2290121963208411,0.5106411528113028,0.164914747732677,-0.1504397464469006,0.12034999037261998,0.007287328817807401,0.3901148157359995,nm
7.903488999999922,98.15528688428499,11.77147172364553,80.6820774905611,-1.0564439830962187,-0.21856801438531379,1.0390000449134025,-0.2281659847412182,0.6532201456842553,-0.000648343791785605,0.3894272929616305,nm
7.912988999999925,102.6394482244188,14.001784389698544,81.04018346354329,-1.8807416120833071,-0.16803514119645827,1.4218469830814764,-0.29941657779839015,0.9357970115674523,-0.06420691801857338,0.3894272929616305,nm
7.941520999999966,122.1575741492493,22.245124983233236,83.09251180186357,-2.4075939071138945,0.045800964767194384,1.727075234526982,-0.3422551485219139,1.4143947773185512,-0.2626524669713472,0.3888428986034168,nm
7.951036999999928,130.50121955248292,23.83517566505395,83.96224028921351,-2.2685574344761963,-0.06689147889049357,1.5142416529275669,-0.1372405349116655,1.5630704265912436,-0.3966962076580433,0.3888428986034168,nm
7.969878999999992,149.74916780290576,22.239865662539035,83.60464852743233,-0.6534225458382511,-1.307932596121141,-0.9334945530345171,0.541228857055169,1.7640496028376444,-0.8110068841761461,0.3883461633989352,nm
7.979386999999974,159.1930799583431,19.193464998605133,82.17079833437812,-0.7756040641383857,-1.7155745163245135,-1.3081015911016245,0.8233804721949682,1.6789435713371528,-0.955037693331274,0.3883461633989352,nm
7.988895999999954,167.68260899759093,16.156637067135684,79.60355724555555,-1.2209802066835143,-1.6589021018072438,-1.7024899446496051,0.8563338008542375,1.5024622883284624,-1.028951678435319,0.3883461633989352,nm
7.998411999999917,175.41291970381016,13.72402352239554,76.64851752648923,-1.3697645832656014,-1.2092367155231043,-1.7345847445115368,0.7839970971502354,1.362854204632321,-0.9896757676240581,0.3883461633989352,nm
8.00792100000001,-178.14142699850476,11.668418659544486,74.16352730616379,-1.2353001327549333,-0.6603867120586913,-1.6726268033943286,0.7152847361424253,1.1141974611909724,-0.7806113154364641,0.3883461633989352,nm
8.036536999999953,-173.11382858571082,5.473789869404793,72.72982631198215,-0.38957557988554975,1.1113834299505838,-1.7301052583095362,0.3276850377997759,-0.2957681654641463,0.10704151668897512,0.3879239384751258,nm
