timestamp,roll,pitch,yaw,acc_x,acc_y,acc_z,gyro_x,gyro_y,gyro_z,acc magnitude,gyro magnitude
0.0,-25.393075436812147,11.80892691417388,-109.52848601709482,-0.0128905129590533,0.0583889354719674,0.0259613682814501,0.0,0.0,0.0,,
0.0095180000000141,-25.378302805027182,11.789353357224048,-109.51954293439692,-0.0120925481525367,0.0546129487758059,0.0242661373416316,0.0,0.0,0.0,,
0.0380429999999876,-25.29351305141052,11.749090139522435,-109.45468719054143,-0.0028009713056886,0.0838670379865815,0.031010217828386,0.0,0.0,0.0,,
0.0475580000000093,-25.249058304668893,11.743903704070553,-109.439822070262,-0.0007301853301005,0.093000508269302,0.0334222140906985,0.0,0.0,0.0,,
0.0570629999999994,-25.20829494740416,11.749317724855478,-109.44404958274995,0.0013871617913381,0.0987562978451717,0.0346423729600586,0.0,0.0,0.0,,
0.0760769999999979,-25.147816293551955,11.742874519418866,-109.51154954445543,-0.0102784702042867,0.083931295125891,0.0338180878991326,0.0,0.0,0.0,,
0.0855980000000045,-25.139544971051027,11.71756989042709,-109.55798477115358,-0.0232347726952301,0.0731378388604376,0.0027569568978613,0.0,0.0,0.0,,
0.0951000000000021,-25.13104861687321,11.660122578660546,-109.59516675278746,-0.0214017859319277,0.0448315456286859,0.0240935524912563,0.0,0.0,0.0,,
0.1141230000000064,-25.06990901008865,11.501221538768704,-109.60489656631428,-0.0162329840871335,0.0507569492009344,0.024050881610261,0.0,0.0,0.0,,
0.1236350000000072,-25.027661861636048,11.402389426646716,-109.57369485019017,-0.0192285479435748,0.0678390680553547,-0.0162629606478244,0.0,0.0,0.0,,
0.1331450000000131,-24.973323156778527,11.318800303216577,-109.54004359352932,-0.0010528733885439,0.0739389789271267,0.026094412643645,0.0,0.0,0.0,,
0.1426559999999881,-24.894550647350275,11.266190006247529,-109.5128042669428,0.0210123349544911,0.0941438139160741,0.0791941497146682,0.0,0.0,0.0,,
0.152165999999994,-24.80851035159032,11.210681553159048,-109.49035227974296,0.0071717691823882,0.1126301030638475,0.0360408553097801,0.0,0.0,0.0,,
0.1616759999999999,-24.74289267445584,11.152734026856976,-109.48843154225568,-0.0138488916796639,0.1018479680363842,-0.0028241659281808,0.0,0.0,0.0,,
0.1711870000000033,-24.703041919243645,11.135682955910989,-109.51659861933383,-0.0119205120909193,0.0854249646880175,0.0337127877160162,0.0,0.0,0.0,,
0.180640000000011,-24.615163047911004,11.035005207302683,-109.53367159398752,0.0063734017361552,0.0473518253255661,0.1433162514705401,0.0,0.0,0.0,,
0.1997100000000102,-24.535795524739346,10.814416008532012,-109.52060562327031,-0.073797251435678,0.0461031720700993,-0.0983880446120375,0.0,0.0,0.0,,
0.2092230000000086,-24.540931721570825,10.71531788369613,-109.5123321177198,-0.0326287220164165,0.0085356041893398,0.0150765040990085,0.0,0.0,0.0,,
0.2187409999999943,-24.5102509854703,10.619710979359445,-109.49251409103888,0.01190741392686,0.0424701338675895,0.0985239431335655,0.0,0.0,0.0,,
0.2282490000000052,-24.41467417245373,10.450253164485238,-109.444431396698,0.0141770690250534,0.0549409154416816,0.0696601016975231,-0.0496701922783184,-0.0034888317720234,0.0061193090767359,,
0.2377569999999877,-24.32253529526746,10.291678036074911,-109.41091834365076,0.0029980199031891,0.0851591744766136,-0.0425164847799223,-0.0561442164650092,-0.0078590686207607,0.0033831767099089,,
0.2472630000000037,-24.265874584750733,10.206154879941796,-109.421249269546,0.013089592338588,0.1077296182775834,-0.0338390710030797,0.0,0.0,0.0,,
0.2567880000000002,-24.17835835977102,10.118764079407178,-109.44888277501936,0.026383061221258,0.0927653094803795,0.0716353834436514,0.0,0.0,0.0,,
0.2758039999999937,-23.93862733978074,9.888097678206842,-109.50283940092169,-0.0175859857473383,0.0663848688050392,0.0273421617467853,0.0,0.0,0.0,,
0.2853250000000003,-23.83612225348861,9.78875107385265,-109.51862341701992,-0.0340416119943676,0.0640842169794147,-0.0011739640341577,0.0,0.0,0.0,,
0.2948240000000055,-23.74626658819349,9.665906425091944,-109.508903789148,-0.041964438967469,0.0447537321485367,0.0291199949052176,0.0,0.0,0.0,,
0.3043309999999906,-23.649102941131616,9.538804372425185,-109.47490922840916,-0.0385798937861431,0.0428755120970592,0.0271298959364656,0.0,0.0,0.0,,
0.3138460000000123,-23.555673404632035,9.402479930199208,-109.42279926641936,-0.03201022749852,0.0532155434739456,0.0277084516516275,0.0,0.0,0.0,,
0.3233590000000106,-23.473801771630384,9.258796704774612,-109.36935312785032,-0.0215208319848982,0.064112092627251,0.0269854009536896,0.0,0.0,0.0,,
0.3327899999999886,-23.365982264510464,9.047600702369028,-109.3273766306808,-0.1791633989150234,0.2120318028768276,-0.4070198411235863,0.0,0.0,0.0,,
0.3423740000000066,-22.92491541753683,8.63901435780095,-109.19821418607808,-0.3279576402425544,0.590497097527575,-0.3690799016503019,-0.1060159650621225,-0.0553877980413704,0.0122837061989737,,
0.3518359999999916,-21.823358598345926,7.493768509601651,-108.67479969410296,-0.0493744281694825,0.0895787022297769,0.125152396234605,-0.2877573328789665,-0.132146499714041,0.073835759805391,,
0.3613090000000056,-21.442272669013168,7.034477439473026,-108.2501238949478,0.726481588383736,-1.154990443010638,2.590687811168454,-0.1111978085601956,-0.0426709789537681,0.0753754890040987,,
0.389835000000005,-24.789959117612792,10.047447685408356,-105.34807775719668,0.2925810703402466,-2.718365321165396,2.4030144774804434,0.0153919780677416,-0.0265388418280712,0.4712056555197557,,
0.3993609999999989,-24.52399785896851,12.38876162167602,-102.66817968726107,-0.4948192730658287,-1.88148874935686,1.0624598646505476,0.442232267862552,-0.1641671746334705,0.5261245417651175,,
0.4088670000000149,-22.114832675562354,15.134420058546905,-99.17254247597351,-1.0409491822538062,0.4921066248264922,0.6947922486330141,0.4509826992580312,-0.5642643269185523,0.5848933995808513,,
0.4373950000000093,-2.1312954640679145,15.381108924284094,-87.43701128480924,-0.3509803724153757,1.7379109073567287,0.6745801625563973,0.1521627323482725,-1.3348750018978688,0.1642312250992379,,
0.4469269999999881,5.662335980401757,14.1865953157745,-86.754049808483,0.2069438016339634,0.647245629667813,3.1903467978384232,-0.1620355678602545,-1.5189523610985307,-0.2616561892056173,,
0.4659729999999911,16.646247787002228,18.176991251917546,-89.44704391827483,-0.7229615180845705,1.434780757505652,0.8335907219412283,0.7473346325725091,-0.9449437039196,-0.6104385679583576,,
0.4754880000000128,22.042446291554963,22.90520293983808,-91.29482533369077,-0.6160027308392767,0.8769430938757214,1.2573344018754788,0.9395493809463666,-1.0182782949903724,-0.7487412801446146,,
0.4850160000000016,26.02850508595587,28.378598737447213,-92.64025510613374,-1.3392983914979408,-0.6446501199719116,0.6876549425020935,1.0701922615714523,-0.7570264975668629,-0.6146253747139577,,
0.4943580000000054,29.77367373750793,34.73174288078373,-91.97463642351237,-0.9878855566174216,-0.2732639777761567,-1.3805506807918462,1.2448072238619865,-0.6899735408012251,-0.2595823008503011,,
0.503941999999995,34.573457425200765,39.8570854580638,-89.30701195711647,-0.4055156750941026,-0.6134803486597195,-1.8142259747494776,1.016917203858665,-0.776109037992233,-0.0490025065761244,,
0.5229309999999998,45.27186058156057,44.34948590350297,-79.13290576574953,1.000544203316883,-0.1338262151521379,-3.293663714329376,0.4154089346608319,-0.8103423287638349,0.3759821071578988,,
0.5324549999999988,51.55660763046125,44.39742952178946,-72.76376034288654,1.7902489626309286,0.5459537733555514,-2.901632728185873,0.2276650121771042,-0.8700016148698029,0.3945662033582747,,
0.541971999999987,56.18208162924974,43.206943938401466,-68.00641588988681,2.263768008891636,1.086882816558428,-2.8447115292071907,-1.3099560605400398e-05,-0.7095062121416517,0.3111842177600066,,
0.5609279999999899,60.75719760254979,41.07622812732945,-64.25524866650008,2.178312102667026,1.5464320192408147,-2.0618099973393487,-0.0379608711590665,-0.2701537393757475,-0.0159102378411236,,
0.5704159999999945,60.28798846496052,41.02952308529445,-65.7457480521758,1.82741811872306,1.627936172488175,-1.837074512321464,-0.0384218019985777,0.0602466368024157,-0.2367258680948228,,
0.5799330000000111,58.056291780364745,41.45600445550089,-69.44504491901408,1.2783947517548702,1.303487405736936,-1.757849207749633,-0.049134439802043,0.343150892599776,-0.4460479142582255,,
0.5989620000000002,52.1057705035564,42.43438899689252,-79.07073175454761,-0.2112509129384331,0.4144406530615339,-1.2321954737701108,-0.0321141320292889,0.4319537274273309,-0.586475555781434,,
0.6084749999999985,49.0239257087345,41.78573958549575,-84.01266909096434,-1.195714379277292,-0.3756953474436504,-0.8829715103332679,-0.1943049574454985,0.4343371710624693,-0.497053911121377,,
0.6179799999999886,46.12185455330562,39.728258046332776,-87.86085947752085,-2.0038184838323985,-1.1919317614307403,-0.9032262286038152,-0.4404411072326875,0.411569284791079,-0.3016400851779872,,
0.6370070000000112,42.640246140050095,32.49568872959598,-89.39362691306657,-3.6568183270775294,-2.822960131812952,1.3329678929108877,-0.8190027073213461,0.2523761114241633,0.2793725372539259,,
0.6466900000000066,41.04340031336191,27.77751338163785,-88.56716478917701,-3.864065361518046,-3.277469779221339,3.355103565422301,-0.94839619122155,0.2635667996506656,0.4181746034246031,,
0.6657079999999951,32.73460977740203,20.64623992260056,-86.73181579215421,-1.417973858837042,-0.3660973837214393,3.917880287572052,-0.6310416024349246,0.9467243636664848,0.7038089820581438,,
0.684710999999993,22.628774749945347,21.17532983401008,-86.30793835261058,0.1474962767200205,1.967716907331735,1.999113497734516,0.2262818908898256,0.8498929245281998,0.4897988052480401,,
0.6942490000000134,18.71835990718137,23.85620310407172,-86.42093955316186,0.2709571935231253,1.494606468394984,1.0664041360484595,0.4922775743806351,0.7541949898849152,0.3577135652576714,,
0.7037420000000054,15.655603283743668,27.54622075117186,-86.30313571252977,0.2334922931816703,0.6144322232495326,-0.0056744763457698,0.7029728417652817,0.5974102708484703,0.3227236055454933,,
0.7321750000000122,10.575111622441222,36.92625650756426,-81.88085178764437,0.6986348517306594,-0.8111522028788244,-2.146475571408032,0.3685813800982725,0.2131009242923094,0.5795770975431525,,
0.7893449999999973,-14.148132704353854,42.77095197230371,-65.05384090237648,1.8582009775340365,0.6488347028244819,0.2812635514755499,-0.296234955427233,1.2917162173832912,1.349936618924652,,
0.7988589999999931,-25.13798106669419,43.31821319951803,-66.47461351820905,2.661068790528543,0.8678776505478529,0.8730326196377114,-0.5525064556061895,1.5139344827865868,1.3379423706086473,,
0.8176980000000071,-50.73962700226805,41.77340399562312,-74.45507397562483,0.4616712337422491,2.180871630343921,0.2028401574093536,-0.7936516901257243,1.705818385990861,0.9375721663972776,,
0.8272039999999947,-61.00976842692959,39.464374929601966,-78.60252639997948,-1.0492188804731006,2.4163918397735995,-0.2006811429320767,-0.8116204226534527,1.4098900415457176,0.5097844542871968,,
0.8367240000000038,-68.16461304712296,36.57064262220121,-83.02694418738277,-2.888492875394995,1.9161715036284912,-0.568242109322546,-0.751188288758094,1.0215988539712402,-0.0025535499777671,,
0.8556930000000023,-70.98801457546917,31.14787961151181,-92.81851779676676,-1.83663997341194,0.8129164729130434,-0.7467624217720664,-0.5164961606330964,-0.0428770615686922,-1.0008813113047148,,
0.8652150000000063,-67.08643337427536,29.007191916879204,-96.470688694591,-2.06181460096552,-0.4577622964777328,-0.7166889731358889,-0.4819357626445549,-0.6393496001623712,-1.1224582718515057,,
0.874717000000004,-58.23211168217672,28.01738519287351,-99.13722958281652,-0.7127286928984081,-1.003206874952158,-1.3085293215018994,-0.4076229094236008,-1.5171117681049362,-1.3793098686952003,,
0.884050000000002,-46.77001000396181,28.3092060438814,-100.5080511505866,1.0240667595878017,-1.5818841627822164,-0.732917382412616,-0.2878391915164056,-2.003953659882064,-1.35693318998975,,
0.903252000000009,-20.0343479408232,30.856751411278733,-96.40900595454886,1.097889343216046,-1.0242674671928031,0.8205647453759772,-0.0509232439084461,-2.514095179647649,-0.8020156054499955,,
0.9127990000000068,-6.076425164965651,31.81904981414471,-91.28148204793378,1.1211305755201677,-0.0602666294751925,1.887078184701792,0.0311917660255497,-2.393027697619893,-0.4306199008602822,,
0.9223110000000077,4.680531600161153,32.055067905480946,-85.6454769578857,-0.0046665472987161,1.7811823657678971,0.5201729430099828,0.0960735410865006,-1.825086728514459,-0.0133015790229143,,
0.9318330000000116,13.46421102273438,32.256592470232,-80.52311599911145,0.3829277399336027,2.338581296688277,0.1803822056756787,0.2192031609330375,-1.4728171484726342,0.0881193880838786,,
0.9415140000000122,18.037938849443503,33.44676091661359,-76.63906935892796,0.9882173933569348,1.2232216451117386,0.5689577986011197,0.3857582651342391,-0.7068939632917741,0.2805444331845041,,
0.951043999999996,17.0087236178609,36.59818351766866,-74.0967876345734,0.2768779499185075,0.0530281487031633,0.0885262046906081,0.5679500222032243,0.3227518755797189,0.6271293326046105,,
0.9603700000000116,14.215062525783102,40.15801565725705,-73.13539061891835,1.001143613215173,0.0860341902739494,-0.5691443928323221,0.5600180933783145,0.6218144235139653,0.5397037626912431,,
0.9698620000000062,7.438748396420772,42.75017197713203,-74.14615770939037,2.6310296569485274,-1.960450535335422,0.2521959187612055,0.2109655562054423,1.1217053764467932,0.6960652896036773,,
0.9793850000000076,-5.279365188950809,44.84916665522381,-76.92355713941329,2.4482934280388515,-1.6895162894092672,-0.9798788217527086,-0.053815741689438,1.8833495725165568,1.207770855323847,,
0.988886000000008,-20.00324463184796,45.7724614593764,-80.96932934270613,2.084423456127129,-0.9972283510858152,-0.7893693840847852,-0.216862942567115,2.068266862485649,1.2880981205044508,,
0.998394999999988,-34.83936301962705,44.47400315706394,-85.06483742507177,3.2598507941723427,-0.4995632173089384,-0.1663645924282695,-0.5109670115546131,2.0472159554261133,1.2873848568605752,,
1.0174240000000054,-62.53000860019424,38.02545829206747,-91.04584482947892,-0.1806623329856354,1.4909392760239897,-0.4177498084739874,-0.7144223515195175,1.91358313215635,1.0934743617685454,,
1.026933000000014,-71.24720822224494,34.58439852991087,-92.79153481806529,-0.8728657998377537,2.067784702368388,-0.3923262589141775,-0.6400456464181571,1.428705351538792,0.6845674511214884,,
1.0364329999999882,-77.5027200328689,31.782194601976816,-94.2435685594675,-3.472977048926828,1.7701384602474808,-0.4708231236420704,-0.4950845367960391,1.0806269054089823,0.3950983972951314,,
1.055454999999995,-78.98148335722155,29.60869941104548,-100.07419341633327,-4.786801208427376,1.1932191028265762,-0.6521501685060425,-0.1355955933633003,-0.1901822144732718,-0.8362899043326255,,
1.0649380000000122,-72.32429044851703,29.57825441741158,-102.97423150726875,-3.215897932493019,0.7134292841724198,-0.7946437151098619,-0.2375839865077443,-1.1348452506539477,-1.238376477476507,,
1.0743500000000097,-58.74558453000559,29.47294550583604,-103.75089805805568,-0.3649271137436941,-0.3967957232512217,-1.7078712790677288,-0.5672252862246684,-2.297085809121549,-1.4947700745445287,,
1.093467000000004,-21.00990378537542,28.11234461772317,-100.13066970687136,2.306344597996336,-2.9668468780486643,2.3922774291518483,-0.8470896278481174,-3.4065750688836545,-1.4221632820514505,,
1.1029819999999972,0.2035748085076384,27.619706870740416,-96.98905064614272,1.6370327816631562,-1.982756840536125,5.590589320645627,-0.6548770827625228,-3.696111952469563,-1.361910133690155,,
1.1125199999999893,19.33986092960357,26.95898099853159,-93.72347494481404,-0.6462100136313313,0.749434342731844,5.551842899111738,-0.4480769336205361,-3.375997460277209,-1.1076977673491442,,
1.1315460000000144,53.164418469770126,27.28682777726669,-89.2530621331662,-1.2483884976122517,1.5811397086640129,2.816732098661161,0.1931826950084367,-2.9809592389753186,-1.0837978531354155,,
1.1410590000000127,69.03702241507646,30.566366175742,-85.43979763612023,-1.5613968508971656,0.804831964744833,1.5394881862854102,0.7801254091580889,-2.747159915513336,-0.7778824484769927,,
1.1507640000000094,84.52349710564584,34.657073269448475,-79.87729800143815,-0.7701941167116844,-0.0202949688524784,-0.1669081925537917,1.1403539679319912,-2.4849529528057066,-0.5630618017342509,,
1.169653000000011,116.14565619136545,39.26867883325628,-65.26183194446814,0.8662198002139322,-2.0490533610470205,-2.6260635294924044,1.1123661033923442,-2.2247163424096663,-0.3931864692280464,,
1.179099000000008,130.8694519287316,38.05486779020135,-58.75555521753798,2.8208764772509083,-1.9150435411799391,-2.505568646569828,0.8660939341270296,-2.1438924423176378,-0.5433492683332587,,
1.1886090000000138,144.8121683177025,35.728623953121605,-56.94560450890662,2.995870954109765,-2.5999282191615976,-2.162670042829169,0.7953991168974074,-2.1362245402993123,-1.3146316606816617,,
1.198192000000006,158.6502895472177,33.6928753173485,-60.08288243145866,0.7998243217995664,-2.5457258009828925,-2.742137302271951,0.8442825823161463,-2.155752706946401,-2.203711638317271,,
1.2172260000000108,-174.5267467616119,35.55942445999983,-75.66689039009746,-2.0522437279822614,2.4948663480616085,-4.345275646374016,1.1193419351918816,-1.918438622559276,-3.230877030117904,,
1.2264700000000062,-162.75154509897143,39.94409511837616,-84.33339389716802,-1.1015586882843005,5.407753169161125,-3.114340555861151,1.1883378910925186,-1.688554656172795,-3.1742324968224604,,
1.2456669999999974,-142.68985159023907,45.11505398563536,-93.618866177519,-0.6796112465098473,5.21872634850921,3.884890585306561,0.0956070285525981,-1.4296987346662553,-1.919398500778422,,
1.255189999999999,-131.5637578941521,39.74661266364,-92.38270128759918,-2.623447566234092,2.189933772346681,2.622550016694556,-1.1559211498343842,-1.5860356221181986,-1.256591835532889,,
1.2645019999999931,-122.16307718866084,29.96446743156483,-92.82176771832276,-2.2505354322081463,0.7838031166472547,-0.2165305083445683,-2.0225562206850576,-1.4561056524315426,-1.1645506984224128,,
1.2741000000000042,-116.83712338143113,19.565864531885445,-95.48755186234432,-2.518217267178536,-1.063236461030196,-0.5336915899282872,-2.145833605976174,-0.8165105933866856,-0.979288635516055,,
1.2930450000000064,-106.48016973203522,9.04666915475724,-100.11221155525377,-3.930975375719261,-5.0714312960093775,-0.4559784165371639,-0.7717960811007217,-1.139399127446669,-0.6889459612602928,,
1.3027319999999918,-98.61047366076832,11.523302058328698,-102.50178083317172,-3.2319640479042184,-4.681931280784643,-1.6740232239223185,0.1815434522676917,-1.6176778670069891,-0.7589499341978526,,
1.3122539999999958,-88.98020409308718,18.974358207755,-101.8610125419373,-2.535076985553693,-2.994945498657813,-2.3913077192388066,1.06200066652256,-2.133623137819209,-0.379606176744158,,
1.3218420000000035,-75.50579113199903,28.47482665903404,-95.54166772299426,1.5953929092631998,-1.4584068907217456,-2.7424095993724555,1.496986594723754,-2.729604986889892,0.1708218271520209,,
1.3312689999999918,-60.21275089282241,36.12003644860896,-84.15853092764317,4.143757606386807,0.3291491774371894,-0.7218018192846974,1.5272528173941184,-2.5842253135674,0.6288371048217725,,
1.340958999999998,-46.27541258254125,39.781648648056056,-70.95991946586045,2.3800703721084275,2.002802962197257,1.3793403224115055,1.1856555920486185,-1.9906089604206307,0.9171780256204872,,
1.3504760000000149,-34.62374681853528,39.48109916129219,-59.94332789475171,1.402186201389495,2.676972851588523,2.1806247858150933,0.691486896436446,-1.658318819423966,0.7131749174469948,,
1.3694859999999949,-25.76564491298763,36.163472886198335,-55.48038788205926,0.8281067625890114,1.7643682824600784,1.7640695178142451,-0.0736500583104965,-0.4119562760536079,-0.3653390475258541,,
1.3789920000000109,-27.05113635764314,35.34990878136258,-59.729180867691056,2.187845862968308,0.2406140672888335,1.5484734061155796,-0.2494604082822267,0.0890987907359231,-0.7002552552916166,,
1.397831999999994,-36.97841443086418,33.76570161386576,-68.53882199052086,2.8926488757457247,-1.4587493402472185,-0.243528428375016,-0.56485805814361,0.828828388046806,-0.1288580860125145,,
1.4073480000000131,-42.4986683646753,32.835667086704056,-70.19841143438123,2.9573138815881426,-1.426266187581151,-0.6621336552217789,-0.4995892890205821,0.7989164822072629,0.2747447849518816,,
1.426366999999999,-51.8020730642892,32.49550272986748,-67.14773430349781,2.2225880886204226,-0.2309632325299617,-0.4711993604007238,-0.2262954510181207,0.7242958078564126,0.9779232842525032,,
1.435877000000005,-55.65523977634975,33.938222245746566,-64.62311893856555,1.092815573959207,0.8819131557074433,-0.2617998116299674,0.0012920721036934,0.7072699049932436,0.97512246497176,,
1.4454039999999964,-59.11073233250579,36.028146901497486,-62.34637546215575,0.15075660013324,1.7533354130058163,-0.02749401176209,0.1222851600219334,0.6939776457160554,0.8863901450847893,,
1.454907999999989,-62.54945060413738,38.45584572304666,-61.34197690329966,-1.2971028271177456,1.805576351723043,-0.0118649501740724,0.1710043326394507,0.7123561892670424,0.6568161409588374,,
1.473927000000003,-68.52679178314737,42.41147559763779,-65.32024308225111,-2.946175244935558,1.6761673941885304,-0.2102701032140328,0.0889643625617491,0.5257854615517539,-0.1826679336384472,,
1.4834409999999991,-70.78695104699347,42.54843935780505,-69.13910489825966,-3.178773261293045,0.8598276864513125,-0.4665793993038925,-0.1041288052095656,0.3182596272856067,-0.4780826265932431,,
1.4929520000000025,-71.21451288601244,41.30663191570406,-72.91291590129208,-2.5829143413788307,0.1519063644570968,-0.8819212816089423,-0.2557908177898743,-0.0214386658309596,-0.7708644143308357,,
1.502463000000006,-69.6228275386172,39.02245460639428,-75.71492355234116,-1.3230150115637689,-0.4431732337700496,-1.4100343481417508,-0.3724982525007389,-0.3603165317983252,-0.8948414010092737,,
1.5214840000000152,-61.59809188146005,33.90390848388851,-77.13920100174553,-0.5176622026207626,-1.5103173089385176,-1.600371158441783,-0.2754733771129047,-0.9132411806353778,-0.7656553553870925,,
1.5309939999999926,-54.92244697282431,32.228342827338025,-75.67861424958785,0.3568253708534366,-1.2261043618008058,-1.0468306424298426,-0.0533750072704926,-1.1679426467126248,-0.6162288445987354,,
1.5501979999999946,-38.86300704377086,31.05095799180849,-68.23187189930843,0.7604760373841363,0.2036389854428079,0.7091971367068739,0.4460856898296634,-1.3754560503211082,-0.1618005275526362,,
1.5596940000000077,-31.04555303068529,31.15014013468012,-63.46671516169903,0.4075909581430121,1.0073856560211112,1.463368113910952,0.5737533941460872,-1.2110656048510655,0.0036949818333175,,
1.5692070000000058,-24.42378754040261,31.291205808542223,-58.97785380963002,-0.0818519202338646,1.081991563200056,1.6222547744033258,0.5762399806187313,-0.976667469870284,0.0754399818660686,,
1.578711999999996,-19.270028094221384,31.951609615018143,-55.56211125460993,1.8465589832250136,0.7330861690837874,3.084061976912403,0.5899359776083231,-0.6643705946706584,0.0136517058977236,,
1.58823000000001,-19.57133596072656,34.26530685974842,-54.26552267409205,2.973693162296056,0.1724298702777699,2.343807674029762,0.3487368723374551,0.3091129806167365,0.1961561120780084,,
1.5975579999999925,-24.147856925120745,37.41199636809786,-54.9553991875474,-0.6289460438356739,-0.0764719632251842,-0.6581890299243403,0.0817242877660562,0.9704207253983176,0.3658392112244295,,
1.607247000000001,-26.09577750315599,38.33343387882942,-55.28731651788817,1.056748018600729,0.1079025556715845,-0.2563309504026028,-0.0249675661512551,0.3580411767038977,0.156694795739518,,
1.616583999999989,-29.50525001558166,37.85399659878322,-55.3138463550928,3.0911997233453867,-0.3367345268442956,-0.1027852858496343,-0.3854157658356266,0.3863924285007889,0.3756495942513187,,
1.6356199999999887,-39.165239646061615,38.20365098981711,-56.35320476831587,0.7600648507956997,0.3733429346961168,-0.5185734367278481,-0.3328962982552554,0.49743508750423,0.4391815413937253,,
1.6547999999999945,-43.86304736792244,36.73851156602464,-52.81477716605541,0.3085306339109407,0.3652771548186424,-0.320581972414782,-0.2719514370597937,0.246580350215288,0.5757094745755217,,
1.6643019999999922,-45.31116706908995,37.72995826136789,-52.00929469449482,-0.2956559895390773,1.287050914413794,-0.0744876048745206,0.0160500837433134,0.3040422543306799,0.3041954913776931,,
1.673829000000012,-46.29721666865449,38.74470164832464,-51.05465816115249,-0.6055253933825544,1.4297414132072646,0.0463521152716888,0.062244953277989,0.2479030014564162,0.2800119983226321,,
1.6833410000000129,-46.50543200544346,39.71196588115728,-50.39905134928287,-0.923459874780212,1.0971805999856947,-0.1461669692810189,0.1292829201654859,0.1477737511363514,0.1264499866441419,,
1.7021900000000016,-46.80045005230751,41.75264371547723,-53.74312047952531,-1.4560742950278684,1.2186648826559008,0.043698072017467,0.0752949922978671,0.1445244714970531,-0.4864200104525362,,
1.730681000000004,-43.966799042748455,38.17037350545764,-66.87805774395801,-0.8980798703789782,-0.2446347542463433,-1.115477549473589,-0.2091636507929453,-0.3981050349674022,-1.2952759093613757,,
1.7401780000000144,-39.989739982708194,35.99691563541164,-71.44628911187203,-0.1396219094786386,-0.6699590620276437,-1.2625448597654108,-0.180641821551977,-0.7489006781291572,-1.3944868465399776,,
1.7592490000000112,-26.59974411375024,33.32990142487097,-74.6775922624263,0.0731793844911765,-1.2255507252407627,-0.5365728483374289,0.1947710161553279,-1.2680334154233914,-1.1939079401688446,,
1.768924999999996,-16.84372359152721,33.33099120069986,-73.24965520259023,0.5466568663999686,-0.981046769489619,0.5152184617776726,0.4644934433619416,-1.5644903063358275,-0.9845902891611882,,
1.778441000000015,-6.490824776713856,33.55339822467082,-69.59884880517961,0.2335176474221471,-0.6522257819011097,1.2067914278886989,0.6078882758471231,-1.619438926248807,-0.6238838507069338,,
1.797461999999996,12.79895465280122,33.22633114134867,-58.91816802619248,-0.4986683380479886,0.4682327235175695,1.4066282525529692,0.6780245562672627,-1.3806633590156825,-0.0829337266521083,,
1.8069769999999887,19.46469288266677,32.897970801284096,-54.69286427184733,-0.5488720735230668,0.5722092173036744,1.1771899659622629,0.5573297419852439,-0.9717854719931912,0.117211446663698,,
1.816474999999997,23.10660672905979,33.2786566974015,-51.20095118679674,-0.4167610986401187,0.6687922774340173,0.2492528990948991,0.4289271598126136,-0.4416419827191144,0.3008933394889382,,
1.8355040000000145,21.67387208911856,36.23933760921498,-46.99440107664278,1.0275499720295238,-0.405112232994075,0.1944654690480337,-0.0019698935105175,0.503040906371942,0.5751225274569285,,
1.8450180000000105,15.778531991244089,37.68697346606386,-46.83192666859912,1.8359137644086816,-0.5215943035638284,0.4110410117128533,-0.4328002706383289,0.8866661502997705,0.7422866689326466,,
1.8545300000000111,6.419165779168999,38.60169552376553,-48.05781778670416,1.996901430765856,-0.2238607346846022,0.3207310115606829,-0.861985424009947,1.2090440369784354,0.9123491554931644,,
1.8640279999999905,-4.919207229786596,38.78847109715799,-50.397513749242485,1.0359142095456635,0.5303916105159229,-0.2069999220740796,-1.1284979829010513,1.3657123745721689,0.9517627139930932,,
1.8735570000000048,-15.9815870921146,38.04152888176211,-53.33865090386724,0.1817460612141012,1.107037486588793,-0.1574761617055056,-1.1884108395363029,1.27254670018188,0.788537631636481,,
1.88288399999999,-25.374724958339343,36.66463577192239,-56.3420099085962,-1.3899570908809773,1.470887634389096,-0.6667754287492217,-1.0854596836241086,1.0635303512780585,0.5406612895415146,,
1.8923949999999927,-31.25867455017313,35.09397651701255,-59.040558246947626,-2.5066442854887496,1.2617418256726631,-1.048979923650908,-0.7756515412113558,0.6387669833868849,0.1505252767560263,,
1.901896999999991,-32.99024668889892,34.15077444839807,-61.57125115785842,-2.5390784508584767,0.8160116380409956,-0.9594362275593126,-0.3053664171187475,0.1542949363153077,-0.309673714857615,,
1.9114219999999875,-30.437199168572224,34.368654513143674,-64.0128121909816,-2.8647677772920788,0.1905267991741452,-0.9990560627409883,0.2320119822544761,-0.3558619030512461,-0.7765604385201597,,
1.9211070000000063,-21.73876298550082,35.42643262190642,-65.73153660549235,-0.8708659704476865,-0.1525227395383054,-0.1004921447873435,0.7981748084426397,-1.203829716409486,-1.340089014192441,,
1.940120000000008,7.531513240045775,36.75311678837882,-64.74248826048974,1.0810831865605994,-2.6694845070749755,1.806880137150193,1.129649242272465,-2.256975920613323,-1.610701828616676,,
1.9496300000000133,24.463102096980325,36.97888299894194,-61.71514484792309,-0.1496673004921662,-2.1934989885236624,2.0539707147804527,1.2608939922907625,-2.399687412628793,-1.4305801004614491,,
1.9589469999999949,41.33630274211571,35.96086288163387,-57.96626372806,-1.1361069153761103,-0.9067090184459964,1.9670271263423948,1.1890726286263396,-2.4488125478570977,-1.2610672440130797,,
1.977991000000003,69.28243089609663,31.65443287304385,-53.2533908626878,-1.101926838113966,0.6717296422021876,0.7543506693651912,0.9436267577714724,-2.0009458675038228,-0.9985176269101184,,
1.987674999999996,81.22378690620842,30.7329295538291,-51.03180026938597,-0.1306099099496284,1.4052636080052,0.231195632906588,1.1096929142323977,-1.727105823009494,-0.7946948632406848,,
1.997195000000005,92.57454470472749,30.91572415808237,-48.7035378828374,0.4342674970998184,0.8491738515521559,-0.0134075501900574,1.2854522794989882,-1.4681712359143235,-0.6994639962182843,,
2.006509999999992,102.78933555519724,31.93108764495243,-46.54567852224234,1.7857548522658817,0.6587082531114319,-0.6462987701013161,1.3257478483074407,-1.152340435574453,-0.6350794873770179,,
2.0160219999999924,112.6520024899891,33.14725701638208,-44.41736216110888,2.6881064600442874,0.3250771081631295,-0.9975031621213544,1.3400828634192337,-1.0164146516065145,-0.6367746845810577,,
2.0255319999999983,122.59801406621196,34.0907442696812,-42.722475501275966,3.04589377287396,0.1097866831733343,-0.8067696958696392,1.3310833314710264,-1.0062014101601169,-0.7637974096105964,,
2.04455999999999,141.73511871706924,36.25960881723055,-45.3962548651734,2.1046943428839584,-1.037575138111685,-1.463182711928254,1.2838738499993805,-0.9104407678071652,-1.6224765193163226,,
2.0636690000000044,159.96771327302503,38.960091643280826,-56.52260805457178,-1.7874374755179538,0.149372439283883,-2.7230472592690305,1.0400176932388794,-0.905663987216752,-2.3555492842884203,,
2.08259799999999,169.62199985488033,42.45275295405597,-72.07438082063923,-2.3103855302949072,2.595350184082434,-0.7789536733789497,0.4729785204476879,-0.3336560826070811,-1.9870184694042188,,
2.092104000000006,169.0205326640182,42.81982522704082,-78.52102564498463,-1.7347308376159485,2.2434737187921665,0.360856202555432,0.0486302016016595,0.1043490242996545,-1.2091677734615245,,
2.101797000000005,164.92285347844458,41.26617050948016,-82.50722269277001,-1.3532673473144998,1.5472674058151308,0.806647939236489,-0.4070844352300447,0.5496301246628207,-0.2484347798791706,,
2.120644999999996,148.2749601505258,36.23955292673736,-83.40479175674706,-5.503851850607059,1.5696765898698597,-2.0458739250115,-0.658641199658102,1.514848088705409,1.3191400561339526,,
2.130153000000007,134.18214426811306,34.12454278046958,-81.03320876690665,-5.235950047586763,0.0349963722507927,-1.6159195945961284,-0.7300964201675816,2.2292186777101217,2.098992797950495,,
2.1396660000000054,119.8701412238919,32.74031971032664,-77.61023326504967,-4.486205466604778,-0.7624335071817457,-1.0226417507112866,-0.7146228069928909,2.300801109886151,2.2615925205111336,,
2.1586870000000147,92.01767121512354,33.4330320149097,-70.04276017241568,-2.0064760027555213,-1.924032394409636,0.9012110588125434,-0.5691204222544584,2.3574450522091186,2.3075294806533875,,
2.1681930000000023,77.86256657540031,35.12987605125256,-67.49697572246907,-0.5900978149663331,-1.205036203119467,0.7904486385160842,-0.5332447422143839,2.3067105713927587,2.1042639065570587,,
2.177505999999994,63.681217348415,36.74210658361377,-66.55348092226045,0.0792944205916947,-1.5058390501249443,1.4259215355873274,-0.601814913780647,2.2425128917774564,1.8546675903475487,,
2.1870130000000074,47.78574952717678,37.77903607519351,-66.54154949974911,1.0162007212521589,-1.3573512080787569,1.4684925817320815,-0.8188792158268888,2.405896566263205,1.929271644707424,,
2.2060630000000003,13.476748339982723,37.4878437674834,-65.56568832501473,3.350927992040025,-2.2210825281342657,3.3654746856937505,-1.21624186601158,2.480555858892648,2.3153684817681963,,
2.215571000000012,-5.963083364810944,36.90900399958077,-63.66819838906212,6.13136138682113,-1.582166313168771,4.095427417466429,-1.4336464545363918,2.75361988547641,2.730825027883614,,
2.224917000000005,-26.34173210264976,37.16790021475676,-61.33619593300512,7.971425193877343,0.4521661602126321,3.067250365559375,-1.4594960361720553,2.9150894622225545,2.9215433614111173,,
2.2440990000000056,-69.48831712204041,40.8729496182016,-60.55800312312454,7.110632152654255,5.594016146866703,-1.316406732681362,-1.3240283898011955,3.182487499073411,2.7161055295234955,,
2.253612000000004,-93.15442159613386,42.60735107308722,-63.54018628017555,4.405348695070894,6.1489484182862535,-2.9629402598557912,-1.353386168618876,3.280221464673098,2.562394636742825,,
2.2631990000000144,-116.91887530125446,43.11035767287405,-68.46382929930665,1.2898133153928222,5.153560808339084,-4.069879411516227,-1.3254807502472108,3.2210942965647247,2.2581518916116683,,
2.282209999999992,-162.74360805003894,39.33135995279878,-79.88496510911621,-2.438034848172124,1.3491505146366107,-4.301887738092537,-1.268658345426272,3.2154646631876056,1.8394859974725613,,
2.291901999999993,175.48960814665907,35.84207771211213,-84.0701044059796,-4.3161046751442775,0.3686146885776681,-5.186825179900221,-1.164099280629172,3.3197347438098275,1.8272298109034792,,
2.30134799999999,153.13055611206337,31.65348006786897,-87.38945222592659,-8.669790152295047,-0.5590181807912399,-5.816238111199814,-1.0683857643288257,3.658639818748188,2.039332547648639,,
2.310840000000013,131.4078420832361,27.39652286636437,-88.17680433105097,-10.315682178303764,-2.754707249097241,-2.583795704010014,-0.9561546280155034,3.758214913153876,2.180097584655271,,
2.3201540000000023,110.65164447705504,24.28435128857757,-85.75879219385794,-9.42859312472398,-4.290209172579346,0.8197248812009205,-0.8138010745998036,3.705097923221163,2.2912758855487523,,
2.329487999999998,90.63611617590524,23.28301961588878,-81.30578459172314,-7.359889937094259,-5.192625032728401,4.0076597661043865,-0.6109444179293813,3.625672805353511,2.5000839727771624,,
2.339181999999994,70.76969546455669,24.97252414360418,-76.54345613105644,-4.741656423309206,-4.650177537568299,6.166309288255612,-0.3691695980325257,3.631593766573237,2.57142239377842,,
2.348861999999997,49.95294867292193,28.22337897640718,-74.32601262523119,-2.07360900492442,-3.50115388632121,7.613777575623915,-0.3145060713586478,3.771662387816142,2.306245579094052,,
2.3678979999999967,4.762750228314291,30.87604128929173,-77.45482440177182,3.208410556535458,-1.818098441629577,5.766733231905683,-0.8898100466786893,3.832665731651884,1.925908347777414,,
2.3773979999999995,-17.164413210258843,28.85157030920892,-77.77199109725929,4.8543141191361805,-1.4355119892246144,3.331803207312319,-1.2077105853201908,3.6327232570650425,2.123336479951785,,
2.4057559999999967,-74.09818570420428,25.84950223874512,-64.79521633916961,7.697211671770328,2.245930650980064,-2.4159578176402623,-1.187180594950635,3.072874624566128,2.630271405335055,,
2.4152620000000127,-91.41564159197708,26.70120667937448,-60.248158526457416,5.407418371438536,4.184009054419398,-3.517968477910858,-1.2859164883026015,2.8396339031593487,2.439733178782688,,
2.4247760000000085,-107.35799996749776,26.72944567383704,-56.91823236243615,1.7541645146427258,4.569968586680501,-3.0693317822012385,-1.48253810563493,2.437930638288353,2.0982291414758545,,
2.443889000000013,-126.14278519255824,24.66504419864049,-49.54154538498293,-2.1454353566120417,2.239528751766505,0.8414604307135473,-0.895295167832171,0.7868575199784056,1.3634428199670572,,
2.4533130000000085,-128.85498175772915,23.491871666904697,-46.97124682458573,-1.3614328009837418,0.7927847872335834,0.908492251543639,-0.5054109915300722,0.2135760764220809,0.7360737839972825,,
2.4721440000000143,-130.57668754605876,21.94610024576433,-52.01368282899094,1.061943073624172,-0.0028356336384809,-0.4235056957900812,-0.099543493540665,0.0334262979026255,-0.7817532155414489,,
2.5006700000000137,-128.66482954711665,31.650030169064973,-67.93367687209305,-0.8094966606031162,-0.9843518943969256,-1.4391480566887096,0.77262511932271,0.4164967246029558,-1.4692572744383026,,
2.510177999999996,-131.66136216944378,36.51432308430594,-72.83131144195691,-1.5584003984213042,-1.1059174609515068,-0.876522518002428,0.7405534376666184,0.8046047647551392,-0.9302851251253168,,
2.5197000000000003,-137.8217123027906,40.15509291230944,-77.2825397396153,-1.7734373853487773,-0.5528238372419432,-1.0434490018424056,0.4415300957917262,1.1275149577110335,-0.3815754848838015,,
2.548416000000003,-171.6109264662252,36.30271037904045,-81.46301251475657,-3.626867418277573,1.6945041659213032,-3.222212452643088,-0.9172599306485528,2.0027236481735686,1.7816632742614933,,
2.557929000000001,173.80728184296365,32.73518267933304,-77.63058625762643,-3.786857807613984,1.2374039734819076,-3.0550828006548625,-1.1362744173133488,2.2391967455631843,2.41890875151179,,
2.56743800000001,159.70280915514914,30.327901601448424,-72.03987054704693,-5.186254621701858,0.8935156798463855,-3.4639551713720675,-1.0941179491701905,2.201012848838672,2.5919900152332964,,
2.5864520000000084,128.6892631423283,30.85302169104156,-61.66312259060044,-3.2515328937010093,-0.753202145548546,-0.619222323630606,-1.0248401099147122,2.54124613309748,2.526476861665519,,
2.5959609999999884,113.81509792969842,32.17891087082607,-58.90842833422701,-3.778770541602746,-1.3493705634797388,-0.1170156634424735,-1.0297892953483656,2.337318345301715,2.105987707350905,,
2.6056600000000003,98.39357319805582,32.72790356966083,-57.63983258034259,-2.2446676880255065,-1.7459429292146995,0.8000036022260388,-1.277507655502761,2.274219893431959,1.9097543792343223,,
2.6151590000000056,82.6619070875149,31.743794583372352,-56.29112523895013,-0.94120902320703,-1.962030754257044,0.8035651614497807,-1.6170580978104472,2.127498379061852,1.948938632091872,,
2.624685999999997,67.71449273110586,29.346363645688115,-53.51484070162429,-0.089016343150848,-2.7128520149727287,1.6406489135916609,-1.8737376832001933,1.835719959217177,2.074550513357627,,
2.6341970000000003,51.979672178360914,26.41630978956352,-49.22764407857174,1.2957041797244129,-4.020041444705658,3.539007486042106,-2.1963002050282583,1.8136498528856209,2.327439094991667,,
2.653222999999997,15.99665977936654,24.289087364381206,-37.45511851644852,6.056921134251409,-1.9505091347650088,6.048969272834274,-2.578153464156324,2.2003118666882053,2.742093582610901,,
2.662721000000005,-3.880779776933764,26.829159480832708,-33.06387773158871,7.376044030080325,2.064213821878014,4.98120908525992,-2.6445562712810986,2.4869750084411275,2.589124683130366,,
2.672046999999992,-25.52674780784897,30.98169516263592,-32.722280257777015,6.609371316465226,5.137039605401167,3.243928317496055,-2.740644905674167,2.7509973957256224,2.1631167345628866,,
2.6815640000000087,-49.49746772552348,33.81953582904507,-36.85470011163905,4.596258608016014,6.978492965088412,1.2715998105200403,-3.0054627183950644,2.768953172115924,1.7533739621935316,,
2.690886000000006,-73.64599521995414,33.22308193819638,-42.61976208564519,2.779008436601426,7.305107721805546,-1.4506202694322907,-3.169979626566479,2.482527175175637,1.5277338051035183,,
2.700406000000015,-96.16435054746022,30.365727552367243,-45.041953495157735,0.9871448708922124,5.188688820913047,-3.413371712105308,-3.1939633470000044,2.1843142310598256,1.4666127335393278,,
2.709992999999997,-116.50446463121534,27.62540765039073,-46.08526719044727,0.4018655183899819,2.358312629401211,-4.165062319044112,-2.914984150742288,2.1144930360443577,1.3930717230883645,,
2.7291930000000093,-156.73265560951202,26.744849726964,-49.37995330527454,-1.5311881377309735,-0.6940233598061516,-8.38123263338927,-2.487623875502994,2.8181371289200348,1.2395130025755856,,
2.738703000000015,179.6833354403591,27.237282407857787,-53.19888144744166,-5.099123377435039,-2.800292752711026,-9.323783346398129,-2.5709743468476227,3.3268636327977656,1.264438829996453,,
2.7576290000000085,133.0165485702823,25.44569042140078,-59.612375178092826,-8.563865870857702,-5.981272942708284,-2.006530126855372,-2.404847569773596,3.328586760870928,1.568542181903998,,
2.7671630000000107,111.57076221058549,23.85709212980607,-58.75257237659032,-8.119909088010033,-5.134276951002303,1.721901127427264,-2.2697117105297293,3.191113467100649,1.961441046666749,,
2.7768529999999885,90.44889606481706,24.08832920392243,-57.07432086582754,-6.776262715781139,-4.315327962680031,4.921181039290255,-2.014647506371863,3.299523281725533,2.0510471314294683,,
2.795866999999987,46.76453875716549,27.864747274483697,-57.20198600192165,-2.040678736235285,-2.4730314702678293,7.5098385448363025,-1.834522301731596,3.5236259529398803,1.8575646141428093,,
2.805378999999988,24.22329616187928,28.23546427995652,-58.96818958428214,0.7618874882499995,-0.5562456913663346,5.24527418958232,-2.0426348282242524,3.418244905823226,1.772265668340249,,
2.8148960000000045,3.296745078586499,26.96720853673796,-59.64238807798274,2.832048430800906,-0.7339747567372046,3.452732578881723,-2.111046340604467,3.064315633308568,1.8075365692246987,,
2.833737000000013,-32.934184685388786,24.126053114648624,-54.52712001316768,5.575362032167615,0.8212122649497569,1.161137437166336,-2.0010929317625528,2.4953902415769056,2.169286567946984,,
2.843232999999998,-49.56572772175105,23.13982584728228,-50.346213724806894,6.157772351058383,2.307097532578297,0.4584685322811156,-2.0171795554115297,2.300870190444073,2.167070587821745,,
2.852743000000004,-65.32223008624428,22.55848831683805,-47.0546745757562,4.353874100541952,3.46089976144738,-0.7765024633146,-2.006973122118453,2.1091371125116365,1.880518347595828,,
2.8717690000000005,-89.2945860735049,18.83150320940341,-42.28701089099511,-0.8735503932001013,2.048756800432374,-0.5887437895877914,-1.7156844968338305,0.9554960394869908,1.1756167515690688,,
2.881109000000009,-94.89729454507638,15.911548806313846,-39.90399314722688,-1.8140153946159017,1.1587159171980492,-0.0773669275011713,-1.1911060569697929,0.263580947047259,0.8116212186847055,,
2.8906120000000044,-96.57579450035136,13.373250539243168,-38.15310321928666,-1.0217722576545976,0.863590879933231,-0.2730193395216547,-0.5726597272787185,-0.1900317204594042,0.4354297047932169,,
2.900317000000001,-96.43333730555736,11.95891186384416,-38.41680123706347,0.0021238719724409,0.4071948506640893,-0.2332088809196963,-0.1536056274958018,-0.2395246104665287,-0.0590575195030588,,
2.909811999999988,-95.42378278527136,12.474891650952516,-40.6558129215222,0.4134225257138694,-0.3809280858316096,0.1229497043395035,0.2181487942291511,-0.046075620326209,-0.4910554313978276,,
2.919162,-93.45250850957848,15.43451013536524,-41.95042293132802,0.5662111159566312,-0.8400416556650984,-0.50856246962106,0.6766341104689895,0.2003654607657496,-0.626860706446146,,
2.9286730000000034,-91.92306730979814,20.50998332489108,-42.85434991202424,0.389217634480748,-1.3325058915436547,-1.2750415180643175,0.8939668961340707,0.5644089697657365,-0.5428246678419232,,
2.9477050000000133,-95.7894211356126,33.28951682866973,-44.58615615971036,-1.5936901792049645,-1.2453326438423284,-1.619080979228235,0.452841308777781,1.3520929127374954,-0.0489259236365828,,
2.957398000000012,-101.95727666990584,38.83923230380926,-45.45317773092356,-1.985408134316473,-0.8586401040998474,-1.6025273731785366,0.0647029219063237,1.491598416700051,0.3287732639464299,,
2.9669820000000016,-111.60778290594212,42.321244933590464,-47.21284529898247,-2.0633016777662343,1.5878724866058975,-2.818846527308571,-0.5243833836795182,1.5365824521210527,0.6922083685833338,,
2.9860979999999984,-145.8821447362781,40.66481160493984,-50.88169731305577,-3.837921799965416,3.0596485188563145,-3.8282916084941214,-2.117444014941524,1.8875209518972944,2.195969333712109,,
2.995695000000012,-164.19574311813716,37.744556104114224,-50.09851629956807,-4.479997679912351,2.4896408545363755,-4.233831618981094,-2.2555915955642574,1.8238522543021471,2.473827085413675,,
3.0051599999999894,178.42779366190027,34.888947294096134,-47.856577465115926,-5.409374712240282,0.6066111010227163,-4.728741631171868,-2.269591790247419,1.7438026175881849,2.507165544447711,,
3.024133000000006,143.22534436039209,30.403396830750907,-42.717634919558826,-3.119383027795437,-2.245808537102434,-2.2245419000884765,-2.3956686367364,1.799786568742609,2.278200448832912,,
3.0336519999999894,126.81612380672055,29.19438320529828,-41.37199164540839,-2.3028284255212217,-3.2929064704615736,-1.3897449185226407,-2.278881850182076,1.73131539596292,1.9007291623762643,,
3.0621590000000083,75.4801615653979,24.31173521979935,-37.81122401069689,-0.523864046172571,-4.252825572106431,2.960772668192435,-2.742003853878567,1.732747556445054,1.787057631877825,,
3.0716720000000066,55.91474789451767,22.90306620083214,-35.80383673995987,0.8097339292435388,-4.7030205460694345,5.555092967639863,-3.042747431007255,1.9279056850977456,1.96744619215628,,
3.081178999999992,35.24658538747137,22.44136655025088,-33.06450295766889,3.115669202061252,-3.0202330494550944,7.178733505138632,-3.203143531606144,2.0851242804955032,2.1385071251639745,,
3.100201999999996,-6.368422959455154,26.086856713097944,-28.087178285594533,6.203813022837624,2.846561496668051,5.254029086103029,-3.06358782358481,2.326020465093208,2.169880120375633,,
3.1095359999999914,-28.14071928838978,30.09965975595201,-28.0060481700015,5.879522131196362,5.337367233608722,3.2675890057809056,-3.021629352623636,2.50919361672186,2.0693441281456977,,
3.128544000000005,-73.41696025644558,35.64476515722357,-32.901601184983,2.724652371102515,5.830467942368332,-2.3981005806706523,-2.963264145420585,2.278953776264429,1.8353453771084032,,
3.138135000000005,-96.26041789350217,36.68217322636229,-36.96976684799672,1.2671738430123225,5.016567888151813,-4.56595532783387,-2.92308685519633,2.257051036128914,1.7168538872078027,,
3.1476550000000145,-119.3203705023262,36.97937625209598,-40.691188884928174,-0.0553252124512843,3.3731446280618465,-5.992406323929457,-2.855948882117745,2.3380103339206686,1.8560510609097909,,
3.176141000000001,168.9218293847504,38.12363298171224,-51.99105664181717,-7.937124387608237,-3.4096973058950293,-7.544374876107855,-2.3697504910473257,3.0037920045716504,2.195409657315752,,
3.185573000000005,145.29621974992386,39.02640414447363,-54.90761774459596,-8.110918502449763,-5.027927709116828,-4.574244330186184,-2.0570838801517524,3.073750259573816,2.370512053193925,,
3.204556999999994,100.8136113767316,41.30273580726372,-56.27423239089651,-6.972899620838786,-5.0969898289464615,2.2276455756613927,-1.609598736146776,2.9901983169994595,2.7658138763808577,,
3.214328999999992,77.9173653867332,43.84686543538273,-58.37670751319611,-4.20723299176574,-4.026366567442177,2.895049792547945,-1.3984795664998988,3.1107198971087744,2.6838100915644567,,
3.2238450000000114,57.63702597610585,46.21412828558895,-61.09164413318224,-2.0156863738255457,-2.43401828212038,3.130532455597,-1.0404365682607315,2.712664318833746,2.332235759049337,,
3.242682000000002,22.79071597873273,46.55691968034375,-68.87090463379006,0.1380818020739333,-0.7377167304961169,1.9941104648338228,-1.0413326080917773,2.0331019810481035,1.662476184867725,,
3.252381000000014,9.424223897182449,44.89207259813734,-70.34097498000659,0.5205287675737018,-0.5661804274009377,0.3183661406281809,-0.9618166179308354,1.6351217942987706,1.6226398125544927,,
3.2616940000000056,-0.4692523762789352,43.68416713517686,-68.70705605915788,1.0921192046143475,-0.9408351695632102,-0.442405305726366,-0.7223040815510686,1.2444680404380868,1.7099702212969026,,
3.280725999999987,-14.054480847180445,42.285603923210026,-59.25862486736588,2.510100482046495,-0.7909822128774572,-0.2310445387687253,-0.5398283908321506,0.7324392321599181,1.9015994609021367,,
3.2902440000000013,-20.569574542046333,42.45438713040362,-54.266271457482446,3.753581068501514,-0.4761696715363561,1.1318023091767817,-0.5004779997210026,0.8253387679349641,1.878099298636412,,
3.299923000000007,-27.937091942790875,43.64768557645903,-51.08993819892466,3.0076637530496315,0.6285754736118964,1.873921914710852,-0.4640948013139382,1.0024666306581644,1.6425140410436758,,
3.309435000000008,-34.46512125178721,44.214991252347104,-49.62179172545187,1.5351542847646191,1.5515222882985868,2.1366014888285445,-0.5133152305421617,0.7973912255028958,1.2006324221666602,,
3.318772999999993,-38.9521666369373,43.56707015496576,-49.42234053935684,0.5043747119336184,1.8481693308740537,1.9330599593644624,-0.5189395322198933,0.4083228478753546,0.6627866400557605,,
3.328267000000011,-41.414460198445184,42.41219121764215,-50.74183373725374,-0.9712665120986416,2.7176742391643463,0.9314131452538532,-0.4087145109779221,0.1282236499937955,0.0720084743293764,,
3.337786999999992,-45.0174959688163,42.06554564606524,-54.37724000713998,0.5716281609033041,2.2405098428011647,0.7942552402966521,-0.3797404499132903,0.3818532196073941,-0.2428049295373581,,
3.347116999999997,-50.59735248166634,42.809942335420494,-60.06656228104509,-1.6863577197356454,0.7330773218737484,-0.3311451522572302,-0.3210813003801708,0.7737493827950386,-0.3847299763529258,,
3.3566280000000006,-56.16454686505272,44.19638259521578,-67.35562571999233,-0.357542925705368,0.2606024780968905,-1.047352553514709,-0.1093425563963703,0.8477056753770053,-0.6913892436581874,,
3.3662199999999984,-63.79301679371783,45.50429452004979,-75.38195830041931,-1.873710748788208,-0.2745941595520541,-2.4401736825280613,-0.0980685117838439,1.1093101911284629,-0.5285459146768712,,
3.3852290000000096,-80.50152638789399,46.85627706762681,-88.91952538477233,-3.4841400544825425,-2.123764858355844,-4.490668933955433,0.027923780969749,1.1297162093595392,-0.0768221791860335,,
3.394753000000009,-88.72620268389093,46.93315059145478,-93.6102162269965,-3.841886498945088,-1.637670873035889,-5.259071136137663,0.0402142974300054,1.1241372482343517,0.2638710442080491,,
3.4042550000000062,-97.61933336531344,45.800340610506574,-94.81333380284563,-3.728164104155417,-1.8193447842587032,-4.922960584322446,-0.135485903444615,1.2417465200857556,1.0480803915757904,,
3.423281000000003,-111.01500886825086,41.705354954687,-87.70194019601335,-0.6703033595711526,0.6545986813172145,-3.263085403402477,-0.4039289486601687,0.8903964631123459,1.8335197225594904,,
3.432891000000012,-117.60628874695422,40.3123080028136,-79.58861528046947,-0.522652868181499,1.1625491926839984,-1.590450280161768,-0.387856623181233,0.9605847295591616,2.489274759957469,,
3.4424009999999896,-122.7796880895184,39.57995295702796,-70.92317544681983,0.0081483087829329,1.54205517547452,-0.918868292046344,-0.3444500063480005,0.7318999713152764,2.39930845443617,,
3.4613809999999887,-135.48531841872233,39.10842066160105,-59.55884907627521,-1.1931283469758276,3.249846898248898,-0.094761652937705,-0.5547890076415563,1.0400692911351477,1.8936268412953272,,
3.470889999999997,-143.85521778595307,39.159829010890896,-57.58724591806165,-0.9988977217315088,2.343400148595491,0.4272092468170737,-0.6691946032490336,1.1148574312255537,1.4519542944561206,,
3.4804010000000005,-152.1764573254682,37.78536186846316,-58.81675099291074,-1.5105353482887425,1.908141511393964,0.2250400450866883,-0.9206441605104904,0.9636755355640793,0.7906104971802983,,
3.4994179999999915,-165.13741875775975,30.215736254709416,-64.11529085402096,-0.8663074610744754,-0.0491283598382406,1.7224164887073372,-1.1722390737142596,0.3587399310578802,0.0326728860022949,,
3.508925000000005,-166.81722712656884,25.606776488094425,-65.44239619785623,-0.82321907886152,-0.5816711593496919,1.4404725650787105,-0.9614597954649956,-0.1242723330926585,-0.108075148842814,,
3.5279460000000142,-165.57085324347554,18.62780966505565,-63.87949000774913,0.1590825417236807,-3.039988246229582,1.4356284623470277,-0.4514297235638945,-0.422017032738723,0.2179228078642683,,
3.5372739999999965,-165.1248716414551,16.789229496654038,-61.60441126303104,0.8918101595802203,-2.511932947003606,-0.6526761587111363,-0.288310615801384,-0.2442295940744241,0.4283133404330992,,
3.5468040000000087,-164.85760142989648,16.88973976300071,-58.84679888456797,1.752825268494145,-2.522891969876923,-0.474329959393384,0.0428974494916906,-0.0344618603838921,0.5366262385300862,,
3.5563769999999977,-163.794865511489,18.87086207247913,-56.27964812191862,1.405372134936737,-1.3766935683617048,-2.2249728416804526,0.4434084392422112,0.0418496887371396,0.4486011807853133,,
3.565887000000004,-164.3686224583212,22.16133591083735,-54.487430945492186,0.956909625126223,0.1578585131715951,-3.172737574374309,0.4810896623136386,0.462843599274963,0.3990023362440678,,
3.575401999999997,-167.20293194470463,25.96859218282031,-54.00708890502565,0.3455565936698571,1.263673338056945,-3.1046652402172,0.3157282582980061,0.8658999263514153,0.3275528332411091,,
3.58491699999999,-172.40835302180432,29.62114804496252,-55.166151328419815,-0.8760361546985239,2.123963127502756,-3.891420520559345,0.0612976552642658,1.174921765758098,0.2541816437826461,,
3.6039580000000058,167.9038000382267,34.352730999501354,-62.516332904411705,-3.4056548240877182,1.1400692316457604,-4.796967443541392,-0.6315101019839309,1.822268815808332,0.3656311067354262,,
3.613470000000007,153.82666648353862,34.72816419010029,-67.64867183421828,-5.356120681828707,0.3855968944710885,-5.537931309677347,-0.9096364342861564,2.135436971266484,0.5738961671933299,,
3.623173000000008,138.53648354284678,33.70829037848508,-70.97845245370902,-5.878177128227869,-0.6138055231517139,-4.886390441269264,-1.1061230888894926,2.283892880992273,0.8302730540423242,,
3.6613279999999975,88.44505398327955,33.66503427125694,-72.96570172077178,-1.8025754586304947,0.2978729325236059,1.1265440383125207,-0.1284945540415394,1.9983655153297448,1.2771318443678672,,
3.670837000000006,78.78184675087341,36.82767933438602,-72.32550360642804,-2.339140443833042,-0.1338763947210068,2.187988100018045,0.1316329051527027,1.6969324040942209,1.2445636270591998,,
3.680340000000001,68.22505444024053,39.91663564530945,-72.15034079467996,-1.3348458652225088,0.04996618861255,1.7744582392250643,0.0817560450748773,1.7665073060266578,1.3472017534476646,,
3.699366999999995,49.31663650907454,42.51252425857304,-69.33080852546848,-0.3213180682776712,-2.4080399897359688,0.9064184247950238,-0.3196478364701159,1.2540500973333568,1.6449188972074418,,
3.708699999999993,39.688347708593454,41.31869847486136,-65.30767942439907,0.8129774540618722,-3.2219616373135875,0.8237313385387514,-0.7738564452062329,1.2327598211275843,2.0923134394716807,,
3.718212999999992,29.740383096775687,38.55224549608053,-60.03422853615744,1.611442947470916,-3.942282370202558,1.1321423582532806,-1.193530082682288,1.104630146966686,2.3328383283283847,,
3.7374010000000055,8.557166775480132,32.99184755313932,-47.39180115618866,4.120116782655955,-1.32953256473084,4.683553150626693,-1.6096025700594043,1.1797027323018014,2.435993770936016,,
3.746929999999992,-5.500261877667686,32.51115555470427,-42.74675422174498,3.051495075333408,1.3207321883292635,3.900502188167515,-1.7539694672209647,1.5957766485087663,2.2673217609998355,,
3.7659380000000056,-34.04368663203174,36.10429249061217,-42.91115187939885,0.8542387507564686,4.38700832880441,1.882854582478019,-1.50449654370451,1.867540941328785,1.0965515526805778,,
3.7752749999999935,-49.80567885785217,37.54859481069364,-48.48514009888618,-0.2026985574018516,2.7112325057105005,-0.1356744325616044,-1.5572487016423049,2.0067535235280185,0.7802101820619582,,
3.803875000000005,-101.73725028810888,39.819644375774764,-72.86035221126633,0.4050088373478969,-1.3701896112902534,-5.643142880575308,-1.057439258242025,2.834589709105951,0.7804261191446721,,
3.813389000000001,-123.09074921405588,39.32342444395953,-79.55357895132776,0.543338115986894,-0.639409914567003,-8.117945144574028,-0.908876556218256,3.1625749916417054,1.1800275955267294,,
3.832401000000005,-167.51634134212844,36.11729349455961,-83.54409493606299,-5.488743663997158,2.2670756710754176,-10.45106060813094,-0.7222243642404077,3.3611571535307823,2.711092276948686,,
3.84187399999999,173.57835410896877,36.0738711767734,-78.6125353309698,-6.929674528948798,2.577634396647361,-7.236357246447742,-0.4836492094141754,3.0252518078908794,3.211388242006664,,
3.851304999999997,155.92209768152256,38.04089541738109,-71.70617720451898,-8.680185124722561,2.2595658149646227,-4.029172212760201,-0.3457378431080961,2.8341434289840555,3.5059343030206045,,
3.870373999999998,117.01635558657462,49.10038950562486,-64.52399969708493,-8.699378090717206,-0.9830443623089204,0.9095879032062496,-0.0879142848623948,3.177858233439908,3.257337139318553,,
3.879881000000012,92.9222946196932,51.88377194580848,-67.56327819151079,-4.72474027372793,-3.160383065957111,1.417134107054877,-0.7434826588043493,3.0237574956233813,3.117371315730716,,
3.8893970000000015,69.15678772308945,49.02917331128727,-70.70716866261218,-3.699734093380316,-6.0663132380718165,2.3085238409217346,-1.6033470804156769,2.6268515409120137,3.044089765812179,,
3.90861000000001,31.36693825701844,38.44034028748484,-63.84659618220008,2.2506776434633697,-6.405376784553405,3.88195061067,-1.975907085883841,2.001352910500556,3.3623245961262875,,
3.946633999999989,-37.40981352932184,32.08165573888581,-49.47644464041607,3.193153726665964,3.983131081227548,2.512946322089125,-1.9813907106021067,2.090494572797276,1.9068703915033869,,
3.955784999999992,-53.26838028476009,30.584349416341137,-50.71943450823215,0.795284147983894,4.017151562966188,0.642703728092814,-1.9678710228444447,1.8891259935653808,1.4035003469140783,,
3.9843349999999873,-88.4304433770082,30.89638190452333,-58.45458619836984,0.4834741344321427,0.810100089110781,-1.4255161242762044,-0.8447189892610623,1.6832905582490725,0.3905538859515339,,
3.993896000000007,-99.11557279024306,32.623508646931235,-63.63262366798288,0.7643812892601041,0.3622370391931011,-2.2489472631136027,-0.5787100166173003,1.7578899708399125,0.091611453696116,,
4.012874000000011,-123.80557943385364,36.04815826114723,-75.06822270506284,1.2788871335445535,0.1486000153495257,-5.778671632932339,-0.3847692505339993,2.1716412769048725,0.3741556741967649,,
4.0223900000000015,-141.0273985391197,36.19215491581468,-80.9537138715731,0.5655207449442056,1.731360049442409,-9.16313850273483,-0.5499463689810447,2.727453433040668,0.8599320458217856,,
4.031905999999992,-162.11685143442295,35.11069043186743,-84.80183873870308,-2.020133051962101,1.597486259363969,-9.368579506520078,-0.6371738444710221,3.3745367664077213,1.6963299878344948,,
4.05111500000001,156.74270535295938,32.9412289886714,-82.88315155940168,-7.070664545930225,1.5700456882747982,-5.858914227550479,-0.4797672287733169,3.315677121818078,2.7078318776143155,,
4.060585000000003,138.1326704264916,34.114099978960375,-78.31663581800353,-6.66641819731815,0.6453544332871107,-2.060714418940345,-0.278050959567634,3.106907745050854,2.966649087281193,,
4.070089999999993,120.72843632274342,37.61509821534493,-74.13649149605462,-7.577820570346967,0.1787200979874946,0.1174512076819926,0.0031838920001852,2.912535601478472,2.8741897427877454,,
4.098803000000004,65.9939533568706,46.81441405650689,-72.318224968003,-2.742716236451085,-3.546132099370761,1.855022262889447,-0.5851098604785367,2.443842762853869,2.5658013892920994,,
4.108135000000004,48.68659335574226,45.09519457821488,-71.63117797985156,-0.6882179126272374,-4.198344005678685,1.203061267528975,-1.0705986408056232,2.185798271850919,2.6280066658138126,,
4.127152999999993,22.074308820672297,38.40647530998447,-63.491736635309245,2.779238213664584,-4.443393736476462,2.0108372051690004,-1.4051533721996354,1.428244102710029,2.574594559725828,,
4.136839000000009,9.26567967369808,35.0030544432688,-58.451193942232784,3.6728813359607098,-2.723448512109337,2.539805155057109,-1.5933094317516454,1.4707239123507991,2.539309576662258,,
4.165338999999989,-30.259998863355364,26.905760603022543,-51.09217500845023,1.3310463630804965,3.02793481773014,2.376430680879676,-1.831333457200481,1.3931382692172998,1.410654823773407,,
4.17489599999999,-41.32639584599092,24.076396637517803,-50.99073775296265,0.1174121156011214,3.1332046199339145,1.2647407846975085,-1.6968395412000368,1.2003189674815944,0.9739364635571158,,
4.184041000000008,-50.61380099429999,22.344360380179765,-51.81453076015902,-0.6478949118424034,2.6886318681902988,0.3381226603378985,-1.3365609884599787,1.1197965946134076,0.5682590782014795,,
4.193545999999998,-58.78352639357911,22.156387806037085,-53.376469767553,-0.5296050085504138,1.7846721991308527,-0.1252807815176019,-0.9493800598617164,1.1796998864762225,0.3071039183833687,,
4.212658000000005,-72.98811358835042,26.68633512145563,-58.49855887736189,0.6486516518225763,0.2172455933282298,-1.6412198461831478,-0.1894277853766758,1.3897192469312931,0.0165929887136502,,
4.222149999999999,-80.9674810235455,30.376510363548288,-62.05625592677185,0.5837709857644203,-0.3630112859825757,-2.603395506080572,-0.0553663139506471,1.5845888039767022,0.0520430607242677,,
4.2411690000000135,-105.10090420424918,36.65369298758183,-71.63839412359525,1.5307826102363034,0.4406784160132799,-5.768907568956655,-0.3274216411909254,2.334903543743881,0.5815999120382876,,
4.250684000000007,-124.29913304791494,37.650992056373234,-76.5546167990292,1.11057168284181,1.431008020410199,-7.618107365528457,-0.6484688870707408,2.997119613357992,1.3429549748487624,,
4.260332000000005,-145.93927588186946,37.00272250336439,-79.45447578893994,-0.3649228664010481,2.3885016808131314,-8.596314971390061,-0.84075445167762,3.3404668546351384,2.05089737708521,,
4.279360999999994,173.2502116853889,33.391113406686856,-76.12944329542154,-5.457176826906007,2.346559099790213,-6.394344107254796,-1.0467937143523691,3.1052151892815445,2.8648369774757017,,
4.288826,155.27167783144168,32.94635310293829,-70.71771828307597,-6.950170315329398,1.499691896912135,-3.4644500234544027,-0.9458588588330956,2.8675358400300484,3.046569124181615,,
4.298344000000014,137.83724823830656,34.69559567594033,-65.0804793100696,-7.328624494328784,0.4770517774120078,-1.136265943911121,-0.7704590957836365,2.8227569665869034,3.06545186868642,,
4.317369000000014,102.13619109462186,38.79283290725307,-58.39101752977569,-5.648454920986431,-3.5097779586562226,0.8352716468496746,-1.2226615795410354,2.645111606000767,2.7476694681218388,,
4.326876999999996,81.99292655201418,37.47762474616587,-57.48064289253536,-3.709206164254984,-5.23098487474484,1.904328902659313,-1.9054797809287247,2.5507524514063,2.671643437798202,,
4.3460680000000025,44.336843709198114,29.59384799290814,-52.55442768479541,1.7980472706990664,-6.854614268497637,4.640395311047487,-2.476806706616732,2.0024219565540204,2.599498464427477,,
4.355581999999998,25.89675808549553,26.306732910565525,-48.089686380864485,4.171649967453952,-4.288045023168393,6.079947343911873,-2.5879883580568266,2.096529892660055,2.618431171492135,,
4.36510100000001,6.38783378309921,24.55478220629743,-44.52834187970959,4.710918255442548,-0.8786870372527922,6.026031292064618,-2.690556259931385,2.3130378254378514,2.384819417603369,,
4.384120999999993,-31.32892299501341,22.773812179592976,-43.224431155570834,1.90496695799084,4.619070225965721,2.7961086329962628,-2.62068657905242,2.146783556781697,1.4026273537910434,,
4.393445000000014,-47.63871167021575,21.162359001150723,-44.42005989270419,0.0807521470438966,4.247689445610033,0.5116706347876688,-2.4065821705923183,1.865525902106389,0.983673680457848,,
4.402771000000001,-60.5716789429004,21.134651194066905,-45.86202007741621,-0.4956058068889993,3.7108571978157903,-0.4550927582534146,-1.7071471003112637,1.707751844975827,0.6465928464683908,,
4.431387999999998,-95.18501107977129,27.40666901038869,-55.47802346422916,1.0609063037423867,0.4825714391801745,-2.730267852647247,-0.7395656181478394,1.8939046521001768,0.0404482838113562,,
4.440888000000001,-107.21523770320826,29.90966314159106,-59.68514315664725,1.47253208351675,0.5151878665835525,-4.2245225446222925,-0.7113561378031245,2.051202815779291,0.3154018113594761,,
4.469558000000006,-160.65789520097832,30.71075909400961,-70.56655325345996,-2.5393741022722724,1.5925497086343643,-9.49902034583157,-1.4291137401682028,3.301176935571949,1.7161660354418529,,
4.479084,177.6476648541871,29.654421154593265,-70.4496860961607,-4.888325917785234,0.984007709210546,-8.186183631322528,-1.449861343658227,3.4698273921031686,2.2069123577149257,,
4.488631999999996,156.9855999687549,29.58726024535777,-68.2422870396523,-7.2772995112987,0.2637935750822675,-5.97254683889638,-1.281697511007556,3.362446063547916,2.48294889779315,,
4.498070000000013,137.106285350318,31.262547320124632,-64.96389742126038,-8.052385675715922,-0.7113924493687066,-2.578397267912843,-1.0591429901623417,3.284968680483356,2.6670166946399765,,
4.507577999999995,117.83064430333488,34.63918198068678,-62.184407238588136,-7.487732356258746,-1.3842600305562989,0.2765616152734189,-0.842405693475989,3.201195038671324,2.651994695847248,,
4.517091999999991,98.57966186098017,38.51307961981475,-61.10551275781437,-6.286606402139283,-2.250956053141213,1.961347317498909,-0.7944326512875809,3.090360358442177,2.511739786149388,,
4.545794999999998,43.496825271848,38.36241394910438,-58.903637686801375,0.4965341250565861,-4.040265417546429,2.335376237029177,-1.7026195372356083,2.0851417852953453,2.6083487887209147,,
4.555307999999997,28.417545046043703,35.40248481830246,-54.75350035256151,2.489391096824465,-4.301711187640837,2.922881455938978,-1.8168308830441613,1.7012780816434931,2.639979494472497,,
4.574318000000005,-0.0173599615664229,30.872590407661985,-44.48126984010143,4.532227737450363,-0.88591661771153,3.5860290174103686,-1.9421827526179505,1.5034272081817086,2.493498000329583,,
4.583844999999997,-14.591792232755834,29.461954079881338,-41.01327935915561,3.5414172997845994,1.4310785026700683,3.0679613972059285,-2.045090530905351,1.507429564635889,2.1580178237966163,,
4.593348999999989,-28.530572836801284,28.01037370599314,-39.397339340947845,1.1307739803505703,2.7527358857484168,1.842487201284288,-2.056364045358288,1.3592914826425355,1.6641237881197248,,
4.6028630000000135,-40.50887163719092,25.80452913940104,-39.00762177888596,-0.2029106128864429,3.401993993882624,1.345512141940301,-1.9356538864307369,1.0109117909516063,1.163221180360975,,
4.612190999999996,-50.02313833030406,24.11666897806445,-39.4681106682434,-1.6318642018656604,3.0233884704641474,-0.060165666765319,-1.5508889125079397,0.8312751450962624,0.7118881094377777,,
4.621510000000001,-57.032986466145424,24.77478669416384,-40.33183553049585,-1.915598325513692,2.401360542569717,-0.6380461888804605,-0.895738820656606,0.9204996021503512,0.4080686559708928,,
4.650126,-77.09094307149681,34.07389798701785,-50.27830361391244,0.6226594274256176,0.7492109359953989,-2.136905224583301,-0.2836378211714357,1.4040806634450864,-0.1862392757989344,,
4.659636000000006,-86.70939593552572,37.25832569850306,-55.48412111307878,0.625522409429262,-0.4924069245784751,-2.946023276891195,-0.4368468456753899,1.6309433824617845,0.0825717450292979,,
4.669143999999989,-98.53557634059356,39.677775774205614,-61.79394874543744,1.5187988355923734,-0.4278853998298297,-4.497323675916685,-0.5522602170582104,1.833129860729285,0.2126425737811878,,
4.688173000000006,-131.9844417315453,40.08106692970296,-73.07160981958586,0.6294839194131227,0.9639295378158432,-7.1417857944341,-1.0081445272457727,2.57012816346306,1.4446785626889738,,
4.697865000000007,-150.48243012794077,38.469730490455504,-74.43565691364782,-0.7315040020911521,1.377419583092469,-7.3067360268760355,-1.1087191168699275,2.66201369373772,2.072894139675608,,
4.72626600000001,160.36617622640108,37.427630283983376,-60.89648325407622,-5.357378318427791,1.2588961418392337,-2.2910269975434177,-0.8481321500517418,2.320147042580985,3.112453422601219,,
4.735826000000003,145.96643498015382,40.39372242432138,-55.22420758124822,-5.720905347145847,0.3801271568094436,-0.7973106621036541,-0.6867552962982643,2.220261143068746,2.942798517288088,,
4.745335000000011,129.5189771782548,43.92432334455169,-52.24940991884328,-6.802469694828991,-1.366822131736643,-0.3353769449970612,-0.8788319014533763,2.386070564000564,2.8036601105342944,,
4.755019000000004,108.88320323662646,45.43987485744916,-53.56615844669521,-2.086422398730248,-1.0212648559433806,0.8360170403022099,-1.5315725476930615,2.523136970534127,2.643046852217924,,
4.764350000000007,87.34003837221135,41.81828342792839,-56.6811645702791,-3.8829816859551616,-4.77560055926848,1.7830021356710315,-2.370865328811236,2.1496603569684307,2.3570363253774715,,
4.774042000000009,66.96715339554406,35.34972149570366,-55.552261184196745,-1.915704182253448,-7.071126377220889,3.947262684575233,-2.8435055292803453,1.9347638608727675,2.769717127193112,,
4.793065000000013,30.95686164316647,25.976187784673204,-42.744569025910806,3.471515745247786,-3.964417062272865,6.440699635466473,-2.6135811824195168,1.7717614418732188,3.0679311114045418,,
4.802578000000011,13.229408102530524,26.719146616725894,-36.08139802095737,4.689697511847851,-0.2992821459657793,6.232800930212227,-2.368211557705953,2.137554554293939,2.900828556775888,,
4.812101000000013,-5.361596544463199,30.52335215661804,-33.01853979727608,3.637063549499479,2.8878067077031413,4.126578109450524,-2.2653886779141867,2.4772854111446896,2.3922656173196994,,
4.830935000000011,-45.149030801764056,36.8701689854528,-42.45172177430716,1.4762489940169423,4.823804822172218,0.1374801642281172,-2.3346235445107086,2.41064824172058,1.0008793598968444,,
4.840440000000001,-66.1952698039852,35.77981256025434,-50.80778671953355,1.677208487307671,3.4273138426687773,-1.547085941702118,-2.483884972300108,2.3156499928138814,0.8353830303454444,,
4.849850000000004,-86.1383050553763,33.186540067551135,-57.95583207755736,2.87469109187714,2.398707375900873,-3.290136579923016,-2.3314866645015373,2.3731515398305247,0.8397187323076601,,
4.859361000000007,-106.06397767196871,30.82370250784676,-63.338340961615344,3.2577683209516235,1.5835889493515936,-5.805250447107798,-2.064371269340888,2.716416931946008,1.0447942139866595,,
4.8690579999999954,-126.7628861865672,29.60038870494211,-67.38643300047401,2.7068433854870846,0.4694751909188558,-8.683585802261776,-1.711690740998257,3.151581871157344,1.2815112331399314,,
4.878561999999988,-148.6372704565618,29.28671628437094,-70.8324390305621,0.0192046663188622,-0.3671300740722341,-11.867697907665937,-1.4167795151857767,3.538195826007972,1.4692184757743303,,
4.9069749999999885,145.2070805705879,31.11544768065492,-72.5905035705897,-8.503748349702121,0.1395202616350234,-4.119366826956631,-0.753722266025724,3.570605672775885,2.4290767055111644,,
4.916523000000012,124.91914150300184,34.08639302772977,-70.04267467952775,-8.093770870363636,0.3937973153473233,-0.1215317266841897,-0.5390998557257206,3.4332259592100955,2.694889171898278,,
4.935730000000007,84.58701084524905,40.85154793571882,-71.05763920446535,-2.708406452782992,-0.5075088028319248,1.974352554617119,-0.6102549036725431,3.081460374837382,2.236888345921516,,
4.945244000000002,67.31276174357721,38.82286031485567,-70.45092411754152,-2.6802273038347235,-2.9749099843849787,2.6136346912485227,-1.2562420148588238,2.375020486140724,2.3366960027192225,,
4.954743000000008,52.2953667868907,35.79989104330378,-65.9625254637818,-0.3518575774968261,-3.55759857611713,1.6506526145988036,-1.4486092904343697,1.999989991122708,2.718003664373422,,
4.973772999999994,30.73028386755088,31.31346464966003,-51.49250019436487,2.633695588791868,-3.629887589215795,1.6793667252337452,-1.2672786497209845,1.1433511367493985,2.527676174887028,,
4.983281000000005,20.014332867531053,30.094437087488675,-45.62081332646046,3.1371853776555163,-2.0118586476386526,1.7697744185422757,-1.405260409855433,1.223393880413052,2.268624246667716,,
4.992798999999991,7.781569108212306,29.176189848542453,-42.68778729526954,2.6825969916742185,-0.6099707671357687,1.862405036708274,-1.655949268219178,1.3523511127736256,1.7966934810102466,,
5.002297999999996,-5.2763614888561285,27.854265470892145,-42.98600579270698,2.208247756825905,0.9513874383226024,2.383447267937683,-1.8637571489649376,1.3687183532470515,1.188671325293025,,
5.011809,-18.48346911470124,25.280375793608084,-45.56703444511731,0.4887219260224589,2.15941291874296,1.3017654322318788,-2.0510992266406776,1.2835643247406,0.6679358182970211,,
5.021147000000013,-29.248984093396547,21.026222672716063,-48.489382959565056,-0.7555813644837305,2.2497345222613934,0.5978467821284602,-1.9722319090345868,0.8713810191158237,0.2643263968272763,,
5.030464999999992,-36.67723929235464,16.671209744240876,-50.86454709930941,-0.9179152395308258,2.338970729970656,0.4174339780528158,-1.5747829289172053,0.5098844055657475,0.0058765276978657,,
5.039975999999996,-42.289079394528734,14.186869155338446,-53.003567584612746,-1.2559839896519762,1.8516625626904428,0.0301789316880156,-1.0591439952316075,0.5463470927661965,-0.1289446251205503,,
5.049670999999989,-46.78487803250047,14.472542114409013,-54.94388063881591,-0.9312717553182168,1.242037154741572,-0.0308465368291779,-0.4667118940917153,0.738971180395438,-0.1655129784667713,,
5.059194999999988,-50.64957103461249,17.752126628030748,-56.87809103671699,-0.3981451412912745,0.7132046430350728,-0.4955614110936615,0.1269042218378792,0.9836389581896938,-0.1722430505533624,,
5.087610000000012,-64.28655519287604,37.131186037489776,-63.617434238794566,-0.4755579453650446,-1.2142927748730594,-3.241833440286563,0.8223914376407722,1.406610056025708,-0.1283857348410096,,
5.097113000000007,-71.86826144971408,43.27971992328957,-67.668148113658,-0.523234485158036,-1.418667084890885,-4.171512137917071,0.6222979391030188,1.5708664179328478,-0.1078265186014798,,
5.116139000000004,-95.50625349614282,47.568607304135945,-77.39382219400814,-0.0306188121498,-1.0311458603820252,-5.012968480943362,-0.3746406017188217,1.6962780584664487,0.7651342281161951,,
5.125833999999998,-108.22400178875968,44.43913601830173,-78.0014757419077,-0.1160375228820571,-0.0087486978722898,-4.742722903446536,-1.0007929065204038,1.5856498123686515,1.501208956397996,,
5.135346999999996,-119.44859885872032,39.61839354960876,-73.83196075209929,-0.5911414784289795,0.3769810673385079,-3.844488888379014,-1.3409491203612391,1.3869174910872233,2.3378635201740354,,
5.154356000000007,-136.8969137693969,32.39657638874661,-55.53344086458952,-1.252407609233978,2.315681048695956,-2.9379943650051548,-1.1924051208938866,0.8954589582212878,2.8911653567844136,,
5.163758000000001,-145.5144629887456,31.448447017816303,-45.73293011868345,-1.890865043356517,2.3585541698380954,-1.8782052217446232,-1.0779226324606412,1.0143381457894236,2.87186984754888,,
5.192329999999998,177.8772962194587,36.21789426825676,-38.30188396337012,-2.849834474250097,0.5834582216961877,-1.7827387268517765,-1.922973426484572,1.7197826877314129,1.2445207477069216,,
5.201830999999999,160.0299484160143,34.154832293531264,-43.63717957773785,-2.383880251317205,-0.5751443929042961,-0.8801498678551842,-2.471193912116293,1.6037628215707749,0.9967753363410242,,
5.220859999999988,127.64379897549426,23.05257829624005,-49.97055286319868,-3.279072916179212,-2.656669379082512,-0.1757439166978195,-2.778809259980857,1.3047055949937858,1.0260675744679515,,
5.230379999999997,111.76425359401676,17.314445401330048,-48.748924502161714,-3.128137096793393,-3.402294807221796,0.7480578860082768,-2.811092355397576,1.5220893900329635,1.340466597744974,,
5.240066000000013,95.3008607357386,13.896692542996613,-45.50451816305482,-3.401539229138122,-4.165541284918057,2.1469559563976053,-2.659685298750464,1.8655277429320305,1.5321399768659831,,
5.259085999999996,58.72731532387516,16.747247733416465,-38.4076053704418,-0.9559961706278052,-2.736870510893834,5.144072105716924,-2.4226037725115384,2.807632303285133,1.6122840319627771,,
5.268592000000012,39.74587105982151,21.73797578925462,-38.01846523778824,0.3580909749487163,-0.3912761720486817,4.456530454703963,-2.207839178407244,2.99841681823522,1.330108504689533,,
5.278112999999991,21.108169610923305,27.2166990709414,-40.691978458685774,1.2966786055392223,1.2522450138425298,2.694257987137205,-1.9368034159355485,2.9939030014000285,1.0157385874651064,,
5.296932999999996,-16.249755763373646,36.42111531975353,-52.22089824881038,1.418639945487412,1.2400974207472109,-1.2746689136172171,-1.3986395900955102,2.8686108143623144,0.8220501177819931,,
5.325548999999995,-73.86488548341715,45.48543547869031,-74.1637504015521,1.79956289954383,-1.3847870564177214,-5.664663770641965,-0.4798082283195932,2.79874088585523,1.2076318779074793,,
5.335055000000011,-93.37799877747229,46.302078772577225,-80.31856160851603,1.2036349089831184,-1.2582875450566968,-6.775415263778082,-0.4417820064536263,2.6831599028951105,1.5788294848017563,,
5.354084,-126.8885230985814,41.41242725573648,-79.2002350171218,-0.1870162666466262,1.6535336414788435,-5.716828968795988,-1.0091853135506184,2.096866906823563,2.814421209567703,,
5.363593000000009,-139.93481456937548,38.83586571190556,-69.99706164648477,-1.2493339910744006,2.972999552354262,-4.531778849792866,-1.028875464278406,1.794766430223539,3.5211049727267723,,
5.37302600000001,-150.7903407832586,37.69148511071188,-58.42729947115484,-2.5019682624750432,3.8049219552194,-3.4346198267513146,-0.95164489849314,1.442486720218871,3.6580927874093976,,
5.382540000000006,-160.25599715786447,38.931462089293824,-46.59772322005212,-4.075557606338725,4.290563833965239,-1.7720382426898742,-0.7110063951186272,1.335438956016843,3.539984000688042,,
5.401555000000002,162.30216031129356,44.02049140958481,-57.961759662401775,-5.891765919392248,-0.1702137689056566,-2.305466622828441,-2.198648037108681,2.595416341069466,0.7026826012194404,,
5.4110589999999945,141.048034292931,34.123350363512834,-64.89485169191394,-3.024180449006053,-1.7691813927631677,0.2300694454782092,-3.296430856526916,1.9645095328578903,1.3103743838757167,,
5.420756000000012,126.97777112738096,22.6054075163904,-65.7137056782045,-2.7341116702409445,-0.1577664473481853,1.223887313206569,-3.1216744362748168,1.2970605622542524,1.1779184525513056,,
5.439776999999992,103.7357457530723,8.033539333997554,-54.08428952987191,-2.842441205235641,-3.026657818010412,2.09912238812601,-2.186841137672246,1.595073094733048,2.2215425571683856,,
5.449297999999999,90.24011734468212,9.307172219401036,-44.02003982888768,-3.2981950411772187,-2.92997160422753,2.5899088268616235,-1.5616904742308917,2.1879341264784,2.4131827049578614,,
5.477834000000001,30.98416258751115,32.92379493951298,-42.269518422186856,1.6252422391801484,-1.6235104064411876,3.1924463176612825,-2.1700939414132683,3.6786738344408425,1.3020193464631429,,
5.487331000000012,8.093540976307747,34.581771518692456,-50.33368989012534,3.099831502406422,-0.9137065330265052,3.780732755601132,-2.3916557278905954,2.976102206079265,0.94691434902147,,
5.515682999999996,-49.42720545880431,30.64969896352901,-57.141990214578506,3.258317482129983,1.979049514928524,-0.8126024458651943,-1.5793674958459458,2.3816342397508743,1.6006078251487443,,
5.525269000000009,-68.06563940930468,32.94025805683858,-56.74714178845587,3.085748207287353,2.177055338220601,-3.1943709017480533,-1.367788792721347,2.897533722650468,1.8977350879306607,,
5.54428200000001,-113.19368116850929,40.66767046699903,-64.01521555456887,2.9913881380503264,3.1011727108789486,-8.157709977038596,-1.1645507780109356,3.590808454954004,1.7530921537176123,,
5.5537960000000055,-140.20631317040642,41.32383918988402,-71.89384285824143,-0.2588852190219842,3.2625755189717487,-11.170371497989272,-1.434285942783078,3.810874121952895,1.8329221099114985,,
5.563311999999996,-166.1510532031506,37.76013105685568,-78.3586866952923,-3.9019195217550617,1.6710936445144606,-10.619335430509258,-1.7024398138721204,3.6839407244700726,2.0266901481680226,,
5.58224100000001,152.86626177339255,26.9993537667073,-72.86754104533335,-9.724828978893472,0.0848556810190698,-4.242208299065622,-1.7259664736511515,2.984496865571954,3.01982622585647,,
5.591775000000013,134.73533371993813,26.9244659632669,-64.71528691298278,-9.298567216740198,-0.2449016210970647,-0.5810346746351123,-1.18732788718506,3.018649739960813,3.267202267429525,,
5.60128499999999,115.80668658078264,30.473204419008308,-58.82891623387823,-7.845227510665959,-2.3001144536846416,2.028406705021605,-0.9538953166182464,3.26825425134902,2.9900158457771284,,
5.620301000000012,75.4032157540482,36.11617742309241,-52.99635805424126,-3.1454448135182167,-6.168811209202899,2.9799630530962973,-1.643765521758662,2.9904790085224784,2.7768659923437022,,
5.629993000000013,54.57974128079296,36.03821781797371,-51.68518856908007,-0.1021773442760505,-6.518420945267622,3.473552107495719,-2.0718822323800747,2.6593820732874884,2.715812214035876,,
5.649015999999989,16.14939944956882,32.31658068819544,-45.91369762779459,4.867537243676171,-3.211449086855811,3.662316915099353,-2.3987925743038416,2.049670943836785,2.7563150139764474,,
5.65852000000001,-1.6219091073475542,30.20251266886777,-42.3181604610251,5.4809991970138965,-0.6615043399798264,3.716615218138387,-2.478636339719087,1.8178540362511784,2.562135758124293,,
5.668037999999996,-19.124842416094808,28.490528131578483,-39.5568152731841,4.443284340083641,1.9950366906400527,2.814426565224239,-2.5323724858703263,1.745964164604176,2.2671572465951138,,
5.686873999999989,-50.41066743729915,24.73547370047569,-36.98510082876044,-0.718826705928827,3.736369851261488,0.6586888577438336,-2.347342734293937,1.2406562814558024,1.478845775188969,,
5.696376000000015,-62.13596426398973,23.084269824279133,-36.15986770077168,-1.486301293471124,3.2335251911061245,-0.2379773504427143,-1.9201794912032524,1.0143404800920093,1.1162609931906784,,
5.705894999999998,-71.82276345332129,25.443426638654064,-36.286562987030166,-1.6750111270071493,2.4366444316990803,-1.230434445225156,-1.148024531703347,1.4250733191117366,0.7717638077011174,,
5.715401000000014,-82.26998423563855,31.1176687991427,-38.48037440469365,-0.6271180383052826,1.7506542279748167,-1.632490705558945,-0.7762080782973441,2.0186752461014223,0.5535196106354772,,
5.724997000000002,-94.1967953085488,36.90150473394844,-45.220374827811405,0.1043666338267277,0.7412873419166555,-1.9572486327551013,-0.7048045438394883,2.17953416764004,-0.00876554282553,,
5.734313000000014,-107.00646943831448,40.873757535908936,-54.915949315305575,0.9388845279216678,1.6676759198669897,-3.5719515800693733,-0.6736840253545067,2.037862261854837,-0.3251664602719851,,
5.743840000000006,-122.11421060163195,42.015836313176855,-64.79158081187822,1.2807874921734477,0.739136706703405,-5.6246866195030325,-0.9408290718474436,2.0722216844990826,0.0313068428411667,,
5.7532930000000135,-138.69340829427568,39.50557323874165,-73.45353949307774,1.0892509963669723,-0.0695949263007221,-7.043757161484351,-1.360401276601173,2.168311738170334,0.4402877100158542,,
5.762980999999996,-154.10001991096163,34.640857133620166,-77.57014664010308,-0.3342561358905699,-0.0886294963603147,-7.776099531092523,-1.552077900467857,2.139650624149397,1.039475535008359,,
5.791557000000012,160.3754051589246,29.10813823899609,-61.36012533956903,-4.4995634337286585,-0.1212132851240112,-4.047406084273347,-0.8750635682899786,2.426151262539731,3.0266261922779747,,
5.80098799999999,147.30436272687987,33.7762159267635,-54.17194627620062,-5.354387447492908,0.4074184406388507,-1.7880023180097575,-0.4047875120607812,2.390054595509861,2.79930102866376,,
5.810513000000015,133.61560136942862,41.098351810516725,-50.75382882878047,-4.775421719531942,0.4510427652010918,-0.3258114952642391,-0.1699046581400252,2.618046028209733,2.348439131626895,,
5.829529000000008,102.19584895536394,45.38457847248536,-54.78632749039119,-2.533408611285976,-2.491565127490829,-0.9107315598119984,-1.583496880050742,1.6051974094807142,1.6850568889640187,,
5.839033999999998,87.17664541774613,36.86174957134104,-54.71597097659844,-2.113076290722435,-4.165431531832556,1.1452100395044702,-2.694196731694636,0.8724047748771762,1.9936875413962272,,
5.848551000000015,74.80339842924506,27.36867134927212,-49.79759288952978,0.177345585489586,-2.9920570455438,0.3008957388574195,-2.786185823948862,0.5027651540780907,2.298404824550425,,
5.867750999999998,56.55182940673194,14.596728357808582,-34.72156418524537,0.5534669284977431,-2.876079545729868,3.9120110406708144,-2.0717340688492585,0.4011362720065313,2.0834752595524724,,
5.886765999999994,32.62315929479162,15.523667537275449,-26.55420685971965,0.5369520236427788,-0.389828290813656,3.619328660638406,-1.8272551651271949,1.4364669706215083,1.0689388260323804,,
5.915311000000003,-7.620502276797661,20.80151469299316,-41.0908959840931,-0.2131172679271618,1.2343635572831206,0.7529529513408179,-1.889890811339125,1.3569325491491508,-0.4631779514219256,,
5.924831000000012,-17.65328956942254,19.83221476821012,-46.88956703286624,-0.070034461383953,1.5047285129937584,0.4444116359635252,-1.4896518915416035,1.169020206262724,-0.4608954436901858,,
5.934325999999999,-26.952844792910607,19.61989926908498,-50.98478162776202,-0.4967915234593645,0.9169943426769948,-0.3655105376444025,-1.1831697608566991,1.2935220120500206,-0.1898893769844485,,
5.962751999999995,-51.17671717590272,31.95239973950908,-56.869409828098455,0.1497052406169075,-0.4556270662750123,-3.010097287434168,0.1866655867938851,1.924051869408674,0.4678589288327975,,
5.972271000000006,-60.76151088559882,38.87367405004033,-59.94313037231465,0.3030151179274383,-1.2276859140429426,-3.976263235165213,0.3576907740147063,2.056712781712015,0.4990120920316895,,
6.000786000000005,-102.0652068860001,47.20174827250472,-75.58475767464313,-0.0244018704460127,0.2562569209322755,-5.477990289137461,-0.855907381277481,1.8569773656563813,1.2330443602881294,,
6.010301999999996,-114.95227363668808,41.43866198807673,-73.2258916675943,-0.7205242617700888,0.415245925363722,-4.58708209355628,-1.613999616489883,1.4592979456040147,2.1160331790863784,,
6.019809000000009,-125.56887350301048,35.24429784955807,-65.02485244021567,-1.3354668871710185,0.9088749971613456,-3.1784505799830205,-1.7538407974821766,1.1202990482716209,2.956732956535641,,
6.029324000000003,-134.00559148472922,30.5196081051288,-53.54888617471216,-1.1173744038287647,2.1934540450674427,-3.1529956719418126,-1.5412363855129625,0.7398226333067949,3.210778790142567,,
6.038747000000001,-141.70051762307995,27.968632248930994,-41.74684273046263,-2.152264413505809,2.373584246751,-1.590607551966968,-1.2863570022633075,0.6518025897611852,3.112617936158394,,
6.057857000000013,-163.5025347101188,33.710922113876414,-37.03283837967616,-0.7454224855134179,0.4942315116993094,-3.1118281718240115,-1.3840689059009128,2.166046064819937,0.4823474043229095,,
6.0864970000000085,151.7501343467069,13.724846670251454,-69.25559628308274,-3.0888974853574727,1.4487336028265914,1.1566536239439476,-2.566946521412488,0.6624666902167037,-0.321557340751368,,
6.095821000000001,145.75155980536633,6.249200684325509,-66.96405488716164,-4.574723061383311,-0.3852182136863633,-0.5399711918373477,-1.8291223931722191,0.5408175400679147,0.6662212656426543,,
6.124348999999995,113.56212841501086,14.047747629268567,-39.75403554329274,-0.7238187796087643,-4.076049962146086,0.7741181882335981,-0.5935573179020338,2.958601563575204,1.9881473062358928,,
6.133862999999991,98.09736574252248,25.34449556354173,-37.35523484971119,0.902144088761528,-2.325456164373696,0.4245497954005947,-0.8825406771345009,3.5792842882963245,1.5212638447363394,,
6.1623989999999935,43.70792259379869,42.59215642597167,-63.40135229516183,-0.6447675635046283,0.0645694448232189,-0.993622194576172,-1.2545311548808131,2.438102307265043,0.2464605981867198,,
6.171991999999989,31.26900341129049,41.24840018879774,-69.72787949077487,-0.7785395882564481,0.8483718317788608,-1.89836661068033,-0.9821335298677644,1.592386705968854,0.4001117457905711,,
6.181491999999992,25.42967163473909,40.0767267322275,-70.23158801907543,-0.337241418179621,1.0565578098235708,-2.7126203293898588,-0.5238447972947342,0.7530271077142995,0.6610678753492405,,
6.200513000000001,30.706754646623548,42.24865532008283,-59.890863310054215,0.4417924674727259,0.4536820906135611,-3.56480061766836,0.6625296604576962,-0.5715277535073172,0.5678285622386083,,
6.210014000000001,39.99564113257956,43.04562500609245,-53.522889218531446,0.9139401198904016,-0.2414078777090675,-3.5327711754083544,0.883580172912817,-1.055500644164427,0.0134362902089006,,
6.219526000000002,50.31945421902034,41.74853242914663,-49.52658388971708,1.3470578471670562,-1.157807392187767,-3.590924032637908,0.7466249490518756,-1.3555291022579778,-0.594822506014424,,
6.238299000000012,71.39199594381338,34.38159794471938,-49.54127524588392,-0.3221038148414367,-2.4095696117913312,-1.1477292164110366,0.4841457869672866,-1.8464277911732112,-1.4770184224402712,,
6.247803000000005,81.15450069492879,29.75953240200264,-52.29410967417773,-2.209209281122209,-1.656557170838434,0.1530429157005066,0.3280004621608363,-1.8689758892188453,-1.5879823160933964,,
6.2573170000000005,89.78368201112691,25.78588855775084,-55.90765214130345,-3.846790386530776,-0.1920188571348811,0.9786947295886056,0.2533785479789754,-1.7051300930667317,-1.5273148887660497,,
6.266829000000001,97.42775959450572,24.00930575742325,-58.053588206055785,-6.2386844205100696,2.903291600245529,2.110261659138675,0.4587846575708477,-1.3579372797778393,-1.0734325891120324,,
6.295541000000014,117.04591115627858,32.71380193123331,-41.40987345697187,-1.627860195653705,-1.1913269628317429,-1.8089769449401831,0.8508540525145456,-0.5105715858649953,0.9460749110634136,,
6.3050580000000025,118.39585826241884,31.87933200705629,-35.40205569918939,1.0584990275112514,0.8565260019499622,-1.182610982469651,0.0752677434026578,-0.2729057326347526,1.0584380770822948,,
6.314569000000006,117.53243354014828,30.200229604262063,-34.24000898229909,1.012992644417223,-1.2525184416632122,-1.682265891572674,-0.3135799384435952,-0.1914123704876916,0.3218077890252133,,
6.333591000000013,107.47549801505632,22.93325088768881,-36.7968212931825,0.687203330673323,-1.185187711381411,-0.3916943551519949,-1.3979190077979324,-0.013340726749974,0.2357075437237709,,
6.343267999999995,100.19310638997358,19.34971135259181,-39.660041618567206,-0.6994855559819497,-1.176122965521066,0.1674309602204919,-1.5117192093497098,0.2787194286898918,-0.0464247302541544,,
6.362444000000011,83.03962242183931,16.685509461206404,-43.04846282285582,-1.3930257459079811,0.5054423675086299,0.7608693164416873,-1.3003586388594484,1.0550871569851423,0.0842834964927674,,
6.381313000000006,70.37295470098914,21.71036877168341,-47.471583722556645,-0.7128774122763405,1.7408363311642827,0.6030738779697925,-0.2181223269770136,1.2156658623400698,-0.1460089727380908,,
6.390662999999989,66.63008798563706,26.691889647906883,-50.09253080142161,0.0698485220461132,1.1121193637769655,-0.8759647967467868,0.299452404403833,1.1712789876829286,-0.2170322424446628,,
6.400058000000001,66.41809735648373,32.61112418230433,-51.61038956650188,0.1972397722097737,0.1027891958655191,-2.354322256826202,0.8958393331478297,0.7768739818421017,-0.2826981004727922,,
6.419074999999992,79.2464971792449,43.007055566582906,-49.44407341450187,-0.3030420918955968,-3.2072054242203247,-4.455504660391543,1.5205409641556629,-0.409445236002356,-0.6823141638482586,,
6.428579000000013,90.92019676745473,44.51622830051481,-46.8010038664644,0.2490230338330855,-3.213648656880084,-5.269426887177314,1.3504687729512102,-1.0553814460948356,-1.088452219200835,,
6.447525000000013,116.07466201476842,37.1557448284354,-44.95161974482972,-1.9737318999418825,-2.317497330718716,-2.3991858643093127,0.633271787674319,-2.004169456416681,-1.9291810237042584,,
6.457033999999993,125.97953799453286,31.867309884983385,-49.82904707640405,-3.647412326954962,-0.7053153895836314,-1.1476825024569717,0.3295981498898065,-1.9201031059127247,-2.0981150062145577,,
6.466541000000007,134.0929620216271,28.442125861056656,-56.25242875210947,-4.457814589413957,0.7433073019835622,-0.7575522131277987,0.2978705827706662,-1.5360197042915698,-2.100190151880584,,
6.495280000000008,161.4679245494244,26.294200327356943,-58.69861628351108,-2.878155242954204,1.402824355352974,-0.6416838689924419,0.9237394895640174,-1.6678683309743236,-0.283267932730782,,
6.504799999999989,172.02071329489476,25.387230222532544,-52.06380412511102,-1.6390365857033449,0.3387959572089591,-1.485079541218664,0.9310490558091848,-1.6673579220008472,0.4044577807812238,,
6.514359000000013,-178.95416238219977,22.751208006524063,-44.23610622932809,-0.2057990299003857,-0.307786862799353,-1.4207134974734872,0.708494602239077,-1.5805042988596256,0.8273022289137336,,
6.533473000000015,-167.08668825847954,15.855073534346394,-32.09184564941528,1.387336863828326,-0.5708367917644539,0.080065412885249,0.4147629074783227,-1.0905021774478465,0.7271840392387062,,
6.542989000000006,-163.20844378258784,13.39201609021279,-29.188015170305952,1.339154626467662,-0.5627857173334869,0.4078469951714824,0.3952329149318693,-0.8071072933223775,0.385064903416158,,
6.552506999999991,-160.52957556222955,12.39570548182144,-28.33688730073576,0.9175302725503628,-0.4421316410341486,0.5181577953635356,0.3623412237185282,-0.4264103571196633,0.0506969192291531,,
6.562016,-158.92960403407088,13.21294726421595,-29.07774365201852,0.8603615931045201,-0.2035014011427548,0.3884364312472443,0.3525717344448076,-0.0065311421715968,-0.2193154035206268,,
6.571537000000006,-157.76958433755172,15.213491543941496,-31.14314793790696,0.4053280822861945,-0.1228056553145659,-0.1361231988606445,0.3957400455410493,0.2335626571527612,-0.4705093079602343,,
6.6094520000000045,-165.52217691218056,27.024788302172,-43.18607852704413,-0.5082953888514873,1.261036838677953,-3.4266398174403783,-0.2093305110257366,0.8540613980509798,-0.2763743724095228,,
6.61896999999999,-171.16034933078825,28.65884879323097,-46.2241443159542,-0.7879961802851599,1.2574792873902725,-4.445314526388795,-0.4794180215494098,0.9344407810631556,-0.0806570186575106,,
6.628489000000002,-178.00687908371643,29.25773822474352,-49.01221829551083,-1.6452448102285389,0.6840026860347678,-5.693684971911492,-0.719875566253825,0.9665253348047383,0.1059546952706581,,
6.64750699999999,164.33250046071743,27.89749447994736,-52.26824333091168,-2.4309143739895576,-1.1224340023181798,-4.637916319616839,-1.1549889042334816,1.18709037206895,0.6633282998308958,,
6.657024000000007,154.67323782026764,27.40681207445524,-51.568277205610826,-2.430952817219587,-1.266648110719417,-3.5373341088085213,-1.1425763371923334,1.280006076509594,0.8788717160511438,,
6.675948000000005,137.4921782732227,27.781652258129427,-48.231533677418746,-2.7090135353702234,-0.439117958427335,-1.3463713016281649,-0.8805353093821409,1.135693779081595,1.0882342867254962,,
6.685465999999991,129.9206225797611,28.65371951013968,-46.35141866332785,-2.6685220629296307,-0.2279800492676644,-0.6362226991412245,-0.7780582433690324,1.1000506592657218,1.0927612606373478,,
6.694975999999997,122.35674396729596,29.412690326400227,-44.41348303458352,-2.2075169156820307,-0.4303648802957545,-0.6280206925786674,-0.822175066689953,1.049335824057459,1.1225301398006768,,
6.723512999999997,97.59145261706772,25.620781137654163,-38.17165096500066,-0.7015891827152285,-2.191707304035906,-0.4897978111916673,-1.5607230469017102,0.6739375864541555,1.130853703276942,,
6.733052000000015,87.83209354125903,22.495791987274373,-36.678086433839546,-0.3220250287452786,-2.8909838633649967,0.177674028765106,-1.7967779974204117,0.5888738166579085,1.095068898738461,,
6.742741999999993,77.00914279040582,19.21968614603086,-34.96484960400768,-0.2558703972748867,-3.087441584444641,1.398316489922739,-2.0253089101162782,0.6551335037459686,1.1137186945550055,,
6.752240999999998,64.52775212075629,16.588940836792105,-33.37327163869436,-0.3408307184947541,-2.836261575555119,2.570757516032971,-2.262763807863937,0.9017725518178216,1.0858268268509863,,
6.771273000000008,36.92117593785982,15.687785581938064,-31.308955871579595,-0.6856180335950591,-0.2731189370572089,3.834667103303876,-2.266257959117246,1.479005473787366,0.8818020367862035,,
6.799779999999998,-4.641714868731555,21.55409955986909,-37.42577415351063,-0.2698772528993376,2.1020622382626604,0.9868465198908584,-1.7591404923832166,1.8787906362478304,0.3125630693918568,,
6.809106000000014,-17.698666685333677,24.172818829273165,-41.05670252843198,0.2683984114534598,1.7430444835851864,-0.0983895153882267,-1.5351175251177616,1.9277260723970289,0.2916469923686213,,
6.818619000000012,-30.82632650764071,26.75461787816696,-44.80248809982956,0.8169129827647634,1.0324647530314426,-1.3866482311663064,-1.3866693826106773,1.992596272072324,0.3829900566459019,,
6.837705999999997,-58.0610666804761,31.45052632583605,-52.03751143737223,1.6054410015975518,-0.6279538841256704,-3.7751330250444632,-1.1850030032514085,2.1283204306669297,0.6746613548959953,,
6.847229999999996,-73.47820955007009,33.30891522844972,-56.30437142301545,2.068557307652615,-0.9873020748592448,-4.591434510105901,-1.2253395624234265,2.328608696215868,0.8025885706890127,,
6.856733999999989,-90.35947444766862,34.01025563849233,-60.6265032279461,1.15127573805606,-1.0259991564683852,-4.937004853229763,-1.351458045505422,2.468788852841918,1.01232950493936,,
6.875738000000013,-126.03682663211691,31.238981398589868,-62.00315462040572,0.4878041824869238,1.5026908937154075,-6.458193655373229,-1.7695153135370332,2.565052242568709,2.106197151696806,,
6.885270999999989,-144.15199114861298,29.22296917101234,-58.371083740825725,-1.3552964416399602,2.571572798067501,-6.6594884827619,-1.907268523090552,2.522566390433108,2.54877356548312,,
6.904170999999991,-178.516715995527,29.117223383179056,-46.01373441826463,-5.354205243959758,1.8004618647336468,-4.084300007911978,-1.8327292328130271,2.3617645650680927,2.92399114976533,,
6.913715999999994,164.44708881240868,31.99513731144256,-41.04480143298216,-6.059134780912471,0.7738119783386839,-2.8244460860166805,-1.7382364176376577,2.4412488756486046,2.723384396898912,,
6.923234000000008,145.4294757196407,35.21561477067731,-39.67510293805525,-5.890547881049818,-1.36929598853743,-2.564991618966257,-2.0037572519016256,2.541698487507765,2.3800027420969667,,
6.95177000000001,79.6295462827899,25.857645919279715,-43.60770398739323,-2.3092226094154067,-7.485304834856032,3.1543611227458705,-3.554791687070661,1.6952908402736582,2.1473000075205824,,
6.961455999999998,59.66416691198079,19.94385424475792,-39.05922243140811,0.5131062864042593,-6.273171333665022,5.9849775726824985,-3.5444141615086067,1.554812721708756,2.458346821671788,,
6.989969000000002,-0.6223901980879917,22.129387933712515,-25.199454617398644,3.540859046218144,3.141836653653125,5.335337123300822,-3.176782746298793,2.3692443769458023,1.7523751893964967,,
6.99948599999999,-22.115905701480152,25.39832306239361,-28.114133084156244,2.477153624825017,4.295807796480949,2.490904790357543,-3.2285334796657628,2.3441062560356944,1.156721067132366,,
7.008820000000014,-42.88382620547677,25.807355001676115,-33.15222793134019,1.824391387854062,4.648597922868234,0.5160546364804571,-3.182675401150316,1.9787985968065869,0.7971434961255617,,
7.018333000000013,-62.56338457048175,23.701544902330497,-37.46580052707324,1.79856892142846,4.2822185808509,-1.3763151600463286,-3.1592948915317525,1.726428839065043,0.7934185247896819,,
7.02784299999999,-81.64961696019252,21.18066829935324,-40.77584041319008,1.6951432615361968,3.5188093865147074,-2.618046316680388,-3.054482126711587,1.839916697304412,0.8014718431898459,,
7.037423999999987,-100.40669251140643,19.51781901363355,-42.99827501777284,1.9613384247870669,3.446886987696548,-4.294683424832588,-2.840837072480549,2.104705950007722,0.8645203256460556,,
7.046944999999994,-120.1696243219493,19.33390249778534,-44.83405538816185,1.947410800829276,2.8302913291783023,-7.093849653261832,-2.7126174176610296,2.561298386523275,0.9516675279416574,,
7.065918000000011,-165.48628464716668,19.52071992208861,-52.39420561995285,-1.526013856545369,-2.1940863065388667,-10.7423645462532,-2.862648774531793,3.3247260889866834,0.6861161043232998,,
7.075423999999998,171.41004798191904,17.781181714172774,-56.42801792390155,-4.896249615352025,-5.234691976355384,-8.9111592962471,-2.8284756609806165,3.362356061957611,0.681584629967771,,
7.084908000000013,149.14250873768594,15.268963947743485,-58.04343381720742,-6.297984511807347,-5.902729702655938,-5.860919785567433,-2.7302468487169373,3.324796656455015,0.9485433629630132,,
7.113619999999997,85.13737455204556,18.96688687159913,-54.55934680630836,-5.19234888857809,-1.2451874504453295,3.4535520473531243,-1.7068883787360534,3.753662580290824,1.3264315111017329,,
7.123126000000013,65.98022204966023,23.25797166717924,-56.31671346640686,-3.586922778679527,-0.5406069177852131,3.784186006966375,-1.3290588754164632,3.429257577255667,1.0330190538317807,,
7.132643999999999,48.30019649294718,26.354548340275745,-58.60994662946728,-1.73863398507358,-1.4663753312460734,4.348145123891857,-1.209462036537699,3.038966110483788,1.0292853128973287,,
7.151664000000011,15.628885727214447,27.775393557544486,-58.38522702356415,1.3552198597558525,-2.024354964928404,1.2803809581486822,-1.3973414834375777,2.3006432876933127,1.6563753355994244,,
7.160991999999993,3.770355357061423,26.73662651935732,-54.999602876265406,3.0338215295031987,-2.310095996635527,1.1533562974258915,-1.3331127502857605,1.651254873484686,1.7633382086483196,,
7.170507000000015,-6.524743160758891,25.26432359980613,-50.262203157182505,4.039245604718392,-1.6285258699251224,0.7219074017699127,-1.3593100131456592,1.295099230773652,1.8500804678292304,,
7.180024000000003,-16.142790447031157,23.459558349000613,-45.38739583276754,3.924642901190643,-0.5043367717668789,1.1018820885973777,-1.44620977802541,1.0589455429913717,1.7684658920363867,,
7.189714000000009,-25.114180590828347,21.07114902313661,-41.37974864861839,2.5690432444864046,1.2666213043716452,1.526609307375384,-1.5369005511583544,0.795506842581663,1.481549832738254,,
7.199207999999999,-33.19863073923058,17.848408044124373,-38.5540612102905,0.0154498026619788,2.058981298246943,0.7744194108151014,-1.5841512490909464,0.4869067616578393,1.104104649038476,,
7.227562000000006,-44.07830550435333,10.81453322739564,-38.62468815449041,-2.807123047471284,3.689948093623844,-0.4740957076958413,-0.3926636557272576,0.2108092973552433,-0.2952352019497308,,
7.237079999999992,-47.615671409117546,12.34315275102374,-41.738904271579855,-1.718449181688061,1.5800272323641955,-0.3449991059469702,-0.3327056927263269,0.6815050936101739,-0.4811379875307598,,
7.256171999999992,-57.92461900046457,19.264150693906863,-50.33284072445221,0.495897696738934,-0.6020935144286538,-2.104359051486113,-0.2423103742304823,1.3711403980219403,-0.8275785903489418,,
7.265679000000006,-67.03463321389873,22.32487629932813,-55.26866720843596,0.4741846631151215,-2.8817393417110773,-3.3915766068052005,-0.5594851420544408,1.7230934740083568,-0.5455140293978852,,
7.2942250000000115,-106.23785032907207,22.26603513046462,-66.08504993649284,-0.2080753818891957,-3.257662851623611,-4.111061890810365,-1.6382809060960712,2.35906158509826,1.056084509590054,,
7.303723999999988,-119.75334253868554,18.69158313339524,-62.12917754796869,0.5961227433959139,0.3709171646705662,-5.5873568975868615,-1.749234684262975,1.971097950064841,1.7354203600345317,,
7.313242000000002,-135.07214877272114,16.719297214634203,-54.0477020706764,-0.8677976313507935,1.521858019180497,-4.917124415469757,-1.8811389160691945,2.2768255456089856,2.541938770756299,,
7.332214999999991,-161.09080463245186,19.81760015616719,-36.25011724458252,-3.3210864089681063,2.7349847031386103,-3.769389035065422,-1.3733043316671734,1.8728705967563368,2.410068981523911,,
7.341645,-174.4113537050382,25.107009232534853,-32.04254990590672,-2.855871028275776,1.9141848203997005,-2.665839589968704,-1.449755354090127,2.258153225951574,1.8579152696853256,,
7.351156000000003,169.19392014956375,29.12583943342234,-34.781748745427265,-3.3597277149015885,0.5985563421209821,-2.7619339022624776,-1.998308991071352,2.275235711133499,0.9511319129550326,,
7.370216999999997,130.57993518873033,24.44001741339385,-45.41747388949631,-2.835316004524074,-1.82783060371244,-0.4529552589989171,-3.1443972675291856,1.7997405136115248,0.7760274619684633,,
7.379720999999989,113.41821375519666,18.29034763111121,-47.28325072063247,-4.060589619315727,-3.937219609480743,-0.0464168168139288,-3.093238541087777,1.4725183630212428,0.8816441289424549,,
7.389240000000001,96.55356184956824,12.434549434093904,-45.11332639849547,-3.625947657451424,-5.327481131044298,2.26628207758185,-3.095630165367657,1.5457521727702594,1.3261385832406576,,
7.408447999999993,60.1622378565334,8.791626464158533,-35.540136934320074,-1.01439845011815,-3.9425164980095966,5.032275497505893,-2.852573459161236,2.16023465362395,1.510215648287674,,
7.417960999999991,42.06355827879344,11.435409705582732,-32.20392827980377,0.892351843781719,-1.921007457185897,5.584892380176512,-2.6707621343860493,2.4253033286088894,1.298831182650659,,
7.427462999999989,23.231387261211665,15.39380000984461,-31.85387864232576,1.645670133390379,0.639665745309045,3.176163770319224,-2.6936286767312145,2.611528114055077,0.9443837536487362,,
7.455894000000001,-30.60729596866217,18.47030411280197,-43.83929361586696,0.841024818084995,1.1221434678735074,-1.999132085338141,-2.5243683566776087,2.0825999233192065,0.200748212965301,,
7.465410999999989,-46.273036578316464,17.242408700333346,-47.51845036994401,0.7124095603544409,0.5410092782388721,-2.4204178649373094,-2.260118707128205,1.9647510617138984,0.2293451789070209,,
7.4844249999999874,-78.2664281681213,16.718934128555993,-52.75273684459709,1.6069111219111594,0.1531199200793639,-3.508837815931567,-1.944060745497832,2.526916524719228,0.4733410194347932,,
7.49391700000001,-95.92205162171796,17.92498775913352,-54.58621335453236,1.6002745592054486,0.3766169877595756,-4.272581331790423,-1.8059353641987184,2.860050852183232,0.6880869501771703,,
7.503432000000004,-114.3970652466284,19.877512612178865,-54.84077390555992,1.642689236604694,1.2546029319695695,-5.904585929714613,-1.7243142857417422,3.0694199215920355,1.00520221644158,,
7.512947999999994,-134.38385308600772,21.952862285700004,-55.49395262705142,0.3723865604238366,2.027705278352383,-7.948314623374104,-1.7973314632510815,3.302916422730011,1.2989887920882526,,
7.522459999999995,-155.76750584716208,23.051756442163352,-56.05660965630719,-2.192579217190483,1.88590848410237,-8.50263832674487,-2.044598068291952,3.392349556130191,1.5270057951428493,,
7.531978000000009,-176.84518975019185,22.85695631664076,-55.6193288909212,-4.900632490892002,1.00075278041384,-6.744685241887187,-2.214129053513392,3.193960047836049,1.7324857040831314,,
7.541411000000011,163.24084231516426,22.429977992494862,-53.44318377295763,-6.344442346122531,-0.0171513018378803,-4.302577105167055,-2.2051379894753103,2.949151646410337,1.966928375957793,,
7.55090899999999,144.5715049598273,22.84654110290728,-50.15200322004413,-6.681519494600332,-1.0822700884091183,-2.1495711006709524,-2.0700663738305454,2.764149456369782,2.0926984960763115,,
7.560430999999994,126.2136954894858,24.166334777723748,-46.95332730968346,-6.542551923048994,-2.6087182944945053,-0.5305497293328562,-2.0361359943105533,2.7018111650931727,2.101769743386885,,
7.569932999999992,107.0405299619317,25.60388577497453,-44.633133806218765,-4.990280101892838,-3.882804960920354,0.830076607722574,-2.2249122255592693,2.696581791878988,2.0763103617350263,,
7.579449000000011,87.55728419775798,26.080984882835946,-42.97681133640162,-3.1482616995412367,-4.963541886450021,1.7458817834885854,-2.469195805768083,2.499437870431937,2.029405443447289,,
7.589141000000012,68.47371150425566,25.15559304593049,-41.10990894891581,-1.1957875114728984,-6.1047969467972045,3.547904045289315,-2.6827129545040425,2.171928457609274,2.023043834063706,,
7.598647999999997,49.46756564539911,23.28312526536705,-38.38261600534087,1.3954536341231512,-5.546675608076948,4.7903012563701,-2.9078592152567206,1.9347082581279755,2.1030254879796813,,
7.608166000000011,31.40435765949256,21.53311069715805,-34.47378358774065,3.421584731477838,-3.73459148304958,5.155981026116466,-2.899228567810622,1.7074659908761811,2.1557569331797057,,
7.617662999999993,14.216736616658896,20.754865251171623,-30.13112619490099,4.287138193070589,-0.898600014042095,4.7621885623578,-2.798196781572153,1.5859879305987403,2.105154535605871,,
7.627185999999995,-3.0257788720773044,20.60099783748382,-26.695414011239645,3.7878095855128566,1.600087471136583,3.66664977178963,-2.857375928605544,1.511047949471353,1.9024324167910025,,
7.636691000000013,-20.13139456039104,20.45993387097141,-24.927128970085143,2.614402573315977,3.182279476872357,2.464751522357432,-2.900531559736541,1.3717223004304016,1.5528894246333511,,
7.646028999999999,-36.56364759436989,19.792255308344664,-24.87971108490241,1.0622622160066224,3.994494805730481,1.0713659621866911,-2.857916454912192,1.180428078718048,1.14152817628874,,
7.655531999999994,-51.82267781050248,18.057525453836544,-25.65597724389617,-0.3174588330170629,3.8303895260710346,0.0405250789521191,-2.7607571070738217,0.9213360426725206,0.8363236568367075,,
7.665044999999992,-65.41430262450938,15.775953397209934,-26.30901692116821,-0.8154831318958177,3.188099212842086,-0.6670488284435877,-2.539608944287312,0.7319189610650219,0.6617199856221738,,
7.674549000000013,-77.85479828338693,14.277145800297788,-27.21757464995323,-0.4474469514880808,2.930817117405293,-1.2211044655433596,-2.2824587526012783,0.8163638904320663,0.4645595793877266,,
7.693655000000007,-104.76396448375051,16.400526522243716,-30.680762741653705,1.0799669605341462,2.3587377022385776,-3.2825292190675968,-2.180246993037282,1.6861147683168236,0.2439951168791398,,
7.703151999999989,-120.25833231526047,19.648385614136554,-35.15372415898096,1.6428287788588851,2.097448825341393,-5.705084872998347,-2.124803343775352,2.145249639938743,0.0696154074916632,,
7.712669000000005,-138.53659092308692,22.338847520298888,-41.987841746529845,1.037831202233279,0.8738627111983485,-8.471101175532588,-2.337152577598057,2.5465909086011846,-0.0467728088611702,,
7.722147000000007,-159.59463497880458,22.423110389201234,-50.05558546178443,-0.42039843086918,-1.3197299901517674,-10.39328361165136,-2.6927768739647355,2.814588570889433,0.0055321798915529,,
7.7316470000000095,178.35707636638708,18.96625694503676,-56.47146589785947,-3.2988545405463574,-3.926290407916743,-9.796968397555997,-3.0158785812923554,2.8987370844908003,0.2898817028845115,,
7.741164999999995,156.27865516332753,14.035597745317489,-58.32288974685039,-5.575018079864515,-5.182700096509429,-6.528171852049057,-3.104894455057701,3.045401405153956,0.8896787132733465,,
7.750633999999991,135.0823002689063,10.784357215706477,-55.46086205178851,-7.173760387012113,-4.891499002895476,-3.194591011070117,-2.8044142890994888,3.121995435541019,1.4787789618930978,,
7.769850999999988,94.65793532767456,17.258079040716424,-46.411431058056266,-5.235481782517101,-2.5814147964619982,2.86376897613787,-1.7554759604199195,3.572265443928791,1.7649559096636234,,
7.779348999999996,75.5228902075099,24.106347842126205,-46.62264289064719,-3.611910262388521,-1.964491662647944,3.4587882821764087,-1.482248552144935,3.536849475013602,1.311939299190068,,
7.788869000000005,56.72995655530628,29.3768824347014,-49.7302835668792,-1.45582426374604,-2.0042679545445217,3.1367593054230123,-1.46141567240833,3.2005711219095145,1.0763048146113836,,
7.79836499999999,38.47129866709327,31.934505942757315,-52.80310816359284,0.2548844745884082,-2.1647209576166944,1.958384096164694,-1.5708620020231958,2.769413743641658,1.2528423772846229,,
7.807879000000014,22.5943003918462,31.89387818031072,-53.50188216508843,1.3332554279512565,-2.0568339743990767,0.5658700049336917,-1.624444397275309,2.154210439954398,1.541283306329145,,
7.817217999999997,10.382102391384192,30.333754648995978,-50.909196778357526,2.420212851274073,-2.0859538568740024,0.0285763560460407,-1.5296305281031657,1.4643374780279068,1.781205442246238,,
7.826713000000012,0.909739258894624,28.852290930912933,-45.79250683668014,2.841291571040478,-1.176383616468483,-0.3596829044442119,-1.3184261863284177,1.036670949214818,1.959288458284058,,
7.836230999999998,-7.065720064827375,27.761626791906355,-39.882541941446696,2.3374538653630026,0.0780567453694007,-0.1925783394432628,-1.1804110512271573,0.7968743480501629,1.9390350517812944,,
7.845928000000015,-14.702225494234648,26.058431400548344,-34.40715682054003,2.0424008786224985,0.868842600895079,0.4715708556158489,-1.293608475322345,0.5523728567078416,1.7869671406458116,,
7.855439999999987,-22.45496937534384,24.128966195338474,-30.23191322467351,0.7445618480707028,1.2754958028015708,0.3161191941244576,-1.3950864191122772,0.4258795590140719,1.4932068170249837,,
7.8649409999999875,-29.26402777184568,21.89596716728894,-27.50857714981592,-0.3503406285179511,1.666523130343227,0.2740601712361779,-1.3149449863759894,0.2148920357287956,1.077660626396043,,
7.874283999999989,-35.03786127802635,18.94672492506009,-25.85266374940677,-0.8992834821728858,1.7185073029781035,-0.0207122716578356,-1.2332252589306802,-0.040679563247445,0.734639907722996,,
7.883792,-39.636487049169965,15.87460775716533,-25.15476674522961,-1.176164316413997,1.2971070949380452,-0.2777299558808557,-1.057787980577096,-0.1765562391415989,0.4151599373365997,,
7.893295999999992,-42.480719112913285,13.529520885554012,-25.39000430469894,-1.2219685375531046,1.1772394341749135,-0.3795934240719699,-0.6985587662130583,-0.1893347863882753,0.0974455349554586,,
7.902801000000011,-43.86177004891301,12.12890484979163,-26.17305887926637,-1.2502762908951677,1.1294092908277835,-0.436946527971741,-0.3647472275431777,-0.135238264345496,-0.0953758784532796,,
7.912327000000005,-44.511667632261485,11.799812021336251,-27.17978230569951,-0.8602906204409234,1.0053618888072038,-0.2477336462001989,-0.143326956241807,-0.0017240571008144,-0.1745925530514171,,
7.921850000000006,-45.27758528940837,12.99097740484758,-28.6333854997818,-0.9240498834882088,0.3530393081902184,-0.4328733444582036,-0.0207354378014701,0.2808756043352628,-0.2581062092035426,,
7.931367999999992,-46.24275532493584,15.587636412794092,-30.542216911760544,-1.040832692588469,0.1516715617993697,-0.5723535719166495,0.0938525345667985,0.5446040503325434,-0.3344051863235786,,
7.940867999999995,-48.04812864244591,18.905684664223863,-32.78862353219046,-0.8773979684288047,-0.0071837449422092,-0.9652514506154144,0.0548723421283205,0.746687439768996,-0.3424207676682791,,
7.950451000000015,-51.317102798205575,22.52844949722024,-35.679434651399816,-0.6632093584962817,-0.513778125673906,-1.6591543001233802,-0.0982406910117106,0.9440225286434633,-0.3468838321049304,,
7.959953000000013,-56.39231017338989,26.09526990859117,-38.6220077321017,-0.6758876641660714,-1.2966910937380347,-2.475363025323036,-0.3158501755037706,1.1257908055374757,-0.3465050826479297,,
7.969465000000014,-62.89727462372185,29.032446513444462,-42.332014423428745,-0.6111153323197667,-2.2669694677670527,-2.927855355575064,-0.505826972881667,1.192621271121247,-0.3098630594779684,,
7.978972999999996,-69.74670993815259,30.98476245245768,-46.51832968317445,-0.4646863555957384,-2.4696458175855,-3.291808588727014,-0.5829020688117104,1.1057618332901165,-0.3200809698349295,,
7.988479000000012,-76.53202140375538,31.4786549166918,-49.82433922428558,-1.1600484296868834,-2.735939520320011,-3.407969222929185,-0.7073953988046625,0.9264827797516884,-0.1152306575629279,,
7.99798899999999,-82.48258692161608,30.43537382101913,-50.26533355097517,-0.714248719481802,-2.347520304480014,-3.310729368794805,-0.8200673845804969,0.6440305634873419,0.3820090703397524,,
8.007486999999998,-88.2460433481447,28.50199936176933,-48.445905985730974,-0.1213525167707176,-1.7381465682392572,-2.7223076156037487,-0.948078307908356,0.5104789561448562,0.9317177120430378,,
8.01700600000001,-93.4479606499704,26.444894144837207,-44.69496671006693,-0.0916050202023309,-1.1192958840307847,-1.9605971950335432,-0.934606510765272,0.3882891879692428,1.2310358324785946,,
8.026535999999993,-97.99551947060748,24.73741623160081,-40.05276926466512,-0.2333769544245625,0.4969369693003377,-1.6643115869144598,-0.837424558574511,0.3011652732652565,1.3222954808324132,,
8.035952000000009,-102.99272440022716,23.57544530722236,-35.29972395509162,-1.0585440340530936,0.7951946684460429,-1.0526055503669332,-0.8651512778949116,0.3741300004825785,1.3605734953328097,,
8.045451000000014,-107.90617109579898,23.06987810880425,-31.310100356718245,-1.6914692816667742,0.7589715111052017,-0.3849616948273572,-0.810892789858173,0.4116313839860024,1.1878677090801395,,
8.054977000000008,-112.34896621002338,23.15918071570368,-28.62426974240041,-2.0375155225681603,0.8430150388463112,-0.4782581088174091,-0.6999663777195648,0.4242056910888771,0.8867332761911946,,
8.064442000000014,-116.9822306170593,23.435310800718,-27.44731843566172,-2.077742730051287,0.1861448704948743,-0.1767575210264425,-0.7261148701027322,0.4492650589222258,0.602429365637486,,
8.073951999999991,-120.89082063822237,23.46351172503621,-27.56706674161012,-1.838782096603326,-0.3658812165408334,0.0782211800032114,-0.6341507216933796,0.3365839782588372,0.2874384233905539,,
8.083453999999989,-123.1568664572969,22.927901785932413,-28.22292897556783,-1.6507722324691847,-0.725111401159923,-0.1493934933190164,-0.4187243418463386,0.1003360591127403,0.0473909468464828,,
8.09296599999999,-123.7845026387656,21.681146623940776,-28.349340692431788,-1.2346307598112354,-1.236896828717552,-0.1772734093431036,-0.2206686504113928,-0.164728695454506,0.0223768501141144,,
8.102476999999993,-122.227122173779,19.744606295386543,-27.250542969371544,-0.7422363782582438,-1.4556590184377616,-0.2974907611984102,0.0771714019294993,-0.4790031414344166,0.1096745621466918,,
8.111995000000007,-118.66261439929616,17.186552815131417,-24.864275774280404,-0.0075492256209196,-0.969595050574776,-0.9270222886777773,0.3832349880742501,-0.7573630507298332,0.2514924732962447,,
8.121518000000009,-114.25288006889696,14.103388593687288,-21.975664282667857,0.5440592637697794,-0.7495460193115455,-0.4700085016196277,0.5349834117056649,-0.9041772382766714,0.3398206280583224,,
8.13121000000001,-108.50124925551248,11.111445014632515,-19.33321593316424,0.6987813262408781,-0.2793517939389343,-0.2459126022412183,0.8405444008172989,-0.9565435764279998,0.2771367760656991,,
8.14053100000001,-101.5674197970762,9.016050802886651,-17.634975347850656,0.442314683447419,0.9063836195229208,-0.4897037514288093,1.1635771350380029,-0.8308023140067146,0.0969691251791623,,
8.150034000000005,-95.37324669301528,8.498701167741855,-17.463113274096028,-0.1856387599418547,1.808570169140505,-0.4629342759079358,1.1374611814721498,-0.4682475069363486,-0.1544432893997129,,
8.159729999999996,-91.83602350965766,9.963661765283094,-18.839806810073927,-0.8598403568519082,1.3890457961401717,-0.016347584528456,0.7556551005697341,0.0608687837874453,-0.3891479410309709,,
8.169058000000007,-91.28222948795414,13.36502526584963,-21.713264628460408,-1.0161371666004386,1.1686933316339996,-0.3669595533209703,0.3379358211834009,0.6012738337530489,-0.5975571183653471,,
8.178586999999993,-94.98060852301714,17.92242435641947,-26.30710760811921,-0.3878323068602258,0.9654703384288764,-1.420451713250209,-0.2803717142569509,1.1236636765460724,-0.7192598653491695,,
8.188147000000015,-103.57388630791696,22.4271753896662,-32.906578952130346,-0.113782558919147,-1.0178997652710342,-1.860209618044383,-0.9596915528704628,1.5809026286483008,-0.7249510227799041,,
