timestamp,roll,pitch,yaw,acc_x,acc_y,acc_z,gyro_x,gyro_y,gyro_z,markers,motor_input
228.50716000000003,-7.861694000047658,-20.957800087427383,-1.7606209991834194,-0.182725700224518,0.9551561280866443,-0.3914363760169602,-0.07128087143461113,0.228624591982566,0.5090481739657787,nm,0.0
228.51648300000002,-7.412419140109648,-20.2895420441976,0.45076830598805356,-0.47927164932480343,0.7554137581003854,-0.5171331448475094,0.09299301042579655,0.1206601465953901,0.47360475498013793,nm,0.0
228.52597599999999,-6.105398059316267,-20.021426510376568,1.4579104090935593,-0.5792264857259029,0.39071999387127593,-0.6684639760154073,0.25232851951565916,0.04579365831787406,0.290652253121822,nm,0.0
228.56407199999998,2.5915466561437035,-19.10685270010519,-2.3000599247409017,0.20499203233202648,-1.052794467237637,-0.9992808923592658,0.3289010547346326,0.05381584598297421,-0.043328718956318325,nm,0.0
228.57357499999998,3.864680171894778,-18.662584447464706,-1.9104218468682987,0.13091512021006665,-1.036015081582215,-0.9285886224003389,0.2518052853604963,0.0684285226287212,0.15721848521408643,nm,0.0
228.59267000000003,4.373141449693139,-18.31367664388665,1.5264981049096271,-0.19790139469832194,-1.0406530453403018,-1.4438765260936284,0.025514933113555866,2.8968873435067258e-05,0.40206518394651786,nm,0.0
228.62121199999999,5.279894288332331,-17.960558822383526,1.931655086353716,-0.5917919824049551,-0.8431409095140582,-1.5147392734702694,0.12000938776996628,0.026217131181285793,0.02303405037323763,nm,0.0
228.640274,7.581785038663509,-17.803689116179942,-5.268505579589609,-0.1522924203162155,-0.8935866716875731,-1.2231397787625888,0.244160965864986,-0.022721881269218997,-0.2271896754453355,nm,0.0
228.64969599999998,9.087468560125991,-18.031430568971828,-8.653503696885778,0.049651276905363376,-0.8918809846140178,-1.2344614235918692,0.2841612270550996,-0.09695715991112185,-0.1756629582243619,nm,0.0
228.659184,10.691320837654201,-18.67182680459948,-11.289223082244813,0.09341672130981488,-0.8272820580434382,-0.9845151836794754,0.28094528768153765,-0.1958444900078691,-0.03732167117266198,nm,0.0
228.66869899999998,12.23903956761911,-19.665895179212878,-13.309804449193209,0.0004262994923356509,-0.6859730077622473,-0.9603263578289235,0.24457873578398218,-0.2734602656638548,0.12423132555391925,nm,0.0
228.67827100000002,13.884742442366296,-20.9484054744723,-15.1010629788869,-0.20515961951275455,-0.40208180796079573,-0.8266732469119245,0.2352025724694986,-0.34197033948991495,0.24958098690376088,nm,0.0
228.687957,15.614010803741058,-22.390366261392874,-16.934319840330204,-0.4452387939257045,-0.11865025982006386,-0.5888696527226364,0.22700933739113532,-0.3835052096380273,0.26990326010800786,nm,0.0
228.697437,17.382161607002004,-23.726455536755676,-16.698839937913235,-0.5125372078448549,0.03196422578270805,-0.3025541423306152,0.24040739149512902,-0.36227874908783886,0.18093958947657685,nm,0.0
228.70694999999998,19.077423462979695,-24.634114850750912,-17.242646057067752,-0.47067253428685324,0.14202178745438382,0.17965744628895208,0.24923753002821653,-0.27603962319124137,0.025159876697619776,nm,0.0
228.71647,20.04347452683222,-24.991477396589627,-18.569185972854225,-0.30336658357896307,0.1568140012743186,0.8506988636237418,0.15101958076670763,-0.13393367551186702,-0.1895438509111154,nm,0.0
228.73546000000002,17.974632567204285,-24.644406290126724,-22.34120994009338,-0.06795679816392443,0.4842999795615697,3.135645305683026,-0.2769850134462751,0.15793051634508418,-0.54274653313565,nm,0.0
228.75448200000002,7.670407682179206,-23.944327728125355,-25.450156109160407,0.8211548257301958,1.5310770142246006,3.6803449222290205,-0.9682918757800381,0.5219686823009079,-0.7693529141327229,nm,0.0
228.76400299999997,1.0550213431409647,-23.479982258025917,-26.34187046543673,1.184333442414648,2.1850441045874653,3.0380186045134185,-1.048716778640012,0.5994103076225229,-0.7132538187439673,nm,0.0
228.77350099999998,-5.591557586167598,-23.131520080422668,-26.767311736012314,1.34439536402352,2.184028294313842,1.7894046089854134,-1.061224783411363,0.5947028381939868,-0.6126034399160017,nm,0.0
228.783018,-11.087739270471445,-22.924008084977245,-26.593940482285923,1.2657810722200291,1.7065321046739192,0.5485406145640214,-0.8858262721762278,0.47771604038832555,-0.39568580928011654,nm,0.0
228.81148,-16.894811958502565,-21.18809193758165,-23.261505013243404,0.3436361155579932,0.9563629837582595,-0.6471503038422952,-0.0075243117270096,0.17404655481486425,0.23570239539253354,nm,0.0
228.82098699999997,-15.682931435050989,-20.39732575997203,-22.000905991417845,0.04493504527204121,0.8294227188682226,-0.6140186214468971,0.2716761688138474,0.044720224823990906,0.3393653752398752,nm,0.0
228.840184,-10.226695658288651,-19.50809170690149,-20.678521616034438,-0.19770411776270516,0.08612057125437562,-0.6472179252655014,0.5711982081726725,-0.15674414460165945,0.2898876436199769,nm,0.0
228.859209,-2.542022193452377,-19.123216143183043,-20.894989588255385,-0.3391062258530864,-0.40509112642881095,-0.3884520618263959,0.6786332776312903,-0.24134187588544873,0.2027415299208218,nm,0.0
228.868547,0.7587802081082534,-18.972052977715173,-21.017401695049163,-0.40782556101314965,-1.0099156386188342,-0.9343712088812396,0.5972682082957177,-0.2088212840786369,0.1885214673146219,nm,0.0
228.896896,9.100041688880518,-18.931899136011584,-19.05383059456057,-0.8682680454701419,-1.2558269191229092,-1.4873024052476556,0.3834737150324307,-0.18021580097391762,0.33299609373378547,nm,0.0
228.906423,11.101873785297485,-19.07624507452098,-17.99275576303755,-1.0354036149802994,-1.167937269311116,-1.4309833372054617,0.35488649756761326,-0.16042841338840638,0.3384221496767074,nm,0.0
228.92545800000002,14.097341176852595,-18.892000209026953,-20.402797403513624,-0.9760109811760517,-1.1249821105968372,-1.5710716837242578,0.25490347564074695,-0.07309104037802634,0.18575677833924809,nm,0.0
228.934966,15.44125481981127,-18.772023091352025,-22.458338985404094,-0.7898044945401234,-1.086271320954628,-1.3397900882901241,0.2486073031084518,-0.08778757370013783,0.09892670901851602,nm,0.0
228.94449,16.55519302097428,-18.767142807008323,-24.95111909210838,-0.5789075280977326,-1.0581595743083,-1.1657833728228972,0.1957411836988088,-0.1003781712948535,0.020222415028262296,nm,0.0
228.95408899999998,17.452440151758594,-19.032560739064326,-27.643973405591847,-0.39411017031903073,-1.0047928588303383,-1.1689491078432348,0.1294990157966681,-0.13820257416504475,-0.017543619321674055,nm,0.0
228.963497,18.325224972746966,-19.798206133114554,-30.07978494473819,-0.2634194492978376,-0.8016474056540175,-0.9701607066974615,0.06919525811822787,-0.2278246008428439,-0.009146559158033018,nm,0.0
228.97310000000002,18.926566328873808,-20.9911226929162,-32.54221883703731,-0.2768534608950394,-0.581415449688104,-0.6389407990509072,-0.03059562286479018,-0.27496029249584225,0.01013976532372512,nm,0.0
228.99223600000002,18.861684018111337,-23.840946911836397,-32.2732165694146,-0.442541867180377,0.08448970071836992,0.21850262195975237,-0.19390661205958346,-0.2306194133516198,0.009614380086231254,nm,0.0
229.00176000000002,17.6157146628577,-25.1598627771252,-32.27849514889193,-0.3997918541467408,0.3338017843211289,0.7193871300311431,-0.33033667952586165,-0.1151939225289861,-0.10922842038808099,nm,0.0
229.049315,-1.4201049194936053,-25.401741299619875,-40.41167791693686,1.9060751755872911,2.1640993857968094,2.8012019743612067,-0.6825461217736115,0.6653967620287661,-1.0264185171114448,nm,0.0
229.05882,-6.719633901641941,-25.29898422227786,-43.03246184441968,2.0446047442115245,1.3212770490387646,1.6167248228003528,-0.7053391027550165,0.6399217114975788,-0.9792660491625738,nm,0.0
229.06833400000002,-10.672983240178539,-25.36055049560237,-44.4555208069666,1.9825593554532672,1.0252871458752688,1.160890558715332,-0.5292884929952132,0.47222653049142316,-0.6231953256560988,nm,0.0
229.07776600000003,-13.604943513961695,-25.120878829581088,-44.22015171487455,1.7858122438507142,0.8910817347538617,0.677534732417639,-0.35029045900690686,0.39187072439718706,-0.20232669303964088,nm,0.0
229.08727100000002,-15.710215542902208,-24.38705710007129,-42.37871721169693,1.2988558930969953,0.629163295774323,0.12767839859709545,-0.18157865254604338,0.3558191315969945,0.19342616250731473,nm,0.0
229.09697300000002,-16.326022248391308,-23.241181968883062,-39.48492537533083,0.7971502928391434,0.8861722244125847,-0.12047742169495886,0.06205242857153052,0.23343684939198275,0.5309048578874187,nm,0.0
229.10629100000003,-15.57038771902131,-22.09270155407001,-36.47685961622865,0.23966628160248818,1.1457228841302878,-0.32951598937927407,0.24937797724670413,0.08132919034879155,0.6616048495161766,nm,0.0
229.125328,-10.692803523177579,-21.294329449220804,-33.39199056916101,-0.5517520126320324,0.6629510026138461,-0.6512067767531889,0.48611116417456623,-0.30995785647224355,0.39462683835913664,nm,0.0
229.13501900000003,-6.555866905308619,-21.316047754642824,-33.99753263295874,-0.5995621389320149,0.5667436970138733,-0.2324394357251213,0.6388828518862276,-0.44592020938129767,0.1788312508137229,nm,0.0
229.17268299999998,5.815023423131906,-19.6518488483709,-37.466680915199994,-0.6994579696381508,-1.3051936969086086,-1.0513909533483958,0.33415807459992924,-0.16227035717776678,0.23314930599620373,nm,0.0
229.182197,6.804754046913191,-19.56574334536675,-35.742844814646816,-0.8058239781565767,-1.2552005850067531,-1.3555376983801808,0.16030252599724032,-0.11119853541981616,0.4079544121957668,nm,0.0
229.19173199999997,7.379925383280914,-19.76031893247028,-33.39073576010438,-1.0595349625356676,-0.8428357309855179,-1.3588307658543135,0.06799658761826291,-0.10729753669280437,0.5059322591646387,nm,0.0
229.20125,7.582768940549738,-20.038320230788567,-31.21098626905972,-1.2052853763854139,-0.605682067250494,-1.456922193649171,0.0038763056786842564,-0.0810930944136007,0.4464954442151372,nm,0.0
229.21075,7.819181022845369,-20.12993524149482,-29.861160312506595,-1.2741841096932907,-0.4785771528861147,-1.6558295790820454,0.030658985889444917,-0.05196804432449778,0.2827128126972038,nm,0.0
229.22027,8.517298896698858,-20.012659804037625,-29.66960771277267,-1.1492134938941043,-0.42304802194824037,-1.5285515944384076,0.12742925509870023,-0.05831767716760614,0.08235374274232586,nm,0.0
229.22980800000002,9.574811990546799,-19.796255477524454,-32.22110602671271,-0.8791072261599594,-0.5110793691713359,-1.4042513525564915,0.19334336383072073,-0.08160021077722271,-0.1008680933434549,nm,0.0
229.239313,10.86046189791826,-19.676464481148223,-35.049807908883984,-0.5492085735319285,-0.7460329191733327,-1.273559846106727,0.21430395086606938,-0.13049122392569973,-0.18738027008390432,nm,0.0
229.24883100000002,12.320656795795289,-19.871191581419268,-37.98029843865363,-0.313757591957489,-0.8557765354556165,-1.1764662720316594,0.19519214377805424,-0.21149177576610176,-0.1406160287094228,nm,0.0
229.25834,13.821453458839216,-20.588908218896282,-40.43051541263567,-0.15207715044277412,-0.8838866602702031,-1.0300540948231403,0.12272301753504178,-0.30507736474452124,-0.00588580238125708,nm,0.0
229.277501,16.56586773606147,-23.340737261744284,-41.37732245371746,-0.19004188522443485,-0.2382467354498038,-0.4095493898161338,-0.03256955955054899,-0.3985505899618505,0.2575419014893302,nm,0.0
229.287113,17.41152233904533,-24.973235561001538,-40.53502207737769,-0.2938127545614174,0.13213318062529944,0.030673723349742384,-0.09687544247681593,-0.36155732050137296,0.23325036024680598,nm,0.0
229.296575,17.648424049878642,-26.361380077381977,-40.25696390046194,-0.3261739535400594,0.4211152837710217,0.6414560018027391,-0.1466947568301549,-0.25285511559303897,0.07171074024936369,nm,0.0
229.306091,17.116116014913253,-27.172728636784033,-40.91111271989995,-0.13969614647393563,0.5568482831131509,1.165640079909092,-0.1772927791899087,-0.07499250084850444,-0.1832930326640363,nm,0.0
229.315595,15.641447946001838,-27.285752037861023,-42.60141641641225,-0.1381623802919585,1.118237620250445,2.8110003097770697,-0.21091105801561452,0.14439020507987804,-0.47762761398754505,nm,0.0
229.325102,12.187453473052916,-26.763631557838924,-45.21224312523811,0.3319421329121472,1.4402163957090905,3.726740951194535,-0.37261752534251663,0.48900629222779535,-0.8405303609505321,nm,0.0
229.33453699999998,7.186851330805576,-25.836645694185137,-48.31052197467408,1.1876870279543663,1.4163516535136162,3.451830502002671,-0.48258177628632276,0.7676751383334294,-1.066641499361843,nm,0.0
229.344049,1.5632336553067534,-25.025283454487404,-51.25885859107927,1.7854042355397344,1.6100969281545772,3.2471482750984415,-0.5368961013455004,0.8682591891116436,-1.075565516787329,nm,0.0
229.36309500000002,-9.931710305551624,-24.577525956031135,-53.966301589352305,2.0645856732433026,0.6169687607261143,1.0976700406240716,-0.5794822280767027,0.8055638747301932,-0.581288702297486,nm,0.0
229.38226699999998,-16.748296947367187,-23.197755970652228,-50.70177223082362,1.5339310434958815,0.8474962919520396,0.05463878510489737,-0.17098834186944045,0.5023275941040044,0.22795139403892328,nm,0.0
229.391608,-18.16145879211142,-21.992937923387323,-47.96507525443771,0.92651486771837,0.9171850791521082,-0.39797024777437556,0.007558987171862159,0.34222794242036086,0.44071856558230166,nm,0.0
229.401105,-17.755118310141548,-20.95345545891732,-45.516422292119536,0.4044196598009975,1.1582809508732432,-0.5851442745793154,0.19893117996070406,0.07409029841592034,0.5213842468841414,nm,0.0
229.41061900000003,-15.867211534541656,-20.393152960627507,-44.03589054538143,0.04300948836573045,1.1909831902978048,-0.4802706280861399,0.3260408603662707,-0.18309721163475934,0.43073799290394604,nm,0.0
229.42015,-12.9924972739418,-20.20601127492965,-43.872182266722426,-0.2999324910981721,0.754250983454865,-0.5825702420047275,0.410857683668387,-0.3614438976700638,0.23270306333687696,nm,0.0
229.42982600000002,-9.111204710447456,-20.087730808950607,-44.786600894175116,-0.41034509030631927,0.3511512149312496,-0.46155240301471495,0.534770219033046,-0.5066160003663587,0.0840669593396278,nm,0.0
229.448675,-2.1978038782963387,-19.22198283810741,-47.18683523767101,-0.687864055447963,-0.8705486966925957,-0.6268181029827635,0.46410621389169027,-0.34405915550830835,-0.008983111799202699,nm,0.0
229.45817100000002,0.3770638470493156,-18.57060008798041,-47.182596372654174,-0.7161342132269778,-1.1631133122794437,-0.8136750697502633,0.42383050524980315,-0.28274258624800486,0.16517390918450378,nm,0.0
229.46769099999997,2.2139081481387737,-18.085026040819862,-45.997024322470374,-0.7641957780853371,-1.079264712296414,-0.8360241752466518,0.30768567912475014,-0.2004046414017355,0.3499609395641895,nm,0.0
229.486749,4.075932719815079,-18.255053504088835,-41.67355154433498,-0.9769699479688292,-0.9148821554103501,-1.300276743777369,0.08738269218995463,-0.16537153187881506,0.5133684338436009,nm,0.0
229.49606200000002,4.753616826771214,-18.72523149531541,-39.71931663650623,-1.1062848789292843,-0.6828538909711531,-1.356508176985069,0.03509461266894597,-0.16904773330431908,0.43087071993118525,nm,0.0
