timestamp,roll,pitch,yaw,acc_x,acc_y,acc_z,gyro_x,gyro_y,gyro_z,markers,motor_input
200.01395,-23.110495437323397,-16.6463675021036,-90.56031588646468,2.348171858752487,1.8576677806471333,-0.06394031845544271,-0.21517325048143146,0.08881925725985901,-0.016485701459601636,nm,0.0
200.023454,-23.396810548841135,-17.661489602602597,-91.0059184205846,2.6188695388223855,2.078048662758018,0.15108580990297293,-0.21529593503363942,0.05175582623996987,-0.1040463089186898,nm,0.0
200.03298099999998,-23.842716521725915,-18.228107805796615,-91.71139531974671,2.3968498400640015,2.040019166887306,0.016475589728353418,-0.12426939458874468,0.08202622407982806,-0.16651559346084227,nm,0.0
200.04248099999998,-24.19874466317823,-18.21136433191881,-92.36000715089378,2.0062128599911744,1.915638124021343,-0.5168634373889627,-0.007153381552443493,0.06213812107177009,-0.1498236556663545,nm,0.0
200.05198900000002,-24.64691081708786,-18.009971738952434,-92.61111754018488,1.772802280606209,1.63834152417154,-0.43457082392027657,0.03105518835585977,0.07812422302929449,-0.07576801699454946,nm,0.0
200.06150899999997,-24.98312889377705,-17.708464703201006,-92.55382321254422,1.1216678866612566,1.0707610565063792,-0.7078362920714381,0.05027352619087651,0.05594600186472005,-0.00672829583936018,nm,0.0
200.071027,-24.803694339327368,-17.507069237259753,-92.3835886839905,0.885766857873937,0.6751281301644422,-0.6396499836090773,0.02589944937167283,-0.041362830993805735,0.04733946796575809,nm,0.0
200.080701,-24.40262006242932,-17.801564618766513,-92.23153861772948,0.5958904088320075,0.34069132400259117,-0.5723986393553715,-0.07491259352679455,-0.07955303027309589,0.057119163297200716,nm,0.0
200.09023399999998,-23.831868295381913,-18.597985842497653,-92.21168096448592,0.23708304835779803,0.0702804121348436,-0.5056658568334018,-0.1764777238480734,-0.10777927821544457,0.041943213599760575,nm,0.0
200.099727,-22.910316358854505,-19.471295917040358,-92.3869459976149,0.07044451098961028,0.04684244067965026,-0.43711585716661155,-0.19465928706417965,-0.1727520258574186,0.02726446528055556,nm,0.0
200.118754,-21.47816092240533,-20.626251199724404,-92.74710925365217,-0.15326800406683244,0.2510984764877367,-0.3831096141649819,-0.10861519968253604,-0.07965755999604626,0.007379358442428687,nm,0.0
200.13779000000002,-20.866344756107562,-20.02421935651449,-92.32820232539135,-0.20053088474490227,0.12161796901732191,-0.23231123137113982,0.10643139476421486,-0.07719629202851418,0.08698138381105996,nm,0.0
200.14728499999998,-20.811060919513864,-18.93585218210706,-92.00908155703941,-0.3832404766172363,-0.15466040084546342,-0.3206306833335625,0.20450076257514208,-0.024397523726336738,0.06930051654691487,nm,0.0
200.17581800000002,-18.80147863493616,-15.730154085444797,-92.2193360248841,-0.6585181560521349,-1.0633755361242132,-0.07793892472719428,0.16158606951538262,-0.21129348242092247,-0.02072322626189705,nm,0.0
200.18531499999997,-17.129507340758863,-15.026461744607575,-92.92142103832512,-0.9196238679443987,-1.214125355191317,-0.09484305513257008,0.11334664688577498,-0.33463559800998754,-0.05127304307108729,nm,0.0
200.22336299999998,-6.068741987895829,-13.40785901388823,-96.56102994697693,-1.3497723492847649,-0.7014701378397717,0.5855499040224161,0.014600149812767563,-0.6466982305694962,-0.01985177390994459,nm,0.0
200.232883,-3.1863046006581563,-12.793287126919225,-97.23954331407037,-1.5562977781606278,-0.7334386269085307,0.5626501021956296,0.0418371734463517,-0.5784773734444527,-0.007685894163749146,nm,0.0
200.242377,-0.7558847912702288,-12.10571291814409,-97.69565893621436,-1.7018807797739186,-0.8874793410816315,0.5524561657360145,0.062093788514047836,-0.49468995424871526,0.01033757569928771,nm,0.0
200.251898,1.092083854318469,-11.429094505993001,-97.94811596681724,-1.6711631189609237,-1.127132461828727,0.5962063873690858,0.07240494987315599,-0.38293166621237407,0.021195695646245388,nm,0.0
200.280425,1.8092670402598643,-11.335756756703795,-98.21156068222355,-1.4549009895832419,-1.3118654304518895,0.3745357499914153,-0.0640410523961114,0.08538531587550063,-0.04092622308332271,nm,0.0
200.28993999999997,1.259537908611189,-11.816436196997008,-98.309886977986,-1.2274959830942997,-1.0875284171176591,0.47200171972297983,-0.09229664951450674,0.11500954551583818,-0.04549873563837616,nm,0.0
200.30897000000002,-1.1183601806820358,-12.89469613567691,-98.15125799206197,-0.8875704340258604,-0.732109615611821,0.21023776771922817,-0.06981574657522006,0.2804584603542619,-0.03354731193992701,nm,0.0
200.33750799999999,-5.068047965943443,-12.68812096185009,-97.00725962190123,-0.31115406399401385,-0.43975841990568576,-0.09135116433049327,0.06810303525356255,0.2486189624378,0.019253181431801592,nm,0.0
200.34702000000001,-6.116979133570561,-12.428404475597112,-96.65340375873609,-0.11199649361268413,-0.41624941371214585,-0.012311042067012213,0.06312297047321679,0.19182707997261045,0.023030396534504144,nm,0.0
200.366033,-8.180856387611867,-11.809275132189498,-96.23242801418957,0.09877645714274239,-0.28605619021512796,-0.189118067932226,0.07189307715671558,0.1978096737510913,-0.013647408705056322,nm,0.0
200.375534,-9.233763240310115,-11.625692812933357,-96.08953290412079,0.21643448273082375,-0.07418709657716636,-0.24695787701808775,0.045704258021388854,0.19581446526091134,-0.01579888121072032,nm,0.0
200.394558,-11.837053803339632,-11.653897252825661,-95.69002804219562,1.1680235886768269,0.7771300583401949,0.4889338614531364,0.007058588860744203,0.3006317158587698,-0.020970259706370814,nm,0.0
200.413581,-16.423073394526625,-11.93357666471321,-95.18475824531794,2.150720329607924,1.8225896086210784,0.6337146546091408,-0.005004130866854482,0.4774222931813065,-0.048130395408776755,nm,0.0
200.43241200000003,-22.5088379611283,-12.179694786824166,-94.97706747094855,2.806692772628622,2.217037398569824,0.22540257897561106,0.027111790732130093,0.6193714087618737,-0.1298813769103996,nm,0.0
200.441919,-25.46310058263247,-12.266305536549487,-95.11748168759468,2.8304703991744162,2.1119545009525615,-0.13725739150353605,0.020428258482776223,0.5725036526594399,-0.1513850376532678,nm,0.0
200.451444,-27.924959913342448,-12.568219220055283,-95.40763537416376,2.5824698468053935,1.812179768816133,-0.5894461089847038,-0.029172517188801938,0.480204367295458,-0.161561329769413,nm,0.0
200.460946,-29.690124515237855,-13.214072265457798,-95.87857315949158,2.1057380683032823,1.4041372835513073,-0.9432306110275889,-0.10793275052692489,0.35107244642447205,-0.1701739898454813,nm,0.0
200.47045999999997,-30.518123774111928,-14.247208231681295,-96.53293474854364,1.5871113392666985,1.0055063240934297,-1.0868691826538721,-0.20138992894559668,0.17820123812311295,-0.16712384449504838,nm,0.0
200.47995999999998,-30.407381186824157,-15.673004011855454,-97.27590637697855,1.1083893683377966,0.6441630473648817,-0.9980714526573556,-0.2991982928922743,0.009015604293962648,-0.1396738298367038,nm,0.0
200.489475,-29.438956559847192,-17.29945081030801,-97.99149446460049,0.7039263263182096,0.3784355059152748,-0.761896839715763,-0.36075285085895065,-0.14487775398889283,-0.08492894388422745,nm,0.0
200.518201,-23.35638754662569,-20.179862615165057,-98.99226067167473,0.0018812001842536679,0.363649426725319,-0.46201653550386296,-0.16952821595075018,-0.4140174377056733,0.15039920344507535,nm,0.0
200.52771499999997,-21.052992652717215,-20.249280390180637,-98.74557987963306,0.2567345269008216,0.45703732631386496,-0.21267960479160747,-0.0939333139052917,-0.4296310531925681,0.21064157388175503,nm,0.0
200.56578,-14.562262207141016,-18.973693790402262,-99.13816483228737,-0.5868871080829151,-0.49788793415667554,-0.17495244870542326,0.019493445126698542,-0.2650127591943448,-0.01893062174344614,nm,0.0
200.575251,-13.214700185192665,-18.71854853333881,-99.80198320122135,-0.7913902127230368,-0.7637444001959857,-0.11531526543202145,-0.005096239593774545,-0.2647792724798717,-0.04564121954013616,nm,0.0
200.584761,-11.790970834217248,-18.53216562461519,-100.4098246582677,-0.8200446492243785,-0.8816485692964496,0.07359194546830881,-0.024146146249304803,-0.2769632998304554,-0.030863075936284595,nm,0.0
200.594276,-10.456806008091775,-18.325736076702995,-100.83320892074994,-1.0157132074940767,-0.9172715895761666,-0.006647235984975394,-0.019567108453492115,-0.2611789578224636,-0.0008314657883891886,nm,0.0
200.60378899999998,-8.931608138094047,-18.018822480592256,-101.00451391071621,-1.0361867204053503,-0.821416178517911,0.03841909977350365,-0.00805915642859848,-0.30108603968173625,0.06008225233989458,nm,0.0
200.613303,-7.25236402853317,-17.527417508337003,-100.97797418251814,-0.9939769930363626,-0.677927262019339,0.1854424876628098,0.022176555984423096,-0.3377420566150978,0.10668163023886634,nm,0.0
200.622806,-5.520380371004378,-16.760756699007473,-100.86979294096454,-1.046642620347392,-0.6170537741758025,0.18392930142124428,0.07465885694663286,-0.3592759743965962,0.12217120892970841,nm,0.0
200.641827,-1.8276765667532584,-14.473054532261907,-100.75100192636033,-1.1054918850714306,-0.7120461442193756,0.23060642082434074,0.1629745735656178,-0.40153349673177585,0.09862085518087502,nm,0.0
200.651333,-0.17276453578480483,-13.188596768176332,-100.773725051696,-1.2013248456361971,-0.8728900344739724,0.2567192289382518,0.17969047875676175,-0.36915530704588856,0.07142420790810985,nm,0.0
200.67036299999998,2.3203874418267376,-10.854328282950862,-100.60653070339416,-1.2938625053425101,-1.1595117710468033,0.2205284621478406,0.16139095618193275,-0.2551360713788131,0.0696075667471519,nm,0.0
200.67986599999998,2.961114264852327,-10.077434137181434,-100.24722269898935,-1.2187745377219297,-1.1675782442353948,0.19062777070223447,0.11761641162210174,-0.15733478977816276,0.09096828439692382,nm,0.0
200.708408,2.7431981946356556,-9.447927107887036,-98.42428417841163,-0.7881028115686529,-0.5876337651030891,0.08225938198677396,-0.002220271908685243,0.05705552930496367,0.11238669478145204,nm,0.0
200.717924,2.181730881980123,-9.419756390535854,-97.8966567009008,-0.6606030713594825,-0.4106271723699501,-0.02276664393429393,0.008933871412914391,0.10346901415018538,0.08300274020526906,nm,0.0
200.75594500000003,-0.12111818611079408,-8.189459720531254,-97.16827808586326,-0.16304297724007208,-0.1691431035006276,0.13669807429936315,0.09336398384034063,0.09411623251041501,-0.006269743953612492,nm,0.0
200.76546,-0.7157264670247765,-7.5997466553704545,-97.03852187186247,-0.05577417232372735,-0.12020592120146432,0.26843823634934977,0.11922981162681899,0.09697513845951507,0.005778636690527246,nm,0.0
200.774981,-1.4070067525628478,-6.929541393665875,-96.8486884632589,0.009550731645684735,0.02878468567578328,0.2445208042092643,0.13725526495723678,0.11465477186888967,0.016718738782242143,nm,0.0
200.793985,-2.2378022019630652,-5.320323144561655,-96.61735541186378,0.6183438819393741,0.4589296365102473,0.5499369526210193,0.17126722132354083,0.03684122093053568,-0.0014450338711192502,nm,0.0
200.803511,-2.8586267083886456,-4.26310382690963,-96.894795373261,0.7956697403033298,0.6914647356144138,0.4210360327739433,0.21215065902680832,0.09291910595875873,-0.06972770984066988,nm,0.0
200.81301900000003,-3.555143276470036,-3.151944188704133,-97.543863704496,0.9312882857148501,0.8258149331787529,0.3153598936806305,0.22547826133162432,0.10515345143329122,-0.1427466664659754,nm,0.0
200.82253899999998,-4.1887967916741,-2.004874563442264,-98.52850757527216,1.1275714296369928,0.8244494705953207,0.2928775626802585,0.23229425216185462,0.08874565284089948,-0.20661838045377282,nm,0.0
200.83204600000002,-4.877271659552335,-0.8446599027725685,-99.73791064387444,1.0699083031047796,0.7170358803139745,0.019425165180130287,0.23826589194301565,0.09490047144588759,-0.24932211400627224,nm,0.0
200.86055000000002,-5.614410062460167,1.4578431069360664,-102.58253947127224,0.9266016425911323,0.17767320796662514,0.14629057531299627,0.08529552824530945,0.008751256278931214,-0.1388148017955471,nm,0.0
200.87958,-4.948442207799035,1.185692132971045,-103.40087672758312,0.8570494916124133,0.47737017353597166,0.32462502905588236,-0.09522147097245953,-0.08733065338459778,-0.0830228081784908,nm,0.0
200.88891400000003,-4.235032613162523,0.7088859597165993,-103.91833137714006,0.7472353730776553,0.6807135934165044,0.2764195199282625,-0.13971889893270192,-0.11950185427911009,-0.11004036079380591,nm,0.0
200.898422,-3.389432316987195,0.1672463376009752,-104.63079418007473,0.6726289647442101,0.7388440291436402,0.24098646431716075,-0.16006187427923166,-0.14049193293981554,-0.1481303642646914,nm,0.0
200.90793699999998,-2.7339192632736053,-0.3583064895769686,-105.4739172738945,0.5218653114537709,0.6589980425424015,0.11105437166121429,-0.14892729755172027,-0.1024239926782342,-0.17285552009410696,nm,0.0
200.91746500000002,-2.366356695984351,-0.8207984100548644,-106.27159654993899,0.29621457577356947,0.4787868055598502,-0.1388929221460036,-0.12244333049040934,-0.04831451810654803,-0.16324448418255055,nm,0.0
200.93664099999998,-2.1629690613725185,-1.6655434006985055,-106.99544401405763,0.08393009753551665,0.052211436979717085,-0.24418622164255147,-0.09594445443362394,0.021977086767195893,-0.039968901397281556,nm,0.0
200.946159,-2.2549744686566204,-2.196547042906978,-106.82993344855508,0.02340011264318648,-0.07230280362495238,-0.38057117244990607,-0.10965779040970494,0.04572835500765311,0.028348062663031096,nm,0.0
200.955679,-2.2342143579897766,-2.856245089580259,-106.48430734472873,0.06166209217367294,-0.10118289974635024,-0.41513329667910626,-0.1410264605786456,0.03093885831362745,0.06528154388291174,nm,0.0
200.9652,-2.0444319685685417,-3.6559295452333656,-106.2165009889937,0.08723867791627765,-0.056404648587611884,-0.4663537182676225,-0.17760434504564102,0.005600181744909165,0.05172977709958575,nm,0.0
200.984211,-0.8107301186869466,-5.652278595537495,-106.71529791247468,0.06911529113432004,0.1601326680146348,-0.4016921381348618,-0.258050001547843,-0.09286331992856743,-0.08207616391837631,nm,0.0
200.99372000000002,0.24943493553354362,-6.645769284250645,-107.54927742151415,-0.020693967525897833,0.23175541976813718,-0.33365092179047234,-0.2655203007334136,-0.14616803125023592,-0.14838288366324054,nm,0.0
