timestamp,roll,pitch,yaw,acc_x,acc_y,acc_z,gyro_x,gyro_y,gyro_z,markers,motor_input
235.00274199999998,-25.272586479656386,48.146726296510565,-69.07368021601395,-0.36987643894223476,-0.3136873889943017,0.14412080299147367,-0.20968988010591955,0.15040084407622004,-0.1317549303905973,nm,0.0
235.012281,-26.36519832989105,47.94675887155373,-69.91581752239598,-0.3909204134395761,-0.46673500006867724,-0.07451496800624627,-0.09894149613762823,0.11401425510858036,-0.010078149765006374,nm,0.0
235.02181499999998,-26.76547760690596,48.17657552377781,-68.11073323318602,-0.29630034825561646,-0.4702991967017032,-0.19476591467514984,0.013006671738800175,0.057516902689140934,0.11659394522939696,nm,0.0
235.03133999999997,-26.624883495518507,48.59093825204597,-65.59127379732006,-0.2579397804079628,-0.35210972056937,-0.23489974185464996,0.07393817130297735,0.0067469321383239085,0.21480010499750885,nm,0.0
235.05986900000002,-26.991447142635195,48.991908105958785,-59.16339293205614,-0.1333250572314259,0.13568937311802867,0.07816473887983415,-0.0779864040262655,0.05731339455460562,0.10553672817465705,nm,0.0
235.07888799999998,-30.006427244261424,47.99633067813199,-58.46496503942763,-0.12962714429616604,0.0677088025683021,0.05116662553910094,-0.22433725202640026,0.11887605634646506,-0.044504644532850766,nm,0.0
235.08836,-31.627039904860467,47.56615115020057,-59.922827030347705,-0.14024518516262566,-0.03819379688271903,-0.034040655834120595,-0.19358539042214848,0.13187680703344515,-0.054929585428644484,nm,0.0
235.097903,-32.81148217000069,47.44415278452566,-59.542651684313256,-0.08568596715771859,-0.11678370862538547,-0.12777662977348217,-0.11101884303560788,0.11338958066374742,-0.016608209849348524,nm,0.0
235.11709399999998,-33.37973825737158,48.18598327139359,-57.053376002532815,-0.0410982159433808,-0.031100196061702754,-0.20192367519616966,0.08113066815700842,0.04122440762148969,0.08968053076207955,nm,0.0
235.13619500000001,-32.52410854858638,49.59115720302806,-53.623866114969566,-0.10654150470302971,0.22554145945909365,-0.002703084206593447,0.10859060655270328,0.004406620927828239,0.06493114726110437,nm,0.0
235.145629,-32.36871550255397,49.867773194865535,-52.52383059835166,-0.10810399805942483,0.26858799374524034,0.1162514183922996,0.04979961886369896,0.005512841552184517,-0.0034120519693396777,nm,0.0
235.15514299999998,-32.67293212280121,49.93567616006303,-52.10882608399683,-0.16174551875107676,0.2220132904694299,0.15932373151446547,-0.019844476415258817,0.02698661189672928,-0.07568662694377083,nm,0.0
235.16464299999998,-33.32162956608972,49.87723287791884,-52.19470454321338,-0.15398305244217048,0.1295434766995904,0.13371214893726036,-0.06728663992895663,0.046002608547994504,-0.12567641037930752,nm,0.0
235.17417300000002,-34.12068975392873,49.846621886240484,-52.364232245763255,-0.07615919561321835,-0.041688010857058394,0.10611520501019452,-0.07478808529635118,0.06480177381972942,-0.12819135954669084,nm,0.0
235.18375,-35.109908963488344,49.97206814296526,-52.57963161428087,-0.10150972368942239,-0.1215049560841123,0.0292429061343358,-0.03630451429051295,0.0829861775482345,-0.08954653299408202,nm,0.0
235.193256,-35.74183827418923,50.31624154597558,-52.26997133922886,-0.04485374346822347,-0.1406706037694928,-0.02446747468667832,0.030219425859108896,0.0836180259983088,-0.03104671994773487,nm,0.0
235.20276299999998,-35.93844905753005,50.93973993876796,-51.44055792011454,-0.017931376062117362,-0.06662132017174739,-0.0880247024335688,0.09257615439002262,0.08040116804007903,0.029953030868643867,nm,0.0
235.221781,-35.593293564705654,52.809423710234434,-49.197384885716616,-0.10682318024938077,0.18857111946304697,-0.07470967153074376,0.12899141464526556,0.07446288580935556,0.04610776251647569,nm,0.0
235.23129300000002,-35.431659761800624,53.670063002935386,-48.345636317550984,-0.12387054358011108,0.25386474798927594,0.004646513579117342,0.08181766252080894,0.06044768682259534,0.000491684933688631,nm,0.0
235.240802,-35.59993692146438,54.25289795551031,-48.092415763652205,-0.11662985564581896,0.2317419146541576,0.056457942991013185,0.02023965172860048,0.05632497990669621,-0.06689937346110064,nm,0.0
235.259828,-37.31483669205703,54.77004623747519,-49.339276038665346,-0.07474654512544913,0.0569511508750774,0.0855777795320631,-0.04564569077078048,0.10153610471807553,-0.1501002222039174,nm,0.0
235.278854,-39.434968947576486,55.699441450726844,-50.71842875258529,0.003657132339765839,-0.11293205496646246,0.061210811267084005,0.034105216375321525,0.14450161802724829,-0.10463221132083687,nm,0.0
235.288356,-40.39928894153874,56.60943562369869,-51.14577144727891,-0.037553779584798816,-0.11862644958467249,-0.03132037783876774,0.09464746672417548,0.17727603633407737,-0.046114479509338384,nm,0.0
235.297814,-40.93142706791312,57.81661349123121,-51.00967436157813,-0.07237015555498133,-0.0721550463633054,-0.10671053776515425,0.1458311565546834,0.18471384512420733,0.0009223054835937269,nm,0.0
235.30731899999998,-41.1261165375427,59.03522371081596,-50.42414683660266,-0.10154914462404727,0.029420872027476924,-0.17985299402342517,0.17018404434371165,0.15839493489737075,0.03111116664073802,nm,0.0
235.31681899999998,-40.95390444163118,60.070600477140935,-49.43094885991874,-0.2318695737178919,0.0795922407940896,-0.2962808304070604,0.16453731015699188,0.10811671273518356,0.053372501111494386,nm,0.0
235.326311,-40.35648110687029,60.86451801044515,-48.0456045764817,-0.23584369365809255,0.14458321318599895,-0.33815037266764264,0.1534484981655772,0.04849829282916798,0.05187358476331905,nm,0.0
235.335815,-39.37742229073874,61.44808575980776,-46.27042296955042,-0.2741900192727247,0.14664132604896687,-0.36537287324626083,0.14547642512362613,-0.001905019877835609,0.05091712489215846,nm,0.0
235.364363,-33.103919200611436,62.83774506448933,-38.44387730901365,-0.26214200324809106,0.09699628549823912,-0.17740965643902898,0.2441249836162639,-0.09960487997592521,-0.03708484128141491,nm,0.0
235.383386,-27.004296310668533,63.65990289386258,-32.34146209665601,-0.2791777119939672,0.01324521709738862,-0.12028794720943761,0.26464453958902967,-0.10500252705271675,-0.08924513461972074,nm,0.0
235.39289799999997,-24.156787890427946,63.702610971263205,-29.28408442656241,-0.16313365084885564,-0.07121420374918766,-0.11427479235402951,0.21891150387002456,-0.1329050498945214,-0.09138317537206611,nm,0.0
235.40239899999997,-21.999654906229203,63.433028959110565,-26.763635566029045,-0.060019053671726996,-0.10955974899680439,-0.1631317776308769,0.1421709541089567,-0.14933669231885346,-0.0809043384675474,nm,0.0
235.41192900000001,-20.827113663675057,62.912457105872114,-25.18045458290391,-0.12650675123334149,-0.14483461854541957,-0.15677068320748436,0.047471505060821546,-0.1523706629811234,-0.06234261727367396,nm,0.0
235.421437,-20.448123358731937,62.05589770046303,-24.219550498037446,-0.011934055152259366,-0.11376105392430227,0.018982494135889108,-0.04143512315891937,-0.18348277497221271,-0.053865672332428866,nm,0.0
235.440278,-21.97865736687844,59.738472757392074,-23.515026563056242,-0.12707804666810701,-0.15004454449737784,0.24790140756089887,-0.16767605469911723,-0.2223092298115518,-0.023763959564992745,nm,0.0
235.49749999999997,-38.91735980804694,52.741454984488925,-30.105475520846884,0.1332013933759191,0.271948315264445,-0.24953588386840936,-0.5310291954033581,-0.0462759433630627,0.0594166143060887,nm,0.0
235.507014,-42.206436391328616,51.177388689393894,-31.533859005239602,0.13587397008763363,0.2569629783208519,-0.39656376105088886,-0.5084358724698641,-0.0788095216611533,0.05999291500011421,nm,0.0
235.516536,-44.70522156248297,49.587338390922696,-32.366004886187625,0.0161159641323921,0.29964655145824054,-0.37685746166688083,-0.43822384536862913,-0.11828793422957291,0.06720087137635739,nm,0.0
235.54502599999998,-47.32484213374923,45.972890440478864,-34.50296068077744,-0.2646238337044082,0.6534432526923295,0.2257831643358705,-0.1507101459764017,-0.14847161225207417,-0.136040461891733,nm,0.0
235.564037,-47.42682019800717,43.93338201853696,-37.40669097876459,-0.0431749201872819,0.6510547141374669,0.4056716205423936,-0.10490391479192816,-0.18119197210202231,-0.36628257096298583,nm,0.0
235.573538,-47.87325534087512,42.9126880460396,-39.65181321411843,-0.2790452285260347,0.16057489789042867,0.2277795469682899,-0.17894091926560893,-0.13364840003063638,-0.3885192919334712,nm,0.0
235.58305299999998,-48.170942014073326,41.88464091948623,-41.99723658993045,-0.14453652201732264,-0.1758485607915021,0.3320789893617544,-0.1692489948220668,-0.14116463158761247,-0.42966102412879004,nm,0.0
235.59257599999998,-48.17255902983897,41.037121220462794,-44.183958029472336,0.2776467474257314,-0.22288336935895206,0.2755797227628947,-0.11801107001990482,-0.13786768772450492,-0.43773484442965094,nm,0.0
235.60207799999998,-48.59549730874516,40.47428216477746,-46.05044199855062,0.14599824366794856,-0.48133983325377205,0.27425671873407637,-0.12741630198581397,-0.048101139644557235,-0.31838354973824473,nm,0.0
235.61157699999998,-48.89582724188392,40.0794590531888,-47.228097778500434,-0.023553362044525655,-0.5787961433612717,0.2706072217764986,-0.09153000335455501,-0.03490126574476172,-0.19675473344926261,nm,0.0
235.62108199999997,-48.97358479413621,39.76579107652018,-47.68103165529636,0.07450563454320888,-0.43045215635174067,0.3817514259197631,-0.057018039207037505,-0.047627386350263284,-0.08046123131333241,nm,0.0
235.63060099999998,-49.24716614175316,39.60763530196058,-47.841743740416646,-0.053569167953886034,-0.3512569363433119,0.5141672188857375,-0.05445800663617553,-0.004025992189862076,0.003112935065305622,nm,0.0
235.65912799999998,-52.252722143623345,39.34736601797616,-49.7291668912995,-0.2723534954999989,0.08339267458365716,0.34964770859103916,-0.19212707845303761,0.1372358890845428,-0.005803762625495818,nm,0.0
235.67817599999998,-56.26732408578531,38.1708565219224,-52.541855594774304,-0.16959947012345625,0.0473148064299118,0.020702571109059084,-0.32022051356804043,0.1609721664985093,-0.02612754000418001,nm,0.0
235.68767799999998,-58.26549883226844,37.340276982839384,-53.90432097497147,-0.1798729148744169,-0.07850711593434169,-0.11658738414183209,-0.3252578972262234,0.1399965797058826,-0.025816197616920163,nm,0.0
235.70669999999998,-61.0945123600489,35.85490539795656,-55.98272246674182,-0.2820445914530358,-0.08741677340938478,-0.1680296294686762,-0.22605214840445093,0.06580080862530402,-0.0371037705372847,nm,0.0
235.716284,-61.69373459821815,35.234704475659896,-56.536154777694485,-0.2921411509027115,-0.01568273975462502,-0.06186284477629835,-0.16028629103621328,-0.0014328337296588209,-0.038224329920184354,nm,0.0
235.72579299999998,-62.15597882458721,34.914725850833165,-57.0512471949899,-0.287418729184438,0.06380966522132116,0.013476727014685368,-0.11299739568255798,-0.046772099309731245,-0.04671591632071732,nm,0.0
235.744725,-62.11983985721883,33.86302697447545,-57.86619087908717,-0.3437240301761213,0.0931194482719844,0.1499638671937373,-0.0896428748083882,-0.08278220030193979,-0.0916409666930935,nm,0.0
235.75423800000002,-62.052691791661054,33.199872599890064,-58.348079245529085,-0.2735079554685038,0.005066088396194924,0.14507481838818836,-0.11004253164132868,-0.09312825951415835,-0.10067991603822185,nm,0.0
235.76373199999998,-62.091126859462264,32.44431331404945,-58.88910622440103,-0.1733907275963643,-0.10075053718695606,0.150297639936717,-0.1358925446320865,-0.08664888016548761,-0.1007895661656065,nm,0.0
235.773268,-62.23891498756716,31.627900694775786,-59.39220069568838,-0.13430204509409796,-0.17044630749068462,0.12716440465827594,-0.1566839506336211,-0.07563456258704,-0.0815090845314669,nm,0.0
235.78279799999999,-62.49709874636561,30.77694324259871,-59.73642111784111,-0.11071820693589485,-0.26694263486101727,0.08484568059011045,-0.17286526729754179,-0.06143942175883875,-0.03843201293407536,nm,0.0
235.79228300000003,-62.81152777405823,29.943627554405833,-59.92409490100981,-0.08221668828082741,-0.26383980994008777,0.07112520849648526,-0.17513529876887834,-0.05008018567361778,-0.0018611871959287472,nm,0.0
235.80182299999998,-63.17574819445758,29.129432077725333,-59.98807665370507,-0.09845110260336408,-0.1698938334096192,0.05667094960175973,-0.17645669283942453,-0.0398335256424978,0.02722656056116883,nm,0.0
235.81130599999997,-63.585321629235175,28.274344411420465,-59.94454506071766,-0.12989381582716988,-0.05125054965853397,0.05956350265165636,-0.1877536781271493,-0.03650382822677056,0.05238928156956232,nm,0.0
235.82082699999998,-64.0253251453481,27.34342824144618,-59.88792430530447,-0.11419161733464786,0.09290038227491818,0.042564403613396425,-0.2038274538187973,-0.03902863785787789,0.05694463857559338,nm,0.0
235.830413,-64.63165677536676,26.59197123262514,-59.976076377189614,-0.18486125507964463,0.17667029036164836,0.029752398932525823,-0.22517106448213356,-0.03387922718864256,0.042467477054060274,nm,0.0
235.839913,-65.33832636643038,25.81357947791976,-60.1945012822113,-0.27094477397677447,0.1952161680303142,-0.0020788037045492676,-0.24370462236579088,-0.03884592042142068,0.024253415612485847,nm,0.0
235.84942600000002,-65.8308707144304,24.930610347809317,-60.43568875857171,-0.14849140401301147,0.20430731265202648,-0.019413789412713087,-0.24645994118934023,-0.05586984192570966,-0.0006055684358585949,nm,0.0
235.85892900000002,-66.33763414939045,24.00473034453573,-60.80752325819049,-0.13175964208584606,0.12433068870579635,-0.06206463789746726,-0.23943969134040333,-0.053964804053667124,-0.02676755504196144,nm,0.0
235.887415,-67.2003485400289,21.144214466172862,-61.89783410382279,0.055530383461839,-0.03234581861977935,-0.10723029814413325,-0.18970756612752593,-0.063626000370756,-0.03718060995936274,nm,0.0
235.896919,-67.35361285519116,20.183447918801853,-62.13419417545139,0.05357028557257698,-0.03172358399186992,-0.10258737038577592,-0.187093834994612,-0.07715158874171135,-0.0303362134907785,nm,0.0
235.906489,-67.48503731006195,19.154148006630358,-62.325784012857305,0.031415703901134615,0.012426714150521639,-0.08703654231419253,-0.20008419701732486,-0.08037581415252297,-0.02322212043877364,nm,0.0
235.944541,-69.047588592735,14.96308412153363,-63.72281851138691,-0.04901300190142896,0.09926978620171764,0.02958828937633532,-0.2590803788524374,-0.024631635933531435,-0.06943093032120765,nm,0.0
235.954057,-69.7979505514495,13.922159623199303,-64.39183261730648,-0.11105060084737431,0.0885668408715648,0.008243417267141886,-0.2752003549105029,0.004208902175803151,-0.0887084610055397,nm,0.0
235.98257800000002,-72.59804282076097,10.056296804608227,-66.82869041252748,-0.07054912956456688,0.08767266075224395,-0.04754269765256913,-0.374722196726219,0.06098432311805787,-0.1297367425625742,nm,0.0
235.992086,-73.72126424283917,8.38310215474199,-67.62882334316573,-0.018543534492437272,0.09091023896362868,-0.04698360883949728,-0.4188078809359567,0.055683428314668645,-0.11514221147474069,nm,0.0
