timestamp,roll,pitch,yaw,acc_x,acc_y,acc_z,gyro_x,gyro_y,gyro_z,markers,motor_input
229.50558800000002,5.367435313218439,-19.292229229936805,-38.57235739449837,-1.187904058546606,-0.6432116689890217,-1.654340142220348,0.017723876489072945,-0.1751719012971597,0.26618692535700916,nm,0.0
229.51508399999997,6.338948526425827,-19.891866932682703,-38.340395956478744,-1.2385201089211062,-0.5506854023105107,-1.4281382649762693,0.06830965950369774,-0.22174358358020857,0.10807412186030843,nm,0.0
229.5246,7.523318426778938,-20.52570085840718,-38.79487426151391,-1.1557328917407088,-0.5249695331801838,-1.3405141915651881,0.09441264715872455,-0.2516887861200656,-0.012804327705946209,nm,0.0
229.53413700000002,8.740961401616815,-21.296949681340955,-41.44169854422157,-0.9590693165819566,-0.595521978564602,-1.2962627002997074,0.06915639577084479,-0.27976178291890397,-0.05040665350049064,nm,0.0
229.54365600000003,9.950617931003293,-22.229172263154876,-43.79381941330611,-0.831829854444448,-0.5512683336909782,-1.1107193975829812,0.03280358242823764,-0.3039317674912234,0.01657158429791838,nm,0.0
229.553096,10.96927351957984,-23.349058880069787,-43.50682590854428,-0.6602797365930849,-0.41861629676858697,-0.9099189314154787,-0.01972159433107299,-0.3056928823641942,0.13255864251844035,nm,0.0
229.57231499999997,12.050544102699607,-25.86038340467008,-41.518375413542174,-0.4145128499055887,0.1085653696593978,-0.30816869061579905,-0.11329950621378958,-0.24635972843172146,0.25169275952089815,nm,0.0
229.59131900000003,11.716464677026112,-27.338867575585994,-40.99044256321154,-0.11002297765830246,0.5455746898965863,0.6156163745405671,-0.12483974884858433,-0.04378249350664937,-0.08505825865212614,nm,0.0
229.600832,11.057915074911397,-27.32516687294168,-42.48588065885614,0.09597220319240196,0.8140850805278722,1.5296279870649103,-0.08618742355675402,0.06625370705385959,-0.36331727272856745,nm,0.0
229.61034800000002,9.613894878960458,-26.663926844303386,-45.26009895869602,0.43249106430854783,1.2830543128547405,2.915170814446874,-0.09550082774318083,0.2603228199662174,-0.6899172633473273,nm,0.0
229.619861,6.530141926025188,-25.425154645395313,-48.978916799102116,1.067875939689151,1.2386419325604543,3.2462387807498154,-0.19874942911437285,0.56190773558094,-1.018452952798348,nm,0.0
229.629358,2.449899991180904,-23.981629704525687,-52.91632762625623,1.6553465688093165,1.0557101747967814,3.0569084156480595,-0.2477534228434632,0.7454964632635902,-1.1318834850184745,nm,0.0
229.63886699999998,-2.2193130883862104,-22.87540750550537,-56.17535469029093,2.170692671017896,1.0930737193396516,3.0234620972643627,-0.3230613733859306,0.8146233836635235,-1.025600276789686,nm,0.0
229.66740000000001,-16.382564354142776,-20.700285645218035,-55.73649426680335,1.9535936884725313,0.4189896536858171,0.5487542255132447,-0.22586870800856504,0.7007958948962235,0.12187946065113038,nm,0.0
229.68642000000003,-20.603154227573636,-17.888625534788314,-49.553385932629126,0.5100707628373999,1.140341286756154,-0.6990382558985186,0.0520529789820807,0.35881675296977883,0.5448888286910556,nm,0.0
229.70544399999997,-18.239123029157966,-16.583758451978834,-46.48723571733439,-0.49025609297063605,1.3747097579799992,-0.9344712691283539,0.2971350574982257,-0.2220332120887875,0.2609408939579706,nm,0.0
229.71496699999997,-15.049263720685655,-16.559177935899356,-47.34138797857388,-0.6025457882213335,0.7727208913751441,-0.9604953316039816,0.4170159495257488,-0.4571262694480621,0.011406017583697544,nm,0.0
229.72465000000003,-10.93951953496009,-16.518312051142807,-49.27023006794391,-0.4038958103333108,0.44995495001100105,-0.5279274190702573,0.5259058818737796,-0.5969190607462629,-0.1524531135634568,nm,0.0
229.73399500000002,-7.4239358887762625,-16.321557704063224,-51.299743628138515,-0.4769808728050356,-0.6540930867825971,-0.5953679550178771,0.4566330631479498,-0.5074232871605642,-0.20866073989284867,nm,0.0
229.74348899999998,-4.3185516691609545,-15.948949546151283,-52.327190995456746,-0.6516009112308747,-1.4372987325073554,-1.0265596618213257,0.42280680999090026,-0.43647606795214927,-0.03494288384533961,nm,0.0
229.753031,-1.4325811561502528,-15.710675778453703,-51.68212102853549,-0.5906962737637141,-1.4586600248610602,-0.8543278213730331,0.3751682619597148,-0.4219325370614686,0.28409911181019554,nm,0.0
229.77186600000002,2.29882006801167,-16.763829507492026,-46.274760612903655,-0.9948157533525638,-0.958848273987788,-1.3223161011163755,0.0830646710995464,-0.35855094728749354,0.7248510541615879,nm,0.0
229.80993600000002,7.853035857075272,-20.786114761029623,-43.62396288454016,-1.4125381172381086,-0.20775155013269747,-1.3049642563300805,0.1496114854212845,-0.32300638610554916,0.016235834847994773,nm,0.0
229.81943299999998,9.645496092101272,-21.187021326640398,-46.46740365023955,-1.060440317101473,-0.5156020829096634,-1.2177694783391961,0.17399030868378879,-0.3097481990888777,-0.1357535341363561,nm,0.0
229.828966,11.31221171425617,-21.62552849127214,-49.28992940578112,-0.7572785318399682,-0.8217661617800167,-0.9130577174765022,0.13690298442785057,-0.3046331663553993,-0.13493346184798038,nm,0.0
229.83843299999998,12.626739916164569,-22.317608575083288,-49.81733520241555,-0.4351028775434789,-0.9003452986710802,-0.5764104355009096,0.050581766258250185,-0.2889966645783284,-0.011465171507093808,nm,0.0
229.84812200000002,13.29032531975968,-23.36963024813096,-49.39277285935506,-0.189656348602834,-0.7128115212395577,-0.25677160230944573,-0.08314428450025889,-0.24317106156643217,0.1322956240743525,nm,0.0
229.857607,13.234525926997108,-24.66811102102936,-48.343559775533414,-0.0775045245532497,-0.24813982305843071,0.2412286945694866,-0.20431879053349103,-0.1768489466810723,0.2014430354903415,nm,0.0
229.867127,12.343813835455745,-25.888751044185504,-47.429392744650336,-0.09436503082277989,0.4673959628312318,0.9856577521196019,-0.2910983402207701,-0.057878046588523774,0.10311684926890713,nm,0.0
229.876701,10.480073720565716,-26.614894737789694,-47.55374615208899,0.04608040119284449,0.832346079354639,1.372641161834319,-0.33525818316649836,0.13482881293268142,-0.19331815407500566,nm,0.0
229.88613999999998,8.282543764101595,-26.432157301508795,-49.323795552640384,0.27362927475601184,1.5436364910364309,2.5259918621961,-0.236522230261554,0.30530096338398455,-0.5539046568838863,nm,0.0
229.90516399999998,1.4508113986135691,-23.68402422720547,-57.60694932744592,1.6386727686244202,1.414270274607493,2.7739406049077346,-0.15802836598998057,0.7433286259630213,-1.270582692145303,nm,0.0
229.914681,-3.0299834708975193,-22.968298169581487,-62.195932299521125,2.1516074707557857,0.940776165356576,2.53210162981806,-0.29648043640700744,0.7728724036531707,-1.27516901835604,nm,0.0
229.924181,-8.080536708717638,-23.155890730680984,-65.20927056686895,2.235941591301711,0.2903038614463237,1.9908058883303208,-0.4542046202604969,0.8062499709594827,-0.9996377041296789,nm,0.0
229.933705,-13.019389707829134,-23.410163201401435,-65.69863827571876,1.9249797452906776,-0.18932591627068937,1.1858882565370923,-0.43234228121156304,0.7939976718586185,-0.48827114375306624,nm,0.0
229.943202,-17.090786489377614,-23.026532737206406,-63.5726499731454,1.7811213514925945,0.0686450711160349,0.5798447456224095,-0.26005427190793584,0.6985666102451696,0.10549839930288453,nm,0.0
229.95253599999998,-20.30316165846422,-21.856746033226376,-59.706389260945606,1.3533378553535722,0.5787527030823187,-0.19128897344050674,-0.0842242725975525,0.6227569012876382,0.5303092024592222,nm,0.0
229.96203899999998,-22.106107170579158,-20.326348218598785,-55.457084430792484,0.7323855590140586,1.136017338490757,-0.7998148152498923,0.07106101920103415,0.4364888686515775,0.7229650788734677,nm,0.0
229.97174600000002,-22.12983663034149,-19.125044749516054,-52.126649007260596,0.15846638949952913,1.5517552456416905,-1.0527811929618134,0.18518816225167867,0.1331056454030685,0.6672587191773103,nm,0.0
230.00997400000003,-8.884904673996882,-19.24722215247047,-55.74024538969421,-0.40526605440625263,-0.5490779883436254,-0.24010091967284442,0.44547547613711974,-0.6449350481454212,-0.2252291074821701,nm,0.0
230.019285,-5.39957602629813,-18.873223845408376,-57.28059956256654,-0.7641730375278643,-1.310968564506365,-0.6286120408467316,0.42014965417395317,-0.5214727473062144,-0.08191097493625037,nm,0.0
230.028802,-2.372816261975011,-18.427559267672383,-57.027098225908944,-0.793674460648701,-1.3324793374025077,-0.5979464712824902,0.3805059942581323,-0.44680226322113975,0.2424330924612902,nm,0.0
230.03834300000003,-0.33763921954832427,-18.189493202235226,-55.04806225302455,-0.9967348928888624,-1.0585771794498757,-1.0126051189527727,0.2504248976145354,-0.30724378432243826,0.5216790156380281,nm,0.0
230.04784400000003,1.0402943255730936,-18.376360875920604,-52.107847193291946,-1.179629948142479,-0.6592458102742664,-1.2978301587425674,0.12101767807514177,-0.24627925115982674,0.6724489258199282,nm,0.0
230.06668599999998,3.3200405680822414,-18.93383920191013,-47.61251817800599,-1.5249095304489524,0.10497523011466578,-1.4876245178177494,0.10719212768965662,-0.19700346481458855,0.4052301936432993,nm,0.0
230.0762,4.808010516002796,-18.717575469974403,-47.57611472445407,-1.4935692224509594,0.06273077469585028,-1.5546317889813666,0.21919526174727125,-0.19248444414147162,0.0999529962025447,nm,0.0
230.08571400000002,6.732278886137815,-18.180414355675058,-49.04333075450576,-1.2167882676513913,-0.19225899081114683,-1.3807841298606658,0.32031470152957287,-0.21471021729416273,-0.17573798067740132,nm,0.0
230.09524100000002,8.686157311763107,-17.53651738470406,-51.28911055415712,-0.8737829358196662,-0.6928214675284631,-1.2092229940966917,0.33413388793820203,-0.21646349892262168,-0.33401738639214196,nm,0.0
230.104746,10.475835697428842,-17.03770824663729,-54.67285400518309,-0.589582984885527,-1.0924223521432654,-1.0921902397837147,0.2792476800676051,-0.22922827458155393,-0.3041565256972763,nm,0.0
230.133407,13.997422682792804,-18.895341490542414,-56.023139841811194,-0.10537492934294504,-0.4656828140460547,-0.30549896866973314,-0.1263394166466828,-0.27219437712136346,0.2614451601752626,nm,0.0
230.14294299999997,14.173187781340996,-20.32908476622979,-54.72305844670185,-0.12674178441776468,0.20200272691313192,0.11098826796976433,-0.22071594452044205,-0.2033459661061265,0.26721163199335585,nm,0.0
230.15250699999999,13.630551284127264,-21.608929301041346,-54.07306347182997,-0.0973065090085121,0.6946997826890143,0.632409058069301,-0.27062861814108297,-0.07974622190291442,0.08663260895478811,nm,0.0
230.162022,12.478189031684833,-22.357818345150292,-54.687823017491816,0.0031137045911224528,1.1400095351479793,1.6010042552315595,-0.2499935529783959,0.07353259541375694,-0.21379472195211408,nm,0.0
230.18096999999997,6.52692878044743,-21.70968814289758,-59.914895803119805,1.1763327016282996,1.360002862405432,3.1479405383208663,-0.26773977534613064,0.6585881469823325,-0.925370828122464,nm,0.0
230.19047200000003,1.7917555399718472,-21.049951464798177,-63.42219953500395,1.8355342180485033,1.2218883897847386,3.38660732430495,-0.3097508047175753,0.8279782148100396,-1.0501865611755978,nm,0.0
230.19998999999999,-3.6253031522638546,-20.973867511106285,-66.29525369597123,2.4301113653316815,1.068784527777528,3.356639702607175,-0.42454305209368726,0.9117918900390335,-0.9654241298866351,nm,0.0
230.20949399999998,-9.421566120920806,-21.267573100774957,-67.71769235299858,2.433134183683237,0.32003266493115984,2.056191766463324,-0.4858634988698691,0.9627023500931723,-0.7032288280417031,nm,0.0
230.22851899999998,-17.984680531326905,-20.478718493143603,-65.36909898227177,1.8068282680984002,0.4065053940610211,0.3643896682132873,-0.1491599959736123,0.6611906333415754,0.1398319905264947,nm,0.0
230.23783699999998,-20.328979963481075,-19.420726774316183,-62.50518334367345,1.2272582401084964,0.779679404775385,-0.2294370337941783,-0.011986653857442357,0.4781142400800418,0.41485016031630984,nm,0.0
230.247532,-21.00427817899929,-18.285314344603307,-59.705672172022744,0.5727135490457109,1.215853138552505,-0.6159209957317795,0.12938460868298074,0.21015598635880486,0.518516556887613,nm,0.0
230.25704499999998,-19.884387275064512,-17.382209560897895,-57.83528042125237,0.14160204549451236,1.4641534453449967,-0.7413636854793105,0.25793858467893194,-0.10087420070286159,0.4445224823500746,nm,0.0
230.27609099999998,-13.800206328807082,-16.580556275747547,-58.38199116296623,-0.37911587823434933,0.6950710875895756,-0.6139856559527402,0.41184473930211235,-0.5728985477781042,0.015558058803501463,nm,0.0
230.295104,-6.145818450727472,-15.592434843737326,-61.944199641975565,-0.6467271451835686,-0.7886711208923052,-0.42255667043942413,0.42589943640555605,-0.540676509187425,-0.16093173770957298,nm,0.0
230.30460300000001,-3.028216901529798,-14.902170168918163,-62.717232610514735,-0.8295009550322366,-1.2799166074167705,-0.699684384991103,0.39478506822236453,-0.4811932554978489,0.006971210408677499,nm,0.0
230.33298399999998,2.3978524619331325,-14.851649044670998,-57.86283880427478,-1.1320385884345847,-0.6580121243404382,-1.2626514340893096,0.04261309958488042,-0.25761264524882677,0.538468998840617,nm,0.0
230.34249200000002,3.3034187719698935,-15.519232324557548,-55.70100328497037,-1.2759890588495157,-0.19172643183386653,-1.296565348543393,-0.02107633274907155,-0.2324084836671861,0.47671893245517966,nm,0.0
230.352006,4.0170166203359905,-16.10155147606342,-54.45177265862028,-1.4044108368018107,0.009185247211529118,-1.4492829930585465,-0.021635001932514355,-0.192365560658137,0.2853687410717622,nm,0.0
230.37101299999998,5.961905956441412,-16.480667959415406,-55.2922931236363,-1.2070774952128844,-0.17327215111350014,-1.3843732501015318,0.10123714079432101,-0.1888488671815462,-0.1250395945779401,nm,0.0
230.38055,7.011366838887382,-16.56750146229615,-56.5909226016609,-0.9704863158800412,-0.5588522916368892,-1.3205731588125686,0.09356398543975061,-0.18931907453955255,-0.20444527784278668,nm,0.0
230.409072,9.696596658664564,-18.61363970942142,-61.83310573721836,-0.33741904491136376,-0.6868819330829844,-0.9040447653070779,-0.1313973206619981,-0.2385111113438193,0.20684486870622323,nm,0.0
230.43774499999998,11.084050865641698,-22.970379031393936,-58.540845860873006,-0.0482251320612157,0.6343545259585187,0.3202108257736049,-0.21815578590488766,-0.19121565814489472,0.12003888015214494,nm,0.0
230.44726699999998,11.035619841783765,-23.921126807382358,-59.30679993843765,0.06246440880735452,0.8027212424198292,0.726611317946905,-0.1723175120342918,-0.1035076846481231,-0.16106941903596342,nm,0.0
230.45674599999998,10.655458546436796,-24.335684664019077,-61.426664620883784,0.28523301928216654,1.2953824698880683,2.2137130530201863,-0.11170503555062075,0.006663443158036237,-0.45929900952620584,nm,0.0
230.46627199999998,8.759630964321271,-24.204045298132666,-64.56024016989555,0.7639618772918472,1.2966490994991828,2.964243565344632,-0.13984587541914503,0.30805245604898773,-0.786845253336383,nm,0.0
230.475783,5.293199567479979,-23.899929875135943,-67.98832617994661,1.3154903424882305,0.9785411643708096,3.142123982463131,-0.2067004796608748,0.5931658374255752,-0.971983353263053,nm,0.0
230.48529299999998,0.762213570515421,-23.66977829678586,-70.85854736182651,1.9053998798622904,0.879067750436373,3.578848784864842,-0.2571753002646924,0.7824611055279826,-0.9424240915414344,nm,0.0
