timestamp,roll,pitch,yaw,acc_x,acc_y,acc_z,gyro_x,gyro_y,gyro_z,markers,motor_input
206.01503599999998,-41.76825238392794,-4.5157518020601914,-131.15590183688224,0.8477080855968644,-1.9171927277591343,-0.3471275843303076,0.00893693456062657,0.1619631540649764,0.14799728280882235,nm,0.0
206.04356099999998,-41.95737559544002,-6.055801317241809,-130.18831609637698,0.8778115072890782,-0.6987014355221375,-0.3797185158330984,-0.16005528498908828,0.026007784939617407,0.019442326245389878,nm,0.0
206.05328799999998,-41.42661162961307,-6.726830795386924,-130.43088480810806,0.6503427388734235,-0.38070761368493455,-0.2749059596744852,-0.18373050804459748,0.0097130239179136,-0.031935861987174526,nm,0.0
206.062782,-40.47503152800522,-7.373137441219241,-130.6534058533238,0.5928159850834915,-0.16729188234749764,-0.17519998137833337,-0.2342246697584627,-0.05613983880275604,-0.016497894677447045,nm,0.0
206.07229199999998,-39.25594058457192,-7.929146645902799,-130.54897218183518,0.5107260272895366,-0.044472683165267285,-0.07407933095213902,-0.2550055294411554,-0.10775564393435923,0.057873962733430206,nm,0.0
206.081806,-37.80901225695779,-8.107247751129153,-130.09840831253013,0.32191411295137257,0.12530091724354736,-0.10534570159531531,-0.22598676650838448,-0.19224049523735126,0.13479927942740982,nm,0.0
206.12915999999998,-28.13566539372384,-6.636949217432009,-126.90899231360038,0.19124368982767184,1.0143491526308965,0.32627694687305425,-0.31092778927797293,-0.32024299332966827,0.09430091348631582,nm,0.0
206.14819300000002,-20.02953118983126,-7.544115223824795,-127.7359808394624,-0.5210689084880142,1.8118095121498994,0.15922299565203393,-0.7020156042861847,-0.7393771496823198,0.015457967860757732,nm,0.0
206.15768999999997,-13.222604777255812,-7.813278019263614,-128.41086874632086,-0.11272833482141065,1.6358838627157144,1.184694208979665,-0.8893003561147282,-1.0275947298367325,0.045987061100180276,nm,0.0
206.1672,-6.963063199228092,-7.586615965882022,-129.02114779033238,-0.5986851721221372,1.9466748230409596,0.8014067421224269,-0.7552872233083969,-0.9951188147658955,0.04333847586089773,nm,0.0
206.17653199999998,-1.269429518535126,-7.137558413947923,-129.23086864374508,-1.2575496055886872,2.3044409376778243,0.3424630821072318,-0.6573444261168392,-0.9317476872549609,0.1003565023465185,nm,0.0
206.186227,4.623987443485523,-6.673851870094636,-128.79713800609588,-1.3962897292497207,2.229351135922343,0.8020259596428171,-0.6786299431956958,-0.9671197292833421,0.22362549519650002,nm,0.0
206.195732,9.668726494595594,-6.104547568248515,-127.74997539386416,-1.4789216577724869,2.086255913644885,0.7724228097358097,-0.5452253734020659,-0.8577607943841082,0.31586028035774966,nm,0.0
206.22427000000002,15.917445517661509,-5.468252560849502,-123.58386046284676,-1.5136519994869804,1.5775020858496542,0.20990848000678464,-0.1008122339590352,-0.11704323191011841,0.2639926852990225,nm,0.0
206.233776,15.048813880332569,-5.438068056823934,-122.56431916879637,-1.348682909931188,1.3464081545620006,0.0964565566347193,0.08728438034611126,0.14122479961355144,0.18046602234815476,nm,0.0
206.262489,6.878834518017997,-5.91192831712705,-121.22498477375522,-0.41595556736636435,0.7364722618560029,0.20167551105042067,0.28422243433034977,0.6193466281863256,-0.028295166630691725,nm,0.0
206.27201,3.236194522349351,-6.226415218058495,-120.99863988047467,-0.07345080703818792,0.5824149078396874,0.22336766137532324,0.307526086370649,0.6534614847738155,-0.03663086679276268,nm,0.0
206.281506,-0.47338615639833004,-6.511025717826468,-120.73121534612798,0.27420852971723186,0.45839407563228385,0.11664275033138982,0.3162080556083121,0.6630114527220882,-0.032908968250925576,nm,0.0
206.291037,-4.28090714208461,-6.778290988846745,-120.4621621755058,0.40928202816876036,0.40846346779128956,-0.07749395348972371,0.32558503665643046,0.6793481449615815,-0.03759113007970611,nm,0.0
206.30054099999998,-7.5050644110561375,-6.885163368032651,-120.23839946326538,0.5324893231746498,0.3848692982247986,-0.2979763256189856,0.29147094321606926,0.5643515390640658,-0.034534248110128445,nm,0.0
206.310034,-9.98499791521242,-6.716926283834134,-120.18539759649084,0.9942710992702058,0.23163969715573418,-0.21416966545334506,0.26318496995163326,0.4096418995585119,-0.050206985414365614,nm,0.0
206.3289,-14.168132396795924,-5.748319520868383,-120.88512645724876,0.8079281619189974,0.032240058708755175,-0.5763410044665522,0.267378853718886,0.2484636039447558,-0.13116098816636368,nm,0.0
206.357612,-17.05762468851522,-2.760655695741043,-122.70354934689732,0.3196699702757624,-1.4127159422327857,0.11275746915943108,0.2788276188572981,0.035436123849675434,-0.1245656180288324,nm,0.0
206.367128,-18.054026538103,-1.5542940432455776,-123.09915449642476,0.09331256583105918,-1.8656165134251077,0.16826540512553034,0.2970339042951462,0.037728721887512126,-0.08753097961120732,nm,0.0
206.376457,-19.2458814070614,-0.47940605929767677,-123.34718910701227,0.11789609297694119,-2.1820279108386766,0.1518040647496958,0.29670795829321206,0.08332097338038663,-0.05457112926717415,nm,0.0
206.38596800000002,-20.71424298174414,0.16635033042250386,-123.59011611009576,0.020555864056490934,-2.1978971701388916,0.007273060772351068,0.2559250156995277,0.17566936086587592,-0.04986745885851784,nm,0.0
206.39549100000002,-22.028624397284155,0.4938525967659767,-123.8692591970811,0.23808345119301177,-2.2028263537001798,0.21678068163677483,0.1863837201351803,0.1844814566627258,-0.08146829177283321,nm,0.0
206.405182,-23.451672136689275,0.6532954372065726,-124.39175972022288,0.5457223212177557,-2.1392500688258185,0.2863825080738385,0.17197849676526933,0.2200659992775484,-0.128639999163362,nm,0.0
206.424022,-27.328465589813906,0.49511661556152603,-125.89536817608254,0.5909673945140382,-1.9207818987657401,0.06855965175255008,0.1949528091316841,0.34257414840135814,-0.18154678856235199,nm,0.0
206.43353399999998,-29.251095980448234,0.35929141623541727,-126.6634751665392,0.7515861421452855,-1.9646718759721824,0.0717311836922661,0.19143671813550656,0.32917079841773783,-0.186727544632026,nm,0.0
206.44304200000002,-31.263013166266195,0.1837180669298834,-127.30209789275355,0.5910381055133659,-1.8208508690654854,-0.15649884696777014,0.19986904557472476,0.34583365597276194,-0.16190701225446136,nm,0.0
206.452556,-32.93148465848033,-0.07459146081105207,-127.54956032475069,0.5053233084188449,-1.7395533880121266,-0.2774969322121636,0.14750822120344767,0.29967173073103,-0.09963322872796784,nm,0.0
206.48103999999998,-35.07872832973248,-1.0717620399212904,-127.09340684871405,0.408996833813094,-1.1398454193175656,-0.44975437931364304,-0.06498217926223082,0.06528613172765975,0.09036330801905049,nm,0.0
206.49075200000001,-34.775519506128035,-1.5363127493371578,-126.5555455359492,0.43053910602548656,-0.8788005143829707,-0.4042378620423251,-0.12457395088739047,0.009493298115438233,0.11189428373743922,nm,0.0
206.50027400000002,-34.21820158168434,-2.003751418917633,-126.07114198362434,0.4165581230991826,-0.5443612093750573,-0.362362769461486,-0.15523705046374567,-0.0322112146052042,0.10318812549037983,nm,0.0
206.509779,-33.40914862924739,-2.4731607434364022,-125.64282360967361,0.46052408327613503,-0.29858206849346985,-0.2690924505475324,-0.18479870121929282,-0.0739744896553087,0.09471338320911152,nm,0.0
206.519301,-32.50907447524572,-2.8984542956914012,-125.2121098398012,0.4796566637746882,-0.10382951979363694,-0.16140369967697657,-0.18758629622008627,-0.09524257859557834,0.09716496345394757,nm,0.0
206.52880100000002,-31.555570883191713,-3.155563253607379,-124.70770735508108,0.43843169773502755,0.007652806030842348,-0.09456675627703408,-0.16532379295142044,-0.12476860398475045,0.11337599515754052,nm,0.0
206.53830000000002,-30.544662611890587,-3.1025209206851865,-124.10127273338871,0.39404449495557764,0.0910067065476126,-0.019645113990337325,-0.11937873723987744,-0.1709173763641233,0.1345481082889187,nm,0.0
206.56684600000003,-27.357194159141844,-2.179929966759254,-121.55868381694944,0.21106522812042045,0.3124071891248651,0.017274511211619246,-0.08318933834705232,-0.2082377567454513,0.1911922461468257,nm,0.0
206.57632199999998,-25.949231798592972,-2.0157834619841126,-120.77710209704321,0.25000557882810115,0.408467761906234,0.16774353524830585,-0.1318371924121442,-0.25706158803257917,0.16774947344213964,nm,0.0
206.58584800000003,-24.28828340747951,-1.9401160649717242,-120.24219053621773,-0.0018186245815985126,0.7319584071251161,0.0112235949337077,-0.16986874333458357,-0.2931757921149853,0.11914790305580387,nm,0.0
206.604678,-17.775165395742363,-2.0673508682865203,-119.77609025327186,-0.15635981512596744,1.4299417299053983,0.17905919476069432,-0.43039644053575316,-0.680506095464549,0.06020560956529673,nm,0.0
206.61419099999998,-13.306516883429742,-2.16266661134696,-119.72630742205794,-0.09283672570602246,1.7275726141219243,0.5489328687848409,-0.474378378875241,-0.7662788741011192,0.04117190978855533,nm,0.0
206.64271599999998,0.8146779263833054,-2.0000849340514986,-119.28123160756795,-0.9557253973910508,2.414502888167875,0.7708090795052771,-0.48511958258552224,-0.8767403194309459,0.09506914199681511,nm,0.0
206.652233,5.170858766569332,-1.7959351253487452,-118.70218983422983,-1.3438501932134121,2.2918243148955777,0.6411789726565793,-0.3998212329500972,-0.7827600746634541,0.13904768047163743,nm,0.0
206.680755,12.783271399322235,-1.3603642862887042,-115.38141175700393,-1.6091093882654126,1.5548341254917963,0.08505350712223543,-0.13285731055640534,-0.24076791137574763,0.24936248719923396,nm,0.0
206.69026899999997,12.932989135653383,-1.4298995834988062,-114.17669965656765,-1.4744408803289264,1.3281449839825503,0.07701729960109929,-0.037303533049685804,-0.02314092770830903,0.23470247322430643,nm,0.0
206.69997199999997,12.036493367514934,-1.4557309690258569,-113.1858740519711,-1.1848002344538568,1.1516293572780116,0.2486795064015565,0.055171664070033426,0.1645036676710105,0.1867929410412164,nm,0.0
206.709481,10.163552093982771,-1.4603305337433268,-112.5819318079926,-0.8439549730883331,0.9565325680267153,0.09810103480114377,0.1325839716300742,0.3438206726449826,0.10465204967345618,nm,0.0
206.718988,7.574431946146081,-1.5101770513748676,-112.43973593340151,-0.5405400202219653,0.783471068088054,0.13368523989383,0.17657543961035943,0.48075255515155824,0.008815417175222159,nm,0.0
206.72849699999998,4.526197079324863,-1.6746079902027418,-112.71313131210856,-0.2786356650360554,0.6294224007417683,0.050189053641188516,0.19091074057826643,0.5743633952141861,-0.07728382326161654,nm,0.0
206.738011,1.3090903668143834,-1.9757818767469078,-113.24868237715505,-0.04330707838966871,0.4644121383447873,0.08776725655115325,0.18263881251359695,0.6148846882680828,-0.13263235177588883,nm,0.0
206.747517,-1.9748780990383847,-2.286843068594744,-113.8776858054565,0.22460729422994552,0.3795180731004805,0.20120119698085792,0.19211394895693465,0.6260667920360129,-0.15456595240768653,nm,0.0
206.75704900000002,-5.3593084271824605,-2.4803350609722696,-114.50414759419404,0.3219692450411559,0.368698585526733,-0.03346749258985505,0.22840778767069952,0.632625062529142,-0.157054567928877,nm,0.0
206.766557,-8.323333284168577,-2.4888467706010973,-115.0722203100161,0.49050435704000594,0.36234213732746323,-0.22541514945797442,0.23317512320357,0.538372088533488,-0.1422879164598167,nm,0.0
206.776058,-10.853628978574145,-2.281503962910274,-115.63033264234241,0.8437657650994314,0.1968650420090979,-0.15124580430047196,0.24027389081563857,0.43925011054963,-0.13513436021014505,nm,0.0
206.78557500000002,-13.290764038713561,-1.8177853789132414,-116.28073137672312,0.7647872920778213,0.1419773410500517,-0.449598059630784,0.2828659233179505,0.39765317157304964,-0.14949481115955554,nm,0.0
206.81411999999997,-17.263604595318412,0.34043578027723115,-118.46789976569144,0.8664386555804077,-0.22854787562240875,-0.26930399497281254,0.2136375646439879,0.09927643553710083,-0.14257018096567536,nm,0.0
206.82364600000002,-17.744854049870497,1.4117593525786427,-119.05044721794711,0.8526341053505846,-0.5684824097783294,0.0676687365043698,0.2202944519163896,-0.018161397698641772,-0.11637537326435915,nm,0.0
206.833137,-18.115840815832254,2.906586844658172,-119.48591460042216,0.8279423498136034,-1.0662020925052997,0.3606125386732056,0.2832957293012454,-0.08086391083755623,-0.08568189550162142,nm,0.0
206.84265000000002,-18.804121979704682,4.769991752839758,-119.80887199413758,0.54004408326626,-1.6206955396760017,0.43750797600346797,0.3782050801050842,-0.06422416313510591,-0.05677971395669792,nm,0.0
206.85216999999997,-19.7106078656065,6.829865518637877,-120.10119897820505,0.3763949343704539,-2.3202452763003953,0.500209217959782,0.43345178548952396,-0.04854524525063937,-0.04155503915386304,nm,0.0
206.86149300000002,-21.152596243848283,8.712988128731851,-120.535190994,0.22508891300178258,-2.9846349112403536,0.3171949124553129,0.4558280200060429,0.057685150428900926,-0.04909999243423402,nm,0.0
206.880528,-25.422430829892317,10.144908192904696,-122.50023346379585,-0.037122603587712286,-3.593365127980051,-0.1817387668515412,0.2766814097645322,0.3445611939419768,-0.17051921432071823,nm,0.0
206.890031,-27.821781674582702,9.701992681506434,-124.19909248349465,-0.10964356369519063,-3.272027537047216,-0.28989095112090824,0.17202376330368652,0.4458138710374581,-0.2572090794993698,nm,0.0
206.91857000000002,-32.52773832068523,5.32719980189847,-127.2135789534602,0.6933152482335525,-2.027591305417438,0.2197386492710635,-0.15382298966530517,0.40670105889190455,0.015354756237809731,nm,0.0
206.92826,-33.263739392731274,4.125139271308442,-126.70968875279108,0.5398640955301823,-1.2443922652827646,-0.14955409202897238,-0.11786516271129722,0.2643415356703599,0.12035395156847417,nm,0.0
206.937597,-33.16151822379192,3.8316364820533475,-125.79649059194034,0.9170419604810589,-0.8352078674345325,-0.28891219962288045,-0.07345566650482788,0.02015875805817427,0.12822085674699987,nm,0.0
206.94711199999998,-33.121437047856375,3.733148674029974,-124.68062330762872,0.9240149188351796,-0.22228701197897768,-0.5153575619866886,-0.03472561909454878,0.006496481841602686,0.12886934334451572,nm,0.0
206.96626899999998,-32.23400171438047,3.0777227991688947,-124.38975215515592,0.7144921722923909,-0.48231806541786204,-0.10309405288089771,-0.1291271085686414,-0.07895276921363319,-0.044797415574691676,nm,0.0
206.97578000000001,-31.84017321916423,2.882384927193228,-125.1858235787923,0.4802472759251917,-0.504704707827652,-0.08951337645088674,-0.09101563762966157,-0.040446068188530936,-0.16176476544699656,nm,0.0
206.985288,-31.579458912762256,2.342531044519967,-126.00719463525802,0.020254978163129652,-0.24366308938266523,-0.4008566593126739,-0.132185005480407,0.022654380459387412,-0.16510952335518386,nm,0.0
206.99479399999998,-31.032042827984817,1.6416575317016906,-126.49271808680406,0.07856699697803224,-0.3371718217334046,-0.16513376784110256,-0.19187066045382042,-0.003069236005940207,-0.09934738644308395,nm,0.0
