timestamp,roll,pitch,yaw,acc_x,acc_y,acc_z,gyro_x,gyro_y,gyro_z,markers,motor_input
190.503746,4.365188203269921,-7.910837119731806,-100.9664629748156,-0.15469412039298955,0.16637530924730945,-0.11269168750456074,0.10505338632643722,0.31945664262501794,0.003045355861212764,nm,0.0
190.522768,1.2029995294870526,-7.60425052469497,-100.3659973442123,0.07026292393264742,0.5649488932735711,-0.15767662761328652,0.07120764511484266,0.27425890552544807,0.011513650840310318,nm,0.0
190.54176900000002,-1.2633463010613153,-6.557155159884769,-100.52060568959413,0.23924136948047883,0.7641280971652171,-0.1545637424749253,0.16147055201970303,0.19468784157589827,-0.07681961085613197,nm,0.0
190.551273,-2.2247072899226303,-5.616651242370075,-101.04779746120754,0.3197205766188187,0.6232567129232013,-0.030734485163301406,0.20784951451238193,0.14843005066706721,-0.1297310203385419,nm,0.0
190.560803,-3.176124561450008,-4.437365933787687,-101.77667973279108,0.2618352824543304,0.2800270292571625,-0.1818053527986589,0.25595209543664993,0.1352072953618688,-0.1663276284306039,nm,0.0
190.57028999999997,-4.137487734697713,-3.0468669861435886,-102.5215379921945,0.290147324937969,-0.07574066487876802,-0.20728334201206755,0.29945805184257196,0.12538345952814745,-0.16535510475222268,nm,0.0
190.57983599999997,-5.3522447700956555,-1.5749512416096776,-103.08649094315759,0.29886356073880227,-0.510041633156861,0.011460900321329431,0.32800557536226194,0.16812715219283778,-0.12649168827671012,nm,0.0
190.589261,-6.827199996788025,-0.10264672361865916,-103.32152090786929,0.2681728108936681,-0.9109116599956144,0.015318054942546963,0.3411211159150396,0.21678052309555754,-0.05481016165818153,nm,0.0
190.598849,-8.365449884170207,1.3085123113852652,-103.19315016656091,0.3793422367080685,-1.2303006645030967,0.1657200036351225,0.33225534750870944,0.2316769930412944,0.025674784292869634,nm,0.0
190.61788600000003,-11.668998837799323,3.6194730070917043,-102.4006068578791,0.6691138737126043,-1.5459270388049284,0.1396333402251591,0.26730933356725145,0.28107478770368066,0.09846343629884657,nm,0.0
190.627402,-13.318915004159777,4.580166739165764,-102.18521428664336,0.8313932766195865,-1.6986603775034592,0.10061097193385367,0.2445665502307855,0.27762161070669367,0.06419149018038418,nm,0.0
190.63673200000002,-15.015958858035493,5.39456232171301,-102.34367036518037,0.7905363257927689,-1.9025201946338473,-0.11075459909667525,0.21765127335359036,0.292811359001627,-0.004444979327528265,nm,0.0
190.64623099999997,-16.512117641175234,5.908619099276496,-102.92081946926905,0.6880328654759159,-2.1783102097805394,-0.1561990800340958,0.15219249635315535,0.26504018413248637,-0.0682374646684954,nm,0.0
190.655748,-17.778451455103887,6.142817832363216,-103.51895830469087,0.6517446361797281,-2.4785251497255074,-0.05178902861720713,0.08957873792465813,0.2316643171202437,-0.09487513635261535,nm,0.0
190.665243,-18.942523497333887,6.179852003571658,-103.5885759952153,0.5436156390223955,-2.4945812150640703,-0.11990205199384256,0.04700512689681809,0.22065556652880222,-0.06668376400381844,nm,0.0
190.674771,-19.990207890495306,5.958506654464497,-103.23349835945304,0.5916971399145021,-2.28834699631653,-0.09761972834728087,-0.009279957991354698,0.2100081664075324,0.008647777195047644,nm,0.0
190.68427599999998,-20.911943253877467,5.494549232039559,-102.87232813404185,0.5541683909426135,-1.8793242354714506,-0.137715860685042,-0.06287710720508083,0.1965401413838012,0.08091921454329855,nm,0.0
190.693973,-21.47345935689845,4.818915442371371,-102.12532376839188,0.6583491962252179,-1.219688819624718,-0.029500889004935957,-0.12184045214966849,0.13488829652205658,0.11745854996401155,nm,0.0
190.70346600000002,-21.645259401268937,3.7422347510453275,-101.17710899353416,0.7436034518356037,-0.9100221653912594,0.030055668048894885,-0.21812939989380262,0.07280283019471322,0.12810105339125202,nm,0.0
190.722476,-21.310752379378957,1.7459448544437524,-100.75410031664572,0.41445043255006786,-0.23360252638817416,-0.18056155608985905,-0.21355158967202809,-0.03992512120703773,0.005311629246185487,nm,0.0
190.73199000000002,-20.481142988343674,0.7801239234681804,-100.97250722821144,0.35885061122947737,-0.11805570379611419,-0.1033518745627771,-0.23489422891947856,-0.13050670116612792,-0.04795702064924017,nm,0.0
190.760326,-15.652633442149927,-2.109254463625752,-102.05134636512767,0.23508269304736,-0.07557492400854138,0.2483171762928578,-0.2878197513888063,-0.3620117506801475,-0.05149048999938421,nm,0.0
190.76983499999997,-14.162061572822232,-3.1564904983702586,-102.29976893708466,-0.023592190087496606,0.13448770021638887,0.22795029960152197,-0.2815028342893458,-0.25088945937750373,-0.03754184817788727,nm,0.0
190.779347,-12.7409009869488,-4.0782858024428545,-102.53013579047659,-0.14095379519564108,0.37346601436496035,0.08862029518475495,-0.25493763208350306,-0.24134708965801552,-0.029888042833781613,nm,0.0
190.78885,-11.369384174443763,-4.828822633781599,-102.78929788458414,0.11217269518339217,0.6523185242210774,0.45859927824216173,-0.22022901395850053,-0.23786946301691483,-0.032493353012215745,nm,0.0
190.79836600000002,-10.502140528642181,-5.429762743540597,-103.11932877476265,-0.01717551026350957,0.9535854281271594,0.3230483188850691,-0.16962568626874097,-0.14520610420530322,-0.05259925493070795,nm,0.0
190.807877,-9.593531597656812,-5.951597740097586,-103.43819555629796,-0.11067513378690866,1.273923505074207,0.0960632261170858,-0.15685100192964738,-0.15579645241445636,-0.04798418157436513,nm,0.0
190.81738900000002,-8.293303019444053,-6.459152736631533,-103.62979398242267,-0.1139566632703099,1.6435786940954589,0.1263633867621093,-0.17290868066098036,-0.23147815356564266,-0.01261848272412667,nm,0.0
190.826723,-6.478219536943957,-6.8717686183774305,-103.62954550430304,-0.33513514007257406,1.8650616136428317,-0.05237381017879319,-0.17879900530833653,-0.3350689198544931,0.039497350400158455,nm,0.0
190.83622899999997,-3.886822376278588,-6.993612492747504,-103.44635948261663,-0.3781175584859709,2.0864669816953274,0.11233882088052817,-0.1575782887927079,-0.49895204352227884,0.09603723474510474,nm,0.0
190.86511599999997,4.776121129366368,-6.172037187887386,-102.71027982056329,-1.034282688160981,1.5840322925850763,0.4521050108150637,-0.05413159246026376,-0.563808271395625,0.10279134578103308,nm,0.0
190.884134,8.752723050224636,-5.574331014980322,-102.07435913139611,-1.4128489285483068,0.8776741148989257,0.22895013267092276,-0.04732563483869726,-0.3346579522623106,0.10063981613264461,nm,0.0
190.893649,9.773884663126582,-5.748419425108755,-101.54620249369468,-1.4104655184638661,0.6382061211986498,0.2168388552639541,-0.08767225599866205,-0.19679099113081192,0.11978714213773298,nm,0.0
190.90316399999998,10.02141561660002,-6.149401379269139,-100.85886479071985,-1.2713426522542404,0.572747624814823,0.2505522525676541,-0.10016769178183832,-0.037703075298180844,0.1366291663578753,nm,0.0
190.91266199999998,9.47562099235503,-6.64658032845671,-100.11006624663248,-1.0497765538849166,0.5867854643012623,0.18974981582677866,-0.08996100704081271,0.11979180059156953,0.13178048006618082,nm,0.0
190.922183,8.318153893940114,-7.137046162804376,-99.44612263487367,-0.7598462798798145,0.6372848882007729,0.09042919197609121,-0.06961084015875896,0.23817933193718338,0.09943206226530263,nm,0.0
190.93168699999998,6.734995608897807,-7.5624984696212305,-99.00630710233862,-0.5073103673596181,0.6436078433844806,-0.019549072829117584,-0.04571717830608043,0.31868151980507264,0.042168693301160826,nm,0.0
190.94121800000002,4.934911765011574,-7.87852739701519,-98.84475709678652,-0.2978124196853728,0.6217060639362126,-0.1456891829048888,-0.01930455782003307,0.3573735812261276,-0.021021490533079418,nm,0.0
190.950727,3.0736054296664195,-8.086903372406505,-98.91834073070288,-0.15125462109423976,0.5547230025919443,-0.22224533197119287,0.0033693407106988797,0.36589157488866575,-0.07104095347456857,nm,0.0
190.97924300000003,-2.249009027572395,-7.772505964342567,-99.33346046432808,-0.011481345132120051,0.34872782602057384,-0.23738285664464803,0.09686425142854625,0.3063870355331167,-0.05989780792938947,nm,0.0
190.98876800000002,-3.5638833724670165,-7.283920730984452,-99.26061997137852,0.1590226526301595,0.2944696756615986,-0.11000114283665322,0.12577802432759858,0.23695987471986193,-0.023211523931276994,nm,0.0
190.99828499999998,-4.764494611535475,-6.5877451193461924,-99.15267035883394,0.23881120978828171,0.22244137801446948,-0.08827021974334415,0.16278728672493026,0.20850339329966483,-0.010548591499989431,nm,0.0
191.007803,-5.734165943389305,-5.701420892452747,-99.11859049286994,0.28257281227872455,0.10397106144691558,-0.1103823443733126,0.19282789121736094,0.1577246875788178,-0.016988628053689756,nm,0.0
191.01730999999998,-6.408267229361726,-4.668875475451785,-99.24932060523429,0.42507986203729353,-0.06647021009533578,0.033274563624399366,0.2124737225102494,0.09510862869882404,-0.0413772168045003,nm,0.0
191.04582100000002,-8.208852177764417,-1.045819336909262,-100.63035853073836,0.4969050233428503,-1.1472813463919727,0.2178134731380445,0.2573466000718882,0.06967632156485323,-0.11551616409919951,nm,0.0
191.05532300000002,-9.069435827936951,0.18681938916192498,-101.11882120664049,0.48923293383872124,-1.5408344739497926,0.17225136196442087,0.26157628411307315,0.11879229128003466,-0.10207037056676882,nm,0.0
191.074196,-11.71969612663818,2.021558907204155,-101.79514794586345,0.618502823417603,-1.9736587119839124,-0.07876000766175865,0.19039847757241393,0.2604787659572104,-0.054975799160969584,nm,0.0
191.083702,-13.269893595647135,2.275871256739863,-102.13282595752047,0.6901179772406362,-1.9726160516603668,-0.13573511850559275,0.10055877028239754,0.28938497498429483,-0.05827493787353361,nm,0.0
191.093218,-14.6966886627875,2.167383734012794,-102.57134166940392,0.7420223154487416,-1.8762432502594784,-0.0364452084540691,0.02621568553172151,0.28010745882615273,-0.07870406396564157,nm,0.0
191.102741,-15.957934557141837,1.8100835009865763,-103.18113900494807,0.8030553896318258,-1.6713134289605325,0.009749814900286953,-0.026942535497112667,0.2587251240068833,-0.09165538913961907,nm,0.0
191.11243900000002,-17.062323633150534,1.2399934576703686,-103.73180947922988,0.7978827047547209,-1.4465232364097536,-0.03574871012392333,-0.07318736717416871,0.23843187345270211,-0.0904017386978068,nm,0.0
191.12194200000002,-17.928815729965283,0.5248188020086407,-104.18132915159843,0.7916700490993375,-1.2677948965191914,-0.05521719540879061,-0.11095510572768404,0.19982939931117089,-0.08842457399204393,nm,0.0
191.14091800000003,-18.6132156380236,-0.9991243524106155,-105.10374662280671,0.6538095163964049,-1.0148976134991237,-0.13291312634741057,-0.15545890822316535,0.06776117836951047,-0.11490715981043109,nm,0.0
191.150426,-18.504762438582905,-1.8642990730747133,-105.71356329088961,0.5187954258346839,-0.9131405577249777,-0.16070827078784045,-0.18670299844232016,0.02236002972522867,-0.12225447967160012,nm,0.0
191.15993799999998,-18.131342134140503,-2.8763181322284246,-106.31077669418792,0.39641599414002554,-0.8313489796180125,-0.13566424635700655,-0.22933908424920707,-0.018527038785501333,-0.11715399898050846,nm,0.0
191.18849600000001,-15.232377706592846,-6.103605544879133,-107.97305872485389,0.07561575442140782,-0.31153344639223496,-0.01683010016574976,-0.29001663106547343,-0.18612147420319064,-0.08415666788474442,nm,0.0
191.198006,-13.605011168448296,-7.057519971304265,-108.52311034815708,0.033171141283738124,-0.05073819339664659,-0.03860476181360938,-0.29673848021453814,-0.24989508438034552,-0.07396792453751741,nm,0.0
191.207507,-11.723923371171725,-7.908441793847418,-109.10086867725981,-0.03547093566140394,0.20429405744625356,-0.14976037210438695,-0.2956568749830221,-0.30079127003789974,-0.06810968211503934,nm,0.0
191.217024,-9.539780127887244,-8.604360348336888,-109.68741513232264,0.1026090797655054,0.395567259432377,-0.05535691006904264,-0.2890657640836914,-0.364186679889699,-0.05649767982750249,nm,0.0
191.22651199999999,-7.699548143787893,-9.072726949696854,-110.26217944873444,0.26576263000966754,0.5684590598664835,0.2930113060526809,-0.22638697664302468,-0.31233198803751683,-0.06066471145916378,nm,0.0
191.24553899999998,-5.4234092431520535,-9.142303333914482,-111.03776528731301,-0.09511513491141718,0.7230845620739254,0.0020862734093216556,-0.07721205931100943,-0.22792552219552917,-0.01998735257661463,nm,0.0
191.25504600000002,-4.442815621103126,-8.813099354428353,-111.04516357215792,-0.07150599093623797,0.656499043366189,0.12971129721906016,-0.02184713236321142,-0.20681383154733138,0.026230123613664637,nm,0.0
191.26457200000002,-3.753040916081983,-8.333779749938039,-110.78463944044458,-0.3046500141929725,0.603201931112467,-0.14080142123043343,0.027221854849832312,-0.16404641285293292,0.06961698026391401,nm,0.0
191.274075,-2.781440946496207,-7.848009443014641,-110.26556327481772,-0.27078100995622856,0.6151613044939419,-0.16359793652431773,0.009967962420485234,-0.21685198644755896,0.1279097561592613,nm,0.0
191.28357100000002,-1.6308999596949005,-7.536172807724223,-109.59519570873795,-0.2836459626230967,0.6868799080352267,-0.0910626214336157,-0.03261046051170445,-0.23848312573032818,0.1613781808025753,nm,0.0
191.293079,-0.22874278039786988,-7.403704769627962,-108.88542764562642,-0.3937301124372394,0.8135184632213863,-0.27802592318030445,-0.08004840071224702,-0.2743709725413429,0.17462441422556252,nm,0.0
191.302602,1.6117394993190366,-7.413362403765145,-108.1945722228249,-0.3657106691775392,1.0228710531221819,-0.02034091410116887,-0.13122144464335533,-0.34893578799293573,0.18148373547406677,nm,0.0
191.34064199999997,9.32616691483759,-8.049363085816772,-105.01026316375513,-0.8152682268326512,1.4689064524802686,0.24502085619770606,-0.11935000166895272,-0.3196081484614651,0.24458546939861708,nm,0.0
191.350132,10.626429449965748,-8.081281648953773,-103.81104199011723,-0.9247711632350324,1.3445213915958198,0.06227674798540752,-0.08239160033362798,-0.2526606293329496,0.2706251427627746,nm,0.0
191.36917000000003,11.99161572515151,-8.018770472506771,-101.20177446484028,-0.9328010996724396,0.9484554709167093,0.08496656285883411,-0.020386596205507736,-0.08399308543444851,0.2647394545214488,nm,0.0
191.378683,11.860366132148265,-8.013683953987643,-100.01680808087703,-0.8998968735926227,0.6924891793477431,0.01023390077140279,-0.0057744129913936855,0.019997179934570473,0.22735431610281928,nm,0.0
191.39769600000002,10.220682859968173,-8.118051674378234,-98.17148173079818,-0.6353880734767594,0.3800148017640701,0.06553262036953537,0.006218661880163435,0.2061777293992333,0.12927891679045092,nm,0.0
191.40721399999998,8.789652530045029,-8.245109164054721,-97.53135939597684,-0.49578584522575053,0.34100129805880425,0.048959275005453586,0.0018581519639571397,0.27867409651569885,0.08174453131085303,nm,0.0
191.46426499999998,-2.081973315412136,-6.412525952369621,-95.58207100282696,0.0758349766477171,0.04465210740441571,-0.23324536166527118,0.1610822888890306,0.28228930820624576,-0.0054624536216249745,nm,0.0
191.48333699999998,-4.164844768950527,-4.780075704192824,-95.43330425352023,0.26591668957440373,-0.23978024607044682,-0.13653112245364066,0.17151778790297909,0.18423117469936762,-0.01556429173679859,nm,0.0
191.49285999999998,-4.675890820593833,-3.9672145655102704,-95.43167511400223,0.2962129651413861,-0.34456827955250147,-0.13897804849650466,0.15905552363142503,0.08070515010979273,-0.010931961509829684,nm,0.0
