timestamp,roll,pitch,yaw,acc_x,acc_y,acc_z,gyro_x,gyro_y,gyro_z,markers,motor_input
204.503181,-4.055951847677773,17.84352374931761,-121.66286998164267,-0.07222760437298092,-0.007678570919397346,-0.010029144710500787,0.0,0.0,0.0,nm,0.0
204.512691,-4.090742319987617,17.74817229497264,-121.58709654921115,-0.07254349866835488,-0.027132821329631605,-0.015986390492102973,0.0,0.0,0.0,nm,0.0
204.541189,-3.9381730003228514,17.477051350505022,-120.91477675952329,0.0,0.0,0.0,-0.03882069236595807,-0.002271915352240757,0.034488857003044354,nm,0.0
204.56972599999997,-3.5815791059890443,17.228638846611425,-120.82183050754423,0.04369686390938116,0.07323871096699132,0.026446463158069512,-0.05464427060570333,0.002541617363792025,-0.026508086872561693,nm,0.0
204.579237,-3.5303347425608607,17.13669302219304,-120.93043197604206,0.0007156466443927329,0.08354489718453613,0.02494314109243749,-0.0503411983675548,0.002811447045180332,-0.030614603744904736,nm,0.0
204.588738,-3.5102576425086607,17.060798865708442,-120.99226118805815,-0.03329949002598025,0.06543951194911683,0.047246495241267554,0.0,0.0,0.0,nm,0.0
204.598241,-3.491203288769772,17.005204168117114,-120.94545163064487,-0.06318805680205751,0.03636888951315421,0.004252797054444977,0.0,0.0,0.0,nm,0.0
204.607765,-3.461807640368991,16.980373134942464,-120.77336521881666,-0.04049684246147552,0.05156302705997405,-0.07723078355817006,0.0,0.0,0.0,nm,0.0
204.61720999999997,-3.425551136539018,16.886570879016894,-120.5028921062107,-0.0435091351987159,0.02711337413256682,-0.10639964656481701,-0.03250958777273585,0.005463876277741848,0.04618857789781462,nm,0.0
204.636223,-3.361864585420591,16.471349948691245,-120.03480477714243,-0.10698595306532169,0.005255335014635463,-0.1976096944246577,-0.07006752861767555,0.01683486825678451,0.030320618734618745,nm,0.0
204.64575,-3.257404158896529,15.871716977546823,-119.91082022666167,-0.11725172050914884,-0.08733769066207867,0.1150190306116048,-0.12691752918081686,0.04423163481252506,0.013207497714199504,nm,0.0
204.65532499999998,-3.510893296325033,14.94051043253842,-119.90360475430465,-0.18381502464988958,0.08569241562617608,0.0650426821868811,-0.16435615005733636,0.09681602330698574,0.00960323093973847,nm,0.0
204.67426200000003,-3.6846820585586038,12.780081683050728,-119.74597597426887,0.052588762042733585,0.30619423689675995,0.27844034694874936,-0.1850585984405028,0.14669441908634306,0.021562798929568583,nm,0.0
204.69329000000002,-4.6587385595789215,11.293189267319885,-119.34049011637579,0.1667284235373109,0.2839035047359219,0.14368086114186882,-0.05809557305782412,0.14114630018672944,0.06864481203105835,nm,0.0
204.702778,-5.376672661330648,11.051031910078938,-118.9254762288584,0.255047494604474,0.1543377775558219,0.19188568015905183,0.01302031916292241,0.1478176518762895,0.10602564157714953,nm,0.0
204.712301,-6.299024886296431,10.909509986552372,-118.3958326943144,0.23356152503458266,-0.0005140964414743157,0.0697049451292873,0.04872563937767644,0.1735694612120734,0.1365047175157068,nm,0.0
204.72181200000003,-7.278570865770354,10.834225956395048,-117.8184956237,0.10970571029246956,-0.06428128233206339,-0.16707727436268802,0.06400207859991146,0.1777451498425086,0.14808116831238335,nm,0.0
204.73130999999998,-7.904041180744793,10.681682284178185,-117.24520039933257,0.21884067309710628,-0.13263161092150533,-0.22292456658240334,0.01628152110131178,0.12381070492302318,0.1338032146934689,nm,0.0
204.740916,-8.039994626242688,10.176467999537136,-116.69150070827781,0.324952191014251,-0.21014568334656247,-0.014694390370256057,-0.04673418015965887,0.14025006699888384,0.11113230809388046,nm,0.0
204.769378,-8.830230271114864,8.215697286767238,-116.26557760441405,0.42257049037876254,0.016624989160822303,0.05335987761002477,-0.11363120643697214,0.11772505477896374,-0.005309272361346998,nm,0.0
204.778879,-9.191356036508658,7.520942809007214,-116.42530595905517,0.3143139013749173,0.04661759241010159,-0.21526450370599612,-0.10657818114124001,0.12610426957314724,-0.02583441148849049,nm,0.0
204.78838699999997,-9.414537965700045,6.885776998021077,-116.62448198884341,0.4569177558074777,-0.05669187058184663,0.10509536699575751,-0.10772708450588397,0.09665454993497662,-0.037916405779181206,nm,0.0
204.8074,-10.27859723760879,5.357551656027403,-117.24556150457992,0.6379021922590609,0.028088992096427463,0.5611700073222743,-0.11704204761934096,0.16177500751623017,-0.06762105123229586,nm,0.0
204.816904,-10.731864366591816,4.734928331484591,-117.86844937672976,0.6019985083897617,0.09709319742757325,0.43076827559709974,-0.08255149715715153,0.1382057387885705,-0.11985147258709099,nm,0.0
204.83593399999998,-10.991844361595833,4.437426538556253,-119.9227107543538,0.13444438174285966,0.06730963662807371,0.18751133624643518,-0.02757428843631669,-0.0016112290293369812,-0.22836841133606206,nm,0.0
204.845448,-10.500330760219997,4.349230651716323,-121.02915523271271,-0.1922780428513455,-0.04460740217351385,0.0591856793662081,-0.0787961712936974,-0.07451057872894348,-0.23219057587917497,nm,0.0
204.864451,-8.92567720429773,3.7155133248023415,-122.73153746269946,-0.33957346159483304,-0.11118183609461836,0.3117396418214662,-0.1469205019937057,-0.05718644823029712,-0.16587683895367714,nm,0.0
204.87399100000002,-8.211211557597542,3.237786668978957,-123.37097109246375,-0.5873387268504433,0.2202197248986788,0.025501186838198093,-0.17173628532269997,-0.06593975106175322,-0.1402028014456719,nm,0.0
204.89301600000002,-6.119979627902313,2.417900078273786,-124.78282301391882,-0.3814642383548884,0.560697359891591,0.36131242179603706,-0.17417190705254618,-0.09832856132520505,-0.1714150692334392,nm,0.0
204.912043,-4.80388357084935,1.767105434758144,-127.1285576946383,-0.4137450078107305,0.629231131595881,0.45548179515428927,-0.13440318120604028,-0.057453227452010674,-0.2666887534728689,nm,0.0
204.921568,-4.929666838207413,1.4993341184018512,-128.52016766711802,-0.534694514008837,0.6026162577796029,0.274267187838416,-0.0403084855620051,0.05537029726129972,-0.2937429434973314,nm,0.0
204.931074,-5.611923437939346,1.2162077600589245,-130.00876035788627,-0.6196691868435169,0.5532165247061184,0.08214243291137492,0.02929433450905811,0.14457532124074676,-0.28437034653566323,nm,0.0
204.94057999999998,-6.685084871957929,0.8658414692206049,-131.33006710136382,-0.5168435236101131,0.41628087428082833,0.07728633582233806,0.07367945006530972,0.21190985446165836,-0.24157375541102907,nm,0.0
204.95010699999997,-8.243448902436157,0.46683109283024204,-132.4498063997616,-0.419735748126884,0.32041564939318445,-0.008961143502939249,0.13598838596187554,0.28899391279401176,-0.18573252079630836,nm,0.0
204.95961000000003,-10.088501066365598,0.12158672170067668,-133.2417356939922,-0.24910320587134954,0.19796830264709378,-0.038303158605857326,0.1875122137667138,0.3215169997696503,-0.1348244013792156,nm,0.0
204.96912899999998,-12.139074601145122,-0.11045833034868958,-133.90325500111206,-0.027715491875236226,0.0816118391241226,-0.0856086418030336,0.23637354222376053,0.33324896178721736,-0.10531408038023235,nm,0.0
204.978628,-14.335002731486261,-0.2664810754536544,-134.6014108373517,0.11215933152946603,-0.007223780546245627,-0.17735258778153792,0.2716371875413258,0.34052742264901337,-0.10282271235953269,nm,0.0
204.988172,-16.48211592817884,-0.3691267740432063,-135.35738388632356,0.2260056733783958,-0.14466379226544823,-0.18897861714862524,0.27645059787125786,0.32269130403950497,-0.11982201498614829,nm,0.0
205.00721000000001,-20.87325669966959,-0.2786628281776612,-136.9887440579341,0.09820115249476341,-0.4956263739151552,-0.16244873298577767,0.3342965984622594,0.30260749160647,-0.16319115720355415,nm,0.0
205.016715,-22.89562172581983,0.04359758418386388,-137.57751066156519,-0.080990795888898,-0.7438143246692708,-0.2092428913181815,0.32768507121517476,0.23290857749084526,-0.15494407081126677,nm,0.0
205.02616700000002,-24.719579457717224,0.5921367994421345,-138.14196621424225,0.009688874128243423,-1.3036354567468473,0.0008526486041574657,0.33118083722459385,0.16904509541601032,-0.12777633049329817,nm,0.0
205.035511,-26.89147519055827,1.2817936196687072,-138.59197926608076,-0.23036122664672418,-1.5151824241677514,-0.1588124801634764,0.4035029115635242,0.1911326923496403,-0.09265997858682948,nm,0.0
205.04501000000002,-28.929268003254606,1.9951451214271065,-138.83176776287266,-0.3356259893422566,-1.6835100711935567,-0.29988636457369233,0.38751591808322516,0.16728319157613825,-0.04677099005638166,nm,0.0
205.05453000000003,-30.740536623078683,2.57613378643128,-138.75927650035078,-0.12314121144791376,-1.9612540531922547,-0.2860316475193766,0.335967914160148,0.15684287408009948,0.0013950988294205672,nm,0.0
205.064025,-32.56214736808404,2.896361733565212,-138.47532259686756,-0.1502841015655035,-1.8127599521623967,-0.42808731554055673,0.3023326952538284,0.19828692666440736,0.04184903950499138,nm,0.0
205.073538,-33.91622413125981,3.0168066299664553,-138.0048142779398,0.17049783529887128,-1.8303120559576498,-0.3357253087980549,0.20460166682669967,0.16763830513546066,0.0697882915916384,nm,0.0
205.08305800000002,-35.117182506879715,2.975815525442128,-137.38590092474251,0.4781614072050972,-1.7540912695605597,-0.2693431829649854,0.15849633992437887,0.17283529817118462,0.08355987245979282,nm,0.0
205.10207899999997,-36.953155696599495,2.443160391793215,-136.03665679731256,0.8338757110951335,-1.3210231642156751,-0.1739091234961172,0.04594891025741432,0.15354025782560365,0.08968533369202372,nm,0.0
205.11176300000002,-37.63735668703473,2.054610751805166,-135.22467926698528,0.882386153409942,-1.0792551959036434,-0.15709967466247685,0.029640680229845843,0.1556408936277691,0.08511272745815286,nm,0.0
205.14028199999998,-38.959125727395346,1.5803273303915546,-133.95311391023367,0.5201820037530824,-0.6117178217101361,-0.24782423503827036,0.04860442237170023,0.05648511155243581,0.09561912888337597,nm,0.0
205.14978399999998,-39.309616541796956,1.8088900597390083,-133.50004970353186,0.39795879650097615,-0.48411917677310873,-0.26302785751368324,0.06827247629746443,0.022720693655147214,0.09622145714305312,nm,0.0
205.15929000000003,-39.59019431056688,2.094622496860706,-133.0466626912536,0.37852492542617155,-0.39310760669730493,-0.32337071369790565,0.06682905948308593,0.00519204419546353,0.09615297239465817,nm,0.0
205.16878599999998,-39.935262880065785,2.2974133157844214,-132.64232625136293,0.20160564514120788,-0.11948639752490883,-0.4483119595859098,0.06338743916743403,0.02641976209138572,0.08711580276547176,nm,0.0
205.18784200000002,-40.20198162661933,2.129467899985059,-132.21111206623357,0.512198222029559,-0.009213070961858643,-0.3135311042386315,-0.014694945337491274,0.06437168457934668,0.03025447083270391,nm,0.0
205.19733399999998,-40.56041342488363,1.6523169097304813,-132.3078759255314,0.012809862864152118,0.6281160091469614,-0.46945657613811687,-0.035771255352251785,0.12066825975163101,-0.013290290616086747,nm,0.0
205.206851,-39.70962509556263,0.8963083911753381,-132.4705658371588,-0.036614874730961894,0.989012598431923,-0.3163105558075033,-0.23992509940948348,-0.020299346628341614,-0.0327447000637645,nm,0.0
205.216146,-37.46676781322225,-0.13413496645953346,-132.600158184759,0.04779546081498412,0.9926864859580082,0.17767636208241064,-0.46898204170729774,-0.18784062439793134,-0.025680747502959515,nm,0.0
205.225498,-33.71283641257838,-1.0540997754251333,-132.84190222597388,-0.7208597353266879,1.546441645076886,-0.02125729096640776,-0.6586734285212863,-0.4234641084876293,-0.03804235002241935,nm,0.0
205.24468800000002,-21.765370796612455,-1.8123107019495237,-133.8211691116021,0.12179738040424067,1.2298831805271901,1.309690682086801,-0.8854999347783659,-0.82119518451544,-0.07830909672195303,nm,0.0
205.263717,-12.067754354717444,-3.104830294071789,-134.81876066923576,-1.02824214208102,1.8908046487669306,0.8591456297023811,-0.7820054825287533,-0.6096159702572813,-0.03953951290992557,nm,0.0
205.273227,-7.294320814065609,-3.056791935469096,-134.9840280574319,-0.7748195344329858,1.9428407626801636,0.7627407114936254,-0.6802329285062925,-0.6788489083889714,0.015296618027862433,nm,0.0
205.292065,-1.141125981003803,-2.7483728692639944,-134.413701935093,-0.8585652515439518,2.3776413246502326,0.2710586527879848,-0.36532149067355457,-0.36628036290243005,0.10763994089501841,nm,0.0
205.30175999999997,0.40339434470210717,-2.731916919013733,-133.7078289946477,-0.6555581124873112,2.2241863709854814,0.49218344488873317,-0.22548131503826527,-0.2210027596298569,0.15143914269574363,nm,0.0
205.31145,0.4113990732660722,-2.630717740632676,-132.88187121175778,-0.5620490347870502,2.1196814880763433,0.2814596604029093,0.0006009752664955922,-0.011955215978042893,0.16076239718448748,nm,0.0
205.32094300000003,-0.646731786020815,-2.6823705136536167,-132.08589629457978,-0.5610562849030515,1.7923026291115265,0.3760105805961817,0.12216895939532942,0.16606873168617958,0.14508368587283096,nm,0.0
205.33996900000002,-5.330886292146526,-3.0645267826461438,-130.80682963456272,-0.3512798700636681,0.5880652768450833,0.5157945211279236,0.338068366519881,0.4578016913681206,0.08234079145831469,nm,0.0
205.35901199999998,-12.304204137566053,-4.1115150726890315,-129.88332566272987,-0.02210228243038954,0.02152583453661928,0.032626980343178416,0.3208989190831731,0.6322300153656979,0.04173976396148475,nm,0.0
205.368524,-15.802680306847899,-5.237030641940437,-129.48241217466708,0.32866258577280233,-0.06778372993135047,-0.004726366329497336,0.2585964944754749,0.6842256063324047,0.022217286785504362,nm,0.0
205.37802000000002,-19.316855001289785,-6.536881096372813,-129.1538827008496,0.4207743638356879,0.1528640963532616,-0.3583854996156114,0.22834727053839096,0.7094410796854733,-0.006443640895239923,nm,0.0
205.38753599999998,-22.073201705353338,-7.8613342682524925,-128.8317392939291,0.5073787523452897,0.33648272258439244,-0.6045241503891513,0.12460911148555674,0.5954795262928064,-0.003957215647592062,nm,0.0
205.39684400000002,-23.945195615970416,-8.991782531384459,-128.5474906133995,1.0524198000889349,0.1288350722876529,-0.3886807155660477,0.04129778069622191,0.43394072231294145,0.003235791523833791,nm,0.0
205.406391,-25.732736751764545,-9.77954523861292,-128.41808488451338,0.854487766761807,0.19574534103739355,-0.6569445572311662,0.0825235600654774,0.3776413205393483,-0.03071901371347307,nm,0.0
205.444405,-29.195063501577003,-8.608791228834942,-128.91706308888055,-0.08252870223966038,-1.3770756098715764,-0.28253667217712636,0.21833687333249954,-0.07889977358025906,-0.06648756223374343,nm,0.0
205.463424,-29.32010865718173,-6.680181135000354,-128.61603988116116,-0.44249521119693835,-1.8221431953671914,-0.480889002404531,0.12981409677645286,-0.07232021599851651,0.0557933613533749,nm,0.0
205.472945,-28.793956208528606,-6.172949397962327,-128.19212236622448,-0.2133958383609958,-1.9692566005448477,-0.39872726119731333,0.000805827133609909,-0.14221080464151598,0.09871115188040563,nm,0.0
205.48245,-28.13329950840191,-5.788040717667509,-127.93570993837845,0.152787106903588,-1.9142858761164507,-0.12226947882250495,-0.034228157153051594,-0.14825515717534635,0.06697859134069398,nm,0.0
205.49195799999998,-27.714111577868852,-5.6375831516051065,-127.8216354340999,0.1408142678355859,-1.7801243259567532,-0.1206559877305935,-0.04131279406149233,-0.08160326920762011,0.03294585365293653,nm,0.0
