timestamp,roll,pitch,yaw,acc_x,acc_y,acc_z,gyro_x,gyro_y,gyro_z,markers,motor_input
203.504314,3.893281073613097,9.622610239478131,-119.59643412010888,-1.2183836813401792,-0.8247526199624043,-0.22033634027332796,-0.16855432706241547,-0.09339309583025021,0.17932375126852182,nm,0.0
203.51403100000002,4.477347320727425,8.950445247920443,-119.0386350205017,-0.8745966263633824,-0.5169549675858705,-0.14781927846774112,-0.18651490089174877,-0.03325934217837097,0.18056148608387668,nm,0.0
203.52354799999998,4.840352629454511,8.335091936548702,-118.96735302407725,-0.6198820878212995,-0.18569383245415652,-0.18683804494495398,-0.1551220951621206,-0.0018058426248620846,0.09803230233783661,nm,0.0
203.55207399999998,5.575920156669243,8.176210286045766,-121.65434246164271,-0.6132437317523993,-0.06420891476482597,-0.407762125823334,0.01835565273218318,-0.05881383863578345,-0.23478209304128153,nm,0.0
203.561585,5.786799713853409,8.779394440755938,-122.68860296024141,-0.7138788474118312,-0.19580717011708715,-0.32701109971477,0.06769493384426067,-0.09817544544434023,-0.22022511853466684,nm,0.0
203.57109799999998,5.899250212203472,9.607502736816842,-123.1952940194972,-0.7012848115446303,-0.269169759366076,-0.27840894144831146,0.11494620573892876,-0.10703891053245106,-0.1316050411096227,nm,0.0
203.59005800000003,5.442466975195054,11.803392429125951,-122.67557854029589,-0.0017921012534461533,-0.057273458765994795,0.23532712453571542,0.22971678143969826,-0.059847271431931186,0.08397856198294415,nm,0.0
203.59956300000002,4.141441108631643,13.066823683550414,-122.2876052430339,0.6054308931715875,0.3941287698815929,0.5342262337098599,0.3378378593716054,0.08064827214795911,0.12674864202302052,nm,0.0
203.609075,2.0896841900110887,14.28439526141668,-122.28132019796506,1.247957024841265,1.0263671004517099,0.8259441124220609,0.40698421080989433,0.2093218485678562,0.09167307256869227,nm,0.0
203.618599,-0.4821350509535202,15.313021672147258,-122.87372237161289,2.2842770154018734,1.0868536232248418,2.286878265750904,0.4291138924643475,0.3109570299133479,0.006663390612486735,nm,0.0
203.62810299999998,-4.938459989504447,16.12559033818888,-124.01001647890615,3.08497247269932,1.1375960605588424,2.61724468453847,0.5962309527567399,0.6297088201851943,0.008912355042452885,nm,0.0
203.637618,-10.370400238669685,17.09533615960399,-124.97356772557497,2.954855700687744,1.5474627704565154,1.7049813028577603,0.7369828583176545,0.751957299348902,0.11372871670137573,nm,0.0
203.647118,-14.440530429070412,18.463712847996007,-125.1941300577806,3.1704618364182573,1.269687671057128,1.416753194781134,0.6568054811602095,0.48043209541172294,0.2010079572502254,nm,0.0
203.665961,-20.27568494077865,20.412054005958396,-125.48217933773162,3.070273115429923,0.418346274286748,0.3307038490707023,0.40168971951964294,0.3733550525874372,0.10971835673076212,nm,0.0
203.70400500000002,-26.618848074301084,13.318241130829783,-132.83135244634346,-0.14208566864523348,-0.4058108320321701,-1.0010746944734934,-0.41223553618891656,0.42369441917930845,-0.335165550469377,nm,0.0
203.713516,-25.50546209268511,10.759200769935994,-133.78829651900213,-0.2830446679935105,-0.4267305803422442,-0.584573283318914,-0.5360219693522544,0.19696783999871767,-0.23862989073508964,nm,0.0
203.72302900000003,-23.730486460974188,8.87013102876054,-133.79830083551218,-0.15378694845104843,-0.17333147775158592,-0.2712721476091069,-0.5289724819428129,0.01315358410266321,-0.0633493671400623,nm,0.0
203.73253300000002,-21.579270604585915,7.635435187479664,-132.91770269106246,-0.07515634650319442,0.25668404395571764,-0.3384740862277768,-0.486016871256638,-0.13620142855709233,0.11334468665328565,nm,0.0
203.742063,-19.20230022148437,7.019134286330119,-131.57026384816803,0.40196411094700213,0.270993900145025,-0.040925789330601,-0.42235834751384865,-0.2627836469808536,0.2074717742838911,nm,0.0
203.751564,-17.447624025271004,6.86592475012285,-130.37532001183496,0.2306657682095391,0.6115339060498498,-0.317702673302754,-0.2655146707776879,-0.23975790214844991,0.19483598527600443,nm,0.0
203.76124000000002,-15.720636556517139,6.925618232032236,-129.71294714317239,0.09799349113114016,0.5373730436589021,-0.35371151475493295,-0.22535723075703265,-0.2671968668247663,0.08879275684073769,nm,0.0
203.770767,-14.226751948760576,7.062305657871045,-129.75560762084294,-0.14170966412754538,0.08476440556765862,-0.098055941037894,-0.1823050518118271,-0.24249708577369905,-0.04758598877158638,nm,0.0
203.79910600000002,-12.23934569042469,7.744619284633471,-131.55521953538275,-1.3080190792483273,-0.59095815572851,-0.362032246790908,-0.05567582547960765,-0.08602399148530807,-0.09942458676702451,nm,0.0
203.808611,-11.95143786759438,7.742612902851182,-131.3496673158642,-1.3935704140791874,-0.5960303873056544,-0.40455353744631384,-0.05144843266253726,-0.03882108675550879,0.030196279732621404,nm,0.0
203.81815400000002,-11.634126571490718,7.698704451257822,-130.50365068297538,-1.15257105795775,-0.539905956271018,-0.3159326759326382,-0.06126082798245564,-0.03827944404825184,0.15758113077757585,nm,0.0
203.827823,-11.382288523846766,7.650944148017536,-129.26603688447918,-0.8180069351732054,-0.372518653671462,-0.2753977900513428,-0.05282026999245318,-0.028974338212913328,0.23773146577967433,nm,0.0
203.837347,-11.198383001369407,7.660758894557996,-128.01588369331714,-0.5311476176549332,-0.19999761999962085,-0.2630609819311123,-0.03474640654414766,-0.02678653837256198,0.24203193021709113,nm,0.0
203.84686100000002,-11.023645542196316,7.850505980247789,-127.09617168301456,-0.3329296475763076,-0.0913208812769118,-0.2748840060203686,-0.004530191930999789,-0.04790749739302561,0.17600391163187432,nm,0.0
203.86590900000002,-10.493454998073013,8.87093837321657,-126.616381771815,-0.3600224466910099,-0.16223811069814026,-0.28995436166599614,0.046232293483605,-0.12093104266482295,-0.004033368446047632,nm,0.0
203.87544799999998,-10.072371545086472,9.68107931350057,-126.34835774996952,-0.5186507053861572,-0.2992016777368881,-0.2884817977899472,0.06801129148355294,-0.16048056109681838,-0.03161389467376913,nm,0.0
203.88497700000002,-9.438321702901616,10.700753116786817,-125.76842195899009,-0.638750304491274,-0.4160196534324778,-0.27622203050829464,0.07895752342318846,-0.2182969912482834,0.004265917598247931,nm,0.0
203.903964,-7.330208557564817,13.085785156966633,-122.89746348242967,-0.5675212259183686,-0.5143753855469188,-0.1460051688009595,0.0629185323645558,-0.3257154879825087,0.18157795764259804,nm,0.0
203.913486,-5.925590542732278,14.26674424820172,-120.61581803969254,-0.4132992446078293,-0.4225380899490852,-0.03341335339987031,0.04630468358372402,-0.3548336748844058,0.2420958928508821,nm,0.0
203.93247899999997,-2.999674528386086,16.096288584959755,-117.11344188701673,-0.057755293190797835,-0.15288303703177722,0.3159858141653904,0.005001188379215194,-0.3106302276685932,0.1765978973009236,nm,0.0
203.94197799999998,-1.9808351920743343,16.736572634139385,-116.50857957009563,-0.02929896029727612,-0.025663151202986668,0.400832952934021,0.013198194073497684,-0.23152732613989843,0.07535283892159395,nm,0.0
203.951497,-1.3633998552929625,17.269031725549095,-116.69545709195464,0.015190609702150231,0.005273539142833732,0.49648272676541977,0.029354168420377563,-0.15247132224624807,-0.027908031735772647,nm,0.0
203.96100700000002,-1.2135996845280628,17.680252789412098,-117.49400765986829,-0.025103612437506063,0.020197615150191778,0.5683468818713037,0.047404407017979856,-0.06189827703155025,-0.08986316013638332,nm,0.0
203.970519,-1.4188482353807255,17.96200721362367,-118.6586862353474,-0.0502195172716812,0.024856904164718828,0.5489418003828078,0.05562647216995856,0.009160076651196865,-0.09455716156997408,nm,0.0
203.99904999999998,-3.152962378903169,18.689486382109603,-119.65015130538401,0.29173654723671527,0.06960591678838296,0.6033669464509971,0.10743171581653589,0.09532802921259022,0.0927584498088377,nm,0.0
204.00855399999998,-4.170098942802599,19.053512217631788,-119.12929678452255,0.36144375499574555,0.19100709088476406,0.4618855088451492,0.14502747567597662,0.13419927772893173,0.1197761565601282,nm,0.0
204.037042,-7.041368831960113,19.91740108671174,-120.1215795268267,0.5212336228290386,0.0899815078994302,0.21976142055878933,0.11903170071205632,0.15840590835227478,-0.08385804944168056,nm,0.0
204.04655599999998,-7.886376470597257,19.938855635931585,-121.1564838351828,0.42231588779542883,0.03464513275539696,0.07237820991474739,0.07172967515805413,0.1368263061098838,-0.15471987324238923,nm,0.0
204.05606600000002,-8.446308326985523,19.78107585788523,-122.20565420816872,0.3334746933224924,-0.08844876973933999,0.10310404348659336,0.015445819759686435,0.10868932776271445,-0.17703172632404734,nm,0.0
204.065592,-8.792103387872668,19.50225702107614,-123.01296726167416,0.1463437744167257,-0.03968184802449547,-0.007229323364623093,-0.024946343935576997,0.08753288632933526,-0.14333292843233583,nm,0.0
204.07510699999997,-8.704717646372561,19.194030678111137,-123.40613593413714,0.09003697509923524,-0.02846057197113229,0.038205359745701745,-0.07373265084210208,0.022573920856618253,-0.08948636627963102,nm,0.0
204.10363800000002,-7.241728190437132,18.353093559935054,-122.8671139075621,0.11312499215948568,0.19377615564201467,-0.009744178708660624,-0.13011311435543432,-0.08089267680161663,0.007643987619007637,nm,0.0
204.113126,-6.522539524311718,18.10504679557927,-122.75045872495437,0.21056677510065464,0.050703110024792525,0.20677403498258287,-0.12880701035292683,-0.08564091177058779,-0.02702230541988208,nm,0.0
204.12265900000003,-6.265912413936068,17.863813915246407,-122.92155051268305,0.02794305447230425,0.1413676324503774,-0.006770424898560721,-0.0800183996760376,-0.0124385183909724,-0.05547542098211099,nm,0.0
204.13223100000002,-6.250672724373041,17.68296347576327,-123.35324423077954,-0.12596676496047815,0.12677345162975986,-0.11491692068297045,-0.07866315939449355,-0.009464103324970035,-0.09263245388439761,nm,0.0
204.141759,-6.08996366208144,17.34804341480901,-123.78508381717934,-0.1514183435105236,-0.013124102792885459,0.02524122704507043,-0.0830623425020392,-0.018505112583522915,-0.10138264264284484,nm,0.0
204.17027499999998,-6.657436118344182,16.52083691016748,-124.00092444759161,-0.1526730103613606,-0.002068980497430736,-0.04582442936955635,-0.035173935680213424,0.004833975327113557,0.04624411132424434,nm,0.0
204.179739,-6.775972649522496,16.455934784197787,-123.57250532458447,-0.08805341622541898,0.05319838808478195,-0.12229089114460957,-0.011155912589822634,0.028616544626336848,0.08737548015929776,nm,0.0
204.236817,-8.482464096368455,16.53841771304781,-123.44796199002688,-0.0008582995465604334,-0.1315008094230893,-0.20132168904682948,0.018257511596654185,0.05962349386191963,-0.022635562615385713,nm,0.0
204.246275,-8.55809922087125,16.525984350369505,-123.43575432672014,0.007292942519858064,-0.1364450656241737,-0.1632924724804906,0.0,0.0,0.0,nm,0.0
204.255869,-8.272706081836256,16.464398031223038,-123.1582165418926,0.07546892789647303,-0.1387488582724251,-0.07441436618008004,0.0,0.0,0.0,nm,0.0
204.265388,-7.936309471095659,16.54308144948575,-122.74110623900815,0.11766305355672026,-0.046448447277089605,-0.08271339861395803,-0.019943221170968892,-0.034455373049245605,0.05948479077059751,nm,0.0
204.274894,-7.447319481546897,16.71942793622068,-122.28832312862679,0.16680042771585857,-0.03397059197198281,-0.0035842660774235845,-0.027485494817501628,-0.0582241291763911,0.05759489996252943,nm,0.0
204.28440700000002,-6.909918174596587,16.9410220686559,-121.93488674746821,0.20484865102842353,-0.012496716170202747,0.04134998253273962,-0.027673505623752592,-0.06551428348028393,0.03443053060090272,nm,0.0
204.29391,-6.45375986929732,17.18542657078011,-121.7810477892841,0.17316127128673875,0.01793722406723997,0.01661092628070441,-0.02072768737083825,-0.06084104265503628,-0.0012904266494558126,nm,0.0
204.303419,-6.0246561006996755,17.402311839911928,-121.81968340525363,0.12829361625620317,-0.004758611526596011,0.039454746809516335,-0.018241364136816342,-0.06315570572845929,-0.03865040514278392,nm,0.0
204.312934,-5.683732312690048,17.551322394471757,-121.98087943290777,0.04933222427771946,-0.04441753055538849,0.03651125887178208,-0.013534491390058846,-0.05765360904070511,-0.05820055209608427,nm,0.0
204.331981,-5.178455487282167,17.650455110012693,-122.21602839562813,-0.0506859431577778,-0.09805996881255716,0.07378525599927392,-0.01493923780986503,-0.05288154439865605,-0.033410750161733435,nm,0.0
204.36043099999998,-4.649005898488775,17.83111482325027,-121.70058738863027,0.05019419077995627,0.012860847947173338,0.1245032873631582,0.0,0.0,0.0,nm,0.0
204.369945,-4.595740069931454,17.90063622451588,-121.55101808981482,0.09716615577675211,0.0583716546838035,0.14116802801232745,0.0,0.0,0.0,nm,0.0
204.379451,-4.606573897929923,17.955074878305957,-121.54535700947127,0.1177498153047997,0.06875347755463221,0.15338272298408814,0.0,0.0,0.0,nm,0.0
204.388943,-4.670960832987005,18.010478055947278,-121.68302549137539,0.1109624879468102,0.04727364304551746,0.15127799606222544,0.0,0.0,0.0,nm,0.0
204.398497,-4.773040573531105,18.084086620657974,-121.9010788741062,0.07571547390401727,0.020907854144883407,0.10579615435192498,0.0,0.0,0.0,nm,0.0
204.408045,-4.815278228316443,18.169268283828178,-122.0857301168175,0.03570292403865864,-0.015257926187709844,0.0714615283419294,0.0,0.0,0.0,nm,0.0
204.41755700000002,-4.816269773831113,18.191243472256946,-122.16465151087161,-0.00584247840096245,-0.01903771944820558,0.05850668388877878,0.0,0.0,0.0,nm,0.0
204.427068,-4.745809714197822,18.165546765806017,-122.09604560384355,-0.02102699318328921,-0.04276959708267753,0.04671568664914216,0.0,0.0,0.0,nm,0.0
204.436568,-4.592725609195745,18.12480366869167,-121.90011631020039,0.01709434379082792,-0.03333583831798452,0.05886363760938153,0.0,0.0,0.0,nm,0.0
204.45559599999999,-4.199335258213071,18.07852250254372,-121.44535031798578,0.05431416364567277,0.030913929327121593,0.06043303620174343,-0.04173246654131249,-0.01660782392890186,0.023372581217962204,nm,0.0
204.47460900000002,-3.9687339333840552,18.04435946600898,-121.37931135235903,0.033495974098789405,0.04844563405445977,0.07025956475788914,0.0,0.0,0.0,nm,0.0
204.484118,-3.9602456659125505,18.00322801075218,-121.49501075359954,-0.011667249167712439,0.03890577483255515,0.05335296059445733,0.0,0.0,0.0,nm,0.0
204.49362799999997,-4.0008370327571905,17.931572804203427,-121.6162293615795,-0.04827770719299572,0.01798149702401186,0.03088947274644898,0.0,0.0,0.0,nm,0.0
