timestamp,roll,pitch,yaw,acc_x,acc_y,acc_z,gyro_x,gyro_y,gyro_z,markers,motor_input
209.505547,9.137750290327089,6.438993269597055,-111.32602488151157,-0.2413242995601055,0.5831413636678007,1.7721563234773896,-0.004244935097254259,0.45202348507619367,-0.033272789761050935,nm,0.0
209.515046,6.004168140753167,5.390977840506801,-111.86656103104524,0.23132193190218264,0.49020544791555426,2.083154650977969,0.02215674617048527,0.6563459517681968,-0.05016543312514664,nm,0.0
209.52454500000002,1.6141969830589484,4.094662345925275,-112.5255143132059,0.5172757723083817,0.4135619373245208,1.7038282214402796,0.07775072093672784,0.9080769328523273,-0.0648135318801461,nm,0.0
209.53406700000002,-3.042651293492509,2.74826378821155,-113.21613248769215,0.6264146138314104,0.5075425196451635,0.9727305987095155,0.10009248038202094,0.9614656961461154,-0.08707898968798904,nm,0.0
209.56242,-15.701993388234062,-2.4910699896916375,-115.73026032897542,1.3339724171299177,0.5806966524057895,-0.26966092037252637,-0.01234919349743742,0.901349711989191,-0.21289576344661762,nm,0.0
209.57192799999999,-18.884962563358023,-4.344762438834967,-116.69500757031642,1.6633525717693585,0.5403318295086202,-0.41900954882473884,-0.0660852274080673,0.7347091264542596,-0.23143998857595352,nm,0.0
209.590991,-24.610945870631426,-7.877142647335597,-118.17250302250432,1.1331093144183004,0.5996732171340486,-1.2727355966699274,-0.0675844034403897,0.6259097099270264,-0.184663899585635,nm,0.0
209.600494,-26.831336499384285,-9.127523288214661,-118.46867341410955,1.1561539322951346,0.4520729848370205,-1.282928638517374,-0.02582577900186284,0.5065011134456374,-0.12311187490136842,nm,0.0
209.61006999999998,-29.045739123394462,-9.845015145206505,-118.45950474984353,0.7789527816392668,0.414620221003669,-1.5926224541576717,0.06819041665700083,0.453652052395854,-0.06876909802435563,nm,0.0
209.619583,-30.975570376919816,-10.169009825887365,-118.10502343476665,0.5958938713292455,0.28737300664567195,-1.692574373631512,0.10929955246552715,0.3665259105256856,0.006747217903340179,nm,0.0
209.629087,-32.69985654325166,-10.26582043992156,-117.52125760835024,0.6465447273192262,0.09742975325237369,-1.603597201820028,0.12759388039980168,0.31014475285332327,0.05893852928022334,nm,0.0
209.63859900000003,-34.387386338030986,-10.250432212708581,-116.94444662694796,0.37079703712599904,0.10337342280906181,-1.7608025778828629,0.1411795397988065,0.2946879494543121,0.05897727146501858,nm,0.0
209.657613,-36.9948451197781,-10.406701899043243,-116.31393756292664,0.4097352811129125,-0.18401834266022896,-1.6198411596747402,0.07225281404744197,0.23960653837415097,-0.002213474894021283,nm,0.0
209.66713000000001,-38.31501313656544,-10.742918987965055,-116.32386736225376,0.09721509546459879,-0.2411622261156281,-1.6726720992341169,0.04142471635993601,0.26314454677946836,-0.045946765177183095,nm,0.0
209.676635,-39.34979296126157,-11.205707641574403,-116.42407758039714,0.13155197664194046,-0.36995449490485177,-1.5721475221786763,-0.0060107247147977785,0.22384606163925877,-0.054694682893108186,nm,0.0
209.686158,-40.34428436153699,-11.689660161023681,-116.4985817896264,0.04718928293663515,-0.39245281077824296,-1.5957766159471851,-0.013040081680450347,0.21840936089107896,-0.049374445862290756,nm,0.0
209.70515600000002,-42.20154575867472,-12.257753432544977,-116.1793946019362,0.11483106291286369,-0.2109567860307214,-1.5946672800492225,0.03019698532746367,0.16574170962583754,0.01798776676693882,nm,0.0
209.714664,-42.86440468476459,-12.10827312264826,-115.8756613385546,0.24667794733282708,-0.11993622730117902,-1.5969242325798372,0.07078990913730392,0.10385951703062399,0.03843334319237575,nm,0.0
209.72417099999998,-43.30296624390943,-11.630377538981213,-115.65504504751401,0.29786207897167427,-0.0024029902020430397,-1.6622303042514162,0.11051944796687349,0.0361159331286923,0.03179470836868218,nm,0.0
209.73369799999998,-43.47440175881661,-10.93974056039039,-115.58457784469914,0.33605877574887727,0.051890702774863635,-1.6426352269034519,0.12622588845232782,-0.02920293831226401,0.013055237930119657,nm,0.0
209.74319699999998,-43.338800600737116,-10.17214857968308,-115.67801502088669,0.3678840818155931,0.012487812607741264,-1.5742805108173672,0.11396360544791811,-0.09036204235185903,-0.008165677169386812,nm,0.0
209.75269899999998,-42.947704645531395,-9.38490189118807,-115.94330565460284,0.2942429622107995,-0.09288667661712875,-1.4389260222351823,0.09518079962266221,-0.13792639817394017,-0.03439872238899687,nm,0.0
209.762214,-42.19877466740279,-8.502082909513819,-116.38625514608935,0.09263166562554528,-0.19903973920319254,-1.3217369195797009,0.08011414751000134,-0.21069443878681526,-0.060192927538455496,nm,0.0
209.771642,-40.96065181684596,-7.454653988177667,-116.91209432735621,0.018227741800897458,-0.3363295402503034,-1.1434690696607972,0.06397230785598285,-0.31324721623595,-0.06604433221770999,nm,0.0
209.78115799999998,-39.33120860463761,-6.224244687653958,-117.38023320009883,-0.0965923530417719,-0.4489437985962919,-0.9105068670161943,0.05789933572294718,-0.40038266148881235,-0.050508239115907815,nm,0.0
209.79066600000002,-37.13870023223618,-4.73637943522432,-117.71440538166465,-0.2619389633443496,-0.4919639005368097,-0.6851196360583924,0.048305553618678464,-0.5249493984405844,-0.021231279088533953,nm,0.0
209.80036199999998,-34.02570218592905,-2.9353547622086764,-117.8660028150943,-0.2679242508354443,-0.48555095812635907,-0.4353645584857768,0.015071499075721355,-0.7180551593097382,0.01423147292981916,nm,0.0
209.819403,-24.875568881886885,1.2766203911072533,-117.39921270058532,0.3429698756122535,-0.5407939904281521,1.086897854318468,-0.0853998775969863,-1.0753004800119574,0.0698090736804012,nm,0.0
209.82888899999998,-19.61279188144103,3.6339103396002024,-116.86200393457003,0.04036629261101726,-0.24299597907834958,1.8256980407457706,-0.07452822573130372,-1.1521165592251135,0.061266189014257705,nm,0.0
209.838223,-13.508850549234461,6.1400390808802525,-116.17085846936745,-0.1593379321352519,-0.050315959100024385,2.4727663241556126,-0.10907753980546592,-1.3136281010849595,0.03141764198892969,nm,0.0
209.847729,-7.0958068917413595,8.529830049513286,-115.41437597313268,-0.619546399811962,-0.0015203803849245863,3.1078654401514556,-0.13734863775500813,-1.3548624402768514,-0.01699122277270511,nm,0.0
209.85724100000002,-0.9852622286124909,10.526340899944316,-114.74695043855084,-1.3845589412976607,-0.05379186327642222,3.3821025156932056,-0.1627740799881193,-1.2622900726054203,-0.07484246830489011,nm,0.0
209.86675799999998,4.4043348699524625,11.984990610293877,-114.32071454450126,-1.995646766284175,-0.2662800904885355,3.4541065997116815,-0.18638000307362448,-1.0840820938279156,-0.13236843421323383,nm,0.0
209.87626600000002,8.165989265562816,12.861480363524446,-114.25084051258942,-2.3973820431795305,-0.4592792110723416,3.3367799096700868,-0.15452987992552333,-0.7425691227988893,-0.15582853438130037,nm,0.0
209.89546800000002,9.09843968375502,12.64733775411749,-115.0478324764718,-2.1631114156129616,-0.41160143347336475,2.9776351235674383,-0.04801545334293454,0.14149475898331754,-0.0851425805141146,nm,0.0
209.904982,6.678817809609262,11.472832768452868,-115.66454470057901,-1.445217731143514,-0.22306107443931697,3.182429792011538,-0.021736109847666267,0.5291577645148361,-0.029551828792022037,nm,0.0
209.933508,-7.9139774688428695,5.785027855732592,-117.28191913035873,1.1642278560879598,0.5387282721626219,2.4028019223759816,0.13568120370073256,1.170297858642222,0.03633596510914793,nm,0.0
209.94302100000002,-13.77991453048172,3.945448106727544,-117.6882488809152,1.3188270289928048,0.673046671634246,1.42796691047831,0.19967957588094531,1.2085049161940609,0.015966612419594062,nm,0.0
209.952533,-18.875828125105198,2.421085586793399,-118.03260099227796,1.5732958611059582,0.46846134920848653,0.860771996414312,0.1923037182183525,1.0436935192977177,-0.013331455374262472,nm,0.0
209.971372,-27.879171046156422,0.09779579034980812,-118.76813144838638,1.1815241584558516,0.16487548761412554,-0.536316335575894,0.20943780277721938,0.8739902039654277,-0.06394550870675458,nm,0.0
209.99041100000002,-33.95929471281534,-2.4990768004116655,-119.19561578486093,0.8979682997825441,-0.036318194693033726,-1.164363893090888,0.006230336949028497,0.6103470509494104,-0.0454991417199006,nm,0.0
210.009494,-38.224338021637344,-5.6906075265000124,-119.23324434953534,0.4969696567723841,0.25781933740284607,-1.4989435410046175,-0.11440958828806509,0.4916965197560365,-0.022387370430063114,nm,0.0
210.01899699999998,-39.88432860789015,-7.254990706399391,-119.169146283861,0.4515450279935596,0.37917802116378624,-1.5279870119993535,-0.12572748825007954,0.4419290324385052,-0.020134803131899227,nm,0.0
210.028539,-41.50848241755221,-8.56039360999768,-119.15922377123505,0.3423152030942337,0.5269521858712068,-1.6084911104282786,-0.08453006259590251,0.40954661404799253,-0.037777787023299446,nm,0.0
210.03802900000002,-43.150553526028546,-9.499874916117788,-119.22699047603591,0.31539269559736766,0.5670803859352215,-1.6552382662773049,-0.01891383748660235,0.3761918778007722,-0.059755283941975205,nm,0.0
210.04754499999999,-44.92783104510418,-10.022615351057782,-119.38303186262091,0.25443534967219633,0.5028649860702412,-1.7036483146405055,0.06749537234094571,0.35808960907184906,-0.08573452345845149,nm,0.0
210.057058,-46.82380913875669,-10.099878613436715,-119.65487224952629,0.2256067529598051,0.3195168726434084,-1.7449144291131493,0.15800936092072884,0.33396581243648193,-0.11450334928126454,nm,0.0
210.06655500000002,-48.841376841780566,-9.789514698019424,-120.04659425200342,0.19575435228647614,0.08794339992871619,-1.8177004478344176,0.23944667351267004,0.3152761977827194,-0.14156586434428448,nm,0.0
210.07611599999998,-51.0097819738367,-9.244420946712872,-120.51346553667946,0.11364893401368335,-0.1349270072896623,-1.8944409989480366,0.29786029853783436,0.315841012241936,-0.15825206721675766,nm,0.0
210.08561899999998,-53.227277808768356,-8.62019633432188,-121.01600527311193,0.007827725798802511,-0.3061080682156966,-1.945459079142536,0.3196683499285063,0.31402655551136005,-0.16217597651510204,nm,0.0
210.114141,-58.96333846116678,-7.311194218017657,-122.41591638653027,-0.0566772712758094,-0.4187816676063181,-2.0213485192624896,0.21451578091531287,0.2616535199431917,-0.11254149941582016,nm,0.0
210.142661,-61.83927700389383,-7.052424188877026,-122.70323387675495,0.1349538395971442,-0.09304070132188917,-1.85445566317085,0.06850976930543921,0.08299339858654499,-6.666518308766322e-05,nm,0.0
210.161669,-61.519969430204874,-6.178860046775187,-122.40354623706229,0.39898718110233344,0.10768126476958703,-1.6131129560187112,0.045506130295686655,-0.12568788753938934,0.04964357938935979,nm,0.0
210.17114899999999,-60.666351653722295,-5.251605772685609,-122.34197381659953,0.45185796470718326,0.21718723339750917,-1.4309063896889187,0.054297018167457994,-0.24247551918564808,0.037746143503262795,nm,0.0
210.180601,-59.24240877155335,-4.004215423487928,-122.39858759821486,0.5303751589913872,0.2721365639345047,-1.3278091820651834,0.04707956174101453,-0.3732313870803855,0.019703984276818715,nm,0.0
210.1901,-57.42913748787248,-2.584736787570487,-122.50207997644864,0.538733032829192,0.2465353433098185,-1.0897257645100273,0.033309917205012946,-0.4578957738024741,0.00771243057370796,nm,0.0
210.19961099999998,-55.05422101158496,-1.1015073907787578,-122.62560300361488,0.43614745185622045,0.19856815706630224,-0.8756332940984933,-0.017930782022160904,-0.5599150856512466,-0.002463072520838357,nm,0.0
210.218832,-47.99979981608266,1.8113209586834937,-122.83402291139176,0.5035020311058145,-0.01981438308229136,-0.27532165235052153,-0.20116834727301633,-0.8189424211032763,-0.023205955615079817,nm,0.0
210.24716400000003,-32.78364025876301,5.982094557173435,-121.87788643012449,0.4497886153256757,-0.07746032328644976,1.5234762559461246,-0.35492717733118556,-1.1134138052756894,0.00017941705114470934,nm,0.0
210.256673,-26.09892783892716,7.768586637942571,-121.08939504367794,0.34609667471350536,-0.20240881556162785,2.2330623580300295,-0.40351369010401866,-1.3189183860356215,-0.002656213912452171,nm,0.0
210.266171,-18.959878737791282,9.729652558511399,-119.9547592606908,-0.2655370413752458,-0.2726640615182242,2.868992289786448,-0.39381503816177493,-1.4153572798189977,0.0075249236317037,nm,0.0
210.29473399999998,2.7415071199839303,14.530540970664264,-114.36550256934113,-2.1481250313033833,-0.2862288934783458,3.150821303379066,-0.36171575123075433,-1.2545151546824802,0.09414460925256896,nm,0.0
210.30425699999998,7.865436682708966,14.963398968391209,-112.44555589581249,-2.6650467862510694,-0.29289852534930655,3.284121312189823,-0.32647293902076874,-0.9449817312155268,0.11508466334380885,nm,0.0
210.313767,11.041487160030709,14.907232249462796,-111.00680438485446,-2.576081957670392,-0.2379770152755363,2.8470449261076514,-0.2493278391245969,-0.5669682432563059,0.11562479288220079,nm,0.0
210.323453,11.739598038625498,14.479966523647215,-110.3086837255542,-2.334348625753285,-0.2881308237034518,2.5707313764958695,-0.13910360989877033,-0.09682198785769636,0.09578346773235032,nm,0.0
210.380529,-16.635431323053897,5.2073565637141686,-117.92144248935736,0.9638788667957172,0.19308397137062253,1.03638995091946,0.13305593184892675,1.2957654061557686,-0.08627289531337316,nm,0.0
210.390007,-21.910767424063437,3.1250774451693264,-118.46119754511928,1.2147857131137092,0.39898314223023673,0.4924393678403884,0.11632173786853738,1.1259319298942623,-0.03174456552347948,nm,0.0
210.399533,-26.375935869840536,1.4606892391770379,-118.5558940103216,1.6105490000935383,0.3993330099424261,0.08891981660259912,0.11952175027586831,0.9445308223362066,0.01747439886847472,nm,0.0
210.41836700000002,-33.41186018279437,-0.8732994644674734,-118.36282623749598,1.1423829549036841,0.5432102864135673,-0.957107871950874,0.08763062397739263,0.6243933683248472,0.016569860302656527,nm,0.0
210.43738,-37.002038894321096,-3.091492342134945,-118.79777690788691,0.6109700372114799,0.3652823153877995,-1.2921518778820755,-0.08235156778419128,0.3855307856669446,-0.07458975279845459,nm,0.0
210.44688699999998,-37.88647874477198,-4.612221433307695,-119.21071729626765,0.40212855541198533,0.19646516889846438,-1.1815930360939557,-0.19429471480452645,0.30285002407731637,-0.09074958814360577,nm,0.0
210.45640699999998,-38.469771339395244,-6.280454057783061,-119.61921785581775,0.17533712560061396,0.11385033502334255,-1.1000393341976935,-0.2474368229424076,0.26619741939184516,-0.08875518474321552,nm,0.0
210.46600199999997,-38.97226321160368,-7.903370537322165,-119.88167769479914,-0.09165720102594956,0.1761591876626082,-1.1285109928933785,-0.24605597934978501,0.24896429171473983,-0.06058416860837205,nm,0.0
210.47544100000002,-39.466253792238014,-9.358164442257147,-119.85268389434324,-0.0899824236456338,0.2133530918278822,-1.127468513531711,-0.2172921379496937,0.2309847721986582,-0.004407681588273087,nm,0.0
210.48503100000002,-40.26413827927966,-10.545032960816759,-119.56284752110322,-0.018970024748236603,0.26826275485622353,-1.1875480992165175,-0.14171051319138997,0.2555867711236089,0.03533060144195122,nm,0.0
210.49453200000002,-41.49529990329221,-11.391727912151598,-119.20453164702825,0.0038900859965525663,0.3752158669187494,-1.3281652223282008,-0.042123841595001814,0.2951831565639719,0.03008813838362372,nm,0.0
