timestamp,roll,pitch,yaw,acc_x,acc_y,acc_z,gyro_x,gyro_y,gyro_z,markers,motor_input
229.00176000000002,17.6157146628577,-25.1598627771252,-32.27849514889193,-0.3997918541467408,0.3338017843211289,0.7193871300311431,-0.33033667952586165,-0.1151939225289861,-0.10922842038808099,nm,0.0
229.049315,-1.4201049194936053,-25.401741299619875,-40.41167791693686,1.9060751755872911,2.1640993857968094,2.8012019743612067,-0.6825461217736115,0.6653967620287661,-1.0264185171114448,nm,0.0
229.05882,-6.719633901641941,-25.29898422227786,-43.03246184441968,2.0446047442115245,1.3212770490387646,1.6167248228003528,-0.7053391027550165,0.6399217114975788,-0.9792660491625738,nm,0.0
229.06833400000002,-10.672983240178539,-25.36055049560237,-44.4555208069666,1.9825593554532672,1.0252871458752688,1.160890558715332,-0.5292884929952132,0.47222653049142316,-0.6231953256560988,nm,0.0
229.07776600000003,-13.604943513961695,-25.120878829581088,-44.22015171487455,1.7858122438507142,0.8910817347538617,0.677534732417639,-0.35029045900690686,0.39187072439718706,-0.20232669303964088,nm,0.0
229.08727100000002,-15.710215542902208,-24.38705710007129,-42.37871721169693,1.2988558930969953,0.629163295774323,0.12767839859709545,-0.18157865254604338,0.3558191315969945,0.19342616250731473,nm,0.0
229.09697300000002,-16.326022248391308,-23.241181968883062,-39.48492537533083,0.7971502928391434,0.8861722244125847,-0.12047742169495886,0.06205242857153052,0.23343684939198275,0.5309048578874187,nm,0.0
229.10629100000003,-15.57038771902131,-22.09270155407001,-36.47685961622865,0.23966628160248818,1.1457228841302878,-0.32951598937927407,0.24937797724670413,0.08132919034879155,0.6616048495161766,nm,0.0
229.125328,-10.692803523177579,-21.294329449220804,-33.39199056916101,-0.5517520126320324,0.6629510026138461,-0.6512067767531889,0.48611116417456623,-0.30995785647224355,0.39462683835913664,nm,0.0
229.13501900000003,-6.555866905308619,-21.316047754642824,-33.99753263295874,-0.5995621389320149,0.5667436970138733,-0.2324394357251213,0.6388828518862276,-0.44592020938129767,0.1788312508137229,nm,0.0
229.17268299999998,5.815023423131906,-19.6518488483709,-37.466680915199994,-0.6994579696381508,-1.3051936969086086,-1.0513909533483958,0.33415807459992924,-0.16227035717776678,0.23314930599620373,nm,0.0
229.182197,6.804754046913191,-19.56574334536675,-35.742844814646816,-0.8058239781565767,-1.2552005850067531,-1.3555376983801808,0.16030252599724032,-0.11119853541981616,0.4079544121957668,nm,0.0
229.19173199999997,7.379925383280914,-19.76031893247028,-33.39073576010438,-1.0595349625356676,-0.8428357309855179,-1.3588307658543135,0.06799658761826291,-0.10729753669280437,0.5059322591646387,nm,0.0
229.20125,7.582768940549738,-20.038320230788567,-31.21098626905972,-1.2052853763854139,-0.605682067250494,-1.456922193649171,0.0038763056786842564,-0.0810930944136007,0.4464954442151372,nm,0.0
229.21075,7.819181022845369,-20.12993524149482,-29.861160312506595,-1.2741841096932907,-0.4785771528861147,-1.6558295790820454,0.030658985889444917,-0.05196804432449778,0.2827128126972038,nm,0.0
229.22027,8.517298896698858,-20.012659804037625,-29.66960771277267,-1.1492134938941043,-0.42304802194824037,-1.5285515944384076,0.12742925509870023,-0.05831767716760614,0.08235374274232586,nm,0.0
229.22980800000002,9.574811990546799,-19.796255477524454,-32.22110602671271,-0.8791072261599594,-0.5110793691713359,-1.4042513525564915,0.19334336383072073,-0.08160021077722271,-0.1008680933434549,nm,0.0
229.239313,10.86046189791826,-19.676464481148223,-35.049807908883984,-0.5492085735319285,-0.7460329191733327,-1.273559846106727,0.21430395086606938,-0.13049122392569973,-0.18738027008390432,nm,0.0
229.24883100000002,12.320656795795289,-19.871191581419268,-37.98029843865363,-0.313757591957489,-0.8557765354556165,-1.1764662720316594,0.19519214377805424,-0.21149177576610176,-0.1406160287094228,nm,0.0
229.25834,13.821453458839216,-20.588908218896282,-40.43051541263567,-0.15207715044277412,-0.8838866602702031,-1.0300540948231403,0.12272301753504178,-0.30507736474452124,-0.00588580238125708,nm,0.0
229.277501,16.56586773606147,-23.340737261744284,-41.37732245371746,-0.19004188522443485,-0.2382467354498038,-0.4095493898161338,-0.03256955955054899,-0.3985505899618505,0.2575419014893302,nm,0.0
229.287113,17.41152233904533,-24.973235561001538,-40.53502207737769,-0.2938127545614174,0.13213318062529944,0.030673723349742384,-0.09687544247681593,-0.36155732050137296,0.23325036024680598,nm,0.0
229.296575,17.648424049878642,-26.361380077381977,-40.25696390046194,-0.3261739535400594,0.4211152837710217,0.6414560018027391,-0.1466947568301549,-0.25285511559303897,0.07171074024936369,nm,0.0
229.306091,17.116116014913253,-27.172728636784033,-40.91111271989995,-0.13969614647393563,0.5568482831131509,1.165640079909092,-0.1772927791899087,-0.07499250084850444,-0.1832930326640363,nm,0.0
229.315595,15.641447946001838,-27.285752037861023,-42.60141641641225,-0.1381623802919585,1.118237620250445,2.8110003097770697,-0.21091105801561452,0.14439020507987804,-0.47762761398754505,nm,0.0
229.325102,12.187453473052916,-26.763631557838924,-45.21224312523811,0.3319421329121472,1.4402163957090905,3.726740951194535,-0.37261752534251663,0.48900629222779535,-0.8405303609505321,nm,0.0
229.33453699999998,7.186851330805576,-25.836645694185137,-48.31052197467408,1.1876870279543663,1.4163516535136162,3.451830502002671,-0.48258177628632276,0.7676751383334294,-1.066641499361843,nm,0.0
229.344049,1.5632336553067534,-25.025283454487404,-51.25885859107927,1.7854042355397344,1.6100969281545772,3.2471482750984415,-0.5368961013455004,0.8682591891116436,-1.075565516787329,nm,0.0
229.36309500000002,-9.931710305551624,-24.577525956031135,-53.966301589352305,2.0645856732433026,0.6169687607261143,1.0976700406240716,-0.5794822280767027,0.8055638747301932,-0.581288702297486,nm,0.0
229.38226699999998,-16.748296947367187,-23.197755970652228,-50.70177223082362,1.5339310434958815,0.8474962919520396,0.05463878510489737,-0.17098834186944045,0.5023275941040044,0.22795139403892328,nm,0.0
229.391608,-18.16145879211142,-21.992937923387323,-47.96507525443771,0.92651486771837,0.9171850791521082,-0.39797024777437556,0.007558987171862159,0.34222794242036086,0.44071856558230166,nm,0.0
229.401105,-17.755118310141548,-20.95345545891732,-45.516422292119536,0.4044196598009975,1.1582809508732432,-0.5851442745793154,0.19893117996070406,0.07409029841592034,0.5213842468841414,nm,0.0
229.41061900000003,-15.867211534541656,-20.393152960627507,-44.03589054538143,0.04300948836573045,1.1909831902978048,-0.4802706280861399,0.3260408603662707,-0.18309721163475934,0.43073799290394604,nm,0.0
229.42015,-12.9924972739418,-20.20601127492965,-43.872182266722426,-0.2999324910981721,0.754250983454865,-0.5825702420047275,0.410857683668387,-0.3614438976700638,0.23270306333687696,nm,0.0
229.42982600000002,-9.111204710447456,-20.087730808950607,-44.786600894175116,-0.41034509030631927,0.3511512149312496,-0.46155240301471495,0.534770219033046,-0.5066160003663587,0.0840669593396278,nm,0.0
229.448675,-2.1978038782963387,-19.22198283810741,-47.18683523767101,-0.687864055447963,-0.8705486966925957,-0.6268181029827635,0.46410621389169027,-0.34405915550830835,-0.008983111799202699,nm,0.0
229.45817100000002,0.3770638470493156,-18.57060008798041,-47.182596372654174,-0.7161342132269778,-1.1631133122794437,-0.8136750697502633,0.42383050524980315,-0.28274258624800486,0.16517390918450378,nm,0.0
229.46769099999997,2.2139081481387737,-18.085026040819862,-45.997024322470374,-0.7641957780853371,-1.079264712296414,-0.8360241752466518,0.30768567912475014,-0.2004046414017355,0.3499609395641895,nm,0.0
229.486749,4.075932719815079,-18.255053504088835,-41.67355154433498,-0.9769699479688292,-0.9148821554103501,-1.300276743777369,0.08738269218995463,-0.16537153187881506,0.5133684338436009,nm,0.0
229.49606200000002,4.753616826771214,-18.72523149531541,-39.71931663650623,-1.1062848789292843,-0.6828538909711531,-1.356508176985069,0.03509461266894597,-0.16904773330431908,0.43087071993118525,nm,0.0
229.50558800000002,5.367435313218439,-19.292229229936805,-38.57235739449837,-1.187904058546606,-0.6432116689890217,-1.654340142220348,0.017723876489072945,-0.1751719012971597,0.26618692535700916,nm,0.0
229.51508399999997,6.338948526425827,-19.891866932682703,-38.340395956478744,-1.2385201089211062,-0.5506854023105107,-1.4281382649762693,0.06830965950369774,-0.22174358358020857,0.10807412186030843,nm,0.0
229.5246,7.523318426778938,-20.52570085840718,-38.79487426151391,-1.1557328917407088,-0.5249695331801838,-1.3405141915651881,0.09441264715872455,-0.2516887861200656,-0.012804327705946209,nm,0.0
229.53413700000002,8.740961401616815,-21.296949681340955,-41.44169854422157,-0.9590693165819566,-0.595521978564602,-1.2962627002997074,0.06915639577084479,-0.27976178291890397,-0.05040665350049064,nm,0.0
229.54365600000003,9.950617931003293,-22.229172263154876,-43.79381941330611,-0.831829854444448,-0.5512683336909782,-1.1107193975829812,0.03280358242823764,-0.3039317674912234,0.01657158429791838,nm,0.0
229.553096,10.96927351957984,-23.349058880069787,-43.50682590854428,-0.6602797365930849,-0.41861629676858697,-0.9099189314154787,-0.01972159433107299,-0.3056928823641942,0.13255864251844035,nm,0.0
229.57231499999997,12.050544102699607,-25.86038340467008,-41.518375413542174,-0.4145128499055887,0.1085653696593978,-0.30816869061579905,-0.11329950621378958,-0.24635972843172146,0.25169275952089815,nm,0.0
229.59131900000003,11.716464677026112,-27.338867575585994,-40.99044256321154,-0.11002297765830246,0.5455746898965863,0.6156163745405671,-0.12483974884858433,-0.04378249350664937,-0.08505825865212614,nm,0.0
229.600832,11.057915074911397,-27.32516687294168,-42.48588065885614,0.09597220319240196,0.8140850805278722,1.5296279870649103,-0.08618742355675402,0.06625370705385959,-0.36331727272856745,nm,0.0
229.61034800000002,9.613894878960458,-26.663926844303386,-45.26009895869602,0.43249106430854783,1.2830543128547405,2.915170814446874,-0.09550082774318083,0.2603228199662174,-0.6899172633473273,nm,0.0
229.619861,6.530141926025188,-25.425154645395313,-48.978916799102116,1.067875939689151,1.2386419325604543,3.2462387807498154,-0.19874942911437285,0.56190773558094,-1.018452952798348,nm,0.0
229.629358,2.449899991180904,-23.981629704525687,-52.91632762625623,1.6553465688093165,1.0557101747967814,3.0569084156480595,-0.2477534228434632,0.7454964632635902,-1.1318834850184745,nm,0.0
229.63886699999998,-2.2193130883862104,-22.87540750550537,-56.17535469029093,2.170692671017896,1.0930737193396516,3.0234620972643627,-0.3230613733859306,0.8146233836635235,-1.025600276789686,nm,0.0
229.66740000000001,-16.382564354142776,-20.700285645218035,-55.73649426680335,1.9535936884725313,0.4189896536858171,0.5487542255132447,-0.22586870800856504,0.7007958948962235,0.12187946065113038,nm,0.0
229.68642000000003,-20.603154227573636,-17.888625534788314,-49.553385932629126,0.5100707628373999,1.140341286756154,-0.6990382558985186,0.0520529789820807,0.35881675296977883,0.5448888286910556,nm,0.0
229.70544399999997,-18.239123029157966,-16.583758451978834,-46.48723571733439,-0.49025609297063605,1.3747097579799992,-0.9344712691283539,0.2971350574982257,-0.2220332120887875,0.2609408939579706,nm,0.0
229.71496699999997,-15.049263720685655,-16.559177935899356,-47.34138797857388,-0.6025457882213335,0.7727208913751441,-0.9604953316039816,0.4170159495257488,-0.4571262694480621,0.011406017583697544,nm,0.0
229.72465000000003,-10.93951953496009,-16.518312051142807,-49.27023006794391,-0.4038958103333108,0.44995495001100105,-0.5279274190702573,0.5259058818737796,-0.5969190607462629,-0.1524531135634568,nm,0.0
229.73399500000002,-7.4239358887762625,-16.321557704063224,-51.299743628138515,-0.4769808728050356,-0.6540930867825971,-0.5953679550178771,0.4566330631479498,-0.5074232871605642,-0.20866073989284867,nm,0.0
229.74348899999998,-4.3185516691609545,-15.948949546151283,-52.327190995456746,-0.6516009112308747,-1.4372987325073554,-1.0265596618213257,0.42280680999090026,-0.43647606795214927,-0.03494288384533961,nm,0.0
229.753031,-1.4325811561502528,-15.710675778453703,-51.68212102853549,-0.5906962737637141,-1.4586600248610602,-0.8543278213730331,0.3751682619597148,-0.4219325370614686,0.28409911181019554,nm,0.0
229.77186600000002,2.29882006801167,-16.763829507492026,-46.274760612903655,-0.9948157533525638,-0.958848273987788,-1.3223161011163755,0.0830646710995464,-0.35855094728749354,0.7248510541615879,nm,0.0
229.80993600000002,7.853035857075272,-20.786114761029623,-43.62396288454016,-1.4125381172381086,-0.20775155013269747,-1.3049642563300805,0.1496114854212845,-0.32300638610554916,0.016235834847994773,nm,0.0
229.81943299999998,9.645496092101272,-21.187021326640398,-46.46740365023955,-1.060440317101473,-0.5156020829096634,-1.2177694783391961,0.17399030868378879,-0.3097481990888777,-0.1357535341363561,nm,0.0
229.828966,11.31221171425617,-21.62552849127214,-49.28992940578112,-0.7572785318399682,-0.8217661617800167,-0.9130577174765022,0.13690298442785057,-0.3046331663553993,-0.13493346184798038,nm,0.0
229.83843299999998,12.626739916164569,-22.317608575083288,-49.81733520241555,-0.4351028775434789,-0.9003452986710802,-0.5764104355009096,0.050581766258250185,-0.2889966645783284,-0.011465171507093808,nm,0.0
229.84812200000002,13.29032531975968,-23.36963024813096,-49.39277285935506,-0.189656348602834,-0.7128115212395577,-0.25677160230944573,-0.08314428450025889,-0.24317106156643217,0.1322956240743525,nm,0.0
229.857607,13.234525926997108,-24.66811102102936,-48.343559775533414,-0.0775045245532497,-0.24813982305843071,0.2412286945694866,-0.20431879053349103,-0.1768489466810723,0.2014430354903415,nm,0.0
229.867127,12.343813835455745,-25.888751044185504,-47.429392744650336,-0.09436503082277989,0.4673959628312318,0.9856577521196019,-0.2910983402207701,-0.057878046588523774,0.10311684926890713,nm,0.0
229.876701,10.480073720565716,-26.614894737789694,-47.55374615208899,0.04608040119284449,0.832346079354639,1.372641161834319,-0.33525818316649836,0.13482881293268142,-0.19331815407500566,nm,0.0
229.88613999999998,8.282543764101595,-26.432157301508795,-49.323795552640384,0.27362927475601184,1.5436364910364309,2.5259918621961,-0.236522230261554,0.30530096338398455,-0.5539046568838863,nm,0.0
229.90516399999998,1.4508113986135691,-23.68402422720547,-57.60694932744592,1.6386727686244202,1.414270274607493,2.7739406049077346,-0.15802836598998057,0.7433286259630213,-1.270582692145303,nm,0.0
229.914681,-3.0299834708975193,-22.968298169581487,-62.195932299521125,2.1516074707557857,0.940776165356576,2.53210162981806,-0.29648043640700744,0.7728724036531707,-1.27516901835604,nm,0.0
229.924181,-8.080536708717638,-23.155890730680984,-65.20927056686895,2.235941591301711,0.2903038614463237,1.9908058883303208,-0.4542046202604969,0.8062499709594827,-0.9996377041296789,nm,0.0
229.933705,-13.019389707829134,-23.410163201401435,-65.69863827571876,1.9249797452906776,-0.18932591627068937,1.1858882565370923,-0.43234228121156304,0.7939976718586185,-0.48827114375306624,nm,0.0
229.943202,-17.090786489377614,-23.026532737206406,-63.5726499731454,1.7811213514925945,0.0686450711160349,0.5798447456224095,-0.26005427190793584,0.6985666102451696,0.10549839930288453,nm,0.0
229.95253599999998,-20.30316165846422,-21.856746033226376,-59.706389260945606,1.3533378553535722,0.5787527030823187,-0.19128897344050674,-0.0842242725975525,0.6227569012876382,0.5303092024592222,nm,0.0
229.96203899999998,-22.106107170579158,-20.326348218598785,-55.457084430792484,0.7323855590140586,1.136017338490757,-0.7998148152498923,0.07106101920103415,0.4364888686515775,0.7229650788734677,nm,0.0
229.97174600000002,-22.12983663034149,-19.125044749516054,-52.126649007260596,0.15846638949952913,1.5517552456416905,-1.0527811929618134,0.18518816225167867,0.1331056454030685,0.6672587191773103,nm,0.0
