timestamp,roll,pitch,yaw,acc_x,acc_y,acc_z,gyro_x,gyro_y,gyro_z,markers,motor_input
228.01276499999997,51.4389814232783,-26.985136496810966,8.3435275049457,-0.15424876308891158,-0.014361451361690017,0.04733986785360434,-0.11049108872654911,0.07273192495889695,-0.2813983351408746,nm,0.0
228.022208,50.69933806186587,-26.78812480638858,7.47084307716732,-0.10357265902861679,-0.3895304504654127,0.2190567828217291,-0.1247258892421788,0.018724299948189953,-0.24970990018777225,nm,0.0
228.03169699999998,49.858292144297245,-27.002567441888463,7.12835860950209,-0.06801971641397177,-0.2764433863771833,0.1997687750847959,-0.13195682109113877,-0.06409046806859832,-0.1526394788588854,nm,0.0
228.04119999999998,48.65078519749353,-27.571099235303514,7.551819665453157,-0.14606065079649252,-0.513484256969265,0.477605725023656,-0.18691649929246737,-0.14292076635803397,-0.03373342466459507,nm,0.0
228.05070700000002,46.98569933490562,-28.293650619714953,8.80782213602569,-0.2016897062764495,-0.20905026912349328,0.36337988889474193,-0.2591747583954146,-0.18773927336228818,0.08789052827502358,nm,0.0
228.06973100000002,42.53141466337834,-29.815435154963353,12.006207460219287,-0.28032695249456946,0.04725803341344331,0.7272768407466568,-0.37434759972326026,-0.22451702038017238,0.06823605779013843,nm,0.0
228.07924699999998,39.98193183767104,-30.17972938891162,13.323061402125044,-0.17713509599945176,0.2310429107999342,0.9486109851451805,-0.40313217723545486,-0.17117209815487505,0.001909477114550831,nm,0.0
228.098268,34.143674038272266,-29.63770146020751,14.657882800253601,0.1910258658093613,0.4149703816205768,0.9234845103088228,-0.528929130966464,-0.053489366611782836,-0.24312097939391028,nm,0.0
228.10777499999998,31.432798834898218,-29.040185050559955,14.571748463829573,0.2427941597325091,0.5035286408086906,0.8396147489140131,-0.47599456882459906,-0.00819144604905563,-0.2891250311755769,nm,0.0
228.117292,28.892825766381524,-28.571671084964546,14.342153869840276,0.1675853344921707,0.5654661144668902,0.7770564370355451,-0.44300923482394033,-0.02551948945414917,-0.29672845655418817,nm,0.0
228.12679699999998,26.22461947052064,-28.406073778394475,14.296742143957536,0.1449586514863759,0.5205154091472899,0.4079142182011584,-0.4513088511586124,-0.0896045892879135,-0.26931847811582954,nm,0.0
228.13630400000002,23.643561330049724,-28.416802950418916,14.758745532136924,-0.1330869913247813,0.41813365083433457,0.3718867468234301,-0.4276332086592678,-0.12204695085638538,-0.1584404964035171,nm,0.0
228.145813,20.907116622651866,-28.30625870307916,15.778130437041213,-0.38642625411830606,0.32735211212721643,0.24130825140833048,-0.4590846008438908,-0.11181150723360066,-0.060871638964596714,nm,0.0
228.183846,12.139785079744183,-25.19310913705408,20.163799386436253,-0.04744744781466723,0.1484613353250115,-0.3814306728433853,-0.3511726304650769,0.0980815665830568,-0.024950116076729055,nm,0.0
228.20290100000003,9.665362624501086,-22.93664504535827,20.482448081644222,0.22408152444506602,0.06399073390712677,-0.5489670447269184,-0.2614777821432034,0.11868179104875319,-0.08748861715822126,nm,0.0
228.22190600000002,7.5656276783038425,-21.443782842234626,20.49945421083389,0.051722507024241575,-0.0963614580285531,-0.6851850508648272,-0.21275776203642274,0.04124642658140983,-0.07349515549037744,nm,0.0
228.231415,6.554216385992479,-21.13867254664987,20.631857134586593,0.02015313105136738,-0.09132922630319344,-0.8587976751501211,-0.18658293118349217,-0.016570826840208167,-0.05049925761367621,nm,0.0
228.24074199999998,5.6005519608340615,-20.857526528972063,20.87222378880898,-0.1836058141811262,-0.19172494421862096,-0.9099410463420642,-0.1751154758183138,-0.018085388416873894,-0.023636611796554984,nm,0.0
228.259765,4.396329936060563,-20.145622683222168,21.293209907807892,-0.390399074108729,-0.2453631845334765,-1.1429813306228818,-0.09718937450077496,0.028209134150096998,-0.005062302406351841,nm,0.0
228.26935999999998,4.329936710997339,-19.73373219714441,21.26179689777567,-0.298486503029044,-0.28748630016844445,-1.2521710101006023,-0.03006856900342437,0.06466492496646167,-0.014085005307963834,nm,0.0
228.27879099999998,4.813543608257309,-19.321398944171044,21.059284311809847,-0.21464289755616736,-0.2617774371033379,-1.1258928595676871,0.06678084738639803,0.10229810942974307,-0.01158959705291534,nm,0.0
228.29783799999998,6.4801138331824095,-18.88314415025348,20.469236304035565,0.09177688321974818,-0.29528947508726106,-1.0717626528580744,0.15979401298605933,0.07594765632900123,-0.0032066174849903106,nm,0.0
228.31687000000002,8.802130686153982,-19.331054073888538,15.246377107078246,0.04912326074042102,-0.3688312279512857,-1.0504161333305768,0.25223374567083273,-0.018405914679189457,0.08801857558629868,nm,0.0
228.326384,10.090500399672678,-19.96419938615776,12.840210911321323,-0.02888077108312856,-0.42542991782259276,-1.0554202750278727,0.2754545041583639,-0.0786445442886489,0.12355793817184388,nm,0.0
228.335882,11.516089955322329,-20.72316534768468,10.436888065966961,-0.20005048606117076,-0.45515540768323476,-0.9593275624271963,0.30079451580590744,-0.1104201628608413,0.14674396963146738,nm,0.0
228.345401,13.019567149159172,-21.544763448269208,7.850759363417247,-0.314804155757574,-0.48947709531133576,-0.870813141670505,0.31044214321556046,-0.13412974844297368,0.14073896041028164,nm,0.0
228.35491299999998,14.613942657101674,-22.444920350655057,5.005908697354542,-0.3382296431367401,-0.5122539763591952,-0.7939786022008083,0.32029045457821687,-0.16306814825098742,0.1183941185164135,nm,0.0
228.374066,17.94372276368824,-24.33508991727394,4.709223248868715,-0.15510636334673852,-0.5488196027818459,-0.3976591975490645,0.3271017343021191,-0.17180956222860053,0.09570609445362264,nm,0.0
228.43112900000003,16.525380619525798,-28.97536340777456,2.8418665159353385,-0.8949215569212797,0.9854973482421778,3.716564574437164,-0.4576902326377656,-0.055149695719945116,-0.5196425710069826,nm,0.0
228.440644,12.49090332337111,-28.25938165234939,0.6702210463654139,-0.4940971837062597,1.5348547067353375,3.2930835740981235,-0.7042290562778278,0.11125005803694535,-0.8250976895240254,nm,0.0
228.45014999999998,8.324570516848866,-27.033113658546743,-2.1812406431960416,-0.1589823802269973,2.029948177584054,2.8426058809738377,-0.7277638197433508,0.24402726414233844,-0.9608423332924368,nm,0.0
228.45965099999998,4.007044215151692,-25.852626674795992,-5.12992826781103,0.32282769990143284,2.038897599340013,1.9993648843197214,-0.750566718684286,0.27319811304084285,-0.9775791700298309,nm,0.0
228.47867799999997,-3.080181611718604,-24.33170756480944,-7.8841372170891555,0.6193886990359077,1.4689136528291777,1.1313757856712274,-0.5355501900606296,0.1979895124744886,-0.38196465868170937,nm,0.0
228.48817899999997,-5.635829729188442,-23.39706184213044,-6.803697338207752,0.5426127970168578,1.250281144817926,0.629706283864908,-0.4344001422296857,0.232497780125569,0.008410041853485588,nm,0.0
228.50716000000003,-7.861694000047658,-20.957800087427383,-1.7606209991834194,-0.182725700224518,0.9551561280866443,-0.3914363760169602,-0.07128087143461113,0.228624591982566,0.5090481739657787,nm,0.0
228.51648300000002,-7.412419140109648,-20.2895420441976,0.45076830598805356,-0.47927164932480343,0.7554137581003854,-0.5171331448475094,0.09299301042579655,0.1206601465953901,0.47360475498013793,nm,0.0
228.52597599999999,-6.105398059316267,-20.021426510376568,1.4579104090935593,-0.5792264857259029,0.39071999387127593,-0.6684639760154073,0.25232851951565916,0.04579365831787406,0.290652253121822,nm,0.0
228.56407199999998,2.5915466561437035,-19.10685270010519,-2.3000599247409017,0.20499203233202648,-1.052794467237637,-0.9992808923592658,0.3289010547346326,0.05381584598297421,-0.043328718956318325,nm,0.0
228.57357499999998,3.864680171894778,-18.662584447464706,-1.9104218468682987,0.13091512021006665,-1.036015081582215,-0.9285886224003389,0.2518052853604963,0.0684285226287212,0.15721848521408643,nm,0.0
228.59267000000003,4.373141449693139,-18.31367664388665,1.5264981049096271,-0.19790139469832194,-1.0406530453403018,-1.4438765260936284,0.025514933113555866,2.8968873435067258e-05,0.40206518394651786,nm,0.0
228.62121199999999,5.279894288332331,-17.960558822383526,1.931655086353716,-0.5917919824049551,-0.8431409095140582,-1.5147392734702694,0.12000938776996628,0.026217131181285793,0.02303405037323763,nm,0.0
228.640274,7.581785038663509,-17.803689116179942,-5.268505579589609,-0.1522924203162155,-0.8935866716875731,-1.2231397787625888,0.244160965864986,-0.022721881269218997,-0.2271896754453355,nm,0.0
228.64969599999998,9.087468560125991,-18.031430568971828,-8.653503696885778,0.049651276905363376,-0.8918809846140178,-1.2344614235918692,0.2841612270550996,-0.09695715991112185,-0.1756629582243619,nm,0.0
228.659184,10.691320837654201,-18.67182680459948,-11.289223082244813,0.09341672130981488,-0.8272820580434382,-0.9845151836794754,0.28094528768153765,-0.1958444900078691,-0.03732167117266198,nm,0.0
228.66869899999998,12.23903956761911,-19.665895179212878,-13.309804449193209,0.0004262994923356509,-0.6859730077622473,-0.9603263578289235,0.24457873578398218,-0.2734602656638548,0.12423132555391925,nm,0.0
228.67827100000002,13.884742442366296,-20.9484054744723,-15.1010629788869,-0.20515961951275455,-0.40208180796079573,-0.8266732469119245,0.2352025724694986,-0.34197033948991495,0.24958098690376088,nm,0.0
228.687957,15.614010803741058,-22.390366261392874,-16.934319840330204,-0.4452387939257045,-0.11865025982006386,-0.5888696527226364,0.22700933739113532,-0.3835052096380273,0.26990326010800786,nm,0.0
228.697437,17.382161607002004,-23.726455536755676,-16.698839937913235,-0.5125372078448549,0.03196422578270805,-0.3025541423306152,0.24040739149512902,-0.36227874908783886,0.18093958947657685,nm,0.0
228.70694999999998,19.077423462979695,-24.634114850750912,-17.242646057067752,-0.47067253428685324,0.14202178745438382,0.17965744628895208,0.24923753002821653,-0.27603962319124137,0.025159876697619776,nm,0.0
228.71647,20.04347452683222,-24.991477396589627,-18.569185972854225,-0.30336658357896307,0.1568140012743186,0.8506988636237418,0.15101958076670763,-0.13393367551186702,-0.1895438509111154,nm,0.0
228.73546000000002,17.974632567204285,-24.644406290126724,-22.34120994009338,-0.06795679816392443,0.4842999795615697,3.135645305683026,-0.2769850134462751,0.15793051634508418,-0.54274653313565,nm,0.0
228.75448200000002,7.670407682179206,-23.944327728125355,-25.450156109160407,0.8211548257301958,1.5310770142246006,3.6803449222290205,-0.9682918757800381,0.5219686823009079,-0.7693529141327229,nm,0.0
228.76400299999997,1.0550213431409647,-23.479982258025917,-26.34187046543673,1.184333442414648,2.1850441045874653,3.0380186045134185,-1.048716778640012,0.5994103076225229,-0.7132538187439673,nm,0.0
228.77350099999998,-5.591557586167598,-23.131520080422668,-26.767311736012314,1.34439536402352,2.184028294313842,1.7894046089854134,-1.061224783411363,0.5947028381939868,-0.6126034399160017,nm,0.0
228.783018,-11.087739270471445,-22.924008084977245,-26.593940482285923,1.2657810722200291,1.7065321046739192,0.5485406145640214,-0.8858262721762278,0.47771604038832555,-0.39568580928011654,nm,0.0
228.81148,-16.894811958502565,-21.18809193758165,-23.261505013243404,0.3436361155579932,0.9563629837582595,-0.6471503038422952,-0.0075243117270096,0.17404655481486425,0.23570239539253354,nm,0.0
228.82098699999997,-15.682931435050989,-20.39732575997203,-22.000905991417845,0.04493504527204121,0.8294227188682226,-0.6140186214468971,0.2716761688138474,0.044720224823990906,0.3393653752398752,nm,0.0
228.840184,-10.226695658288651,-19.50809170690149,-20.678521616034438,-0.19770411776270516,0.08612057125437562,-0.6472179252655014,0.5711982081726725,-0.15674414460165945,0.2898876436199769,nm,0.0
228.859209,-2.542022193452377,-19.123216143183043,-20.894989588255385,-0.3391062258530864,-0.40509112642881095,-0.3884520618263959,0.6786332776312903,-0.24134187588544873,0.2027415299208218,nm,0.0
228.868547,0.7587802081082534,-18.972052977715173,-21.017401695049163,-0.40782556101314965,-1.0099156386188342,-0.9343712088812396,0.5972682082957177,-0.2088212840786369,0.1885214673146219,nm,0.0
228.896896,9.100041688880518,-18.931899136011584,-19.05383059456057,-0.8682680454701419,-1.2558269191229092,-1.4873024052476556,0.3834737150324307,-0.18021580097391762,0.33299609373378547,nm,0.0
228.906423,11.101873785297485,-19.07624507452098,-17.99275576303755,-1.0354036149802994,-1.167937269311116,-1.4309833372054617,0.35488649756761326,-0.16042841338840638,0.3384221496767074,nm,0.0
228.92545800000002,14.097341176852595,-18.892000209026953,-20.402797403513624,-0.9760109811760517,-1.1249821105968372,-1.5710716837242578,0.25490347564074695,-0.07309104037802634,0.18575677833924809,nm,0.0
228.934966,15.44125481981127,-18.772023091352025,-22.458338985404094,-0.7898044945401234,-1.086271320954628,-1.3397900882901241,0.2486073031084518,-0.08778757370013783,0.09892670901851602,nm,0.0
228.94449,16.55519302097428,-18.767142807008323,-24.95111909210838,-0.5789075280977326,-1.0581595743083,-1.1657833728228972,0.1957411836988088,-0.1003781712948535,0.020222415028262296,nm,0.0
228.95408899999998,17.452440151758594,-19.032560739064326,-27.643973405591847,-0.39411017031903073,-1.0047928588303383,-1.1689491078432348,0.1294990157966681,-0.13820257416504475,-0.017543619321674055,nm,0.0
228.963497,18.325224972746966,-19.798206133114554,-30.07978494473819,-0.2634194492978376,-0.8016474056540175,-0.9701607066974615,0.06919525811822787,-0.2278246008428439,-0.009146559158033018,nm,0.0
228.97310000000002,18.926566328873808,-20.9911226929162,-32.54221883703731,-0.2768534608950394,-0.581415449688104,-0.6389407990509072,-0.03059562286479018,-0.27496029249584225,0.01013976532372512,nm,0.0
228.99223600000002,18.861684018111337,-23.840946911836397,-32.2732165694146,-0.442541867180377,0.08448970071836992,0.21850262195975237,-0.19390661205958346,-0.2306194133516198,0.009614380086231254,nm,0.0
