timestamp,roll,pitch,yaw,acc_x,acc_y,acc_z,gyro_x,gyro_y,gyro_z,markers,motor_input
190.009178,13.98159492291324,-11.84294938474814,-103.38777422140846,-0.8923892033272389,0.9323010727964388,0.5741556942937093,-0.026769089989635845,0.2995829242072486,0.1976069417405431,nm,0.0
190.01869100000002,11.86902233118101,-12.063971958234388,-102.96605211766177,-0.5781673572108375,0.5583419998813653,0.35031811687314657,0.03932705565820229,0.40785152119104884,-0.008884599094805498,nm,0.0
190.028225,9.483112764971722,-12.45304803255123,-103.33865347274786,-0.3926259683088839,0.2503966022070958,-0.10903558729461006,0.01814465807507112,0.46736392694019785,-0.18123771930509477,nm,0.0
190.03774,7.18784335262699,-13.183409636118288,-104.07698794909867,-0.18543021474997687,0.20059843809539935,-0.02824341363685646,-0.0484082700501618,0.4653263930043313,-0.25445921167423935,nm,0.0
190.047222,4.658953932971336,-14.138561591866736,-104.69418400317105,0.03988127584000912,0.3944125868645743,0.09106990373505004,-0.07582417259863955,0.5196785531914658,-0.24723296607538764,nm,0.0
190.056742,1.867064614352964,-15.169994268800078,-104.81719674387202,-0.015489913280326152,0.562313596250361,-0.46062642159350126,-0.07501916572988189,0.5713174268705401,-0.16947438386162747,nm,0.0
190.066252,-0.4164466447773224,-15.987793030003463,-104.26926570902553,0.42200156441440734,0.8158509825334779,-0.2091010678329033,-0.06111226331852739,0.46313940108929913,-0.015979913246595978,nm,0.0
190.07574400000001,-2.7473462117015375,-16.198182562470056,-103.29142354929378,0.7793168492454349,0.9548208938196943,-0.14441853014767222,0.05261051410626077,0.44119075605939223,0.06400220443928328,nm,0.0
190.09460800000002,-6.226118317940515,-14.733447924638586,-101.60228831886398,0.8536326049681712,0.4470435510901225,-0.4962949171479657,0.23253685001210272,0.19481237445338925,0.06743206390103332,nm,0.0
190.10431000000003,-6.967327149749462,-13.317208285779275,-101.5746883044454,0.8294299638885811,-0.11181289517705771,-0.3276522302390119,0.29336842529290597,0.07969406196851574,-0.03229150494297458,nm,0.0
190.12331700000001,-7.078070124864156,-10.405536179568612,-103.34398876544525,0.38380421659774294,-1.3289402957937075,-0.18446543512806127,0.23773213811546207,-0.10298994087322211,-0.21593095704395124,nm,0.0
190.151866,-6.867564676301782,-8.690996513117758,-105.89945442802295,0.13467135052567977,-1.7013196536849684,0.19895684244984516,0.08079341922370795,0.018367776581377688,-0.10467028421848518,nm,0.0
190.16138800000002,-7.472307511496422,-8.248816398996132,-106.08006932673774,0.3026511429721458,-1.6048554447557013,0.18767981860688693,0.10446455944451993,0.08761934277509555,-0.05635786581181972,nm,0.0
190.170894,-8.394198576816741,-7.753473454543593,-106.28711909007016,0.4373176499486744,-1.7121213368973347,0.18147563599846772,0.1325140817222287,0.1448958201105202,-0.06937173495308398,nm,0.0
190.18040900000003,-9.739631700174671,-7.165025901057852,-106.85990193759486,0.6591765473353627,-1.9715634037887713,0.25369025874856743,0.1753628025200871,0.21962317200593406,-0.15164948465050512,nm,0.0
190.21828000000002,-17.910559103954515,-8.206135547952144,-113.47292221933748,0.11683333407263614,-1.8558585017795517,-0.18365344718563892,-0.02912871922918667,0.43537484797142106,-0.36728746990567596,nm,0.0
190.23747699999998,-20.82888932807229,-10.227770934798643,-113.97725619559509,0.6467989014493409,-1.138248150800833,-0.14756283833206565,-0.04957190492526855,0.37770253177494467,-0.020751065950215457,nm,0.0
190.24682399999998,-22.06273026972771,-10.644196735051118,-113.23725660480315,0.6093381520145529,-0.547677756755477,-0.5571997597825606,0.006479264629855773,0.25528518120697696,0.08023106369272666,nm,0.0
190.256315,-22.463570708967463,-10.81756611392172,-112.36590142592324,1.0729332502879116,-0.3361879703354941,-0.39953472444256455,-0.015759406924301108,0.08517485356861644,0.11037979027826421,nm,0.0
190.265776,-22.805058662250634,-11.089272561159456,-112.20004615916181,0.755450438665321,-0.09372582315932379,-0.6411502271962526,-0.039002243214288385,0.08175616820922486,0.021473095692359914,nm,0.0
190.275472,-22.387740647138752,-11.547973095948889,-112.69876715374018,0.40615257270446703,-0.1380240071177798,-0.4845346939041603,-0.13029936129883218,-0.04153635702417664,-0.08222434445808369,nm,0.0
190.28499200000002,-20.96112372352673,-12.044727823238771,-113.84115249589894,0.3582677601714452,-0.266722207742643,-0.12132568511470947,-0.21599557754230114,-0.21824809887529867,-0.1693316732086078,nm,0.0
190.29448799999997,-19.046510481397732,-12.635369813316512,-115.25887385320074,-0.15692426659731024,-0.23195716099420366,-0.2870583216602994,-0.2773580281726957,-0.29192511087007983,-0.20125511378392255,nm,0.0
190.30403299999998,-16.410943421071703,-13.360116269685568,-116.40359739523976,-0.17182362793205747,-0.2111853311530437,0.0812300247137252,-0.368859938758512,-0.3998683101725148,-0.1103081573513002,nm,0.0
190.313529,-13.8156630006306,-13.932029111605233,-116.98606460723009,0.016201545161825398,0.04032519480466637,0.3488888788579911,-0.3433669928885637,-0.4000001604905614,0.0056611412158155796,nm,0.0
190.33253299999998,-9.900655886730338,-14.019327276975174,-116.0533152887689,-0.008310292186568372,1.041334853121138,0.009479366955578892,-0.1635685419760609,-0.35864836846755127,0.2598593984098551,nm,0.0
190.351373,-6.226975906662677,-13.110195256227351,-113.48001679613266,0.014054210051193157,1.7569817063883968,-0.07532581255919042,-0.05192191560751444,-0.3709566298689508,0.345713336086995,nm,0.0
190.36088400000003,-3.8623447675881595,-12.23946274271699,-112.37254214051728,0.012758787777927627,1.8855556744933657,-0.0022309007526951402,-0.0332136930956237,-0.4954103028574643,0.32295885634940935,nm,0.0
190.37058399999998,-1.2141767152122995,-11.244512438695555,-111.63351500086362,-0.17480946087550778,1.8035830014433245,0.21375949679397468,-0.023452140276735704,-0.5583289637499838,0.2525561664317547,nm,0.0
190.380094,1.558687767696745,-10.220662448017332,-111.20263497096708,-0.6299284408985333,1.574976253866733,0.1858746985781615,-0.02178964115585871,-0.5852661626437867,0.18567315590976774,nm,0.0
190.38960999999998,4.5991309203128905,-9.23844091486375,-110.8308536666961,-0.926958100177669,1.2787327722513253,0.372518705011818,-0.04477438144602091,-0.6334440614391761,0.17260631946491367,nm,0.0
190.39911099999998,7.471148511265258,-8.468581108267868,-110.27944394602252,-1.1959132148384999,1.0827567713827548,0.4327266382283719,-0.06801523786360782,-0.5892050968112232,0.19353631511568695,nm,0.0
190.40862,9.935428105987137,-8.156491161915598,-109.39870116956865,-1.4049473937196029,0.9722349128770194,0.3399821296238384,-0.11944151337257888,-0.4838401064057505,0.24179182133633853,nm,0.0
190.418122,11.929470195128063,-8.330285029328941,-108.14954991901851,-1.3863190709378936,1.0087813203383809,0.36074540634375274,-0.17235034102438604,-0.366703072417986,0.3011197790101149,nm,0.0
190.437153,13.546603125207511,-9.343179899866103,-105.07897921505318,-1.0885428147979799,1.3203631486088683,0.22849464397057798,-0.13744671490435137,-0.04899505170303851,0.3182558406684966,nm,0.0
190.44665999999998,13.252940150919606,-9.764249828793401,-103.70613961814315,-0.8785308670543696,1.3697203466406107,0.23282114609730797,-0.07902964352768613,0.07222114471343859,0.258847549636131,nm,0.0
190.45616600000002,12.366356593183133,-9.872113680009432,-102.6737058374176,-0.7024557762528799,1.2399334943581584,0.22546237818233492,0.0070974606911570455,0.17017320034380054,0.1703524134514668,nm,0.0
190.465681,11.052008821294462,-9.595893034563868,-102.01046420480294,-0.5760584242526977,0.9666691399688683,0.15825522960122274,0.09759977710376846,0.23647880566496432,0.08240920849664694,nm,0.0
190.47518699999998,9.510797485680328,-9.090192095493688,-101.64769085827385,-0.4670579402509291,0.6276079868499037,0.11020912091802527,0.1495248294926424,0.2722553428690209,0.01686739787767636,nm,0.0
190.484726,7.82253210408597,-8.576172085729764,-101.44602434515606,-0.37726353437406424,0.31514994914437655,0.016531085614356716,0.15554547011892825,0.3017427433856141,-0.016945742405469894,nm,0.0
190.503746,4.365188203269921,-7.910837119731806,-100.9664629748156,-0.15469412039298955,0.16637530924730945,-0.11269168750456074,0.10505338632643722,0.31945664262501794,0.003045355861212764,nm,0.0
190.522768,1.2029995294870526,-7.60425052469497,-100.3659973442123,0.07026292393264742,0.5649488932735711,-0.15767662761328652,0.07120764511484266,0.27425890552544807,0.011513650840310318,nm,0.0
190.54176900000002,-1.2633463010613153,-6.557155159884769,-100.52060568959413,0.23924136948047883,0.7641280971652171,-0.1545637424749253,0.16147055201970303,0.19468784157589827,-0.07681961085613197,nm,0.0
190.551273,-2.2247072899226303,-5.616651242370075,-101.04779746120754,0.3197205766188187,0.6232567129232013,-0.030734485163301406,0.20784951451238193,0.14843005066706721,-0.1297310203385419,nm,0.0
190.560803,-3.176124561450008,-4.437365933787687,-101.77667973279108,0.2618352824543304,0.2800270292571625,-0.1818053527986589,0.25595209543664993,0.1352072953618688,-0.1663276284306039,nm,0.0
190.57028999999997,-4.137487734697713,-3.0468669861435886,-102.5215379921945,0.290147324937969,-0.07574066487876802,-0.20728334201206755,0.29945805184257196,0.12538345952814745,-0.16535510475222268,nm,0.0
190.57983599999997,-5.3522447700956555,-1.5749512416096776,-103.08649094315759,0.29886356073880227,-0.510041633156861,0.011460900321329431,0.32800557536226194,0.16812715219283778,-0.12649168827671012,nm,0.0
190.589261,-6.827199996788025,-0.10264672361865916,-103.32152090786929,0.2681728108936681,-0.9109116599956144,0.015318054942546963,0.3411211159150396,0.21678052309555754,-0.05481016165818153,nm,0.0
190.598849,-8.365449884170207,1.3085123113852652,-103.19315016656091,0.3793422367080685,-1.2303006645030967,0.1657200036351225,0.33225534750870944,0.2316769930412944,0.025674784292869634,nm,0.0
190.61788600000003,-11.668998837799323,3.6194730070917043,-102.4006068578791,0.6691138737126043,-1.5459270388049284,0.1396333402251591,0.26730933356725145,0.28107478770368066,0.09846343629884657,nm,0.0
190.627402,-13.318915004159777,4.580166739165764,-102.18521428664336,0.8313932766195865,-1.6986603775034592,0.10061097193385367,0.2445665502307855,0.27762161070669367,0.06419149018038418,nm,0.0
190.63673200000002,-15.015958858035493,5.39456232171301,-102.34367036518037,0.7905363257927689,-1.9025201946338473,-0.11075459909667525,0.21765127335359036,0.292811359001627,-0.004444979327528265,nm,0.0
190.64623099999997,-16.512117641175234,5.908619099276496,-102.92081946926905,0.6880328654759159,-2.1783102097805394,-0.1561990800340958,0.15219249635315535,0.26504018413248637,-0.0682374646684954,nm,0.0
190.655748,-17.778451455103887,6.142817832363216,-103.51895830469087,0.6517446361797281,-2.4785251497255074,-0.05178902861720713,0.08957873792465813,0.2316643171202437,-0.09487513635261535,nm,0.0
190.665243,-18.942523497333887,6.179852003571658,-103.5885759952153,0.5436156390223955,-2.4945812150640703,-0.11990205199384256,0.04700512689681809,0.22065556652880222,-0.06668376400381844,nm,0.0
190.674771,-19.990207890495306,5.958506654464497,-103.23349835945304,0.5916971399145021,-2.28834699631653,-0.09761972834728087,-0.009279957991354698,0.2100081664075324,0.008647777195047644,nm,0.0
190.68427599999998,-20.911943253877467,5.494549232039559,-102.87232813404185,0.5541683909426135,-1.8793242354714506,-0.137715860685042,-0.06287710720508083,0.1965401413838012,0.08091921454329855,nm,0.0
190.693973,-21.47345935689845,4.818915442371371,-102.12532376839188,0.6583491962252179,-1.219688819624718,-0.029500889004935957,-0.12184045214966849,0.13488829652205658,0.11745854996401155,nm,0.0
190.70346600000002,-21.645259401268937,3.7422347510453275,-101.17710899353416,0.7436034518356037,-0.9100221653912594,0.030055668048894885,-0.21812939989380262,0.07280283019471322,0.12810105339125202,nm,0.0
190.722476,-21.310752379378957,1.7459448544437524,-100.75410031664572,0.41445043255006786,-0.23360252638817416,-0.18056155608985905,-0.21355158967202809,-0.03992512120703773,0.005311629246185487,nm,0.0
190.73199000000002,-20.481142988343674,0.7801239234681804,-100.97250722821144,0.35885061122947737,-0.11805570379611419,-0.1033518745627771,-0.23489422891947856,-0.13050670116612792,-0.04795702064924017,nm,0.0
190.760326,-15.652633442149927,-2.109254463625752,-102.05134636512767,0.23508269304736,-0.07557492400854138,0.2483171762928578,-0.2878197513888063,-0.3620117506801475,-0.05149048999938421,nm,0.0
190.76983499999997,-14.162061572822232,-3.1564904983702586,-102.29976893708466,-0.023592190087496606,0.13448770021638887,0.22795029960152197,-0.2815028342893458,-0.25088945937750373,-0.03754184817788727,nm,0.0
190.779347,-12.7409009869488,-4.0782858024428545,-102.53013579047659,-0.14095379519564108,0.37346601436496035,0.08862029518475495,-0.25493763208350306,-0.24134708965801552,-0.029888042833781613,nm,0.0
190.78885,-11.369384174443763,-4.828822633781599,-102.78929788458414,0.11217269518339217,0.6523185242210774,0.45859927824216173,-0.22022901395850053,-0.23786946301691483,-0.032493353012215745,nm,0.0
190.79836600000002,-10.502140528642181,-5.429762743540597,-103.11932877476265,-0.01717551026350957,0.9535854281271594,0.3230483188850691,-0.16962568626874097,-0.14520610420530322,-0.05259925493070795,nm,0.0
190.807877,-9.593531597656812,-5.951597740097586,-103.43819555629796,-0.11067513378690866,1.273923505074207,0.0960632261170858,-0.15685100192964738,-0.15579645241445636,-0.04798418157436513,nm,0.0
190.81738900000002,-8.293303019444053,-6.459152736631533,-103.62979398242267,-0.1139566632703099,1.6435786940954589,0.1263633867621093,-0.17290868066098036,-0.23147815356564266,-0.01261848272412667,nm,0.0
190.826723,-6.478219536943957,-6.8717686183774305,-103.62954550430304,-0.33513514007257406,1.8650616136428317,-0.05237381017879319,-0.17879900530833653,-0.3350689198544931,0.039497350400158455,nm,0.0
190.83622899999997,-3.886822376278588,-6.993612492747504,-103.44635948261663,-0.3781175584859709,2.0864669816953274,0.11233882088052817,-0.1575782887927079,-0.49895204352227884,0.09603723474510474,nm,0.0
190.86511599999997,4.776121129366368,-6.172037187887386,-102.71027982056329,-1.034282688160981,1.5840322925850763,0.4521050108150637,-0.05413159246026376,-0.563808271395625,0.10279134578103308,nm,0.0
190.884134,8.752723050224636,-5.574331014980322,-102.07435913139611,-1.4128489285483068,0.8776741148989257,0.22895013267092276,-0.04732563483869726,-0.3346579522623106,0.10063981613264461,nm,0.0
190.893649,9.773884663126582,-5.748419425108755,-101.54620249369468,-1.4104655184638661,0.6382061211986498,0.2168388552639541,-0.08767225599866205,-0.19679099113081192,0.11978714213773298,nm,0.0
190.90316399999998,10.02141561660002,-6.149401379269139,-100.85886479071985,-1.2713426522542404,0.572747624814823,0.2505522525676541,-0.10016769178183832,-0.037703075298180844,0.1366291663578753,nm,0.0
190.91266199999998,9.47562099235503,-6.64658032845671,-100.11006624663248,-1.0497765538849166,0.5867854643012623,0.18974981582677866,-0.08996100704081271,0.11979180059156953,0.13178048006618082,nm,0.0
190.922183,8.318153893940114,-7.137046162804376,-99.44612263487367,-0.7598462798798145,0.6372848882007729,0.09042919197609121,-0.06961084015875896,0.23817933193718338,0.09943206226530263,nm,0.0
190.93168699999998,6.734995608897807,-7.5624984696212305,-99.00630710233862,-0.5073103673596181,0.6436078433844806,-0.019549072829117584,-0.04571717830608043,0.31868151980507264,0.042168693301160826,nm,0.0
190.94121800000002,4.934911765011574,-7.87852739701519,-98.84475709678652,-0.2978124196853728,0.6217060639362126,-0.1456891829048888,-0.01930455782003307,0.3573735812261276,-0.021021490533079418,nm,0.0
190.950727,3.0736054296664195,-8.086903372406505,-98.91834073070288,-0.15125462109423976,0.5547230025919443,-0.22224533197119287,0.0033693407106988797,0.36589157488866575,-0.07104095347456857,nm,0.0
190.97924300000003,-2.249009027572395,-7.772505964342567,-99.33346046432808,-0.011481345132120051,0.34872782602057384,-0.23738285664464803,0.09686425142854625,0.3063870355331167,-0.05989780792938947,nm,0.0
190.98876800000002,-3.5638833724670165,-7.283920730984452,-99.26061997137852,0.1590226526301595,0.2944696756615986,-0.11000114283665322,0.12577802432759858,0.23695987471986193,-0.023211523931276994,nm,0.0
190.99828499999998,-4.764494611535475,-6.5877451193461924,-99.15267035883394,0.23881120978828171,0.22244137801446948,-0.08827021974334415,0.16278728672493026,0.20850339329966483,-0.010548591499989431,nm,0.0
