timestamp,roll,pitch,yaw,acc_x,acc_y,acc_z,gyro_x,gyro_y,gyro_z,markers,motor_input
240.005367,-6.207592445287671,-53.60577411435722,-41.000632705342774,-0.7754124005252163,-0.258554091030923,4.26738656394042,0.4698431296381948,0.16330757871959864,0.6819170142005015,nm,0.0
240.014866,-4.910782353006941,-52.588329552922865,-38.548632225881484,-0.4765752154775661,-0.642179849093531,4.555600701218503,0.24823803821564244,0.04301403519818153,0.7014625267397314,nm,0.0
240.02439999999999,-5.2505193736670535,-53.007007550330115,-35.4386769702112,-0.373937355163854,-1.1315297449470185,3.816657376418175,-0.08465809883811594,-0.05615856970542512,0.5713926807116179,nm,0.0
240.04341200000002,-10.755127774657362,-57.75809405945732,-28.832441993417028,-1.168499704583777,0.21365508619044007,1.9090369138133263,-0.6281642608627792,-0.2980901266979514,0.008017207965556425,nm,0.0
240.05293500000002,-13.41278651959284,-60.87636823612934,-27.784117417636736,-1.0485878590505728,-0.6933562349511271,0.458910782705337,-0.5367913610563161,-0.4344478241145606,-0.2435564570602035,nm,0.0
240.062444,-13.664603442451691,-64.34856271111778,-28.514566028279514,-1.344921575587576,0.6719211641450522,0.3818537674711987,-0.3506939902298314,-0.6156310132705184,-0.18647019161873496,nm,0.0
240.081293,-16.995765698709338,-70.57033101869598,-30.892288339014872,-0.9567006884704105,-0.4317180198587222,-0.533119927871646,-0.43951551387818855,-0.41415018421309374,-0.5716358941822911,nm,0.0
240.090815,-22.5952055401731,-72.73489733371106,-27.75746105709965,-0.7911666173444465,0.4672355030086961,-0.6260068647513499,-0.5240919257141662,-0.217445091748622,-0.43131148541228487,nm,0.0
240.11939299999997,-56.655423475102765,-72.96191819647791,-3.7942012555659677,0.4131958641133807,0.0493876569672872,-1.5284631767770027,-0.5793927678000375,0.2366620798900811,-0.5588000274440036,nm,0.0
240.12893499999998,-64.5408572919642,-72.5239240983574,0.8040844390839945,0.7036589388751335,-0.3081520262435551,-1.8068765528220254,-0.47133616636563114,0.09017290956614761,-0.5783456333100258,nm,0.0
240.13842300000002,-70.41299817039346,-73.20582848878274,3.7049163360405246,0.9114138370513989,-0.3830934593405805,-1.950995915461704,-0.3470174061595521,-0.15917437079985639,-0.5340808243414383,nm,0.0
240.17646900000003,-96.64071177757337,-81.87676693022912,21.176774686454632,0.6590412942191655,-0.7865530266242914,-2.0302471108845674,-0.16001360416486834,-0.39452599170484864,-0.29710191963766186,nm,0.0
240.18596399999998,-100.5986296576752,-82.23200078801064,23.825254466222024,0.5895938988562279,-0.8458746540120116,-2.194881106824927,-0.08256924673054232,-0.11500379702111063,-0.24623845846377806,nm,0.0
240.19547500000002,-96.13656563104347,-81.5034500292425,18.4187935693213,0.6373561259989576,-0.786216428275743,-2.3749929954755564,0.05437349500597229,0.17537387669611906,-0.19043363484416337,nm,0.0
240.205003,-86.22531615851456,-79.92480481195223,7.927532928746027,0.6612866363382262,-0.7335645605190871,-2.479414023580265,0.22800029643985575,0.374240034482891,-0.13400415408286084,nm,0.0
240.21449600000003,-74.96527490575996,-77.8192429275579,-3.351357511161618,0.6495799832386289,-0.5651605102308772,-2.4070920862942904,0.40665483068561664,0.4313564080156489,-0.036934130696169416,nm,0.0
240.224011,-63.94143971958193,-75.61588527710953,-13.82768442754758,0.5467132787876072,-0.1942278925964165,-2.0338735942268573,0.5566780607926308,0.35264081544227266,0.06014173431887271,nm,0.0
240.23352500000001,-52.9898564163342,-73.48778755998333,-23.726173898841935,0.380703628655702,0.22755937277393729,-1.3532205005749038,0.6798879441236376,0.20698542085411692,0.14102776483781349,nm,0.0
240.243125,-42.19822268381509,-71.21407055917527,-32.97183904421395,0.1359473967801545,0.6346854593080765,-0.49671657844288863,0.7827313668289183,0.08044509463011619,0.21694650651071692,nm,0.0
240.271665,-19.26756234311276,-61.173131927471324,-47.09295776999887,-0.9266382943153408,1.6903873131625053,2.4908171552630107,0.9256809079508131,0.1566151496531445,0.6833410670837254,nm,0.0
240.28116400000002,-15.128961627422921,-56.97026028863876,-46.51861605203959,-1.1386702346223714,1.0529393506663922,3.301658285074563,0.8995047551629269,0.25321122720785677,0.8310172714142622,nm,0.0
240.29067799999999,-11.947437832123732,-53.47810085563507,-43.81911703348294,-1.1547727387145805,0.5354207552192092,4.431175867631877,0.7479646394056895,0.22231130413082553,1.0678134282102152,nm,0.0
240.300196,-10.11419377056315,-51.51408134610791,-39.63133335907507,-0.9429206058232202,0.16632595757797486,5.4152222984096525,0.42572108173590006,0.13129398943664458,1.1331805159848711,nm,0.0
240.309699,-9.821910498151244,-50.913667330801815,-34.99519861364309,-0.2734862607758771,-1.1006661347469018,4.152977237058599,0.10020950494983967,0.05962690720383808,0.9772411826179864,nm,0.0
240.319216,-10.530676993100696,-52.1099768041267,-30.815289662408116,-0.518728031075064,-0.7858042956949397,3.0643244249907418,-0.20543142346565715,-0.16704902698629398,0.7292699393283392,nm,0.0
240.328721,-11.950956845604633,-55.063601859269646,-27.986853005285585,-1.2601211818463411,-0.028370129880082463,2.6927547424838734,-0.4383695306198891,-0.44621438470887503,0.34110309345661055,nm,0.0
240.36678099999997,-9.362249095789936,-68.8769471444766,-37.769185227175285,-1.1446694962140112,-0.22766482391740328,-0.06621103861252525,-0.39272460475661214,-0.5860353874100238,-0.6087571639848549,nm,0.0
240.376117,-12.802556392800254,-71.38536779528948,-37.109281503677536,-0.8367970997347093,-0.35329759614563744,-0.4802840101218172,-0.4958275058456851,-0.2692586026284625,-0.5111499068915563,nm,0.0
240.385597,-22.02526696639643,-72.86949854001503,-30.46616756676324,-0.4323768027146464,0.40783769536744674,-0.769718248136803,-0.6400290461094674,0.05604507539174432,-0.4223701539345155,nm,0.0
240.39502000000002,-35.839885872033,-73.08091843800663,-20.019524235773066,0.04889446362228391,0.14413943943143565,-1.1108250463182623,-0.7534559948636566,0.29479009238823967,-0.5473164963123627,nm,0.0
240.40453799999997,-48.014199957981575,-72.14133237903455,-11.08914947826635,0.44743422717675163,-0.45021903519083706,-1.439974319106776,-0.6552220781911128,0.36462315663633976,-0.5307257194871421,nm,0.0
240.414056,-55.39392027058075,-71.30869250380526,-6.20019101755584,0.7896556309107803,0.008750368849204791,-1.8081538331154359,-0.43804749054615383,0.2240627117182757,-0.41580028273298675,nm,0.0
240.423732,-60.239551307067984,-71.87994672928988,-4.240632390451056,1.0384027135897353,-0.35525003478164285,-1.9378513895591798,-0.32143007142274327,-0.09581065044163331,-0.5199766063204547,nm,0.0
240.433163,-63.44729450286264,-74.15386464325867,-3.7957961894397507,1.0420370365585199,-0.8943923904721229,-1.7673654844878113,-0.2259532967445969,-0.45088593358940454,-0.5177058194942705,nm,0.0
240.471288,-74.77307220245271,-84.79240919957596,2.088614966518732,0.4514796769711209,-0.5611495341365176,-2.0461625883383077,-0.11233111203789917,-0.21810605553080276,-0.13473456942597808,nm,0.0
240.480786,-74.67177526206869,-84.06696546835329,1.3139478685005865,0.4823832262932331,-0.5704707743628404,-2.306146380066314,-0.01174470678976543,0.1396912561816651,-0.12542634001377898,nm,0.0
240.49029900000002,-68.50943640350359,-81.99413111469353,-5.226267803084498,0.5649854559184889,-0.554020003259171,-2.494814800865188,0.15340745336238903,0.4057482789192648,-0.07360330503162181,nm,0.0
240.499811,-60.633899967624124,-79.27323511122796,-12.955322746515558,0.6304866373821155,-0.24915283628707494,-2.544902196118696,0.3297796683093456,0.49146595766600326,0.019248137919284133,nm,0.0
240.50931699999998,-52.261310418887575,-76.64828380467631,-20.855888704956712,0.5300489343531541,-0.03897963343966524,-2.2339626301449487,0.47812311526413337,0.3935314953916086,0.0675645934790253,nm,0.0
240.518829,-42.57990781160748,-74.31579818855391,-29.57320618318636,0.2963083587588724,0.31626479174735594,-1.6044952134044292,0.629214068486506,0.20662073260134164,0.14025466156178681,nm,0.0
240.52827399999998,-32.10985055713818,-71.90376204165923,-38.74528769551254,0.02595293511914402,0.8801935764298413,-0.7348566183041322,0.765625835303031,0.047888691809861224,0.17810834800204298,nm,0.0
240.537951,-22.86861044256917,-68.97749550637064,-46.56934714996114,-0.43255799249455074,0.9820214922999994,0.1520126246002964,0.8435503165375111,0.0007315449773021486,0.1849732697857751,nm,0.0
240.57598599999997,-8.168373740743561,-53.21514771141252,-48.2059482249127,-0.9874353417482628,0.14110572465946927,3.964362277598677,0.6821777937729949,0.3737672090002237,0.8262888832435857,nm,0.0
240.58550599999998,-7.473357815874326,-50.88237212077429,-44.17384483264507,-0.522813366185813,-0.10609041223184244,4.702678886880803,0.3928480797950818,0.2482480962494202,0.9200725281943409,nm,0.0
240.59501300000002,-7.6865279442589385,-50.17081885448154,-40.20694436177071,-0.10169104710121307,-1.1749341707884473,3.8546529299164702,0.07284882109328202,0.11011388900801257,0.7642598687947137,nm,0.0
240.604525,-8.147657119318563,-51.202205562454466,-37.06754456293255,-0.26946357605657534,-0.9261191330932182,2.867173218747029,-0.17685992120230656,-0.13862802772345945,0.5601504790825587,nm,0.0
240.61403700000002,-8.748324585091483,-53.951883083853005,-35.4020160972362,-0.925871003807583,-0.37717536841360183,2.445363297584867,-0.3865421297735352,-0.414721908856598,0.24115627487911462,nm,0.0
240.62353800000002,-9.204868352237042,-57.14282214938485,-35.798525402725545,-1.2362083526980583,0.0999134473561568,1.4997307756458031,-0.4165676277845565,-0.5030807284879013,-0.15122177466483655,nm,0.0
240.661599,-9.356203217204289,-69.41982333433101,-44.687918953850776,-0.7776321912005679,-0.25298636735135654,-0.49396214954781276,-0.4968379564923401,-0.18065117046036847,-0.5109390796080135,nm,0.0
240.68042699999998,-27.469503387676628,-71.32177782160086,-32.22757662368473,0.07187249812501216,0.16315432200140517,-1.0497620101228557,-0.6265913956042907,0.3231719663056164,-0.49555582435448225,nm,0.0
240.689944,-37.49966389919364,-70.8580112826424,-25.314142305601944,0.40137446310788233,-0.36012431650872806,-1.214668354255741,-0.531160268881062,0.38318765717585695,-0.508970221392621,nm,0.0
240.699551,-43.56815790094247,-70.25280520839043,-21.686760435446654,0.718654495804481,-0.13032628495947465,-1.4451189970730653,-0.3286784107933713,0.2619930983195197,-0.4119215480337737,nm,0.0
240.718473,-48.12195230881428,-72.35518058089455,-22.2890233954132,0.9737030423960029,-0.806212018648482,-1.3181868451210874,-0.20843819258306465,-0.29886833094403686,-0.50066989053312,nm,0.0
240.727988,-46.91497403635548,-74.89941487946261,-25.420872620364737,0.9402138330847386,-0.642729968556343,-1.1366847471199433,-0.1523566352523253,-0.5031441533654063,-0.38890847014320107,nm,0.0
240.75661699999998,-43.95546598155574,-81.04924587214629,-31.980321724627007,0.42923738228075276,-0.5535600420319745,-1.5517495322294874,-0.17891981098398285,-0.1954649583070662,-0.1297032030007138,nm,0.0
240.794634,-47.0669780536477,-76.43818237556114,-29.304597178831877,0.3853975943623719,-0.07274322369934827,-2.1181523940042104,0.2829718600832513,0.21970324396547908,0.04837342384679365,nm,0.0
240.80414199999998,-40.6355016821497,-74.82584170995028,-35.26368172785576,0.2258685205907922,0.18617894545666352,-1.6631683654829177,0.4334896094703188,0.09435285084185246,0.06262228620950554,nm,0.0
240.813591,-32.66774684426639,-73.00580949200283,-42.55998514082266,-0.023781437638010952,0.5062947135257263,-0.9932219920205422,0.5634621847492198,-0.0025487579467488664,0.08007129993736148,nm,0.0
240.82328399999997,-25.311248282994363,-70.61421508093947,-48.992269264537356,-0.3228834689993688,0.8260134274531135,-0.2445532605268281,0.6547574537084566,-0.004637134056990535,0.11919536123213995,nm,0.0
240.83276800000002,-20.129893944686767,-67.44963872809817,-52.78281518532979,-0.6516997104822344,1.0930696029609648,0.5251326205503974,0.717516925430002,0.10191105404712106,0.21688527379303202,nm,0.0
240.86130599999998,-13.813227271617073,-54.49474875033485,-49.34070964476291,-0.8085700390336992,0.5774754659812898,3.2613349818349326,0.8081006010508973,0.4429318943939993,0.7787861468581722,nm,0.0
240.870894,-12.054867871343635,-51.03179651962527,-45.945799918484276,-0.24944516415052564,-0.21582398966878205,4.0600984891237655,0.6514540894776686,0.2969183087146846,0.9637369826686365,nm,0.0
240.88983900000002,-10.721664238191371,-50.121872293092366,-38.9312266587025,-0.011653326831526045,-1.0804110252166494,3.3287184827943976,-0.05340321721357314,-0.11317422209160578,0.7081051822207759,nm,0.0
240.89934200000002,-11.360974404212365,-52.72882139206837,-36.27195562928224,-0.62886916039893,-0.40040048261176325,2.586486098142324,-0.3844580714495623,-0.3785584781894547,0.43578085563569025,nm,0.0
240.90886300000003,-12.643590435459108,-56.17289505604859,-35.085194138169214,-1.154184128625938,0.36875606014371126,1.7412576956784036,-0.5264063821090049,-0.48659950190976703,0.0324283126486285,nm,0.0
240.918372,-12.674472194908574,-59.61069843459816,-36.10731118971447,-1.1195137462133051,-0.5020342012441962,0.3569243208383726,-0.4068018395618397,-0.57116980349217,-0.20574588377279338,nm,0.0
240.92788399999998,-11.032532178236812,-63.14897072528143,-38.41349118956603,-1.1290578250362824,0.6343592566663462,0.1398019419985388,-0.307543922905438,-0.6723948085029441,-0.16880366456725981,nm,0.0
240.93738900000002,-11.0980972482174,-66.44481284678366,-40.636509632365176,-1.0156823733973848,0.1527340099490143,-0.2872494806091545,-0.4291590025119264,-0.51841499534412,-0.4525724090263298,nm,0.0
240.946737,-13.719555790321639,-68.86532417836179,-40.52468847430501,-0.8232670117407186,-0.3354598027075521,-0.6392487187879269,-0.47216107353399356,-0.25075771611823966,-0.45846565377113574,nm,0.0
240.95622799999998,-19.75513405320088,-70.20859984875581,-36.505868785085845,-0.3781128225048221,0.3906204646092022,-0.7581516210690021,-0.5031432626162476,0.04060361484973729,-0.32238331706579354,nm,0.0
240.96573400000003,-29.304370476973904,-70.44531866926943,-29.808687968999617,0.09122493173497657,0.14533595295939913,-0.974125171540357,-0.5696188289813118,0.3005400241076982,-0.4535666915198626,nm,0.0
