timestamp,roll,pitch,yaw,acc_x,acc_y,acc_z,gyro_x,gyro_y,gyro_z,markers,motor_input
207.527187,27.07788789646683,-4.785241314711585,-119.16150242641073,-1.6674716409684804,2.5246979749292873,-0.15555327806099978,-0.28957222760048484,-0.3643408311247478,0.09409502897105441,nm,0.0
207.536705,27.898220588119727,-4.739365998604997,-118.7915378467973,-1.6211747601919424,2.2098762047142064,-0.2764629194015748,-0.08178782818532132,-0.15005815135276251,0.07847121913859348,nm,0.0
207.546209,27.271841723748675,-4.439231634297779,-118.42956327423057,-1.5940033746086788,1.739723547794195,-0.2954222230632276,0.10205922706124901,0.07861353984451817,0.05324716759585437,nm,0.0
207.555713,25.447263795933328,-4.040450082376279,-118.08416287764067,-1.4828309038321112,1.2518717372910728,-0.10862893579451487,0.2320424690703155,0.2809250596904019,0.03316160754808801,nm,0.0
207.56540099999998,22.591306225012193,-3.7130323337002324,-117.79356645234849,-1.2657798557260553,0.7785071941035279,0.0727105170823823,0.3140970869570245,0.4713822195688778,0.010924807185209225,nm,0.0
207.57492299999998,18.905332415237496,-3.5276374863694833,-117.58226960899226,-0.9742092280210829,0.39763723814149277,0.13606637146888112,0.3635308216153738,0.6333219211043283,-0.01232379223622131,nm,0.0
207.58442699999998,14.715051848638137,-3.4517004206361093,-117.4724941323435,-0.6070935486659271,0.21035097457034063,0.37273960726459543,0.3884571729425948,0.734276580391018,-0.03640383800517879,nm,0.0
207.593947,10.153640806065741,-3.4040531905919185,-117.54070484342026,-0.13401376573304086,0.14777836700465757,0.31715487104392903,0.4169652183711355,0.8032194559370973,-0.07474131154835546,nm,0.0
207.612961,0.8799534553736972,-3.3199120267072697,-118.45659881648744,0.3078579541562587,0.28575903008694975,-0.468825484755706,0.41878405286431897,0.7903363647371366,-0.17293629204990624,nm,0.0
207.622494,-2.789640754123332,-3.276298820784989,-119.11080990304939,0.6230219507318989,0.23210048451587548,-0.3815221402111712,0.3472432041483347,0.6387921553596589,-0.1771369785687691,nm,0.0
207.632011,-6.143976323055143,-3.1026254486893654,-119.6894991140292,0.7870758496917296,0.16886947943696837,-0.32525198354500473,0.3456993791274916,0.5675388614183502,-0.15643924496206943,nm,0.0
207.65105000000003,-11.23117905421609,-1.7981302746807803,-120.05010173799609,0.8618439992266809,-0.08699207028589721,-0.25811119666848314,0.34587786323437575,0.28216282103985063,-0.022769019954242197,nm,0.0
207.660566,-12.972002222863873,-0.5725380707897919,-119.84290809094873,0.910320409554304,-0.2805740888677494,-0.41185549507514563,0.3725812136850695,0.18016299009599435,0.03221012445668876,nm,0.0
207.670066,-14.511295064987575,0.9226728826470859,-119.51770697756639,0.8950402014769714,-0.3995819395325729,-0.33604358906703835,0.39868031415480903,0.1202182069487019,0.06415877460302762,nm,0.0
207.67957700000002,-15.714673828622411,2.609962312518541,-119.16438807338274,1.0456788191930564,-0.7190169370010431,0.09443862867319265,0.398471415325482,0.04504609792240753,0.07635313030050532,nm,0.0
207.68909,-16.962858569821947,4.460457924119272,-118.89405789617636,1.1104827932049877,-1.249621243243689,0.6057600434315236,0.43096792057764166,0.038947054274056286,0.06779750464344836,nm,0.0
207.69860300000002,-18.44068922354592,6.493388817463294,-118.7688421685505,0.9363713287963391,-1.9249162506213924,0.8139484941578493,0.48457420186742833,0.062399317767813156,0.05168428010718772,nm,0.0
207.70809999999997,-20.154128602024993,8.688745497357536,-118.79441948634005,0.8223992965503587,-2.8632093783928063,0.8891215956724122,0.5349265965565269,0.08710594772068965,0.03872081884706643,nm,0.0
207.71744299999997,-22.5225464261779,10.796240000822353,-119.00835485023204,0.5223331067874787,-3.6246725535484767,0.23461975665711982,0.5811919094245968,0.20596676615817042,0.03623748234804,nm,0.0
207.73646599999998,-27.50435850502875,12.212669240861954,-119.98675527992259,0.3737079319067104,-3.416424018086766,-0.6715809491615042,0.22149767386789618,0.38067327080656455,-0.017558926483381657,nm,0.0
207.745977,-29.206091402392108,10.925969938495117,-120.47982828853398,0.391980500782521,-3.098112629120779,-0.19675064085916324,-0.06867473790430441,0.4189114746202007,-0.030152720253136932,nm,0.0
207.75549700000002,-30.07656405980262,9.533036977133621,-120.81816873869683,0.980987357047147,-2.5529179461141522,0.16821585454852264,-0.16668063903742059,0.2905685134795081,-0.036222948851031424,nm,0.0
207.76499299999998,-31.22534876659374,8.35831468503148,-120.45249651144195,1.1801789707234798,-1.5316571292111576,-0.029129076773340156,-0.10166303157097764,0.3158170014946103,0.04389603050199386,nm,0.0
207.774638,-32.1104470015247,7.1552015396299815,-119.956072418242,0.9882972361257926,-0.5829048150351094,-0.23041976780084697,-0.13399956904282725,0.2735179461057971,0.12456696714491948,nm,0.0
207.78420400000002,-32.14243510821639,6.220299728691516,-119.48849912043075,1.545058356314308,-0.7130232256062542,0.19341672870850626,-0.173560957379744,0.09878771088345797,0.09573650155532194,nm,0.0
207.79365299999998,-32.601252720617694,5.9008942156480515,-119.77638608331846,1.186702283187184,-0.3565334363306002,-0.13138707907361225,-0.024530291570203245,0.11153318945071206,-0.046407955134902514,nm,0.0
207.80318400000002,-33.00710579807722,5.708908552115897,-120.67812771171371,0.6328360515142928,-0.24787187519764436,-0.3583826280897351,-0.0065923044442929265,0.08991487410215182,-0.17067083044445244,nm,0.0
207.83172199999998,-31.784056758187916,4.123898665184624,-123.74986623096396,-0.2696784406629848,-0.7154712011047835,-0.1613340816241202,-0.16493477753482313,-0.08433096411493496,-0.19097071085066605,nm,0.0
207.84123200000002,-30.432096984867258,3.919035281965059,-124.14044788444994,-0.05191408171696886,-0.5028268471159104,-0.2120212995603563,-0.19886628606854848,-0.19943813737287527,-0.0958960105538845,nm,0.0
207.869746,-26.85557725914238,4.353013934630571,-122.86863103809755,0.6065793495525422,0.7356829199150793,-0.1431427082949994,-0.062309713022467184,-0.23898770903002706,0.09367559962017137,nm,0.0
207.87926000000002,-25.52853960387703,4.983108381041333,-122.50581984666343,0.7455905020284151,0.9814011918743931,-0.011575563875605394,-0.0509826761328648,-0.28963990781239257,0.051098813403137974,nm,0.0
207.907607,-18.852399855962517,7.085503595530379,-123.15269397280505,-0.213601115641265,1.0241689050201908,-0.3517693309612982,-0.221209977045856,-0.5579181556288819,-0.1488287773411727,nm,0.0
207.917131,-14.74306095288715,7.486844905326917,-123.36692865936868,-0.5971831950987477,0.9222187896388095,-0.29424142390649444,-0.3943314442616948,-0.7247718076721869,-0.14978545619886927,nm,0.0
207.92663100000001,-9.317529049825554,7.546594807617215,-123.22222871255643,-0.898719907045018,0.9461061482068466,0.05498462162974951,-0.5948615953837612,-0.9050747479784335,-0.11690836447018087,nm,0.0
207.95523899999998,12.29318857947352,4.922158122464978,-120.9559700970433,-1.4971245379484006,2.27110968880816,1.140785183817564,-1.0313008215692807,-1.1491793189106139,0.01948661544308881,nm,0.0
207.96473899999998,19.433386385128873,3.480453217708657,-120.23995022419098,-1.621965277753076,2.894607542252579,1.016113577909401,-0.9850976775876011,-1.080984628810317,0.02954948580652369,nm,0.0
207.974075,25.562086354566713,2.3616623982977147,-119.77151252256117,-1.4905470906819356,3.2104007387471074,0.6141916364554685,-0.8170702703890675,-0.9504598660519494,0.02145225644666399,nm,0.0
207.993097,31.577461964399795,2.2127114010887023,-119.29836117687438,-1.7105676367299538,2.7266575315223123,-0.12814846463063634,-0.12227343592023973,-0.3477755703014436,0.02584535249743395,nm,0.0
208.002711,31.445570952552437,3.159475023331544,-118.86270667389097,-1.808202436321483,2.1330547859580284,-0.2504801559529526,0.16919106354818095,-0.07058310999046202,0.07782958934685749,nm,0.0
208.01222199999998,29.627898814341453,4.062962992053061,-118.31248775890572,-1.8800936060276288,1.3458791488782738,0.051706622461228896,0.32315679113175727,0.23111119826002,0.12259366128139625,nm,0.0
208.021738,26.247485988132265,4.542505874646552,-117.64448470188151,-1.7447912977516236,0.5428906997043959,0.043184089242619336,0.3914654624047477,0.5499805761898192,0.17444240324142127,nm,0.0
208.04075500000002,17.164147994483905,4.1662131281707495,-115.93907720548854,-0.8181318886332397,-0.06212604306659387,0.4142676543975469,0.3440711677026454,0.8900989435206816,0.23731349068229102,nm,0.0
208.050263,12.021075064126128,3.554297342276077,-115.30603128854463,-0.16596903467643528,0.050026134167683096,0.4140533360842306,0.32198054544394145,0.9785704036946059,0.18839796940821754,nm,0.0
208.06945700000003,1.6434324968226306,2.4677113952629504,-115.38288453006842,0.6390455811693593,0.6204450157256285,-0.007593877881595911,0.3319177784367689,0.9532582811287144,-0.012838988324289738,nm,0.0
208.088495,-6.2562480617371055,2.0958219070723163,-116.55911468812734,1.111973638679442,0.6052176439588475,-0.08912650287722503,0.30835887059619754,0.6774798893679341,-0.09654823569093315,nm,0.0
208.09799999999998,-9.310951857391018,2.57762892687889,-116.84105650404516,0.9051901704739748,0.3563330772685422,-0.20839032455441941,0.3469549371810647,0.5026785447879514,-0.03469571556777716,nm,0.0
208.12655500000002,-13.777541730744971,7.391600223926235,-114.5096310508093,0.918162367191505,-0.6704992736452278,-0.3050792104887714,0.4255524118421802,0.00890075470894896,0.2658135097589941,nm,0.0
208.145565,-14.164535385624514,11.782541605771879,-111.92626110194934,0.9337350085319932,-1.4432246621370453,0.11295496352269845,0.39073942755855784,-0.15664341922626285,0.24573770547998447,nm,0.0
208.15508000000003,-13.94774773622778,13.571123662091498,-110.89635359576366,0.8313106073595014,-2.1042224529241116,0.43630386349402367,0.3042074257815005,-0.17107591414051734,0.1932935926192169,nm,0.0
208.17394199999998,-14.437679989619934,16.64814741728612,-109.88832446545744,0.38993875263543504,-3.6759805356857504,0.14129619900219703,0.30277665556781613,-0.002159131614433124,0.0864548234863747,nm,0.0
208.183454,-15.390551126698483,17.51997328974493,-109.96587107135336,0.31175885318755475,-3.837589775439333,-0.4086681502332977,0.21254428733375635,0.11099946417847444,0.03708811389696526,nm,0.0
208.20247500000002,-18.27700231481737,15.307170183590102,-110.97356836912995,0.5518453621301144,-2.8966377612082908,-0.14070334743449034,-0.23660023239484237,0.4130168680310025,-0.035744444638733816,nm,0.0
208.211988,-19.772517446159675,13.477202387052916,-111.68190806775047,1.1127617713079099,-2.1914127892323423,0.29959384280682017,-0.24983854714317041,0.40253277572667595,-0.06946127517230419,nm,0.0
208.22167800000003,-21.979490030540177,11.7306632541666,-112.18459671253774,1.1159960239072202,-1.3918933955941066,0.07267702780800561,-0.17737643677822346,0.5297305586470286,-0.005627188122723119,nm,0.0
208.23120100000003,-23.935083275927784,10.023298890824965,-112.38941619162834,0.8271178710631161,-0.47714342679370425,-0.3734697579515431,-0.1846148984355512,0.4844678307359984,0.03206366990771581,nm,0.0
208.24070600000002,-25.02752543083208,8.53455017742899,-112.50872215536582,1.316690003861108,-0.6132687874395486,0.0624114412594859,-0.20723115058002217,0.31232256648330126,0.010958260837438144,nm,0.0
208.25019,-26.46214798552545,7.544523863171423,-113.04740991041636,0.9099915748216436,-0.25931907943867233,-0.3997691218482401,-0.08681306869352264,0.33804855783984766,-0.06766582105283414,nm,0.0
208.25968400000002,-27.614668813973715,6.693004184916237,-113.98823557224965,0.4293942670031034,-0.2331107449993444,-0.5828403445210788,-0.07913130434155076,0.2772482906703539,-0.1594029678765642,nm,0.0
208.26918400000002,-27.953215469079343,5.622619046321122,-115.12265053755199,0.30725788528672987,-0.46308310220988347,-0.35756507556440653,-0.18111877334310678,0.149881056836778,-0.21929839844821966,nm,0.0
208.278713,-27.698929328191614,4.460495164822472,-116.34114052934899,-0.05090343600030667,-0.566081893174026,-0.14958056199571365,-0.24583531478654866,0.05515978222808661,-0.24780213878199764,nm,0.0
208.30705300000002,-21.961150691646377,2.3156463478335985,-118.86922957715947,0.2368521627938499,0.3010990251840852,-0.25167244037987313,-0.32568225438148074,-0.29905096941787285,-0.11438535169712265,nm,0.0
208.316561,-20.369700690421524,1.9535914387629438,-119.06908285030794,0.09867836133716612,0.9517834385217754,-0.21846720508264614,-0.2318369549787908,-0.24290163686421862,-0.0525971036287481,nm,0.0
208.326067,-18.44186797988003,2.2409291707908925,-119.11630889188824,0.5002180324846768,1.25054293135874,0.2611550182220024,-0.15144236690704538,-0.3644642795099113,-0.02475133130142231,nm,0.0
208.33557599999997,-16.64554307262055,3.1376656652737784,-119.14894285739135,0.4906984663950907,1.4888162246286551,0.27453327738368133,-0.032175824817485606,-0.4006260976614523,-0.02507119254099469,nm,0.0
208.34509,-14.849014175769703,4.521699226003816,-119.22933421131414,0.13037753167851787,1.5042160524370027,-0.06616765056421105,0.05286410523804528,-0.4478181046537884,-0.042325203291761475,nm,0.0
208.354772,-12.67485802258902,6.286927744283179,-119.34674916837412,-0.024909270085920743,1.1243927913706897,0.08516119548253985,0.08233148589815983,-0.5501393313181493,-0.06737593808208026,nm,0.0
208.36410099999998,-10.544632638250638,8.072069097898863,-119.43534565103182,-0.25014392439971156,0.7768491294354675,0.11800666813964833,0.0899819332974606,-0.5432624227312618,-0.0745663580283955,nm,0.0
208.37362,-8.596131804652373,9.404556781201368,-119.39872562661347,-0.6558391468519998,0.500443297155211,-0.04622453628146666,0.029411058997727033,-0.4659829851850989,-0.056023290892500154,nm,0.0
208.38312399999998,-6.48752393226533,10.214370703101288,-119.19921378682153,-0.7890080357562484,0.2946326609559575,-0.03126351794778798,-0.07560771254084775,-0.4411842085308776,-0.036603739089987604,nm,0.0
208.39263100000002,-4.421661809633768,10.560468275182439,-118.90073765150387,-0.7596413215907455,0.2857370869719107,0.04136440776346911,-0.1502346754526822,-0.3883908192728127,-0.019904757145472927,nm,0.0
208.40215300000003,-2.6239131080865192,10.407233188659173,-118.60120079652808,-0.7251547556531036,0.5021220352158643,-0.02727600623849636,-0.21026516654397526,-0.2946988716850105,-0.010959307276159489,nm,0.0
208.41165800000002,-0.9548326860264419,9.81237681117792,-118.37564461534302,-0.6137853314638269,0.6751014757124804,0.0668421640274805,-0.27461748527030366,-0.2316097125614162,-0.019215615225800717,nm,0.0
208.421252,0.4724948763406791,9.051696210083815,-118.25326100927624,-0.5430717371162337,0.7980026354493863,0.1668726499695459,-0.2807211000160796,-0.17531310585529403,-0.028255215889729873,nm,0.0
208.43076499999998,1.6273446591693614,8.346044109868748,-118.16695847904955,-0.5169008911170206,0.9077531508446364,0.05621654677108054,-0.24539784686366992,-0.13408837938499008,-0.02377739142096551,nm,0.0
208.440188,2.5940927197778905,7.680118565764918,-118.00035364202238,-0.5032019873937893,0.8355203583392982,0.08473021574036338,-0.2206563923544169,-0.105910930029056,0.00016073060589245523,nm,0.0
208.45920800000002,3.8200583210513117,6.560544306260741,-117.06690250045637,-0.5453521313597902,0.5094026547686509,-0.07442793530382835,-0.14951237309544085,-0.0468873081874749,0.09867640602682498,nm,0.0
208.468739,4.259768007516417,6.124520920245997,-116.29131357263734,-0.46903902641466627,0.3864883565663502,-0.18464072669142229,-0.12999303278596158,-0.039118400355580084,0.13916359328079214,nm,0.0
208.47825099999997,4.651033259090534,5.632263934437626,-115.48599256255615,-0.40443992754370894,0.32489799486794085,-0.24036268639469494,-0.13537597825190495,-0.027441181761635264,0.14679228689369242,nm,0.0
208.497267,5.551411867178159,4.55749423183769,-114.45914873757398,-0.22560969615128845,0.39881021392198646,-0.16322988740863678,-0.14839594027300912,-0.039902115619519195,0.05947193829297951,nm,0.0
