timestamp,roll,pitch,yaw,acc_x,acc_y,acc_z,gyro_x,gyro_y,gyro_z,markers,motor_input
213.509334,-81.5307188030363,-12.016955436106112,-175.0861223515879,0.06835426094600956,0.006817186804712228,-1.5119001189940817,0.10707016469049109,-0.33495497204359675,0.11231071020741314,nm,0.0
213.51882400000002,-81.22368965736916,-9.523514375566535,-174.77753815356144,0.268891684956039,0.010241180976273238,-1.3097276294090383,-0.021137819907087494,-0.49650836606407733,0.08507013558523796,nm,0.0
213.537771,-77.97074503844829,-3.046394948442161,-175.3149089385347,0.1801921607954203,0.12850601095136613,-0.7662688683381855,-0.36486977004849164,-0.7077243793266808,-0.03980804509255704,nm,0.0
213.54728100000003,-74.359205205361,0.46450378302198914,-175.74985216726958,0.05397367672372762,0.04359230601703213,-0.48332401435810307,-0.6731344390967392,-0.7496561642581128,-0.060700100454073175,nm,0.0
213.55678300000002,-69.27399677848922,3.872392215738981,-175.9451268498786,0.06276965361290526,-0.847246620324576,-0.03992035179676738,-0.9731515195011371,-0.7456786465691526,-0.06870702078581034,nm,0.0
213.566317,-63.340268439623706,7.0038240863038865,-175.85933538070205,0.16740570866190346,-0.7067013636403621,0.8795928043627713,-1.1431305831515255,-0.700359732452446,-0.08792723670129213,nm,0.0
213.575882,-55.76324821444261,9.71337758150484,-175.37374779207616,0.37807023215900537,-1.0696822743994192,1.7696435769969976,-1.4636664465235631,-0.6449337817346201,-0.11768163871728787,nm,0.0
213.58539199999998,-47.19340408009876,11.782312499867082,-174.69195896623955,0.5794580661274626,-1.4006477963194985,3.0268410713050984,-1.652166207156246,-0.5471131174017098,-0.1798901440937379,nm,0.0
213.60441,-29.954962016569247,13.822424119632872,-174.4131788947371,0.1436333203057012,-0.31651482405672193,4.400153284543598,-1.6586160728917148,-0.30197336532037455,-0.4352612076256064,nm,0.0
213.632957,-14.762609738751681,14.59058610661476,-178.14303920773455,-1.2102825605142242,1.4084631956174196,3.6023089709557534,-0.5549630503772104,-0.0056112713747409615,-0.41555228513640685,nm,0.0
213.642463,-13.735280386953605,13.939237149776867,-178.84260108789724,-1.3149872134860425,1.3776703295082156,3.036076606702016,-0.20872098319889093,0.13755412562298583,-0.19417140513479633,nm,0.0
213.651981,-14.42754289212112,12.56007422803171,-178.66986578329056,-1.1510143400068469,1.180629455623369,2.6245705763239338,0.12278548077963906,0.29145850168577797,0.06318662374715286,nm,0.0
213.66140600000003,-16.179042109768954,10.587697824405717,-177.75207142919862,-0.7729518660117224,0.649055427559976,2.3024131163769765,0.3246293140656961,0.41784927652471127,0.2514807381230537,nm,0.0
213.67108800000003,-18.717881092573084,8.32853431548075,-176.58315530615278,-0.174134865834624,-0.006169852860374985,1.8119331626198718,0.4716356522451091,0.4888432873186994,0.31568102114671237,nm,0.0
213.680604,-21.940523600706044,5.918778486890115,-175.7562823528949,0.4601902114938081,-0.26602898892289406,1.2132497998223877,0.5994868861643186,0.5363263151493881,0.2446609118123641,nm,0.0
213.690123,-25.04578954305764,3.2086110476465888,-175.60061229298736,0.882084632178701,-0.33454063432093123,0.4001084918878305,0.5698972844374629,0.5998932688697208,0.0807767370019177,nm,0.0
213.69963800000002,-27.66255632750063,0.1344013733142659,-176.1724986740675,1.0394705905714021,-0.5089635699611027,-0.10261953539714658,0.47112020435446733,0.6636644642869087,-0.09809114756431433,nm,0.0
213.708971,-29.903682091755126,-3.084242198725949,-177.32364498584425,0.8903616389951191,-0.23631738874910746,-0.5439159834520413,0.4045444890679938,0.6811309985223691,-0.24000358101159258,nm,0.0
213.72797799999998,-31.24473508565885,-8.650731535767786,-179.72623192949746,0.40228296680244763,-0.21186358102283756,-0.8203723069905876,0.015010358050250121,0.5246531540718455,-0.21526041564612744,nm,0.0
213.73749899999999,-31.199195983179866,-10.591678625684057,179.679371552282,0.13477403174931363,0.06328526521608226,-0.9862071605987921,-0.014683882666746854,0.4012464420646354,-0.11445177799223319,nm,0.0
213.746901,-30.646205413820528,-11.949665910684026,179.66247649032675,0.021695837425335228,0.12104654891815853,-1.1084179118861062,-0.1128390469999354,0.28515059568792583,0.02129330210727382,nm,0.0
213.75643499999998,-29.715251397033967,-13.056694536657632,-179.86731933473493,0.052400328990391244,-0.09125360802767572,-1.1131716751115375,-0.18749899632895142,0.23458712210418406,0.13743253068176087,nm,0.0
213.78494400000002,-26.555409075379643,-17.104968401968176,-178.74456655513885,0.21222941937062695,0.0946719232017879,-1.4703250089718851,-0.23405451055211365,0.3112126993970079,0.07259846854418624,nm,0.0
213.79466599999998,-25.51109475110124,-18.761815483590773,-179.12778173927884,0.20415998776987582,0.2889991692476247,-1.5605945700105723,-0.21111679796828026,0.3406008380150363,-0.009679975036519248,nm,0.0
213.81347100000002,-23.920566254186728,-21.702739096239778,179.78810040707955,0.2655492862990086,0.3890853098033148,-1.5368050983096482,-0.12137651762673798,0.27666821293127053,-0.05424974990061464,nm,0.0
213.82317099999997,-23.83799471829643,-22.557433168932867,179.62917311074,0.33851622496398015,0.42683355571894704,-1.6045801853073272,-0.020152191378474824,0.18395140842509283,-0.022899797331509573,nm,0.0
213.832706,-24.32216119573912,-22.88158400471751,179.93381149643574,0.47297245895104667,0.2622679042815193,-1.5619577492675296,0.08395426555044731,0.0772633900556188,0.02636216334530058,nm,0.0
213.84221899999997,-25.395649010582215,-22.60483362690552,-179.47144666356667,0.5449748975985711,0.07514602546701998,-1.5629316753265363,0.1926907449580692,-0.041988542090882035,0.038973974933250166,nm,0.0
213.85174099999998,-26.823676092767258,-21.74883321585076,-178.13519375457446,0.5368638037826322,-0.05140016898042356,-1.5972887910058196,0.2634540803320454,-0.151529808640538,0.00622487392868177,nm,0.0
213.86124199999998,-28.36899228651671,-20.52337286952393,-177.05928108262415,0.4385025678392102,-0.2539086365629121,-1.5438033173463903,0.2941799844575682,-0.2185600383632738,-0.05990899648793134,nm,0.0
213.870751,-30.002463822123474,-19.185523711228125,-176.3862968918833,0.20035072289331501,-0.23315599515670238,-1.5473032855867628,0.3180881300748747,-0.23519651777103284,-0.14703813691667406,nm,0.0
213.88021799999999,-31.47320911484754,-17.90282365766449,-176.96285997996026,-0.05294517302455563,-0.24264687707421578,-1.4719001477512734,0.28753128636245184,-0.22800073339963495,-0.20523044385005085,nm,0.0
213.889741,-32.7958329496553,-16.768147516579578,-177.6912582455396,-0.25719482692852214,-0.26203736587813964,-1.386546761113917,0.2571897198263613,-0.20292813360323572,-0.22071118671557022,nm,0.0
213.899257,-34.055385800408764,-15.773412466145333,-178.2753391062105,-0.3785709407700019,-0.16962783648686589,-1.3576810857819712,0.2431560251429362,-0.17828953341012313,-0.18340828553331645,nm,0.0
213.908759,-35.14066328196923,-14.764235912811959,-178.48719851593822,-0.3391744364963177,-0.14545819180669892,-1.3010985131948427,0.20948175370924357,-0.1838446128823835,-0.09533413401573249,nm,0.0
213.91827099999998,-35.97328926486142,-13.544335765158877,-178.2574833726975,-0.17317651456681,-0.15374161228924124,-1.2421862239264934,0.1626485969442172,-0.22741310954026298,0.009579269622753834,nm,0.0
213.927697,-36.4300686306294,-11.998447766163126,-177.6569019691738,0.10797732116719946,-0.199920611027611,-1.123706719581642,0.09406768240509689,-0.2940926080667681,0.1043188257703746,nm,0.0
213.946716,-35.64612689797982,-7.7738886042750055,-176.27987123646687,0.6398888933381092,-0.291543655971976,-0.5796594389516954,-0.12116219324271953,-0.4563726908702396,0.1513264019203666,nm,0.0
213.98475900000003,-24.421663932661588,4.42428274136369,-176.22078765874016,0.024608044896242874,-0.376187752203893,2.137504941849219,-0.7185995296468024,-0.7240995156379578,-0.055236276463032294,nm,0.0
213.994343,-20.32812193838248,7.857015496084373,-175.98710574319745,-0.4011697078148996,0.20506086128795573,2.4598081627667483,-0.7736837951459302,-0.728686835700783,-0.04228566853465923,nm,0.0
214.00386899999998,-15.763256161206002,10.902919076015108,-175.2843312185325,-0.8493126228078384,0.08676149915144057,3.448690058449576,-0.8599616053649703,-0.6644101734597156,-0.01108398667204069,nm,0.0
214.01337099999998,-12.065072981714382,13.23910581102109,-174.35405895195893,-1.1234382048761882,0.4121219090692386,3.6551327113287684,-0.6859072541211584,-0.5192779378080261,0.027554672849697082,nm,0.0
214.02287700000002,-9.662385970034197,14.705948218982815,-173.55239595830156,-1.0979476720927601,0.7949901780401922,3.2222115608366138,-0.44017117048700743,-0.3295604426514549,0.03991039370091868,nm,0.0
214.03239299999998,-8.481866218799395,15.232393875788915,-173.18344902939307,-1.091884184508854,0.676521997381774,3.3123979124759786,-0.22143512257405173,-0.11950217457722805,0.008128589074721883,nm,0.0
214.041823,-8.780911381154317,14.903467467309325,-173.40246982592728,-0.9257183578353353,0.5837322628290237,3.089168879119103,0.042967669717872865,0.08378878984367963,-0.03285192966528525,nm,0.0
214.061025,-11.709622673651287,12.01389208209813,-174.84823516351045,-0.49060174707786,0.059372635300578985,2.2709862735944277,0.28900136404227195,0.4000159591879912,-0.08435188120643669,nm,0.0
214.08004300000002,-15.386509425327592,7.1589937706959015,-175.48244297019295,-0.05220487023720918,-0.07775927189402823,1.1956973604234025,0.28678954180585453,0.5456048069680312,0.031865685465382085,nm,0.0
214.08956400000002,-16.682456463261257,4.667822441369088,-175.05988507647638,0.23712644845330996,-0.24976988239717712,0.8313730380647335,0.20882888864924032,0.5304546967436796,0.10946324670807793,nm,0.0
214.099071,-17.75254478680231,2.324943409477131,-174.31992184774248,0.4776891539444201,-0.15554316774491053,0.29010300365380115,0.16200899533744928,0.49888912594482315,0.15981894121418655,nm,0.0
214.108617,-18.29117916011047,0.12208396481830001,-173.52675784122962,0.6268823552743825,-0.06308527066504717,-0.15923853122078538,0.052772697603663515,0.46191477981206214,0.16007096216313169,nm,0.0
214.12763600000002,-17.84608233964647,-4.150335732058437,-172.81990362939084,0.6042866591539434,-0.09285890147577351,-0.6148778029732844,-0.12937783084422005,0.4294850146689418,0.03115072049860261,nm,0.0
214.14665900000003,-16.23197828778005,-8.64449513090528,-173.58543990961203,0.27406538543438275,0.06495129750264467,-0.7340666282468056,-0.24638259502746213,0.44403808352231156,-0.07509020547078288,nm,0.0
214.155988,-15.3632696336786,-10.936250355653948,-173.12542627722343,0.1807352696897173,0.2783801173242597,-0.8881072684431909,-0.234929136062879,0.4458777092589914,-0.06428655806014692,nm,0.0
214.175033,-13.86564069725933,-15.173799211395135,-171.69555098233278,0.49665791361333345,0.20589635458609154,-1.0341331640102653,-0.18545724259048343,0.39643930145004574,0.07757730705655634,nm,0.0
214.194158,-14.313933422997769,-18.320181255734777,-169.77996701152853,0.7758615664342494,0.3475336800195318,-1.6315602201667159,0.010819978710123539,0.2984855212354603,0.11835455629064912,nm,0.0
214.20363999999998,-14.852385638142298,-19.342113483818263,-168.68879316949102,0.921671009497363,0.16114075433570443,-1.6763446851441302,0.052162521119010624,0.23140275585243905,0.08675893379958122,nm,0.0
214.213154,-15.783671295877252,-19.975213584007538,-167.84014343208878,0.8496730168182834,0.13011075905154112,-1.7766151584771976,0.13636010190222955,0.17149982558107638,-0.0034470603139001668,nm,0.0
214.22268699999998,-16.968346361731008,-20.22031391231728,-167.20686884478374,0.5694813989245844,0.25367999174605915,-1.8841779911982028,0.19727914570097693,0.1081899648026069,-0.09223989395223177,nm,0.0
214.24168699999998,-19.10344887076659,-19.72686182412159,-166.24529189775055,0.1486436778941956,-0.11337713559987324,-1.6146041194010756,0.22059934694409336,-0.012225136401288424,-0.13840452860743965,nm,0.0
214.25117300000002,-20.503756619925692,-19.076738402753453,-165.40069918237094,-0.17853383825090868,-0.06583048229068557,-1.6320794719518623,0.2796830859542116,-0.04810677115921966,-0.1309046572225285,nm,0.0
214.28921699999998,-24.838736518402285,-14.65232137793455,-161.5456773391695,-0.32313522158792884,-0.3946037583507706,-1.4830851788341797,0.20813213575460193,-0.18057721115577618,0.008730293813261463,nm,0.0
214.29869699999998,-25.351087216071587,-13.369355393411439,-161.47398740610066,-0.28708858373499935,-0.3895628614531637,-1.4295568663892932,0.16610139297789672,-0.20198977389616563,-0.008403492967277307,nm,0.0
214.308206,-25.60980935153329,-12.015844600723243,-161.59845741469266,-0.27277069681834987,-0.3313785399377407,-1.3211045804254093,0.12398947269336229,-0.23098492737355908,-0.03430135234811624,nm,0.0
214.31762899999998,-25.594128893134645,-10.47513121332215,-161.88678700102105,-0.24594599553737875,-0.33973245480489106,-1.0776148287429683,0.08394440403057278,-0.28383253120510477,-0.055271699416292966,nm,0.0
214.32695099999998,-25.409796237122308,-8.598912634042744,-162.26413823179524,-0.2731001033309804,-0.29702572804296307,-0.8169607107537525,0.0712132588749648,-0.35850450246902277,-0.06782402890977449,nm,0.0
214.336644,-25.01677113450578,-6.300321300010778,-162.61600483341982,-0.31703787315840637,-0.2791160460285863,-0.5381380506505958,0.05468038838006159,-0.45216730018889373,-0.05896273209806626,nm,0.0
214.36518900000002,-22.82020430447649,2.3568690842342113,-162.82290707819246,-0.31515732605522045,-0.3732494892600104,0.6098883931187267,0.003478242528933674,-0.6225626612762306,0.009429557761802067,nm,0.0
214.38420599999998,-20.22806944533852,7.96941963188991,-162.70741636587124,0.010987121218778258,-0.661613980665464,1.6373040134074268,-0.09412941712250998,-0.5709349484540064,-0.02732128152453845,nm,0.0
214.39370699999998,-19.16409611981383,10.124914920449024,-162.83082546718327,0.06938929320761121,-0.07782755281373059,1.8066400985912736,-0.0827321302628017,-0.46429553157808934,-0.06006044110733978,nm,0.0
214.40321500000002,-17.368406514014463,11.742145464053372,-163.01809464723064,0.21974956549239896,-0.043426498945054084,2.5710777126935396,-0.2518589152643277,-0.40289203857539785,-0.1081091991377703,nm,0.0
214.41272899999998,-15.318334711741825,12.845700840911162,-163.24607571204263,0.2959274523971267,-0.014330634425291366,3.3505423218033705,-0.32898422139931005,-0.31748657719334483,-0.13602759978010792,nm,0.0
214.422318,-13.478176765141768,13.462451751212855,-163.45769625326244,0.2107748846065699,0.46653766497417404,3.4124804990132667,-0.317467153593292,-0.2107427447478491,-0.12965921682732,nm,0.0
214.43182099999999,-11.535534578079627,13.678569653708655,-163.55498182419862,0.07072168819201285,0.5619747371285846,3.549537918704165,-0.3592225954762109,-0.13850297167562844,-0.11462914474258422,nm,0.0
214.441335,-10.024688481896586,13.566052219759449,-163.5331882773136,-0.07443082491725239,0.6298583640621371,3.390676393013208,-0.29720761094707576,-0.05138466389511269,-0.07107951909054029,nm,0.0
214.450838,-9.224933084207175,13.040595665715948,-163.38010994363069,-0.26034991780107125,0.7948273443892133,2.8563964246544544,-0.18821301332366233,0.06672746299558026,-0.010512678215095913,nm,0.0
214.46034899999998,-8.88227453954102,12.04763172525408,-163.0801308359767,-0.36493932358658987,0.6448652100513599,2.3550788543516163,-0.13045734223310038,0.18121797461485084,0.04086581120229792,nm,0.0
214.47930499999998,-10.017057068388405,8.736833193538553,-162.2692476283494,-0.3085045209620506,0.34702153267338154,1.2244090347661012,0.0344165914866852,0.417287713887859,0.10878194069585254,nm,0.0
214.498502,-12.468411639053778,3.782318310292678,-161.59205898332726,0.07415030169189224,0.10574161244428354,0.378536697966972,0.07637695481647375,0.5969255812650498,0.07779581796128535,nm,0.0
