timestamp,roll,pitch,yaw,acc_x,acc_y,acc_z,gyro_x,gyro_y,gyro_z,markers,motor_input
192.510437,-12.801734486562598,-13.978616966422631,-101.1107259599359,-1.0139754469767714,-0.7140812035181203,0.13140107064370138,0.009188504513715792,-0.47452221607102263,0.18008405908016337,nm,0.0
192.519932,-9.927232310219539,-13.216191393088055,-100.75759651725981,-1.0667641887573918,-0.7245137362500882,0.32610635325227916,0.030306729084327768,-0.5827027710127661,0.2047663398541076,nm,0.0
192.538961,-3.0811174375706543,-11.338129952238207,-100.46764409571135,-1.5081575682317605,-1.053809633067271,0.47654844313928685,0.04797698924341857,-0.7271906849712994,0.1562872670102274,nm,0.0
192.54844799999998,0.7109670689343417,-10.541808353688328,-100.43726376785345,-1.5964537612173246,-1.2507864718764565,0.7729003061460009,0.008737231250913864,-0.7670708380548896,0.14642568454383761,nm,0.0
192.55797099999998,4.092073374025173,-9.975675484006812,-100.34639720932417,-1.7769113928007676,-1.3676035226316061,0.7357572666786285,-0.021156475399102297,-0.6808714495318158,0.13425848671793628,nm,0.0
192.57699,9.020241174858722,-9.721744051868523,-100.05572624069515,-1.7092471468841772,-1.0587047487228707,0.3963734300106036,-0.095665384801173,-0.4205131788408656,0.09016200964287868,nm,0.0
192.58651,10.490856020209673,-10.076597366298582,-100.16110129038573,-1.6350540576614463,-0.829045309921821,0.1492724672020687,-0.13265239202974227,-0.2786305013766931,0.023821951883026063,nm,0.0
192.59601899999998,11.53423936340281,-10.647818969558404,-100.51284061108133,-1.537866869197023,-0.6494236284417054,0.08401199771468038,-0.16111572299749335,-0.18720949410682647,-0.03866000038860393,nm,0.0
192.60550700000002,12.091188343529788,-11.31794430957575,-100.97376576386843,-1.4198506856766293,-0.49241808956540745,0.12397332095954855,-0.16395033099769743,-0.08809839540009429,-0.0768650921520909,nm,0.0
192.61504,12.10321912291391,-11.960450265799489,-101.32658558960695,-1.339754320191464,-0.44151961532791667,-0.12149722646909947,-0.13843620172570917,0.017026249063325016,-0.0758990238727571,nm,0.0
192.64357800000002,10.67482322029766,-13.293473947027234,-100.4596295483937,-0.7565312255622033,-0.2924343576960161,-0.3144381135629673,-0.04824864631787415,0.13834655433701948,0.08389733721534814,nm,0.0
192.653089,9.943380043858047,-13.406862033012018,-99.75812834395262,-0.48596552066112186,-0.15743196220846653,-0.20028352150148512,-0.009196757597483772,0.13841324207008932,0.10146498643918975,nm,0.0
192.66260000000003,9.120880080529254,-13.288411452302006,-99.22404481562951,-0.21108236318990362,0.02633155344953781,-0.03321447926509182,0.03792848953319513,0.14822981820841646,0.0638740701423541,nm,0.0
192.67208200000002,8.098733315084946,-12.943325187770155,-99.08218475122311,0.056697032597514976,0.25128210824805264,0.14349351570864757,0.08794858968288183,0.17995739720608508,-0.022933006065520317,nm,0.0
192.681612,6.701857376717526,-12.411691902731144,-99.40782251386779,0.17316900877460217,0.40515262717193745,0.07280052541516692,0.13676239106917956,0.24659996332169554,-0.1312780825051788,nm,0.0
192.691119,5.344094761600458,-11.776472168015175,-100.03412250551665,0.5244738175689092,0.697868992053025,0.45327697202967443,0.1579236184182374,0.23517235425568245,-0.18686964742497716,nm,0.0
192.70064499999998,3.492188930564705,-11.191612491565762,-100.71766232241609,1.1758777546890478,1.0494687023038336,1.3417600957735512,0.16808597525480765,0.3312928894090574,-0.2149090671746309,nm,0.0
192.719686,-3.6206241121081253,-10.523421146491007,-101.16831941257347,2.298406631884958,1.6223407793310614,1.9485444759078143,0.18856565518603005,0.7482069027910071,-0.14490528221075044,nm,0.0
192.729213,-8.368143085340476,-10.279850717335014,-100.63554178285604,3.0340582929809576,1.8594167742399053,1.9976688267194844,0.21135881401818696,0.9044997567459515,-0.06696547728670003,nm,0.0
192.748056,-18.03224798590349,-9.391989807602355,-99.08303044822675,3.377695389164038,1.7578462672956228,0.6335577438934588,0.23204675104782665,0.8652902637076988,-0.0036673482061777645,nm,0.0
192.75756299999998,-22.022669627917086,-9.064931287293232,-98.78585777075655,3.0992841245178147,1.4655384842501564,-0.12423944020333978,0.17365472179579328,0.7646700461663838,-0.06779279009935675,nm,0.0
192.767073,-25.155084691606646,-9.372501185210501,-99.05971490239554,2.267165348851668,1.0238487185202225,-0.9237302262690128,0.021710606127093714,0.6170778338491664,-0.153716801281853,nm,0.0
192.776576,-27.004204387516292,-10.590500302936194,-99.78066166977077,1.759692366483438,0.5199314842233106,-1.0049517692374017,-0.19439869753432382,0.3958266629975117,-0.20640284002680345,nm,0.0
192.78608,-27.888636352741216,-12.54219273598299,-100.76192603888047,1.2569319474599256,0.08413353335038283,-0.7724944722987073,-0.3671330299535897,0.23691475221656733,-0.22946531683783222,nm,0.0
192.805285,-27.258226897650893,-16.45819810235516,-102.32821322188404,0.4728618630786609,-0.07554346156627775,-0.4310924205573021,-0.39201857031332066,-0.0563374083950709,-0.07884847608253981,nm,0.0
192.81480100000002,-26.49873512029478,-17.668260588659187,-102.23137113968752,0.29328415106127625,0.11776638744074337,-0.4075801996493995,-0.2812968101761063,-0.09353631752310425,0.0667383124282757,nm,0.0
192.824263,-25.92252059779291,-18.2109399583124,-101.39950216106767,0.08938438997553425,0.3212130753321516,-0.5413621395552737,-0.14242972589639202,-0.08842069336615238,0.2047616022512762,nm,0.0
192.84327800000003,-24.549665529796084,-17.74446711004272,-98.80362470660967,0.3387695942234757,0.5003844735711657,-0.6474364685736744,0.044414545471633274,-0.1535072673399605,0.3056335971334932,nm,0.0
192.862317,-23.230730080250467,-17.07763031517524,-97.98807435589902,-0.21587513914072837,-0.026609186830730155,-0.8030359001782198,0.011080042841720641,-0.16227173284102522,0.05674499644730108,nm,0.0
192.88135000000003,-20.686930142584632,-17.409225169215187,-99.66119848388563,-0.5769012010329624,-0.8174210132154568,-0.38598231016101314,-0.10570009645376312,-0.23519372558071344,-0.12984670147301117,nm,0.0
192.900338,-17.71077167239033,-18.247915665748483,-101.042868167433,-0.9552056158701678,-1.0435514276225302,-0.11549160714656122,-0.15660691905249152,-0.2861342621066649,0.01203747575729424,nm,0.0
192.90986,-16.18122557065934,-18.555883672227164,-100.82322542776743,-1.041430703518048,-0.9258315676839876,0.008150947559800888,-0.12927615750607732,-0.27767666626764564,0.14133764930040377,nm,0.0
192.91935299999997,-14.537902023707545,-18.540328574099608,-100.04259376334782,-1.0866282290773108,-0.695975764121287,-0.005776761679330375,-0.06696331900105745,-0.31172213475088656,0.26129622585220513,nm,0.0
192.94790500000002,-7.582818554228155,-16.859951348173784,-97.3687021835946,-1.1010358237274174,-0.31410552014827126,-0.00968475106667673,0.07293393621216272,-0.5254598131098768,0.28017607992080246,nm,0.0
192.95740400000003,-4.670508569442223,-15.857804328379048,-97.16801871347052,-1.1963703570233728,-0.3852900575346475,0.1529893616490747,0.11535138660543803,-0.5861181877537017,0.2024253310331665,nm,0.0
192.97643100000002,0.9516111183485713,-13.287331395218937,-97.32003264487233,-1.48053559326612,-0.7744815569704981,0.3296902043927533,0.18488803648535965,-0.5568577926336428,0.11100176138729204,nm,0.0
192.98593100000002,3.257572354703501,-12.135864326642185,-97.11038863375872,-1.5778645957053283,-1.0194670556771297,0.3056524788571313,0.15990281669506112,-0.4817778482722164,0.13951111421001125,nm,0.0
192.99544799999998,5.086175560800868,-11.349655751311962,-96.4442294752259,-1.6261130298969584,-1.2145742179465535,0.221186480348913,0.1020223013678926,-0.3807032242283168,0.20335996127261047,nm,0.0
193.00495800000002,6.4272513993571305,-11.06572318710285,-95.31964252876998,-1.5066478580750342,-1.206080043664853,0.21519228160355894,0.017828279864837242,-0.2742629797539951,0.27252366247373355,nm,0.0
193.01429299999998,7.153496371431782,-11.292456126049451,-93.97574666490779,-1.422423509866279,-1.1001154950325314,0.030205274511392634,-0.068316929407964,-0.1452436731495655,0.2923288809023207,nm,0.0
193.023987,7.5452577011055215,-11.834506179823144,-92.69683719478198,-1.281281559702001,-0.8525251161289418,-0.07062761274295147,-0.12414428756747034,-0.07744898596729034,0.26684746391395214,nm,0.0
193.05250900000001,6.962288431511185,-13.352286235095345,-91.31674411925901,-0.9662160417849275,-0.35548550918062016,-0.24966146706083542,-0.06426395667446838,0.05630557578099678,-0.01944292919357049,nm,0.0
193.062018,6.5842740019947215,-13.291590326948905,-91.61052950489996,-0.8230450062094081,-0.2754044519881297,-0.12489806452572969,0.0027445639497616697,0.06600708927179727,-0.08082056317132567,nm,0.0
193.07136599999998,6.021169690044858,-12.95506526584051,-92.00776884961601,-0.7469974767846762,-0.3649215863363334,-0.5388365277778772,0.059425394435860236,0.10044835491116151,-0.1096297229611483,nm,0.0
193.090547,5.2005775073105855,-11.81368333300024,-92.52277714167003,-0.29333431310778574,-0.24385488114995055,-0.2637085755995421,0.12190774563177635,0.06752617475851513,-0.06049490027189751,nm,0.0
193.100083,4.492026940270688,-10.860769175171864,-92.68515019400095,-0.0624952176032997,-0.061417923757746476,-0.10496738046289185,0.18531285889876925,0.12348659428237395,-0.06487409836822805,nm,0.0
193.10957299999998,3.374614752374918,-9.598959105171568,-93.03169716525946,0.21018161495992077,0.24419959915259729,0.20169119198108632,0.2515628770666334,0.20072774172315033,-0.11353352991832753,nm,0.0
193.119089,1.8407889511354467,-8.166133409023711,-93.79312982860196,0.48839290855488926,0.6131302753416622,0.4341497243304818,0.29246826154084415,0.2795757767552765,-0.20414994380091073,nm,0.0
193.12862900000002,-0.09709941649819645,-6.677118718268409,-95.10937681430434,1.24771798793047,1.0792128004507633,1.3792462664622065,0.31483057339119763,0.3546993854484271,-0.31769761753473713,nm,0.0
193.13812399999998,-3.3004812624730206,-5.170369538730785,-96.98483857099258,1.8392380727336974,1.4589999234085815,1.723413133320526,0.35450421679319877,0.597545409343973,-0.4451779785752606,nm,0.0
193.147657,-7.4088095997827965,-3.850208241910092,-99.06645051231799,2.3204835363574285,1.796930083377382,1.6970873336589463,0.36306954870113956,0.770703033483404,-0.4841499573809661,nm,0.0
193.166687,-16.79601992179949,-2.1739208840251902,-101.63493740411556,3.1239657815392383,1.6436997538821594,1.2288416522354566,0.32247251893005596,0.9304355166765347,-0.21784066630222162,nm,0.0
193.17601699999997,-21.31135096972891,-1.2553811719655659,-101.51399506464683,2.8727360820144643,1.3572290145426849,0.5109481501893988,0.3477299009666129,0.8447867869450965,-0.002993923048723447,nm,0.0
193.18554600000002,-24.595428505687714,-0.20565783332611084,-100.63874356414006,2.5984619574349344,1.1130331976939922,-0.23778846284411614,0.3189142459291889,0.6010285327929246,0.16727055651765568,nm,0.0
193.19503699999999,-26.800826889656733,0.4348796727851712,-99.51472602446923,2.146797086518498,0.9922557781808279,-0.9325509621150978,0.18999162459171007,0.4081666548125931,0.22678056790122264,nm,0.0
193.204534,-28.04615229260006,-0.06165951224043018,-98.6455171722124,1.6678386946453039,0.8717458591738493,-1.0832300114771092,-0.07228652541238705,0.2575286813767814,0.17603048337293642,nm,0.0
193.21405000000001,-28.190031566181425,-1.9134713270452555,-98.47834834246392,1.3686987846375858,0.566961749577816,-0.8576038723376085,-0.3758247710126499,0.07928741675141414,0.034387632915158506,nm,0.0
193.223575,-27.424662371200245,-4.611900902968152,-99.26131657369206,0.9846424995877017,0.3396781112363044,-0.6363757062543893,-0.5709585175086431,-0.07204013867245886,-0.14647476699648881,nm,0.0
193.233077,-25.944827562514888,-7.485015465988144,-100.67208081806972,0.5240609536669505,0.2871373277125052,-0.4233567009987019,-0.6312199236853642,-0.19447101123628296,-0.2496368848967216,nm,0.0
193.25206899999998,-21.810531286878973,-11.59893325620049,-102.43662019461811,-0.1681330360167192,0.30903206901478397,-0.11402419953694644,-0.417321766644355,-0.354926869155258,-0.013354377660641417,nm,0.0
193.27125700000002,-18.952837164894657,-11.598227867239208,-100.19978153444197,-0.4506136937080342,0.29748538603205,-0.4757573017879504,0.031982208673578455,-0.22068057408007713,0.3649610717611681,nm,0.0
193.280765,-17.81513048494903,-10.899426948182818,-98.08396125985178,-0.35345992606913684,0.18573395314237626,-0.6104288595698334,0.08920860319324929,-0.24749038299353823,0.46820901860603814,nm,0.0
193.29027799999997,-16.627272567698373,-10.38937564236679,-96.2220292906681,-0.13097831211298733,-0.0034602444550250965,-0.43876926533886385,0.058964817887362464,-0.24980108121270753,0.41656025896039106,nm,0.0
193.309315,-14.246052392085076,-10.37150400087289,-95.4127984012666,-0.5308954654396135,-0.49047777937347303,-0.5696778151848723,-0.07454749985646573,-0.2693441212968633,0.01950083287435884,nm,0.0
193.318856,-12.630358404206547,-10.983689618497229,-96.42614023765336,-0.6188340458487875,-0.6720053298397234,-0.4166130619899066,-0.1678752039575408,-0.30883949189210347,-0.14387559007364806,nm,0.0
193.328157,-11.01142285043899,-11.908113238526798,-97.80072110584689,-0.8993158197301983,-0.7828302026026034,-0.38255082446417465,-0.23625105448863537,-0.29739271398932976,-0.21204465749783055,nm,0.0
193.337638,-9.269187904974984,-12.830552464902524,-98.91368355813125,-1.0629524271178759,-0.7419608584120093,-0.2807239391331924,-0.24552833978672245,-0.3151898270326258,-0.14952344889282093,nm,0.0
193.34732499999998,-7.526409252102045,-13.475923166869503,-99.28576631093725,-1.0912725932777358,-0.6045898305104414,-0.1874631522252254,-0.19455717501965272,-0.3200233156237523,0.0031924650638076855,nm,0.0
193.375871,-2.2588339566426554,-13.435429954443977,-95.98488791510555,-0.8476677884133361,-0.3235955673953013,-0.2736592507581903,-0.004531067583043832,-0.3855412082006905,0.3895242143949168,nm,0.0
193.38538000000003,-0.05490697892950167,-13.062789319292847,-94.76353613648678,-0.794052292404592,-0.3543772602421022,-0.2392280912202916,0.021764351353938734,-0.4410266148193584,0.34235092735128353,nm,0.0
193.39488300000002,2.5143764774248076,-12.56945967738303,-94.17414778902689,-0.8001392789507776,-0.4682419590115863,-0.04043626523289254,0.047388195776687334,-0.5144037163724251,0.22824307886281278,nm,0.0
193.404397,5.33515146053619,-11.869698416073897,-94.23855894640657,-0.8540979072144645,-0.6838295828633186,0.08014494005306409,0.0874976295395053,-0.5674664633660146,0.10215702372750074,nm,0.0
193.413915,8.158561279682809,-11.02041995904623,-94.68250428443474,-0.972442280974886,-0.9140914500053152,0.1827578467965869,0.1149398108670332,-0.5722730068441412,0.01817203707107496,nm,0.0
193.42342399999998,10.74591400856189,-10.216615623840406,-95.08190643235099,-1.0831191784746133,-1.1231404652139658,0.2857911879813348,0.10578458731319695,-0.5276359931490306,0.009786425313696466,nm,0.0
193.43292799999998,12.892510630224631,-9.645126090114132,-95.05182797205332,-1.1483396687969705,-1.2124464649677777,0.33189311948217876,0.0656332681149974,-0.43844869552061544,0.07395517570757512,nm,0.0
193.44243300000002,14.529936601574601,-9.485588337983266,-94.42288756936311,-1.1081593186268643,-1.1243894440511555,0.2626994085183412,-0.005529189542716837,-0.33162456919039884,0.17389427564914867,nm,0.0
193.45195500000003,15.691102758040477,-9.829426734204455,-93.31266835795905,-1.0164882544631337,-0.8838876350910728,0.3097210395702874,-0.09452954833237201,-0.23111131506347743,0.25462235079484785,nm,0.0
193.48047799999998,16.653691334493484,-11.538928545973569,-90.34720654274518,-0.7127670029312363,-0.009206409854480999,0.4376066837455779,-0.07804895173226842,-0.007969204734977354,0.11317216806404454,nm,0.0
193.499499,16.051776140243447,-10.854963394084086,-91.11800257473496,-0.5544662772353918,0.02686313359383361,0.5695977604644307,0.09989906086778362,0.07295665496850393,-0.16408664201123527,nm,0.0
