timestamp,roll,pitch,yaw,acc_x,acc_y,acc_z,gyro_x,gyro_y,gyro_z,markers,motor_input
219.006338,-17.09522607908167,-30.96153008712397,-134.7756096340814,0.01117947061250319,-0.6975062680660326,-1.4177303738241147,0.13875304132267066,0.023338617376127274,0.2547344725630848,nm,0.0
219.015841,-17.578113896638683,-30.278797834862623,-133.18861498702893,0.3152521997153522,-0.5499735603409839,-1.5172651638488923,0.14276811719672086,-0.03085480506186666,0.2707196247233136,nm,0.0
219.02535099999997,-17.708617285026286,-29.41663115146192,-132.08005845706353,0.38710371265133,-0.3777281209952077,-1.6393746733341341,0.12888903360400267,-0.09632440327842888,0.21112600134057277,nm,0.0
219.053886,-15.952689524427349,-25.33194885759052,-131.6297208749447,0.07720791689059782,-0.1972078460442541,-1.1239200378327447,0.15171282933362495,-0.31971314361103664,0.05528520056854028,nm,0.0
219.06331500000002,-15.378506418609064,-23.266573293194867,-131.32403239515403,-0.08073858205868568,-0.24790870341718171,-0.862832436619485,0.2267183125861398,-0.349016882603005,0.10960201633915541,nm,0.0
219.07301600000002,-15.10446360106677,-20.8429256699371,-130.38286508966317,-0.20474951953377735,-0.31205260339159907,-0.6548857474847207,0.3199938537418766,-0.3527984289115789,0.2097621704669763,nm,0.0
219.082524,-15.030742760632776,-18.12054197716052,-128.77051500648605,-0.2917003310480608,-0.3409911559303329,-0.593010920963663,0.3973893827955348,-0.35533110171014737,0.3280896094650517,nm,0.0
219.092033,-14.92114044374449,-15.209153148645772,-126.67476052748408,-0.19566004079065052,-0.2871522162764616,-0.46999868804047906,0.43425274183245033,-0.3711499487456449,0.42584716373916764,nm,0.0
219.101546,-14.645331068402237,-12.272251947331442,-124.42379374531457,-0.1328545722468502,-0.10760385779150694,-0.39201283061216685,0.4332057862522371,-0.38396125455112934,0.46333868862688316,nm,0.0
219.11104600000002,-13.74451063580739,-9.412464024984251,-122.35278939317712,0.014533121091938711,0.11192254463806486,-0.2142911521635856,0.36651276249098635,-0.46199045956668594,0.447603390125793,nm,0.0
219.120574,-12.359901491929074,-6.683970188290522,-120.75832803663872,0.4071301937263767,0.3040009188521581,0.8381451907263701,0.30777319531927894,-0.5191855779470597,0.35648470251069764,nm,0.0
219.130073,-11.036934717431006,-4.103182464518609,-119.83075482215037,0.21341268087787746,0.7571441431932614,1.778909224443501,0.299105471333432,-0.4879358388881867,0.20850289454916682,nm,0.0
219.15841400000002,-6.784766747249593,0.5621303903147841,-121.84044984012463,-0.4779615402469808,0.677975128618556,3.501504156843515,0.06870371972698454,-0.21025375838814128,-0.33215872510904443,nm,0.0
219.177622,-7.859598948682143,0.5490543754204774,-127.68276522168802,-1.0996131776688738,-0.00017205462394384,3.055376437824093,0.036383153034174304,0.18953304739875088,-0.6495537394394154,nm,0.0
219.187128,-9.479699607171968,-0.65578707497819,-131.01385177623715,-1.227504822595731,0.07968638621515094,2.2878692318697267,0.00562091779557162,0.4071561227291051,-0.6699238729687891,nm,0.0
219.19664300000002,-10.981073609691299,-2.748781800304667,-133.74666934643983,-0.9932004566183746,0.3257594591983601,2.113477540096292,-0.1204730183976292,0.5084266061495357,-0.5582024483589911,nm,0.0
219.20616399999997,-12.096841327765416,-5.393828345307745,-135.38012483298684,-0.39528193217871543,0.4665305035993395,1.9772934602650019,-0.2343993503471749,0.5347310361357227,-0.3445335830408225,nm,0.0
219.21566399999998,-13.257691384396189,-8.015030416121768,-135.82143530745861,0.05366905270083705,0.7418435031395846,1.3540709105208,-0.21572468026501324,0.5409270433309091,-0.11664800233492706,nm,0.0
219.225179,-14.25073803030432,-10.225137892335406,-135.34085752045505,0.40900523497977787,0.8588887062703386,0.6194117436978249,-0.18303186170139496,0.45780599036233743,0.06396559416329238,nm,0.0
219.234522,-14.875549463923159,-11.98738453181831,-134.5113834422127,0.6433013606802638,0.7368567869760277,0.12361692625503176,-0.1767435669809521,0.3402453445731505,0.1415718299932873,nm,0.0
219.24403900000001,-15.035169788883403,-13.455547589991019,-134.00066109197235,0.5671641135029157,0.536151082699312,-0.30113330706019253,-0.20244610855175277,0.23149491118350404,0.09503650540348593,nm,0.0
219.263068,-13.459869592282761,-16.647436068703406,-135.26195491349628,0.02011930251714041,-0.09139772988817106,-0.49805760625896617,-0.4044094390139834,0.10136006722479973,-0.14775936178965685,nm,0.0
219.28208700000002,-10.4839285417033,-20.873074643725026,-138.26430026527314,-0.4863012018738655,-0.288746853449442,-0.4144430060702239,-0.5268501130470243,0.1308227218658052,-0.19124586564159796,nm,0.0
219.301144,-8.33958816724749,-25.387236729780163,-139.22530941473218,0.0021364903555125365,0.009228222710126776,-0.6977771664998393,-0.4187838116566635,0.2497416094365253,0.05515847495154746,nm,0.0
219.310661,-8.367019581361593,-27.410790567160102,-138.56618631183235,0.36727309768170474,0.21440471960137172,-1.0621642210196172,-0.27617601761181704,0.31309416040430565,0.12962618150758293,nm,0.0
219.320255,-8.890100429203306,-29.009844347852038,-137.650737680194,0.6065876719034907,0.32566729147187273,-1.5671375643587426,-0.15862481984644267,0.3043699196633706,0.1341665466334341,nm,0.0
219.329752,-9.378153493757157,-30.158384617014608,-136.71812989903935,1.010594095620909,0.21152274591751455,-1.7301613591013891,-0.10820411831592057,0.2304034937925692,0.07078745801850524,nm,0.0
219.34878899999998,-10.442982565398047,-31.24698744950588,-136.5520154662699,0.6471070272496716,-0.14971584815289554,-1.8781883937208383,-0.005042822974589991,0.1116516578709925,-0.2652623152710312,nm,0.0
219.35829399999997,-10.700299512202163,-31.310511184954493,-137.55392526188768,0.3913984060814903,-0.4535216431237833,-1.6656751181668783,0.010017952225538583,0.043994285231387334,-0.32538804618793266,nm,0.0
219.36779900000002,-11.324721775145338,-31.125760904767404,-138.29228041453143,-0.04076574289561553,-0.6991150213449627,-1.452190512846833,0.09068209078781349,0.049461262734809344,-0.3109866193228942,nm,0.0
219.39623400000002,-16.161868561935037,-28.262528925555387,-134.8124784636473,-0.49562484318627176,-1.2111918098776175,-1.2220440877134209,0.4284876041596907,0.05698210958340299,0.1707086411532697,nm,0.0
219.40573500000002,-18.17636014304855,-26.79527090416593,-132.13516577146535,-0.3736915166828637,-1.196727808187636,-1.4416526661191222,0.4456004270731916,0.06297464056971748,0.2724163275422037,nm,0.0
219.453429,-23.251841679386086,-22.212966206954782,-126.49701670368832,0.1336124553806351,-0.16048895829662066,-0.8684765585007093,0.2008208972471476,-0.06663594762761928,-0.07479784403628617,nm,0.0
219.46293699999998,-23.701736076824112,-20.52498906261465,-126.2027876083426,-0.006706011914513992,-0.1418924269652722,-0.44944846359171864,0.30825042955397464,-0.13003797783174176,0.028576134733368442,nm,0.0
219.47246399999997,-24.20680785036227,-17.926827195890606,-124.96438150607399,-0.03693020834026488,-0.12235530358117037,0.02045449514673781,0.4648757941706829,-0.22269769605432366,0.21693248959432954,nm,0.0
219.48196900000002,-24.31708413633598,-14.411262825672848,-122.73151605388182,0.2564261342067432,0.025723043265976995,0.6237752932658566,0.582534304212893,-0.3727855256162438,0.4427519014340164,nm,0.0
219.491457,-23.333314954521214,-10.50833798475499,-119.83540367987045,0.8149361624980285,0.38964684282620893,1.482663859424825,0.5539197447875699,-0.5694233486047628,0.6234674489387848,nm,0.0
219.50098899999998,-21.177287189344835,-7.051470657923119,-117.00593812448426,1.568496316798613,0.8909817004545126,2.708066839000198,0.3914477690487025,-0.7047312925151612,0.6326571209229376,nm,0.0
219.51047400000002,-18.498921634058497,-4.780859542047234,-115.24142151936046,1.1836825308409584,1.543205493278376,3.1814042205799256,0.15905229102694232,-0.6796305652016252,0.40809015448138497,nm,0.0
219.529323,-11.77882787534199,-4.420182554572061,-117.76901361601324,0.491073564990658,1.1764377829034298,4.1014485207971685,-0.3806137275064371,-0.5425294902831956,-0.4364021892714903,nm,0.0
219.54833699999998,-7.731450376830167,-6.692003502668814,-126.78206993657251,-1.3824634761400982,0.5155915162751219,2.5686783420204944,-0.43148207406262273,-0.15387954068697832,-0.9154580245172921,nm,0.0
219.567549,-5.998219229051606,-11.198586538337063,-131.94148755147523,-1.6385764454202627,0.5474006822991478,1.7399822023796445,-0.46451956715021536,0.28683592490071613,-0.28266746976316104,nm,0.0
219.57706,-6.42399930318651,-13.81268974518684,-130.87539501733497,-1.0932936065911916,0.41574787231028626,1.4389986888850346,-0.3513824225893566,0.4113190381863433,0.19299113316959632,nm,0.0
219.586576,-7.835518017243919,-15.724068594901494,-127.97535937830024,-0.29019044654176773,0.3934833535448762,0.6440815834177506,-0.1360862114929624,0.4562352955477895,0.5070348993989259,nm,0.0
219.59609200000003,-9.763674432459085,-17.21064693389712,-124.62051491838758,0.2912811936777565,0.5167910797532266,-0.22021671111296431,-0.03485095006973779,0.4759914385031091,0.561256584496894,nm,0.0
219.60546100000002,-11.317827267307164,-18.73549663294682,-122.24507233511109,0.7276826081388349,0.5392070105484406,-0.5930718382719918,-0.10591026987573315,0.41613537769839193,0.37914461559260587,nm,0.0
219.61497699999998,-12.13396863153872,-20.3112197133075,-121.86927207406606,0.8582368134272035,0.3901357911256704,-0.8039712488447943,-0.19984634403300125,0.2988468428635496,0.02063487719618768,nm,0.0
219.634062,-11.19588555778407,-23.863537829271277,-126.56425396097853,-0.04416401092507957,-0.18487624831646868,-1.2028932514250292,-0.4240070329909546,0.08176398444192703,-0.5206713827497926,nm,0.0
219.66251400000002,-9.12994800142053,-28.045996665296517,-130.96980472562146,-0.6959819061475534,-0.637754700006127,-1.2852406508128233,-0.13707670269213443,0.12522447433551295,0.035129037631784446,nm,0.0
219.672113,-10.066353602586094,-28.56014117809236,-128.64436817943803,-0.3113667203545927,-0.7301633772486907,-1.5078510706474286,0.011947030195844564,0.1951443483964372,0.3020791747960422,nm,0.0
219.70060400000003,-13.8146248734153,-28.642697171124464,-122.56514067058052,0.46404107048104815,-0.5999135047420107,-2.330313097378251,0.06702933198431668,0.11926883927570076,0.101392123245672,nm,0.0
219.710111,-13.971063088360008,-28.798131956451495,-123.19622282084757,0.39944900541977285,-0.6262006769527406,-2.2059024885457945,-0.02527847854007112,0.04139654115535074,-0.1399963758009292,nm,0.0
219.71962499999998,-13.704688557276341,-28.818142416009874,-124.85081213749999,0.15717882990929938,-0.6559055798706609,-1.9488949220494576,-0.04347268710977114,-0.03468433415139118,-0.3041863813940841,nm,0.0
219.72915200000003,-13.456171735002195,-28.360989245130657,-126.51308837668235,-0.11434070100183526,-0.6455681909760748,-1.6666663346583621,0.034919592473963784,-0.08671246388456852,-0.3076995548514074,nm,0.0
219.74808399999998,-14.820022005614653,-25.188515360549033,-126.17799702939233,-0.22946018642582092,-0.6649320568867474,-1.076897317210005,0.427377148680006,-0.08775904481273333,0.0971549640690104,nm,0.0
219.75758800000003,-16.267680931140916,-22.17826210608577,-123.87236259653166,0.07949757482408946,-0.6571364922561735,-0.8563370947542609,0.6319303366371687,-0.1268692554158664,0.346171860055634,nm,0.0
219.776777,-18.17317328319495,-14.959054222744529,-118.10650896266715,0.5787723023876399,-0.1810309778923001,-0.506386541788939,0.6689032396923057,-0.25943869734056685,0.5288818280024689,nm,0.0
219.786305,-17.563353101082768,-11.826506775039,-116.11667082730673,0.7483670805403042,0.2805211580345868,0.1330653174148038,0.49002074512876087,-0.39189878026493624,0.4268209878422748,nm,0.0
219.80531900000003,-12.11914786195559,-7.570666009237905,-115.64418193446981,0.9131028629121782,1.294137207177117,2.578251858850292,0.012011216699921305,-0.7737953832115555,0.03184315701894712,nm,0.0
219.81465,-7.9589086192161265,-6.3624867950874755,-116.94572844715363,0.6968113100728381,1.686171136625889,3.7633986434048943,-0.1634953668683641,-0.8489112639021416,-0.1618786930650257,nm,0.0
219.83367,0.11201035993107064,-5.102490721319426,-120.87393183147512,-0.824966241809227,1.9680838216541998,4.39202070981307,-0.33572656723206673,-0.7539056857004768,-0.33180869483709247,nm,0.0
219.843181,2.8627732964151145,-4.738600610565273,-122.61918317264117,-1.38024958277953,1.4416211117096762,3.0419096661985257,-0.2401319430280553,-0.5045974747117916,-0.30699633640259943,nm,0.0
219.852858,4.142256925092821,-4.7833921369898755,-123.73278608535065,-1.9114903332068967,0.9638240994311511,1.6549111277251882,-0.16044674513131754,-0.20819296657758404,-0.20682852126143986,nm,0.0
219.862407,4.768955359581713,-5.6631300759150935,-124.02375806326543,-1.8496870388661324,0.367695340870278,1.7219997944780843,-0.22913315889004265,-0.004993822205770547,-0.052003475859074326,nm,0.0
219.90046500000003,-0.9438754656241519,-14.574723514430165,-121.95223437345038,0.036456065258529194,-0.08709808365941102,-0.10383067996168291,-0.27177282888073445,0.6620607102103045,-0.07523168686255349,nm,0.0
219.919369,-5.250775326228673,-20.25073738658137,-123.89624624581364,0.3316425773520204,0.12707589636965477,-1.3084052217302817,-0.26248785027035665,0.6264095361309595,-0.3947113008882673,nm,0.0
219.938385,-8.330449568003612,-25.05692123685669,-126.84708177173053,0.42980608958752436,-0.234970912078689,-1.6069146205314895,-0.20426101108156708,0.49948827497718185,-0.4061540720717041,nm,0.0
219.947935,-10.384979038465117,-26.647295908897718,-127.18108825440687,0.11943295851565518,-0.49426978926182497,-1.8538130412443665,-0.04766628211660365,0.4892141316720342,-0.35156064805716747,nm,0.0
219.95744,-12.710147103074156,-27.498726987947933,-126.94328901249708,0.13568470250900602,-0.7673266749870813,-1.8456613244810782,0.09826081895710237,0.4361851824479235,-0.24666122915885264,nm,0.0
219.96687899999998,-15.490524591472454,-27.795824104156196,-126.57034320607411,0.17131075826164713,-1.0015388907153948,-1.8484052520852612,0.23356137804918128,0.4331094533665402,-0.18212966853331689,nm,0.0
219.976397,-18.616787061501018,-27.713440010111736,-125.95894510017183,0.06006945383036766,-1.1231199757959696,-1.9489837226144213,0.32718119133783735,0.43944981820700885,-0.16697171685362044,nm,0.0
219.98591000000002,-21.624992595101478,-27.32004527082502,-125.43700790000864,0.16689117727471178,-1.1660757831311312,-1.90821225893899,0.362003876874789,0.3905493444987556,-0.17109309589194008,nm,0.0
219.99542499999998,-24.498766564412307,-26.70520503603775,-125.20362448082791,0.2753072241152934,-1.1273799333040249,-1.8892749612598116,0.3833027214489336,0.3499521955139691,-0.21139870010105077,nm,0.0
