timestamp,roll,pitch,yaw,acc_x,acc_y,acc_z,gyro_x,gyro_y,gyro_z,markers,motor_input
217.009306,2.2716316417412434,-6.912247996709021,-145.81812646226678,0.5603989603744264,0.7413537572127871,-0.16938224847255107,-0.4542342943788662,0.22714878055325438,-0.1992986584685203,nm,0.0
217.037638,5.297554887912502,-11.415051298907859,-147.4114219651622,0.142767034288501,0.5995474213420062,-0.804752162599141,-0.29032068934725686,0.13294921357483555,0.008178355132973594,nm,0.0
217.04718,5.9154909276912555,-12.660760184893087,-147.15179474958256,0.11108632251856439,0.4951542171835682,-0.9209470124784201,-0.24904479245720493,0.14972257720019216,0.07326445993720689,nm,0.0
217.06625799999998,6.626027627147102,-15.135054960943897,-146.55908383621502,0.26395241507682254,0.3372273753125382,-1.2864996234127046,-0.1974279507205965,0.18244186715536104,0.05348132471306403,nm,0.0
217.08527,7.10874933688095,-17.416026664252552,-146.6159748574101,0.4510851432209314,0.2900555255901448,-1.5846378786938111,-0.170935381759126,0.15803442088239925,-0.10168058250428866,nm,0.0
217.094795,7.283667391951147,-18.303436277550688,-147.08802873951535,0.5084131198795419,0.2984435249957008,-1.572989374906501,-0.13821701550728127,0.13503329156588303,-0.15952232399323682,nm,0.0
217.104299,7.238402413270011,-18.886617155969226,-147.55715023183933,0.4405982957490909,0.27229169926176827,-1.5758337486323966,-0.06885543626886644,0.10772519429694997,-0.1709201426159469,nm,0.0
217.113819,6.907831246253088,-19.015966195450837,-147.72210402086492,0.3113269072886921,0.17876526473168255,-1.5282535946293319,0.026144321250545284,0.06053185504013035,-0.12502343356218162,nm,0.0
217.123321,6.143794632220828,-18.641789693501927,-147.32016152927505,0.14115556455127137,0.03976750548562727,-1.4545146435691538,0.14960810828377577,0.020138070203111817,-0.049221426830757954,nm,0.0
217.132828,4.944880898478815,-17.821211699220875,-146.3980972692371,-0.16943739784037615,-0.11109413476420157,-1.5235639225656783,0.26801970754279536,-0.007045501440835536,0.03494833965533133,nm,0.0
217.14233900000002,3.660181390806783,-16.615577318790255,-145.0357206089632,-0.343226389949533,-0.30913915429834826,-1.424565992371117,0.326364854793805,-0.055099757634238244,0.12093308304152882,nm,0.0
217.16127600000002,0.9968166551039548,-13.454282167611234,-141.95592076602975,-0.4134379431521071,-0.5455006184188189,-1.192848396020662,0.4010708800351449,-0.09595820238976464,0.14316078199792495,nm,0.0
217.17079299999997,-0.20214878796509603,-11.701994821720968,-140.68666452150555,-0.385229724254598,-0.51594154202336,-1.032581917018895,0.3896983956798397,-0.12137535881896842,0.10694998354129101,nm,0.0
217.18047199999998,-1.2611096152609356,-9.789705057978747,-139.72866182995932,-0.29093280941870997,-0.44810610848633453,-0.660551210061232,0.39271329549487366,-0.15493989366729463,0.06383183356384683,nm,0.0
217.18999499999998,-2.335560401014318,-7.629608974378588,-138.87190091183112,-0.30785554869665555,-0.3044683916905971,-0.41102353502244304,0.43107373095484236,-0.1829227644703801,0.037618378383694494,nm,0.0
217.199509,-3.331614198846476,-5.194032362227412,-137.86535468418245,-0.27589557296177675,-0.19246114182875032,0.06161770375955001,0.4603344899575898,-0.22602001107273273,0.05634635694270272,nm,0.0
217.21848200000002,-5.307682530746865,0.2266956732179673,-135.79444142431632,-0.23507219818595115,0.11560410668014899,1.0516148817042932,0.5084190372306857,-0.26030999965688517,0.1603966594800588,nm,0.0
217.23750600000002,-6.621816456951243,5.043342230329291,-134.33902910228858,0.21975488167855772,-0.10759243944279667,2.6112661783276487,0.42310908177449363,-0.18275993163748655,0.1172330296118682,nm,0.0
217.24701000000002,-8.000451598118381,6.680821056575158,-134.5478412443177,-0.011361211830010511,0.1100214198048378,2.44634632833785,0.41345545695445995,-0.02915463809379563,-0.01752115627313398,nm,0.0
217.26603400000002,-11.215862446588885,7.501398537121917,-137.607698761502,0.13797124030221494,-0.18837055922530166,3.0369017089897996,0.2607483545890979,0.27817039522168263,-0.34254466661853367,nm,0.0
217.275542,-13.292785148913941,6.554276802927446,-139.92568880896548,0.02469624949024944,-0.06605504746736993,2.7475625329418207,0.1727083457906237,0.4203406299798705,-0.41587523505876683,nm,0.0
217.285063,-15.035030691160328,4.996530223444199,-141.99693166169033,0.19335385377807698,-0.1721197816178513,2.7976648229533287,0.06052917287320746,0.46698860310321616,-0.38171331364030864,nm,0.0
217.294563,-16.624721952737524,3.1035997291446176,-143.35413467011455,0.14020738539278124,0.028560267111586636,2.1855209211739406,0.010121574493231028,0.500311842706744,-0.2508572708195391,nm,0.0
217.30408200000002,-17.53036300450256,1.2336939500425823,-143.83130959588814,0.18005590151712325,0.004731778196120895,1.8780967978349066,-0.08896726044630668,0.41536468956043,-0.08993068833899749,nm,0.0
217.313594,-17.706037594966325,-0.3008873979401474,-143.67779926931493,0.2572618447892016,-0.007015009384038493,1.3438842763087695,-0.16595169692523554,0.2750332357980735,0.029948558707104188,nm,0.0
217.33242900000002,-16.241672048909244,-3.295047509506072,-143.00446870361097,0.1477825013617017,0.09031699659488947,0.18978293042621977,-0.3784816159532504,0.14555453940416607,0.06534187241637109,nm,0.0
217.351462,-12.97799525552408,-7.932954918261244,-143.7706938126239,-0.23452402403173284,0.0681252075031291,-0.04807974088910685,-0.5968667739860816,0.18776068526103507,-0.08905086935001877,nm,0.0
217.36097600000002,-10.812010188584788,-10.545331462959483,-144.78477443544372,-0.25025355154880446,0.20247106299105588,-0.1553569967178587,-0.6656529563842336,0.18093144455729931,-0.134715986049949,nm,0.0
217.37047199999998,-8.541245757127834,-13.350132485149352,-145.80702750396762,-0.25788536135433,0.4047515224106628,-0.3825601446586104,-0.6981258754220171,0.21466694647550966,-0.11198966473231718,nm,0.0
217.37998000000002,-6.3314886676700395,-16.155021559845537,-146.52147253003585,-0.12045942948432828,0.5793106223962385,-0.462193521668976,-0.6808341584617537,0.23443264635912728,-0.03195689672255393,nm,0.0
217.389334,-4.405494323397678,-18.63555151101475,-146.782300896043,0.12684344615043464,0.7099535358897968,-0.7516091602600891,-0.593218253514439,0.2186400225869479,0.06137019415155382,nm,0.0
217.39884500000002,-2.898837997861095,-20.764429409199817,-146.65226580903374,0.3235145121244591,0.7222463586229726,-1.152858617079134,-0.48422421836109386,0.2063398140071089,0.1259772457824769,nm,0.0
217.40854099999999,-1.735982455530304,-22.590250156441414,-146.38656553602056,0.4413985849847527,0.5926898438735233,-1.3854170349850279,-0.3951077360580614,0.19121524030911916,0.1374613694294527,nm,0.0
217.43718800000002,1.0461643266642853,-25.545297076490275,-146.85549787527475,0.011577970553721425,-0.05949119084565591,-1.7750177316218059,-0.21606132519819887,0.019965962665326412,-0.08069391138931331,nm,0.0
217.44668499999997,1.8248074131863867,-25.959214728264346,-147.20157799672145,-0.26361610494884896,-0.23231644967123108,-1.6630600490121799,-0.1758914351295436,-0.0023824009939130285,-0.12402262095578222,nm,0.0
217.45618700000003,2.255105297064729,-26.147752149873746,-147.38179196267458,-0.3913828747349396,-0.353116385876149,-1.4359208305054045,-0.0984878863749155,-0.005152726333374276,-0.11779498237953104,nm,0.0
217.46569300000002,2.050409046407144,-26.1356045695455,-147.15977828555125,-0.5754067610385394,-0.3457105561315231,-1.511174112927626,0.01917150440168965,0.023303384480372488,-0.07268243970916773,nm,0.0
217.47522,1.5158790268359446,-25.993281059553095,-146.32718011734772,-0.5731877943740952,-0.360283768982764,-1.5975917604471082,0.08284222497168274,0.03442543759143066,0.037359437076484724,nm,0.0
217.484679,0.7117666377224932,-25.65838708643664,-145.27525906544915,-0.11791309612444123,-0.44075320593521333,-1.274872774733935,0.1444084486490458,0.03105067072394735,0.13866729441358427,nm,0.0
217.49422,-0.7772255705546601,-24.981103526841046,-143.63045915142067,-0.1300565707880747,-0.36721720955430326,-1.5906215685456457,0.2847613726936532,0.05198434725435033,0.14061798099080078,nm,0.0
217.50373199999999,-2.087868916106867,-23.937027953373903,-141.96300279530524,0.09977629656389661,-0.34864672162000426,-1.6690933219797686,0.3034111753854532,-0.01652320050372997,0.15812435192722188,nm,0.0
217.51324000000002,-3.237905534920075,-22.609182809526903,-140.6020391952135,0.4017707314613873,-0.3668778272574275,-1.395155790595575,0.3181785849126129,-0.06973055754136687,0.11574391237985657,nm,0.0
217.532185,-5.413977957027144,-18.96442892840091,-138.61697079814763,0.18832056258962515,-0.38025083730844367,-1.2056247715267803,0.3833129842255829,-0.1805881041770292,0.012325438308861281,nm,0.0
217.54169199999998,-6.371894597864759,-16.67533291369546,-137.59410815356478,0.1035835863589887,-0.45270792510634517,-0.9085869843736706,0.4296863891192857,-0.21276313947076755,0.024876937941942054,nm,0.0
217.560894,-8.301586552928963,-11.387144846906319,-134.34053367726375,-0.09957486626663974,-0.4930335752169563,-0.49508543098242236,0.49833976671216196,-0.2686439319401467,0.2261087365883329,nm,0.0
217.570415,-8.955462017842883,-8.437302003857692,-131.93956212049292,-0.026523365612182652,-0.3234574711464024,-0.3686867093716949,0.5069824628029544,-0.3041608065926196,0.3495192867827947,nm,0.0
217.608392,-6.139082195986654,1.0515275858808992,-126.01669416322548,0.6231614469259507,0.3722953565640554,2.6635575674131524,0.07035173853688606,-0.47947819925299895,0.05060222233708703,nm,0.0
217.61790699999997,-5.116880076522891,1.8919198280561047,-127.04767893374866,0.24726141844939575,0.41174109104628237,2.8778606499819674,-1.4890048888429573e-05,-0.2623022107672987,-0.21567260230698324,nm,0.0
217.62742,-4.678531331056879,1.9764410354319892,-129.16372048727968,-0.5889910354763953,0.6031584923908273,2.6510220612396647,-0.054122839849799625,-0.0767022226050541,-0.430712022034972,nm,0.0
217.646448,-4.538041269569829,1.5753260934332405,-134.36373964542977,-0.9199819621588402,0.3706295907785152,3.009781902059538,0.015424207904278028,0.12221122437218271,-0.5158993829811094,nm,0.0
217.665469,-8.268792581481518,-0.8386775276810908,-137.31540082111943,-0.5449081139993506,0.44399145439087734,2.668030316069417,0.08552422947432282,0.5044315797425847,-0.2056486105637163,nm,0.0
217.67498600000002,-11.29761817129942,-2.3570997454482,-137.59807541842193,0.029100333129113275,0.528680009870472,2.297493642964245,0.22798415436436587,0.6387314002751573,-0.075721621676412,nm,0.0
217.69401200000001,-17.89340383577646,-4.826485004180982,-137.402318747006,0.9391734710224042,0.6088634158842886,1.1351691217168554,0.30005050531317234,0.6129319557734022,-0.024152020050475963,nm,0.0
217.70350599999998,-20.614880434450736,-5.995863843331392,-137.42118494422544,0.9521169417281232,0.5712793609795191,0.4833004156231292,0.2277175955694427,0.5445335357508392,-0.0549561117564955,nm,0.0
217.713023,-22.718107238202276,-7.1554801453630965,-137.68193000299982,0.8655277171314475,0.2280877028974309,0.18478217771088332,0.1388021872093968,0.45883311187479353,-0.09962110166913649,nm,0.0
217.72255500000003,-24.32417674507291,-8.132284823265332,-138.27754745440654,0.47934923961132697,-0.09762220484424565,-0.0860424527800226,0.09276900998703297,0.36397269128779863,-0.16074556693787004,nm,0.0
217.732048,-25.396845376005633,-9.034366196244264,-139.06998807144015,-0.1257520309185746,-0.22234380765466533,-0.5264177015456019,0.02723605312438491,0.28140854142704463,-0.18909533885745158,nm,0.0
217.75072100000003,-25.05198764519575,-11.668718369900255,-140.05613681891248,-0.5122586255919884,-0.762780723354727,-0.5259485597870798,-0.28229735508020615,0.1637612527532346,-0.04548315483560038,nm,0.0
217.76023,-24.262778434518857,-13.265178883440388,-140.09298194242905,-0.5799664072311148,-0.580259562076767,-0.6934808341828277,-0.336347557996241,0.1519189072615964,0.028532705170761265,nm,0.0
217.76971799999998,-22.917780960610063,-14.952764681799607,-139.798758635855,-0.3324940223919161,-0.39357334797600235,-0.830358413152067,-0.4302915617782067,0.0962870231257421,0.12622987003366412,nm,0.0
217.807848,-14.976937501875414,-20.63785117777703,-138.51674564257146,0.3856007055947283,0.3743453261789428,-1.334543397576066,-0.46616839197880305,-0.1377862382206688,0.15569837657599178,nm,0.0
217.81735999999998,-12.669132247358228,-21.217133688229783,-138.78035878500555,0.16966766896427726,0.3446749687892607,-1.380865751891766,-0.4139588624843204,-0.19315438387079092,0.11255883745354586,nm,0.0
217.836371,-8.507402755023834,-21.14854487632052,-139.28090312938195,-0.22217503183996712,0.04905256436287214,-1.252635676785341,-0.2563508964782234,-0.25975186194993816,0.1040351589663638,nm,0.0
217.84584400000003,-6.95581350003797,-20.73020753482399,-139.0946649081981,-0.3642580901057968,-0.1691345266304212,-1.1605982982058571,-0.17830956844579252,-0.24853092451000924,0.1473830271173767,nm,0.0
217.855493,-5.800015545056512,-20.169041206145096,-138.50440846552817,-0.42046203051866726,-0.3693491389144751,-1.182721024897078,-0.10264061458490469,-0.22311121560087419,0.19778582005216966,nm,0.0
217.87454899999997,-4.188438665021185,-18.85036516557264,-136.65500517282823,-0.3184001749235769,-0.5384488833617678,-1.3200048315936073,-0.029275879298390806,-0.19689814932077682,0.2432007208558971,nm,0.0
217.884129,-3.456505416616937,-18.11600798165706,-135.8406158968874,-0.17579827113565022,-0.5214232187723384,-1.3754019303708396,-0.012355306295774356,-0.19888911617410013,0.20753010707029113,nm,0.0
217.903136,-2.044094046389961,-16.235639182601453,-135.0083885463432,0.03208810917277291,-0.39045191528955825,-1.2549335441574332,0.04109626046521265,-0.24043119609662753,0.09695294660036612,nm,0.0
217.912674,-1.56440448347424,-14.846914526234613,-134.75970468445172,0.03116563125067575,-0.2955065330674496,-1.1804217434043862,0.11815262963005148,-0.25868694070857384,0.07275859770925962,nm,0.0
217.92209599999998,-1.286091772597841,-13.131250389901469,-134.2647891879406,0.03567865895012427,-0.23393091267688565,-0.9703220771784082,0.19354278318804224,-0.2763768299366023,0.10951062153050989,nm,0.0
217.93175699999998,-1.2642205312289256,-11.098314568097233,-133.26226836670668,0.021697588113466795,-0.15978990101289156,-0.6822120032979014,0.2775323028047826,-0.2817883688900948,0.19830283103056667,nm,0.0
217.941312,-1.3888455255018706,-8.737345665639625,-131.61522047361984,-0.016593310863779527,-0.013589507834689053,-0.13781006340088078,0.35201171129840914,-0.2982861317542374,0.321825066804691,nm,0.0
217.95078099999998,-1.5400098179802018,-6.079557288835711,-129.38495354664414,0.07895963311028063,0.0787735355188608,0.401291240119632,0.4107325425311032,-0.32060903798905427,0.43865563417843234,nm,0.0
217.969798,-1.637023742167426,-0.9477105104662724,-124.66519257960948,0.12807324664758352,0.3795034170154385,1.0885221952169886,0.3578758519651109,-0.3054685431152344,0.44370850833190945,nm,0.0
