timestamp,roll,pitch,yaw,acc_x,acc_y,acc_z,gyro_x,gyro_y,gyro_z,markers,motor_input
191.007803,-5.734165943389305,-5.701420892452747,-99.11859049286994,0.28257281227872455,0.10397106144691558,-0.1103823443733126,0.19282789121736094,0.1577246875788178,-0.016988628053689756,nm,0.0
191.01730999999998,-6.408267229361726,-4.668875475451785,-99.24932060523429,0.42507986203729353,-0.06647021009533578,0.033274563624399366,0.2124737225102494,0.09510862869882404,-0.0413772168045003,nm,0.0
191.04582100000002,-8.208852177764417,-1.045819336909262,-100.63035853073836,0.4969050233428503,-1.1472813463919727,0.2178134731380445,0.2573466000718882,0.06967632156485323,-0.11551616409919951,nm,0.0
191.05532300000002,-9.069435827936951,0.18681938916192498,-101.11882120664049,0.48923293383872124,-1.5408344739497926,0.17225136196442087,0.26157628411307315,0.11879229128003466,-0.10207037056676882,nm,0.0
191.074196,-11.71969612663818,2.021558907204155,-101.79514794586345,0.618502823417603,-1.9736587119839124,-0.07876000766175865,0.19039847757241393,0.2604787659572104,-0.054975799160969584,nm,0.0
191.083702,-13.269893595647135,2.275871256739863,-102.13282595752047,0.6901179772406362,-1.9726160516603668,-0.13573511850559275,0.10055877028239754,0.28938497498429483,-0.05827493787353361,nm,0.0
191.093218,-14.6966886627875,2.167383734012794,-102.57134166940392,0.7420223154487416,-1.8762432502594784,-0.0364452084540691,0.02621568553172151,0.28010745882615273,-0.07870406396564157,nm,0.0
191.102741,-15.957934557141837,1.8100835009865763,-103.18113900494807,0.8030553896318258,-1.6713134289605325,0.009749814900286953,-0.026942535497112667,0.2587251240068833,-0.09165538913961907,nm,0.0
191.11243900000002,-17.062323633150534,1.2399934576703686,-103.73180947922988,0.7978827047547209,-1.4465232364097536,-0.03574871012392333,-0.07318736717416871,0.23843187345270211,-0.0904017386978068,nm,0.0
191.12194200000002,-17.928815729965283,0.5248188020086407,-104.18132915159843,0.7916700490993375,-1.2677948965191914,-0.05521719540879061,-0.11095510572768404,0.19982939931117089,-0.08842457399204393,nm,0.0
191.14091800000003,-18.6132156380236,-0.9991243524106155,-105.10374662280671,0.6538095163964049,-1.0148976134991237,-0.13291312634741057,-0.15545890822316535,0.06776117836951047,-0.11490715981043109,nm,0.0
191.150426,-18.504762438582905,-1.8642990730747133,-105.71356329088961,0.5187954258346839,-0.9131405577249777,-0.16070827078784045,-0.18670299844232016,0.02236002972522867,-0.12225447967160012,nm,0.0
191.15993799999998,-18.131342134140503,-2.8763181322284246,-106.31077669418792,0.39641599414002554,-0.8313489796180125,-0.13566424635700655,-0.22933908424920707,-0.018527038785501333,-0.11715399898050846,nm,0.0
191.18849600000001,-15.232377706592846,-6.103605544879133,-107.97305872485389,0.07561575442140782,-0.31153344639223496,-0.01683010016574976,-0.29001663106547343,-0.18612147420319064,-0.08415666788474442,nm,0.0
191.198006,-13.605011168448296,-7.057519971304265,-108.52311034815708,0.033171141283738124,-0.05073819339664659,-0.03860476181360938,-0.29673848021453814,-0.24989508438034552,-0.07396792453751741,nm,0.0
191.207507,-11.723923371171725,-7.908441793847418,-109.10086867725981,-0.03547093566140394,0.20429405744625356,-0.14976037210438695,-0.2956568749830221,-0.30079127003789974,-0.06810968211503934,nm,0.0
191.217024,-9.539780127887244,-8.604360348336888,-109.68741513232264,0.1026090797655054,0.395567259432377,-0.05535691006904264,-0.2890657640836914,-0.364186679889699,-0.05649767982750249,nm,0.0
191.22651199999999,-7.699548143787893,-9.072726949696854,-110.26217944873444,0.26576263000966754,0.5684590598664835,0.2930113060526809,-0.22638697664302468,-0.31233198803751683,-0.06066471145916378,nm,0.0
191.24553899999998,-5.4234092431520535,-9.142303333914482,-111.03776528731301,-0.09511513491141718,0.7230845620739254,0.0020862734093216556,-0.07721205931100943,-0.22792552219552917,-0.01998735257661463,nm,0.0
191.25504600000002,-4.442815621103126,-8.813099354428353,-111.04516357215792,-0.07150599093623797,0.656499043366189,0.12971129721906016,-0.02184713236321142,-0.20681383154733138,0.026230123613664637,nm,0.0
191.26457200000002,-3.753040916081983,-8.333779749938039,-110.78463944044458,-0.3046500141929725,0.603201931112467,-0.14080142123043343,0.027221854849832312,-0.16404641285293292,0.06961698026391401,nm,0.0
191.274075,-2.781440946496207,-7.848009443014641,-110.26556327481772,-0.27078100995622856,0.6151613044939419,-0.16359793652431773,0.009967962420485234,-0.21685198644755896,0.1279097561592613,nm,0.0
191.28357100000002,-1.6308999596949005,-7.536172807724223,-109.59519570873795,-0.2836459626230967,0.6868799080352267,-0.0910626214336157,-0.03261046051170445,-0.23848312573032818,0.1613781808025753,nm,0.0
191.293079,-0.22874278039786988,-7.403704769627962,-108.88542764562642,-0.3937301124372394,0.8135184632213863,-0.27802592318030445,-0.08004840071224702,-0.2743709725413429,0.17462441422556252,nm,0.0
191.302602,1.6117394993190366,-7.413362403765145,-108.1945722228249,-0.3657106691775392,1.0228710531221819,-0.02034091410116887,-0.13122144464335533,-0.34893578799293573,0.18148373547406677,nm,0.0
191.34064199999997,9.32616691483759,-8.049363085816772,-105.01026316375513,-0.8152682268326512,1.4689064524802686,0.24502085619770606,-0.11935000166895272,-0.3196081484614651,0.24458546939861708,nm,0.0
191.350132,10.626429449965748,-8.081281648953773,-103.81104199011723,-0.9247711632350324,1.3445213915958198,0.06227674798540752,-0.08239160033362798,-0.2526606293329496,0.2706251427627746,nm,0.0
191.36917000000003,11.99161572515151,-8.018770472506771,-101.20177446484028,-0.9328010996724396,0.9484554709167093,0.08496656285883411,-0.020386596205507736,-0.08399308543444851,0.2647394545214488,nm,0.0
191.378683,11.860366132148265,-8.013683953987643,-100.01680808087703,-0.8998968735926227,0.6924891793477431,0.01023390077140279,-0.0057744129913936855,0.019997179934570473,0.22735431610281928,nm,0.0
191.39769600000002,10.220682859968173,-8.118051674378234,-98.17148173079818,-0.6353880734767594,0.3800148017640701,0.06553262036953537,0.006218661880163435,0.2061777293992333,0.12927891679045092,nm,0.0
191.40721399999998,8.789652530045029,-8.245109164054721,-97.53135939597684,-0.49578584522575053,0.34100129805880425,0.048959275005453586,0.0018581519639571397,0.27867409651569885,0.08174453131085303,nm,0.0
191.46426499999998,-2.081973315412136,-6.412525952369621,-95.58207100282696,0.0758349766477171,0.04465210740441571,-0.23324536166527118,0.1610822888890306,0.28228930820624576,-0.0054624536216249745,nm,0.0
191.48333699999998,-4.164844768950527,-4.780075704192824,-95.43330425352023,0.26591668957440373,-0.23978024607044682,-0.13653112245364066,0.17151778790297909,0.18423117469936762,-0.01556429173679859,nm,0.0
191.49285999999998,-4.675890820593833,-3.9672145655102704,-95.43167511400223,0.2962129651413861,-0.34456827955250147,-0.13897804849650466,0.15905552363142503,0.08070515010979273,-0.010931961509829684,nm,0.0
191.502326,-4.750473119463271,-3.1864403695598895,-95.45095760028633,0.46452057144693254,-0.3691326210173572,0.017801008641079898,0.14440878347612102,-0.005398715476206181,-0.00832123706522898,nm,0.0
191.521359,-4.325777776592835,-1.9309886946664183,-95.55889196940358,0.42680337627595044,-0.3479404538909001,0.012706473782523143,0.09401869072840914,-0.09675229243627968,-0.012071312508036326,nm,0.0
191.53084600000003,-3.737371830002889,-1.3634381924246493,-95.63454483284511,0.49160874647318076,-0.35420134656561075,0.1641520967012529,0.08903731858392286,-0.13356809863258817,-0.015710672971404067,nm,0.0
191.540339,-3.176012054732735,-0.7646035795574352,-95.7283296214775,0.4023386477356012,-0.38301815012727625,0.02012298493028667,0.09565059573227118,-0.12892188941985083,-0.020825153584128068,nm,0.0
191.54986399999999,-2.5126156502871764,-0.21487566702971006,-95.80454197692926,0.4176215612716913,-0.44405700606215665,0.07571977883079807,0.08367504682824281,-0.1483869359083476,-0.018459267992532155,nm,0.0
191.568888,-1.438060055688359,0.5289478401170691,-95.86893325092156,0.32334658752577494,-0.5919834279119763,0.05291164786118276,0.03973409393007909,-0.10955178502660094,-0.008239671029614573,nm,0.0
191.578408,-0.9900300477994334,0.7162660661923113,-95.85118767194777,0.3374267997577849,-0.6016965071417251,0.09214532401612241,0.015775877922364272,-0.09815968562946191,-0.002177890712384921,nm,0.0
191.58791599999998,-0.6922961091086973,0.7491143648296578,-95.83061881385845,0.2897829355800429,-0.5703949388831565,0.04034417674783377,-0.011875063662858036,-0.06506619197171228,-0.0014655073476411802,nm,0.0
191.597414,-0.4441380189320327,0.6365447564440331,-95.83706386354913,0.27276146080156555,-0.5040450230446898,0.03738412738550262,-0.03980829149021644,-0.05224116115661337,-0.006752251151039578,nm,0.0
191.60692600000002,-0.2530887112604992,0.4184990847201545,-95.90586414943606,0.27938060267781656,-0.4193225771500182,0.08744086461871782,-0.0596720642803335,-0.038693558765695656,-0.019000895370919167,nm,0.0
191.616459,-0.16129150536011033,0.15109316540809542,-96.05687269798413,0.23892953791153934,-0.34100490543745404,0.05761391690920293,-0.06750402278532631,-0.017798163062101007,-0.03518831570495823,nm,0.0
191.62597200000002,-0.08281723551162555,-0.09759921329007329,-96.27418946249533,0.222903724558608,-0.2885292341587932,0.06343585799842281,-0.06354736190377384,-0.015345858087430959,-0.048369599130381316,nm,0.0
191.63548,-0.039991094938510184,-0.28887753341546696,-96.52443944627761,0.19667134858906485,-0.24527095160296217,0.05968968962737096,-0.05138815579348369,-0.009286792340919996,-0.054914355815483186,nm,0.0
191.644981,-0.011153802752693379,-0.4407373440476364,-96.75886790836856,0.1424463676535402,-0.24476184080626556,0.0017076300301824808,-0.043260900838601186,-0.007214548393624801,-0.05172601130221672,nm,0.0
191.65449199999998,0.051608913769361116,-0.5531771026811133,-96.93018105564464,0.1266033548838386,-0.25491248237041525,0.05022184375288356,-0.03625137944638832,-0.01476375517365392,-0.03901890230290798,nm,0.0
191.663989,0.07652658382987555,-0.624993975672433,-97.01768236081456,0.10385484107417962,-0.2515159030944394,0.028357385921870454,0.0,0.0,0.0,nm,0.0
191.692604,0.18579568292776436,-1.1070402036628217,-96.97305233305242,0.0733004441678771,-0.12931590969200377,-0.059288537883369644,0.0,0.0,0.0,nm,0.0
191.70210999999998,0.16721370743906908,-1.2441423016509614,-96.98302107737031,0.0557793562275303,-0.0760757132400844,-0.06308624510428107,0.0,0.0,0.0,nm,0.0
191.711625,0.09770508079464633,-1.3307642761332121,-97.03895798795783,0.034459138603886344,-0.04549742033290348,0.0010187060149083763,0.0,0.0,0.0,nm,0.0
191.721149,-0.07739493387588813,-1.3617920070124288,-97.12604012459417,-0.004526498360763268,-0.03620673039626648,0.0008674149585236097,0.0,0.0,0.0,nm,0.0
191.73059600000002,-0.21298140728500667,-1.3088486489521343,-97.21495042767435,-0.09345459254192255,-0.05020989796519216,0.10880813635233312,0.0,0.0,0.0,nm,0.0
191.74959099999998,0.10619975368202637,-1.2779779374001916,-97.35074947661613,-0.16968941224252743,-0.06517709980997499,0.2600091010904767,-0.025175789573676978,-0.06108511177315037,-0.016599143198258587,nm,0.0
191.76861799999998,0.6576981347485225,-1.8511446407081769,-97.61292970091795,-0.2370595348319602,0.03402126330356116,0.07165030970349011,-0.09147178902546817,-0.054928470893634694,-0.0344001321791817,nm,0.0
191.778128,1.0667308873561119,-2.194855349135736,-97.8141392350788,-0.16278472658832036,0.13041096605295394,0.14333276555908875,-0.09159630031187316,-0.07680931382945212,-0.042242145191128865,nm,0.0
191.80664700000003,1.8454369102746109,-3.2043297115132128,-98.49128388867004,-0.22597810400737414,0.26051070911622465,0.13380563247933955,-0.09053505913180485,-0.048729786416270765,-0.03899648163632351,nm,0.0
191.825684,2.0730367876583835,-3.7119338691673924,-98.52741891300944,-0.20631355154347755,0.2059769473161327,0.02110079017652044,-0.06131359919132204,-0.008084023792625577,0.004162880653834938,nm,0.0
191.882822,1.1792709414482587,-4.7946024322658625,-97.78082101316315,0.019773348493274123,0.15679571581661364,0.06651468104084103,-0.0763277374399822,0.030863857825783964,0.003874555580347758,nm,0.0
191.89227100000002,0.8822834071096747,-5.049898562695272,-97.72288696482042,0.02288397226031578,0.1874791733499643,0.14741821983314532,-0.05510756600097403,0.060428297840756734,0.0020179039436279632,nm,0.0
191.90187799999998,0.3470948497647498,-5.002373056517795,-97.63727641440643,-0.02377727117584826,0.203622806283559,0.013001527100058807,-0.032875547575124134,0.09418747868138555,0.003572681870483542,nm,0.0
191.911351,-0.09468860497641186,-5.020112555604794,-97.49313131612742,0.019609755154719057,0.14952074529083176,-0.04744747914788533,-0.039771689344004484,0.0814683235956885,0.016982403615259746,nm,0.0
191.920855,-0.38656243968656107,-5.161044569911329,-97.28538816512892,0.08889637168128513,0.09635434688685222,0.09061557482871425,-0.05258843659419674,0.07412273686115144,0.032237340982753875,nm,0.0
191.93031900000003,-0.8593781764465053,-5.430960965397325,-97.0133412857564,0.10507777880684781,0.060778680114400165,0.11991025665262098,-0.05442285870435129,0.09496016528415029,0.04164779155773216,nm,0.0
191.93983699999998,-1.2861581201327765,-5.715340528754928,-96.70128788801576,0.1537584613161052,0.08073113658627258,0.12725846494845047,-0.05891646539289851,0.08586327089082135,0.05021836410702723,nm,0.0
191.94930300000001,-1.6506820835458353,-6.0397269276271395,-96.39605217385021,0.24964291877825703,0.13628173429867085,0.20182675464331368,-0.06878757010829038,0.07408295536478884,0.049791749295649244,nm,0.0
191.95881699999998,-2.021279360194514,-6.392454765791583,-96.1618930357465,0.2852867811256147,0.20969312966117862,0.1741572986727525,-0.07468341024059691,0.07553165124986215,0.03511758390152082,nm,0.0
191.96831999999998,-2.301505342916977,-6.735638762130925,-96.04385123750663,0.34489852196964854,0.295254135991393,0.21649066464547326,-0.07496041932201547,0.05717281708984277,0.013589601465512439,nm,0.0
