timestamp,roll,pitch,yaw,acc_x,acc_y,acc_z,gyro_x,gyro_y,gyro_z,markers,motor_input
236.001605,-74.76824869020486,6.5056290288080545,-68.33962172388762,0.044881187428925454,0.07779166934431712,-0.04384841090109184,-0.4489010604171749,0.05246314211182742,-0.1061158779995284,nm,0.0
236.01109799999998,-75.8731161790829,4.622993413954093,-69.05418403827397,0.009746668164923838,0.09072422571086997,-0.03106348312486614,-0.456464961320124,0.06110954822953098,-0.1120210640427542,nm,0.0
236.02061899999998,-76.90116571414792,2.8207957614786543,-69.6655665955011,0.020313600054011546,0.12555613011117286,-0.018577483552027194,-0.44292256240687894,0.06071065035298153,-0.09912010307061654,nm,0.0
236.03012099999998,-77.80251368810463,1.125322145057164,-70.13058854301413,0.0853694543152772,0.1259617862331336,-0.025109995634472373,-0.41380440756677767,0.06346529919150337,-0.07690464285499095,nm,0.0
236.039637,-78.71032398401478,-0.38125202548179155,-70.555601873032,0.05971805590769861,0.09106517958590771,-0.030194201033409255,-0.3705478231498413,0.0750966290057709,-0.07352956450040128,nm,0.0
236.04915200000002,-79.53900411577182,-1.6484180365827221,-70.97379615472633,-0.004622406520676235,0.05521755942382774,-0.07540331521332815,-0.31342601262559777,0.0680998857928854,-0.07588956024787258,nm,0.0
236.05857899999998,-80.29893133204402,-2.758519983328544,-71.35300786287195,0.03238536011381264,0.0016541551934516683,-0.18237869888795957,-0.26401977706788865,0.06441209945996408,-0.07079139644249062,nm,0.0
236.06810900000002,-81.1894512018711,-3.703338943344495,-71.7501059508242,-0.005192231636654459,-0.09588191205469992,-0.2739511102209666,-0.2403030806465294,0.1015489518608459,-0.0783687067439709,nm,0.0
236.077598,-82.29235090507474,-4.549724041194382,-72.21688367617726,0.009181554624457586,-0.14389723952366756,-0.36727332394537027,-0.2337033642144163,0.1498521905822284,-0.09794990912221016,nm,0.0
236.09661200000002,-85.37142021700741,-6.269729882672989,-73.10895810304228,0.19204113110618387,-0.19154185207025481,-0.5286414839134407,-0.27274502489449165,0.2641411205309457,-0.10742009993175769,nm,0.0
236.106117,-87.2684802664946,-7.209988991185133,-73.57984389981605,0.2778945733612171,-0.23412040928419012,-0.5986889647363838,-0.2922985124559444,0.30119863566463284,-0.12670642396536957,nm,0.0
236.125148,-91.30120557224168,-9.230051119825479,-74.67232890899874,0.22189924433797828,-0.22410002011048957,-0.7865572269268079,-0.3116269520660181,0.3294385780301592,-0.1527239637338475,nm,0.0
236.14399,-95.4373756959326,-11.340084211863429,-75.2987341533032,0.2636732112546598,-0.22558555024063118,-0.9340037240311893,-0.3096744956258265,0.3324656020794066,-0.11996997563097628,nm,0.0
236.15349999999998,-97.50727203920913,-12.358400481027228,-75.57864405272403,0.1651334112671385,-0.2349646906707121,-0.9746870518921196,-0.3016167001831822,0.33698751822942524,-0.12784128732025013,nm,0.0
236.16300399999997,-99.53957191072494,-13.304585027076447,-75.80902015946691,0.1679533053565491,-0.2372865019676984,-1.0200053938886235,-0.28356503500512714,0.33365222201993733,-0.12302622383640431,nm,0.0
236.191545,-105.73286855463334,-15.20547599514533,-76.3662763050184,-0.007909906303649752,-0.5545890815467818,-0.7221411579838917,-0.16472983305694838,0.34073042206081444,-0.12617811428901382,nm,0.0
236.20105199999998,-106.97536796436586,-15.119843186092833,-76.51585216816875,0.012342311272362651,-0.7034359538643412,-0.7689132104241293,-0.04015993169993578,0.23434864080951195,-0.08115496943613186,nm,0.0
236.210571,-107.7553455283497,-14.46136122794427,-76.71883237274486,-0.14190350615168426,-0.8622425385224541,-0.5926456824127766,0.09298571987613159,0.17421752542806715,-0.06664468982052693,nm,0.0
236.22976500000001,-106.9826448998102,-10.950712462229134,-77.13343244532567,-0.7209401846917747,-0.7988271254350884,-0.33299875071288393,0.4581927770127347,-0.06141172997909152,0.02731153190871931,nm,0.0
236.239293,-105.25106311197801,-7.952425263091549,-76.75057350273349,-0.909421561980205,-0.634302153211388,-0.07611050186698924,0.6615608441295348,-0.20236121850668523,0.14702233683165136,nm,0.0
236.24882599999998,-101.76223325867232,-4.293313526831787,-75.93898726061941,-0.6912386338158274,-0.2874208287512592,-0.3616754203034405,0.8747741126200793,-0.5079364236830969,0.24993807098914123,nm,0.0
236.258336,-97.07003789510236,-0.3973863766301939,-74.83579471213217,-0.6081157199009388,0.2744772268571419,-0.20361637526674214,0.9896891333183833,-0.7187459218254507,0.2715232608898624,nm,0.0
236.267802,-90.82572149894226,3.305302121989722,-73.45028565353692,-1.0598815081712811,0.880856830493627,0.30747366946260835,1.0515495488520812,-1.008191804454026,0.25682301432926546,nm,0.0
236.28682,-72.15497834898373,8.194815789190741,-69.39476664320917,-0.26660806357315214,2.3914045638087265,1.1964573457028316,1.0138927370118993,-1.7806194211865465,0.177576791799599,nm,0.0
236.29633700000002,-60.66637173952467,8.598937359671533,-67.80663772621399,0.029870632478813997,2.818329756427906,2.1790550995861624,0.8989119722622742,-2.100017961085944,-0.012190891890778316,nm,0.0
236.30584100000002,-48.0785862492046,7.750817641215827,-67.45657328845142,0.4948723827283621,2.6308154575395326,2.819594818894145,0.785152178636204,-2.3824434824001077,-0.284067597589936,nm,0.0
236.31535699999998,-35.82259666794759,6.49477456209022,-68.87654156461785,0.8817046503876537,1.6265431531683125,3.5979243563369527,0.6640663824588414,-2.3646005348781123,-0.5854078309891481,nm,0.0
236.32485799999998,-25.505008519038093,5.865778772312416,-71.7527038327041,0.21980942265137857,0.10309519995810079,3.871388922395508,0.5637583098162288,-1.9867192581018978,-0.7967835794041652,nm,0.0
236.334369,-17.349396386477068,5.848399948647323,-74.71260035678868,-0.8621950243001205,-1.2571836756696202,2.5615212658779574,0.4549129690778519,-1.5661393942983182,-0.7601187911207747,nm,0.0
236.343878,-11.172203070629399,5.80608578945652,-76.45893634798706,-1.1416308593669653,-2.0763371393429035,1.6884824023013463,0.2874953953535006,-1.2028581663895006,-0.4780609702108392,nm,0.0
236.35338099999998,-7.642242759598909,5.2670452467825015,-76.45617695123278,-1.3458596412620456,-2.175373171947913,1.0907664723647112,0.04934531535494528,-0.7180312868714595,-0.07149773586725199,nm,0.0
236.362722,-6.641127954711168,3.764424193314341,-74.89798321257345,-1.513552057100895,-1.7287862304718118,0.3046054938914598,-0.25228517679157636,-0.2771879750509144,0.29227228514811926,nm,0.0
236.3724,-7.466151809888798,1.310146127293297,-72.59509308511171,-1.0020542622788489,-0.8693087864906937,0.7886467627429908,-0.5278557958708642,0.011231996521527865,0.46486337158599117,nm,0.0
236.391469,-14.979127655208748,-3.4128502238966254,-70.29907436590517,-0.3397995074638297,0.8775776874032237,0.23246995698994294,-0.7085485024591794,0.7046892942118219,0.04570289460649154,nm,0.0
236.40061699999998,-19.89926987429249,-5.433807327563604,-71.66244692208633,0.0488980777572647,1.3022878078098783,-0.41863761226157453,-0.7125271999887742,0.7868886384740428,-0.3487969131480997,nm,0.0
236.41960300000002,-30.722444756133232,-11.111219084709758,-77.29483838570032,0.4828013390267735,0.3109436211453534,-0.9725150576790333,-0.8726234739691747,0.9129178643645887,-0.780832839319955,nm,0.0
236.43882,-41.560286091520666,-15.453454719681272,-80.8180138136825,1.2048607928268795,-0.6877915685396305,-1.0153201660171638,-0.5238610916351513,0.976651907181131,-0.4961656385975212,nm,0.0
236.448319,-47.82943106497224,-15.927988712393631,-80.65998109956149,1.0778237506232333,-1.108235304441175,-1.4127420800727855,-0.2987622506915398,1.1710564661755105,-0.3009519481150404,nm,0.0
236.46741999999998,-58.919741125521526,-13.443607616890684,-79.18063452680612,1.2879310772031423,-1.0638627215993472,-2.2479415114493544,0.13906185680436123,1.0228635965573634,-0.10848379476427734,nm,0.0
236.47691799999998,-63.436593555574454,-11.84456238243822,-78.92568096408043,0.7332024298311997,-0.9721986359732714,-2.669009233851551,0.1380733657704226,0.9209173973652889,-0.1374762835508543,nm,0.0
236.486433,-66.94611708841393,-10.970124273645009,-78.93807645890273,0.23044937860946446,-0.8568818998899159,-2.7638071861424462,0.031525722339837484,0.7033939709780489,-0.13151608099327056,nm,0.0
236.49594599999998,-69.23173211009784,-10.934441422882896,-79.07095186575262,0.32761070892902155,-0.8361930333208596,-2.6141381853944257,-0.08638221010859048,0.4363375106184789,-0.1032835060116608,nm,0.0
236.514958,-70.76451443621654,-11.481007176569985,-79.52153137773848,-0.036155680519044886,-0.8808908588063428,-1.7571972467724482,-0.04199003546392318,0.021580839675372672,-0.03730793439398642,nm,0.0
236.524395,-69.71958439650103,-10.699977964117306,-79.52605176834608,0.16966307521625956,-0.6738262753924023,-1.3360053983576334,0.18345437242563736,-0.17949913116539243,0.049689205849264236,nm,0.0
236.55297299999998,-59.43594674777466,-1.724121373893412,-76.65171301048379,-0.07189595526397127,0.9627092924540318,-0.4795169973758756,0.931138786671189,-0.8020035617297999,0.4022764875953374,nm,0.0
236.56263099999998,-52.54130432918807,1.7032386898263137,-74.33427938479899,0.435144979643861,1.9989785754800034,0.23630275601945727,1.0007032455440796,-1.1743969531062353,0.46978283654128156,nm,0.0
236.58163900000002,-33.40865666659263,4.889991273658954,-70.02278326309738,0.2257946317565443,3.041341562939016,3.256640201653474,0.8411609123496383,-1.9497815314515996,0.21267222106933673,nm,0.0
236.59115,-21.778371523420823,4.80411453057233,-69.55148719658887,-0.052400607082481836,2.4518383952678766,4.925772314127527,0.7760081896695955,-2.193929630381321,-0.10345985997600256,nm,0.0
236.60065899999998,-10.779666743862153,5.079711061011514,-70.83993325100063,-1.3670758406507395,1.2327819429293239,4.7003719817997025,0.7855275084323489,-2.0558100770369956,-0.4500796862050622,nm,0.0
236.61016299999997,-0.971757327646937,5.877441749723526,-73.06893049308849,-1.8993252833239505,0.01975995360855799,3.3387958950633987,0.7476551419610991,-1.8187808068452176,-0.6380351088737497,nm,0.0
236.638545,11.020527490989055,6.400036412529373,-75.86975150101016,-2.0319109205777033,-2.0798881735444485,-0.06458966372825552,-0.08246144184896459,-0.23442552222179508,0.046027953475157556,nm,0.0
236.65775599999998,6.883220590033736,0.8416823647345127,-72.47599657201587,-0.9590215010175109,-1.0120067529438357,1.0481686530726206,-0.8185591292624333,0.4327023540499986,0.40400715896108774,nm,0.0
236.66708200000002,2.0663872318679797,-1.799414683804745,-70.87949787770377,-0.44766727607435247,-0.006293324114751168,0.9371582360034052,-0.8137698995833781,0.739608541547572,0.3062631242598452,nm,0.0
236.676594,-3.4738766840842086,-3.498052081258048,-70.54121464223844,0.09951884007124051,1.0440386819132434,0.40475303905543314,-0.6960087844005863,0.9235401593566568,0.012637007079462624,nm,0.0
236.68610299999997,-9.465228937698951,-5.251251794065549,-71.94572108473834,0.39233315094462234,1.354183109299461,-0.38086514127817256,-0.7265141150674121,1.0099096892668995,-0.37476112889357166,nm,0.0
236.69566,-15.341971992245183,-7.550759236107618,-74.67259779502444,0.37886348617309107,0.8011037886139823,-1.027823960878184,-0.7870861552634153,0.9786502758158008,-0.6774277388201312,nm,0.0
236.705141,-20.195991761608383,-9.875407117883729,-77.82180730884906,0.6000975623468379,0.244279208978958,-1.1097253969400507,-0.6914583327757166,0.8139613850748816,-0.7768124823299928,nm,0.0
236.74313500000002,-38.98780718102577,-12.664242968601668,-80.54554449104009,1.2418657610799009,-1.326908512559951,-1.649528892886443,0.028931671701365562,0.8828871404598577,-0.006756053087679143,nm,0.0
236.75272900000002,-43.143596428178405,-11.020223037787545,-79.47452686589232,1.075422466772594,-1.2186418274936954,-2.149114293556036,0.172073045508654,0.8516960807941394,0.04919014006647913,nm,0.0
236.771739,-49.12463295497241,-8.26358758249848,-78.42765969038038,0.726785684171957,-0.7191270993679656,-2.5308922873242654,0.10674906417021844,0.532133924657165,-0.01651503160700854,nm,0.0
236.781265,-50.81973421520122,-7.769669993783273,-78.677305028224,0.4650887660178911,-0.6012850775182338,-2.406015506910989,0.02034849110189715,0.34144917151135273,-0.09049912167372562,nm,0.0
236.80027900000002,-51.2110573221583,-7.175312963569643,-79.65433791540465,0.3007704665132174,-0.4789429140902724,-1.5871367197191195,0.08183911451317845,-0.04832624850165004,-0.07731373121697778,nm,0.0
236.80970499999998,-50.01808402806156,-6.017232794728144,-79.71119300048683,0.24313647801686983,-0.35359751660111477,-1.1235364857812167,0.260585661942325,-0.19958531284628073,0.02256666631560639,nm,0.0
236.81939100000002,-47.77722133354403,-3.9042636459236055,-79.08316177131948,0.24958399388515412,-0.0007268463976936367,-0.7030384302012288,0.4879444248532334,-0.3696452849743406,0.1703892888958587,nm,0.0
236.82893199999998,-44.33571205458016,-1.1257443786114762,-77.5360781122037,0.3183202556780425,0.5560510587259583,-0.23945412971513763,0.6740339992527898,-0.5702525110104368,0.34473310845467336,nm,0.0
236.838423,-39.39375075460856,1.7502149622236483,-75.12697524625906,0.1525065237585082,1.228239807830343,0.3140392810887378,0.7830393677418601,-0.8350950161226719,0.48008642812989244,nm,0.0
236.84793499999998,-32.45963793241278,4.011267080592941,-72.17604951205338,0.37560119059708846,2.1191818473621526,1.4414586571522168,0.814406804012703,-1.2136121594185134,0.5220180329999231,nm,0.0
236.85744100000002,-24.195494014867265,5.178500146533516,-69.42800306235723,-0.15155190318315936,2.6636435061642185,2.762674293825699,0.7531507831978194,-1.4916042644558778,0.4164760614294002,nm,0.0
236.866951,-14.900718109377511,5.37390131200595,-67.73624788920138,-0.8194926975674308,2.684134888712526,4.0995260126733495,0.7038235453882344,-1.721599785605687,0.1645507778627925,nm,0.0
236.87646099999998,-5.5581242623705265,5.457767475446607,-67.71642266648402,-1.5724442899679159,2.067656598477824,4.607291195194504,0.7124902183712595,-1.7272986725942756,-0.17692711549630893,nm,0.0
236.885972,2.4642949890295758,6.0908101022812815,-69.25193425099262,-2.3086378992823056,0.9147835778689126,3.566585401795418,0.695280050018781,-1.4500945301278667,-0.47460577000023757,nm,0.0
236.90499100000002,12.111379117608509,8.144992123200298,-73.52064925459011,-2.149594154389604,-1.7140385123190962,1.416738468807726,0.39505984201115174,-0.610274693753004,-0.5005080276581741,nm,0.0
236.91432799999998,12.876548670120927,8.408278067074571,-74.49157223319963,-1.8607103058313963,-2.213680986782589,0.23480145057955326,0.08390071035479028,-0.13904590728195185,-0.22468029984142554,nm,0.0
236.933554,9.173420614243375,4.499946246389522,-73.13145805602392,-0.8676356401902783,-1.7743478523764793,0.638545159852989,-0.6619421579450192,0.33462014945664337,0.27278315070814846,nm,0.0
236.942887,5.02437267497285,1.7053579221852047,-71.65098243959574,-0.33944731651684795,-0.8350208683091956,1.0826033201273626,-0.79289075057845,0.6122041768986906,0.33515556111785205,nm,0.0
236.96192699999997,-5.746836444086288,-2.361941215964704,-71.15591125942858,0.2706567432817521,1.0443227787166822,-0.12277928820337819,-0.7293411248831595,0.9052456689333435,-0.1146065749905296,nm,0.0
236.971256,-11.313321854651612,-4.509292853214812,-73.04535968405084,0.4467173286162821,1.1175672625649886,-0.6950128805317566,-0.7608865767638102,0.9169800961707003,-0.44677038478293096,nm,0.0
236.98076799999998,-16.325227733507855,-6.7980813334436005,-75.85118118036135,0.3484976191876698,0.618262918994979,-1.2288550091076271,-0.719765031292335,0.8301700540505866,-0.6608929813375155,nm,0.0
236.990486,-20.534927958381402,-8.879645312900852,-78.67385074700302,0.832337134102227,0.18142244167418256,-1.0516765270708563,-0.6017625766973369,0.7141056004619449,-0.6793303745877655,nm,0.0
236.999984,-25.094663648451313,-10.457690172883808,-80.69314482623118,0.7705075553531908,-0.5252118290411696,-1.2624131629397803,-0.48345788866888556,0.8209545654278112,-0.5557600128553682,nm,0.0
