timestamp,roll,pitch,yaw,acc_x,acc_y,acc_z,gyro_x,gyro_y,gyro_z,markers,motor_input
241.003772,-48.737145841418844,-69.96754191334229,-19.353992840143484,0.9278626784028732,-1.0440110518388925,-1.3517414493924027,-0.17896457628829773,-0.21749686899089246,-0.4037626413722713,nm,0.0
241.01330900000002,-47.60229195179332,-72.17656939074709,-21.625141862501547,0.868832939792931,-0.6177736571213162,-1.1661838743485469,-0.09330162064805576,-0.4501228216735559,-0.23285125490409597,nm,0.0
241.02281100000002,-45.00874837373673,-74.61960705655002,-25.095058560338302,0.6781110268565019,-0.5814712330503203,-1.1207621160051688,-0.06595776628845361,-0.5177905712523893,-0.1907250141212351,nm,0.0
241.032314,-42.47060912933811,-76.61641007313531,-28.23084087840653,0.3641242678786921,-0.8916981397455868,-1.214966953972671,-0.07529011139616851,-0.4237582751650477,-0.12955559298189978,nm,0.0
241.05142700000002,-43.54467773835069,-77.57106308560866,-27.035309107915484,0.17190183392095926,-0.4561477905899184,-1.6325269788611614,-0.0655034914931816,0.04711249144550615,0.028356510542363725,nm,0.0
241.070459,-46.71050503739862,-74.70473048941273,-23.313421612637214,0.24919517335530422,-0.20136877157342922,-2.097133940563864,0.09256901991455031,0.31850422116774824,0.09064484548059698,nm,0.0
241.089466,-41.2080238457723,-71.55589599256022,-28.194852723674025,0.12080710751558045,0.08992221024721325,-1.7537783759453827,0.3492007946352644,0.1469074749580906,0.04016491985761221,nm,0.0
241.098981,-35.00320571936778,-70.00130932219427,-33.97078405055487,0.010887982554950403,0.4116075652116817,-1.3185691886946709,0.5033352455107545,0.045704910425789884,0.024250000103209338,nm,0.0
241.108392,-28.39937650968889,-67.99785146058709,-40.13586050207479,-0.22564868267376914,0.6593961440966841,-0.7350129986142248,0.612195655809357,0.024445191967226117,0.007359139096028415,nm,0.0
241.118094,-22.90804162750909,-65.199502370426,-44.91779231235044,-0.4838333794741085,1.0733718507207433,-0.020984880323514126,0.693208161317359,0.10708500650114496,0.05850159890831932,nm,0.0
241.127582,-19.240374966868533,-61.45883066545805,-47.40439795940369,-0.7475584171632587,1.4053833724960751,0.7893075908030833,0.7618572816737054,0.2698739196693885,0.1645962557615886,nm,0.0
241.137098,-17.032691407429475,-56.95296378991151,-47.707140525488775,-0.9683263071881755,1.6778663121051902,1.806029228739147,0.8125246658987374,0.43019572470237755,0.3244948684758881,nm,0.0
241.156129,-12.275144050426468,-47.56624607481295,-44.73049106109325,-0.32590771241013483,0.9363187041088673,4.280636875783821,0.8958319920038645,0.3683070550484298,0.7923963635876597,nm,0.0
241.175155,-7.4197316412754235,-43.513066938256515,-39.842917954115435,0.5354038283655022,-1.1593418275362337,4.77328162452047,0.36791629417008276,-0.09424650883103143,0.85734902859943,nm,0.0
241.19416900000002,-5.622832396474022,-48.49524219296028,-35.13637637377522,-0.7427046128639507,-0.29470804042668586,3.332778413525235,-0.34458146267319595,-0.6187923609295524,0.5102693345919956,nm,0.0
241.20367000000002,-6.137494999438598,-52.64638945710226,-34.47738229338956,-1.3558972761787127,0.11665138742990698,2.0575932468698963,-0.5296697484095116,-0.6591673187862989,0.05499785092694628,nm,0.0
241.21319100000002,-5.190387643155453,-56.96808802942416,-36.0808752401401,-1.2436004229474031,-0.7723387992040129,0.6081994497725847,-0.41250151659676354,-0.7835002375376753,-0.16287316065091642,nm,0.0
241.222698,-1.9072427772576634,-61.4004477920606,-39.50368770072442,-1.5805457702312216,0.7752049577552229,0.724524490632453,-0.2799934321287163,-0.921380962531913,-0.1170947590070262,nm,0.0
241.23221099999998,0.2571575138035649,-65.47383602261003,-43.80139213563427,-1.1881530324748641,-0.0995630066130158,0.013012233166454142,-0.4006525585546132,-0.7518521906667005,-0.46912918526331826,nm,0.0
241.24155699999997,0.855709763091355,-68.8121268848808,-46.55216152135455,-0.8849274377447109,-0.5845076036285047,-0.6639199301173933,-0.44551071864297215,-0.5176547211572121,-0.4365854893442238,nm,0.0
241.25105299999998,-1.8932836875227155,-71.76007729390716,-45.432340783963,-0.7087732782595327,0.4132722431434,-0.8388907470934124,-0.5580424590311963,-0.2897902176582491,-0.29010162310823584,nm,0.0
241.260636,-10.264746083870277,-74.18605260779447,-39.68663177118318,-0.22687669716354228,0.061664203985256225,-1.2410790172238304,-0.6939091785184089,-0.03836009427215348,-0.44835284861528946,nm,0.0
241.269962,-21.743748016962073,-75.48625809057667,-30.876026496852194,0.17969330613286416,-0.23821902486800475,-1.4553369215450598,-0.6445142073901214,0.1224874104017402,-0.4495080489537686,nm,0.0
241.27948999999998,-31.627080330447328,-75.91084574677059,-23.147876699327885,0.5302053223777553,-0.17901617971618672,-1.770603668185032,-0.4783074680239751,0.13431232560715922,-0.36414409373981643,nm,0.0
241.28899299999998,-38.556479440792025,-76.62354136499201,-18.418602663235575,0.7970570735171373,-0.22890543381154727,-1.7996149325833262,-0.363764791146456,-0.027955045247150447,-0.3944111032351641,nm,0.0
241.30812,-44.000743296968444,-80.43386268602521,-16.833040396549194,0.9315959023878627,-0.7232811547791566,-1.4777076803047435,-0.18055088120678092,-0.42941868986374243,-0.3169074290392628,nm,0.0
241.327145,-47.827584386589656,-85.26801503067966,-15.457100920075908,0.601513484895024,-0.8756711265020896,-1.5600707426238989,-0.21532060980105877,-0.43591402953721575,-0.21743305612834593,nm,0.0
241.33671999999999,-62.75501477100651,-86.56430624575948,-1.1744453924983018,0.46659103817020725,-0.7027494772102884,-1.8513195641402278,-0.2503799514922569,-0.24317863597567496,-0.12074374700921299,nm,0.0
241.346233,-80.82629618977354,-86.33238684732692,16.364680008195034,0.4837882151503214,-0.6286344181718279,-2.3571971910250706,-0.22688123158540874,0.00928344820967906,-0.08487380206417262,nm,0.0
241.35575200000002,-84.76989810388613,-85.06235266344483,19.847606724820007,0.509896128311475,-0.6462967035697912,-2.780832307598203,-0.1440366588310738,0.22144364082720036,-0.07623092574829422,nm,0.0
241.36525500000002,-77.95332258716391,-83.42270629301407,12.860057800344032,0.5253005997977028,-0.4144574356796376,-2.9528326534196783,0.027660262817510228,0.34842806896722606,-0.03136338107522042,nm,0.0
241.374765,-65.30682606252499,-81.67831290874268,0.21084820439292623,0.46477662180108775,-0.14177291345302465,-2.8156897196217234,0.27514829451976514,0.37610771699672096,-0.013114604358737417,nm,0.0
241.38427,-50.55910828053455,-79.72799268151549,-14.382344630396057,0.3281944242158382,0.04343143335543235,-2.324202311721188,0.5103652589765537,0.31893705801744254,0.0014013388834850492,nm,0.0
241.39377900000002,-36.75258479382689,-77.37826407878316,-27.72876337677677,0.08411681721727227,0.48448931115285243,-1.4556818835971879,0.6706083365611674,0.2316984992197094,0.046728052574315095,nm,0.0
241.43193900000003,-13.478225755382617,-63.051111081717664,-45.718918676354896,-1.0555803356432163,1.3079462766064092,2.2774227430620946,0.6800298100572763,0.43829135212814907,0.4315461679578609,nm,0.0
241.44143699999998,-12.069752175083373,-59.08465687333276,-43.82999916345846,-0.948709004439072,1.226502491539493,2.9731575666192485,0.6518780982608207,0.4552777652371489,0.629778059619906,nm,0.0
241.45093999999997,-10.715838350185773,-55.85053755811569,-41.44689495927929,-0.7972264915333156,0.8732371360302756,3.8026238269642842,0.5423583123658928,0.3646453512311735,0.7098178962021754,nm,0.0
241.460454,-9.791870594953311,-53.897903475390024,-38.806513844703815,-0.4840864823778976,-0.15690479657503328,3.949950460704364,0.33056200184150514,0.2169658924358947,0.6836783804672437,nm,0.0
241.46995,-9.360587983895735,-53.38358357228656,-36.118956841144076,-0.33686553023366855,-0.2811050576674839,3.7306458204173185,0.10108139175182272,0.036957583136368086,0.6111717214655915,nm,0.0
241.479477,-9.889691437960735,-54.44593627437095,-33.648239481696734,-0.3399496146154647,-0.74695083435125,3.021414910672656,-0.1746994674538403,-0.15256017459888868,0.4126432757865591,nm,0.0
241.488981,-11.317147444426002,-56.69881025938265,-31.45867123107324,-0.7510162741018336,0.1298710108213205,2.611994865070802,-0.380705299459175,-0.3069774403954312,0.2064422793592171,nm,0.0
241.498502,-13.592370193088385,-59.395516486548686,-30.36297374426639,-0.7790673298666755,-0.3118810327661763,1.2815503704028042,-0.4863832369956575,-0.35288814767786963,-0.16299077670375592,nm,0.0
241.53635599999998,-19.293264020259052,-70.95641132570633,-31.622054400123755,-0.5819935404910501,-0.43707464834643367,-0.743507641692353,-0.4214196728071686,-0.26270870192699125,-0.41571757871460013,nm,0.0
241.555399,-33.91182180399115,-73.01943817009119,-21.887506350540928,0.030467429524003303,-0.2826295929345632,-1.0843311143710057,-0.5207456191553957,0.09223358785917515,-0.46449935656809505,nm,0.0
241.56488499999998,-41.87333924628782,-72.8390662340941,-16.478644915025384,0.3954553357164259,-0.31733312736044617,-1.2104285745314245,-0.43492274826961674,0.17663490924152359,-0.43371312862948425,nm,0.0
241.574427,-47.8306627961074,-72.6234733988081,-13.126118346961082,0.6718095611349643,-0.39051004650100735,-1.3855331529175168,-0.33676988126028046,0.12161739405818996,-0.460117148381311,nm,0.0
241.583918,-52.014256457736934,-73.18124565521912,-11.54015024758005,0.8534840919511183,-0.7847142291668139,-1.4497526666390088,-0.2706144265159089,-0.06670473211699317,-0.47547711296016626,nm,0.0
241.593429,-54.3530971394528,-74.73073114422222,-11.333009232744773,1.00195207035717,-0.6408972682859175,-1.4949546441163997,-0.19529454465928844,-0.2886385716343368,-0.4014220274807121,nm,0.0
241.60293399999998,-55.1761591769622,-77.051560036204,-12.522858618819079,0.9912467009727505,-0.8373842912040589,-1.6209089577529363,-0.14316630312224032,-0.4567886406546381,-0.39173830780033403,nm,0.0
241.612518,-54.789852450686396,-79.65149077205707,-14.457937315328007,0.8096695855573984,-1.022851138812026,-1.7720932117147155,-0.11497086922588563,-0.5207163997405669,-0.3065125013396314,nm,0.0
241.63154799999998,-51.829144780638806,-83.04929796231991,-18.591404964360578,0.522632346424012,-0.6408752268619831,-2.2461524996023954,-0.03702366794610426,-0.25200736768844056,-0.07933651557084233,nm,0.0
241.65055099999998,-43.7178045893905,-81.18348301596748,-26.182619080499975,0.4692442209616434,-0.21274805350311526,-2.5948674593303243,0.24613340868008907,0.23783048288128533,0.10470751276742127,nm,0.0
241.66008000000002,-38.31608797661223,-78.5306994156442,-30.79774512658412,0.3745638749760051,0.1683937082675565,-2.452888457793459,0.4131447370332324,0.368806503890182,0.15092374441221165,nm,0.0
241.67900699999998,-25.497108831622455,-71.49659114939544,-40.84582928545326,-0.08317896528846046,1.1597329423761074,-1.2457786509565965,0.7561257722469271,0.33900796275079387,0.2739143740965624,nm,0.0
241.68851500000002,-18.935303348496813,-67.40776566713393,-45.421716552005456,-0.4511553763111242,1.429173952194625,-0.25743258650141987,0.8891201354425243,0.27102007718649757,0.3216816509002758,nm,0.0
241.69821700000003,-12.969651932782028,-62.93226947885845,-48.818086357692756,-0.8728746448722307,1.7369719027046806,0.9617465731161824,0.9914112154331467,0.23020203910421738,0.4104284748795331,nm,0.0
241.707734,-8.12244476848832,-58.19235697990453,-50.59155989449816,-1.417880351688764,1.8682341689194502,2.6633282608805007,1.0266677767178136,0.23730349872431641,0.4950797815822208,nm,0.0
241.73626099999998,0.20385139213101874,-46.96356727357582,-45.39960106490017,-0.028547677384540372,-1.4890637194071636,5.173814761942441,0.41821735312581293,0.19629030540151862,0.8490011471159877,nm,0.0
241.745761,-0.9888208894611008,-47.067838807098475,-40.77795793965901,0.12438664606494465,-1.2104807225652339,4.347031950195975,-0.1349180754086733,0.08190043318733041,0.7522247439065822,nm,0.0
241.75527400000001,-3.6702105393187607,-49.139432545169115,-36.45576560966268,-0.38578369805691926,-0.8145441205005552,3.3311168582769684,-0.5402569959902361,-0.1144006198781067,0.46770072572749677,nm,0.0
241.764779,-6.323398810090564,-52.295706255483395,-33.689168592615,-0.9595946458602764,0.0630105605656871,2.5525916778538438,-0.6396105693103755,-0.3378864885038413,0.14526650269873456,nm,0.0
241.783809,-8.26199349830828,-59.61257035143229,-35.995214211606225,-0.9425360376430989,-0.03752130444328337,0.6549016157557992,-0.45317709508165727,-0.6474685679215563,-0.5085520961084817,nm,0.0
241.793326,-6.649576210645992,-63.642615879691775,-40.187749824937484,-0.846702080164823,0.132744212273181,0.3204830571719352,-0.3808080866931341,-0.7431790255837561,-0.5512874279225473,nm,0.0
241.80282100000002,-5.349789294266053,-67.35784896873238,-44.32336678975053,-0.7667024457442572,0.00355198739693809,0.12300122690527682,-0.4251589921908332,-0.6363126280719583,-0.5870702120389838,nm,0.0
241.81234600000002,-6.597468671725082,-70.47088739563412,-45.8554882926807,-0.5606572315862206,-0.22094727074175813,-0.46146156353742623,-0.5105015986564512,-0.389201410023502,-0.5357185337958684,nm,0.0
241.821855,-12.591896471173525,-73.08138713230835,-42.3883945648214,-0.31323782488874036,0.021759306773199188,-0.6590601582666463,-0.6387676068049145,-0.12612774640079713,-0.4416183423985871,nm,0.0
241.859794,-54.01395074977714,-76.2589532879437,-10.557891919207469,0.9305064687717632,-0.22257149383538063,-1.9959231002177151,-0.38190940924521893,-0.10778636549453575,-0.33436670906471766,nm,0.0
241.869313,-58.99162732653031,-78.2813728754278,-7.693177061233468,0.9261745536720866,-0.8929205290993163,-1.9155715860268074,-0.28825071338363384,-0.37536750449451295,-0.3921640152723825,nm,0.0
241.878819,-62.000769789479634,-81.04112563467297,-5.979501382162882,0.8703591784407249,-0.8015093182084687,-1.788559524373912,-0.18110129769438055,-0.5474098428973,-0.2448183131510697,nm,0.0
241.88833100000002,-65.21565066197563,-83.83263731448773,-3.620907651638975,0.7434833549649914,-0.6122678421026431,-1.745675454854878,-0.1394405050586764,-0.5638442653793334,-0.16368916441770864,nm,0.0
241.89784,-72.38058357337039,-85.83533078458129,2.8121742925550866,0.5051172845760643,-0.8453361097300577,-1.810867093524013,-0.1384635680986224,-0.4163885209841241,-0.14032729549727924,nm,0.0
241.90734999999998,-81.62431916439074,-86.39929544648936,11.79925721882674,0.4484313764302841,-0.6502978445739188,-2.007119439349397,-0.11410335086621604,-0.13985268274968596,-0.040431544113244455,nm,0.0
241.91685399999997,-80.90656771416607,-85.57047097533564,10.998932799477798,0.5282627853070269,-0.4478578190041602,-2.306796581035183,-0.033159382266823856,0.16158368282110067,-0.005345483033584247,nm,0.0
241.935872,-62.782565135014444,-81.34875745190347,-6.6170543180996315,0.6596248706638833,-0.1729926781446995,-2.518573316297247,0.2622510299746169,0.46203960636742497,0.08961828957686364,nm,0.0
241.945389,-52.3820904987215,-78.90704071038165,-16.29259578642148,0.5920763945924522,0.11968648499298556,-2.2094789693342687,0.4373602278169799,0.40028763160169056,0.12449047374912883,nm,0.0
241.964326,-30.880759225916396,-74.03233412759947,-35.7552011284032,0.2594549529591084,0.5688777748648453,-0.9421929697264926,0.7109715408146005,0.14129717577335632,0.16409798395291625,nm,0.0
241.98351799999998,-16.2358260850177,-67.80433344718554,-47.953638571300345,-0.16962087317863841,0.5557711799756465,0.21473992382251458,0.7638695625563793,0.16143702938588073,0.19185979854674268,nm,0.0
241.99303799999998,-12.99191805952734,-64.07527326412686,-49.56420037056581,-0.3359666778246112,0.6106603387045958,0.5910911902330649,0.7298477446561994,0.2816650105775473,0.2764466389081023,nm,0.0
