timestamp,roll,pitch,yaw,acc_x,acc_y,acc_z,gyro_x,gyro_y,gyro_z,markers,motor_input
226.509853,9.063608612419028,-53.93382916422094,123.09738477164512,-0.4770714689107455,-2.2690436475326092,-1.8082616898129162,-0.3373556611383749,-0.09485981977813933,-1.0395054920941922,nm,0.0
226.519353,9.380587598289692,-52.43048387694301,118.33253256494244,-0.6664638835083495,-1.3346658534268026,-1.3556337586504674,-0.2731765438916703,-0.10805968368877943,-0.902149035538797,nm,0.0
226.52888099999998,7.822533672516227,-51.509851305379655,116.81902963476084,-0.7196354193534661,-0.39837868750627603,-0.8353432058454807,-0.06872759607579067,-0.2428492686868941,-0.5478299770495942,nm,0.0
226.53832300000002,4.258567059499451,-50.93720804018904,119.44450328367323,-0.9424767733979156,-0.1190489130691822,-0.48692477437668896,0.11527717195800825,-0.4351859720264382,-0.029591019183773777,nm,0.0
226.547813,-1.129048634207202,-50.59366060808976,125.58305490588552,-1.1567720663644883,-0.06575567622371428,-0.5647047014885993,0.31380981790589385,-0.5990439452898157,0.3947601498458042,nm,0.0
226.55732600000002,-7.048826505399005,-50.71812528729682,133.65275100895767,-1.1285418218289096,-0.1283132302856306,-0.7783903856892423,0.5024587697676023,-0.5494987571340249,0.7008241984616622,nm,0.0
226.566859,-12.067026015921671,-51.56493360967451,141.85638455390384,-0.9490033074896809,-0.3737025225477737,-0.6676076809490679,0.5836871374517881,-0.28480596435201433,0.8627758379118972,nm,0.0
226.586034,-16.296913294149665,-55.24604938161972,153.20751379544652,-0.8552715679717472,0.7104530459373437,0.06991385037584628,0.3009096662092458,0.33378342438498476,0.7769893758100828,nm,0.0
226.61457,-9.31891208586586,-60.64149157684337,163.88550351827223,-0.37679850016320593,1.4184447350438014,3.7390842863942124,-0.11236395114722113,0.2857781125041038,1.2936661824564062,nm,0.0
226.624088,-10.31996688488756,-61.670377409616584,171.68048237955776,-0.09649356378114068,0.9875087629911823,3.097528354895375,0.13424715966001843,0.1942621598559361,1.3888741361298398,nm,0.0
226.633584,-13.474967591043411,-63.152929426144034,-179.57898641159292,0.39789954322589977,1.0136536712206687,1.618995092600838,0.30721034018709564,0.2887729142430224,1.1939401417618007,nm,0.0
226.643095,-14.210094854293501,-65.01932703572787,-173.9291991268094,0.5595490727738617,1.1847891761114628,0.45421044496023133,0.037024456583232744,0.3891607091825071,1.0031705629985777,nm,0.0
226.652613,-8.548558538972822,-66.64491994577364,-175.38220961240856,1.0411229359272345,0.5715333039507458,-0.06892887831814437,-0.4987247376569549,0.29263888884412215,0.748387974709485,nm,0.0
226.662133,3.2005042312579626,-67.30435805382207,174.41798772022605,0.4450447970576835,0.7498308835965033,-0.44710558006242207,-0.9236329094488941,0.15138525548428108,0.12928065137163613,nm,0.0
226.69065300000003,37.74317417723527,-60.389818737940075,135.1816852885147,0.1003547130913909,1.3575756445659626,0.44588509514333,-0.8709996352369023,-0.06764132209442074,-0.748056620427388,nm,0.0
226.700162,39.30766257582045,-58.90049143997726,129.66746613298116,0.06470495391597214,1.3057931108633742,0.19769712866240619,-0.33047711519734263,-0.07082510635705183,-0.8339071705796732,nm,0.0
226.728511,22.769804067916294,-61.54784120555088,132.0309238948417,0.3955563836484019,-1.1080358093341074,-1.3614475116363431,0.6520454690259614,-0.5181080218090606,-0.829303186996861,nm,0.0
226.73801999999998,15.51336274294201,-61.4332352789699,134.65943813717686,0.49255264611775945,-2.2400245768041747,-1.7980479759726105,0.45930079719078143,-0.5058386698133741,-0.7492299203257121,nm,0.0
226.747531,10.729491001370532,-60.61898782131851,134.29114661406248,0.16743237914021533,-2.4978345748088238,-2.072292291581968,0.2100071454513433,-0.4314334466259682,-0.909856841286987,nm,0.0
226.75704900000002,8.80058275903294,-59.203254532928334,131.02115244855682,-0.291307828904142,-1.8962419747529093,-2.0165581695138557,-0.07493620811657642,-0.32095433536088774,-0.9868313203519037,nm,0.0
226.76654900000003,8.940633678266419,-57.49069756295955,126.58850378186085,-0.4722027926246119,-1.7892619104079885,-1.3894685379958058,-0.27319788477337614,-0.19003123462320212,-0.8617233640045376,nm,0.0
226.77614400000002,8.784758530935914,-56.07790749866185,122.84954665543958,-0.7133044424441058,-1.089722882368464,-0.8790393902628305,-0.2186248920398368,-0.16193465185380837,-0.7730749578498264,nm,0.0
226.78578100000001,7.443218485866359,-55.2846383443695,121.35420271972383,-0.8434162082040464,-0.3344518504099046,-0.4419940649965267,-0.049298923708683454,-0.19954531046849777,-0.5196798628559153,nm,0.0
226.80459699999997,0.42043799105151913,-55.19279748980967,127.17553913580039,-0.9927418086880297,-0.19927969830068082,-0.4372784737645672,0.3207531949889857,-0.3627964671487862,0.15851503970246425,nm,0.0
226.814131,-4.58038470928072,-56.07415206211512,133.23591032078116,-0.8399281100276663,-0.34659755501879413,-0.7565124433538731,0.5035655234570396,-0.3043714315792604,0.3893605570022471,nm,0.0
226.83312600000002,-13.178935929355104,-59.340026064927464,145.40630495511274,-0.3010019831428707,-0.516210502520223,-1.089597415509251,0.5404728331292058,0.05877738371107631,0.4848114024503262,nm,0.0
226.842657,-15.257134598477428,-61.481102278149685,149.49516183392794,-0.22121256338050352,-0.11744815757157565,-0.9974547326208687,0.4063693603906217,0.26421938549277024,0.46126857642725905,nm,0.0
226.85234799999998,-15.555591553257441,-63.77252918750029,152.1962010405979,-0.20218665089183113,0.30360692074454587,-0.4603392573756329,0.24968608953206098,0.4007905149759652,0.4925722654474447,nm,0.0
226.86185300000002,-14.722278667715377,-65.72274112575717,154.37074573893312,-0.0880938073036862,0.37133380610902983,0.34048178034950827,0.11360554183269261,0.3943459406456709,0.5913054709158709,nm,0.0
226.87135600000002,-14.416262869286465,-66.96894728535425,157.2683368892606,-0.01579356545047519,0.6333270639869426,0.9897366906502075,0.08070415468385228,0.2512288518668409,0.641261995522213,nm,0.0
226.88085700000002,-15.552348591318106,-67.57510417282471,162.02144947946056,-0.271858362512596,1.184781710228412,1.5196149067915747,0.12458011631106751,0.09665282438137435,0.7467199194185257,nm,0.0
226.89988100000002,-22.57519035853742,-67.94857236860946,177.2190731181457,-0.14124884461863593,0.8486344473184817,1.685492633625233,0.32340119862156186,0.0008201846377556285,0.8458260893824784,nm,0.0
226.93792299999998,-23.977520576522217,-71.3465892755745,-173.24330275037758,0.4979330606456056,0.6700600084178174,0.43878797462196956,-0.31645046848354014,0.2315142206808846,0.1029290034308731,nm,0.0
226.94742499999998,-18.228694926178314,-72.35031334499185,-179.46736539166497,0.16881476019531574,0.9569235416374802,0.6016683271320599,-0.37305381946039934,0.1904303762166398,-0.14553067326326263,nm,0.0
226.96644899999998,-12.486282518580492,-73.46608586319243,172.02952284682573,0.04475556211308792,0.5666360165197665,1.0268937350370793,-0.0470917620473655,0.11420660055361569,-0.3482008591244376,nm,0.0
226.975968,-16.10417633721108,-73.81559800248927,173.38231425741685,-0.12402345980231647,0.36615218288427276,0.9318048308458683,0.2095326001535115,0.056521465855450016,-0.4189883526720413,nm,0.0
227.014015,-39.66147332840185,-74.34067134480063,-174.16005137890838,-0.39730283800312366,-0.4095162772711829,-0.6426765166882273,0.14390233444559816,0.11913985282011945,-0.5394120959101566,nm,0.0
227.03304599999998,-35.07912765731228,-76.83408082995376,176.49107660493448,-0.653875276812104,-0.26423940155182835,-0.2977930305142444,-0.17545088066361442,0.3011380156791015,-0.479704284076228,nm,0.0
227.042539,-29.36081719168856,-78.14985865364807,169.07205369444645,-0.6798355833160069,-0.08526334880918841,0.06262726503810921,-0.20933057830052096,0.3051576086388808,-0.35965677959347914,nm,0.0
227.05205099999998,-24.409206648092376,-79.06178256131072,163.0789464049552,-0.6288950176911748,-0.0958504170659154,0.33034748300786604,-0.1423338119113468,0.23696765680608772,-0.22025813214836054,nm,0.0
227.061547,-23.124019819432505,-79.59484498809705,161.2235327578611,-0.6563103689197904,0.10066344381061024,0.37968548607535507,-0.009155712991274436,0.12888564412584932,-0.11188739666372233,nm,0.0
227.071064,-26.136737144760886,-79.85152707317839,164.30688496289483,-0.5605073748189137,-0.020706496456203875,0.21479216330291293,0.12074380677733139,0.02988652969662885,0.029240964625089304,nm,0.0
227.08060400000002,-31.975527733926008,-79.94028636920538,170.58921202158447,-0.4388673552173266,-0.18790393814733475,-0.07135743897985564,0.2060601231584701,-0.014638608446008509,0.11158594881946876,nm,0.0
227.090088,-37.87288906001348,-80.01895724120506,177.0572261898767,-0.3614170766610377,-0.16385796446117346,-0.438605544287466,0.20772999605886555,0.00595623432870461,0.13710284240546292,nm,0.0
227.12813500000001,-29.508539948663213,-82.70530028951066,170.75808372926014,-0.053251914801714664,0.10646083712313828,-0.2809348651452093,-0.17066861161190264,0.1969952148827418,0.059007117190118155,nm,0.0
227.13765600000002,-22.85194278443888,-83.17682834000972,164.2185751637404,0.03616989840358528,0.16664600946730385,-0.05014839280154572,-0.13501978138859402,0.14044200184766642,0.022552948134640767,nm,0.0
227.147169,-20.864946134383818,-83.28620670866238,162.1769844168519,0.2391611831036148,0.045069067836696994,0.025178311565054894,-0.035235736706289086,0.047015771811176166,-0.006447690372101209,nm,0.0
227.156709,-24.795591776263766,-83.12481624302308,165.94305712190905,-0.03645366105303261,0.13074901655096613,0.07657236419448127,0.08254332072314284,-0.04430689440074816,-0.022865350657151756,nm,0.0
227.16621,-31.405969891419222,-82.59590019849013,172.32907906423034,-0.12623325249848363,0.10328637550512025,-0.018048845250516053,0.14278075919753688,-0.12320340052224774,-0.0307968261400636,nm,0.0
227.18520800000002,-40.060657658127965,-81.5606572415936,-179.09995764936392,-0.35491699520494,0.11249747175501242,-0.19313949563386285,0.08976195233997741,-0.06467444543688307,0.014916471747443127,nm,0.0
227.22331799999998,-36.8538335948821,-83.60911583415239,176.85759468749896,-0.042974953029632834,0.17407266629626708,-0.07941186244043366,-0.00766843429379754,0.12890881749305688,-0.0950919847081328,nm,0.0
227.24227599999998,-47.50017119605377,-83.10600838788524,-173.9255553745283,-0.33400194416491236,0.2811528459851787,0.0968131085207674,0.13660527786356721,-0.11874335185979856,-0.12976471573174786,nm,0.0
227.25185000000002,-54.09229897584081,-82.25168953726427,-167.88676222088526,-0.31613826389459687,0.031343987399582836,0.010659292444622567,0.1882527177522334,-0.19926114957900556,-0.09439745505826969,nm,0.0
227.261359,-59.4998196097643,-81.47194947579877,-162.88754347278717,-0.3638364861310594,-0.0669512887688767,-0.055096606240921345,0.20506639043672226,-0.18429620715673942,-0.06442543089001823,nm,0.0
227.270817,-62.49274305596934,-80.64953411701909,-160.19263003899144,-0.25928088495959334,-0.3030666488535689,-0.22659609345810305,0.1435595041272437,-0.11619949073771506,-0.04432972873377443,nm,0.0
227.28031000000001,-63.18584210969201,-80.49875872601427,-159.87161923926067,-0.2945147392512641,-0.25824073784442136,-0.3307515116138012,0.0350127297870596,-0.00929227160010713,-0.06487177689121607,nm,0.0
227.289822,-61.71930780350769,-81.04228331834429,-161.72216798363712,-0.28558817261053066,-0.17985540349290388,-0.3366860581679622,-0.07667594297967577,0.09944972861380633,-0.0734587035643861,nm,0.0
227.299321,-57.96756666254697,-81.97931360229879,-165.80031413612636,-0.1743576550579636,-0.20556288271992137,-0.23541498609231482,-0.15483010752919388,0.16200156634086527,-0.06654422182742774,nm,0.0
227.308836,-52.240708588237545,-82.83018508014793,-171.82735231285153,-0.1596509728689572,-0.07187861771803558,-0.11459766745901175,-0.1768187796218786,0.15078120584506635,-0.062424820883119694,nm,0.0
227.32787399999998,-44.59698263409934,-83.24321134579107,-179.80002120327904,-0.24103859738506947,0.07643117572614494,0.09837896833301013,-0.05060280121517631,-0.022780550965872552,-0.019286843285797387,nm,0.0
227.356462,-49.23587265928811,-81.28446362110118,-175.00887740327278,-0.36158463530718576,-0.12691350323513276,-0.0007912716904118909,0.07882955975386176,-0.14125331640033395,0.03252949567600709,nm,0.0
227.36597099999997,-48.996879237281824,-81.27404098094716,-175.15173967110556,-0.30981962211718966,-0.19665821883368573,-0.04993366547526406,0.040228524776599925,-0.05985489244718241,0.025999032688060305,nm,0.0
227.375481,-47.002141963625995,-81.76484714146468,-177.09045912233807,-0.27090634759446486,-0.1939062293117158,-0.07428766317055799,0.0,0.0,0.0,nm,0.0
227.385007,-43.742962514786704,-82.61982355814996,179.65978375908122,-0.20834503798605622,-0.12576794808907277,-0.08126910485040736,-0.058305114776901236,0.13297375148066062,0.0029590535719237645,nm,0.0
227.394509,-39.64076522696161,-83.48834305773114,175.60207242072187,-0.08378479231084367,-0.09199332025500548,-0.04692769951629093,-0.06765556659534172,0.1699405944574823,0.010256939921891618,nm,0.0
227.40401,-36.67273133002588,-84.09848764411774,172.75813578876406,0.003963533904134768,-0.0005036532934156155,-0.03865276456931662,-0.04525588848196091,0.13869410332119078,0.028644728190580594,nm,0.0
227.413528,-36.98116335513117,-84.278755745731,173.2931218211809,0.07885753531033954,0.02647471372224069,-0.06960079089884444,0.008064049284770967,0.06630366071732641,0.05184519145307313,nm,0.0
227.423039,-39.84114641159163,-83.80149527838346,176.5510562950175,0.3476687904572057,-0.08696241274256146,-0.05059202260339586,0.07274114760620844,-0.01180085304080307,0.08890798262465159,nm,0.0
227.44198500000002,-45.70638415626933,-82.08574459893774,-176.04195515124115,0.12755257896297106,0.0033792054082390803,-0.195352527139124,0.059786481635184165,-0.17373882360310733,0.18189397039884106,nm,0.0
227.46107400000002,-48.80964813688337,-81.31969463878349,-172.0251719258763,-0.11071797067976678,0.11100146613269744,-0.10917756015055703,0.027446963752821796,-0.020476860286252976,0.03889234326069432,nm,0.0
227.470602,-47.104499346669726,-81.4261942471698,-173.68855878005436,0.03794987061964047,0.04447782382017455,0.006424146031178181,-0.060464213255374495,0.03523241596185519,0.012003148034667798,nm,0.0
227.48006,-43.379787937570605,-81.82937423754626,-177.68327837442914,0.11074944814329422,-0.16612170395763748,0.08681093163715417,-0.11055386423628386,0.08484170077457519,-0.0541318959418733,nm,0.0
227.48954899999998,-40.35005032151232,-82.45284314370298,178.30494781270713,0.0031462968614465133,0.16224009073405063,0.20297006243411012,-0.07943926326071467,0.13726937822640248,-0.19477690130888517,nm,0.0
227.49905099999998,-38.75059643682663,-83.04744038447025,175.6037225932437,-0.017654647109344116,0.12392784256987942,0.3148091929984775,-0.029696611092636372,0.13402703431155658,-0.216122919469091,nm,0.0
