timestamp,Roll,Pitch,Yaw,Acc X,Acc Y,Acc Z,Gyro X,Gyro Y,Gyro Z,Acc Magnitude,Gyro Magnitude
0.0,-8.384551086974351,40.96769229496058,-145.16292839755968,0,-0.031164146959781647,0.0512007474899292,0,0,0,,
0.009502999999995154,-8.383662241098472,40.90791518714953,-145.28171330934308,0,-0.053036004304885864,0.048570454120635986,0,0,0,,
0.018915999999990163,-8.415117675305812,40.86222259746821,-145.41295957619246,0,-0.07328911870718002,0.03737860918045044,0,0,0,,
0.02851599999996779,-8.465742102397671,40.82282098247184,-145.5302659558405,0.029909849166870117,-0.08695782721042633,0.029711544513702393,0,0,0,,
0.03803099999998949,-8.506305614329108,40.77432669061102,-145.61290296355995,0.03683304786682129,-0.09073808044195175,0.0490075945854187,0,0,0,,
0.04754099999996697,-8.532616402935528,40.731039267491596,-145.6703321463738,0,-0.0878809317946434,0.058087170124053955,0,0,0,,
0.05705000000000382,-8.542976692316486,40.7022948517341,-145.72787088663847,0,-0.08501278609037399,0.07047164440155029,0,0,0,,
0.06650999999999385,-8.446314798874264,40.73910561057385,-145.75075954270235,-0.051716625690460205,-0.0848754346370697,0.09216952323913574,0,0,0,,
0.07601699999997891,-8.33459980513938,40.817872522391944,-145.81373502563787,-0.08117544651031494,-0.08768724650144577,0.08649861812591553,0,0,0,,
0.09502199999997174,-8.021595775984125,41.1472093741563,-145.96294645214323,-0.05511957406997681,-0.10670209676027298,0.08208084106445312,0.05049464019128632,0.028378254249984136,-0.009192955602107537,,
0.10460199999999986,-7.915315952638278,41.33379741698912,-146.0365941208471,0,-0.11082126200199127,0.07157015800476074,0.05342572748471192,0.0337075038743943,0.0037304747370871163,,
0.11410100000000511,-7.736165115265014,41.50220820547431,-145.98122162617048,0,-0.1060892790555954,0.044142067432403564,0.0514272588755581,0.029044410453035407,0.023049004625573973,,
0.12361599999996997,-7.474605172330941,41.63995184010051,-145.76513442810042,0.028680920600891113,-0.08772597461938858,0,0.04503215932626591,0.01692036755750228,0.044232771882604376,,
0.13312799999999925,-7.1433033872060845,41.733927403567456,-145.3970159113182,0,-0.06116020679473877,0,0.03490658503988659,-0.000799387443661525,0.06128637068071692,,
0.1426389999999742,-6.764108728497462,41.7842691623007,-144.92733038020808,-0.02970653772354126,-0.0314839705824852,-0.03766000270843506,0.02624655440022007,-0.020650842294589397,0.06981317007977318,,
0.152150000000006,-6.3364747433237,41.78139287334234,-144.41977295151864,-0.08000797033309937,0,-0.03271639347076416,0.025047473234727783,-0.0383705972957532,0.06821439519245012,,
0.1616629999999759,-5.900936531992471,41.74590523841145,-143.9584056961828,-0.12634193897247314,0,-0.030803263187408447,0.029577335415476424,-0.04996171522884531,0.057289433462409285,,
0.1711740000000077,-5.455961447555459,41.68328006544097,-143.65978013038352,-0.1566818356513977,0.03026691824197769,-0.025512754917144775,0.043566615679553104,-0.05675650849996827,0.04116845334856853,,
0.18061699999998382,-5.01150369799994,41.447708665041816,-143.4970656428095,-0.1636623740196228,0,0,0.06515007665841428,-0.061819295643157926,0.02518070447533804,,
0.19018699999998034,-4.515380989432613,41.29837755218224,-143.31599387048647,-0.13731449842453003,0,0,0.0877993875621575,-0.06395099549292199,0.0127901990985844,,
0.1996939999999654,-4.00485418641376,41.108066515856976,-143.17088663846957,-0.10443395376205444,-0.03838449716567993,0,0.10658499248820333,-0.06661562030512708,0.005862174586851183,,
0.20921399999997448,-3.498935409420516,40.83137010187312,-143.1555516444859,-0.07026082277297974,-0.07899056375026703,0.02907276153564453,0.1183093416619057,-0.07420980101991156,0.0035972434964768626,,
0.21872300000001133,-3.024288326419094,40.47049694109182,-143.17692899178888,-0.055764198303222656,-0.12090042233467102,0.06658494472503662,0.12283920384265434,-0.08353598786262936,0.003064318534035846,,
0.22817799999995714,-2.4014199768368636,40.06572159149154,-143.10955554071302,-0.07677143812179565,-0.15995849668979645,0.10506123304367065,0.12297243508326461,-0.09312863718656766,0.0013323124061025418,,
0.23765699999995604,-1.808205575588026,39.61621467506134,-143.08165476307272,-0.11524814367294312,-0.1991947889328003,0.12634044885635376,0.12217304763960307,-0.10178866782623418,-0.004130168458917879,,
0.24717299999997522,-1.243912079079622,39.16204831225143,-143.11479714473916,-0.15431517362594604,-0.23033836483955383,0.15648746490478516,0.12417151624875687,-0.10245482402928546,-0.012656967857974145,,
0.2566749999999729,-0.6933539222892893,38.749411564187824,-143.3094845465996,-0.1745564341545105,-0.2638416290283203,0.13914412260055542,0.12843491594828502,-0.09406125587083942,-0.020384379813368887,,
0.26618799999999965,-0.10854273324085785,38.3840229079161,-143.4996347429258,-0.14050328731536865,-0.29521888494491577,0.12315517663955688,0.13616232790367974,-0.08473506902812164,-0.02078407353519965,,
0.2757129999999961,0.5701379099717367,38.05648107280505,-143.57314996266396,-0.06325525045394897,-0.3162519037723541,0.07134252786636353,0.14482235854334627,-0.0772741195539474,-0.0073277182335639785,,
0.2852189999999837,1.4024728061129668,37.72847589396679,-143.44000744453535,0.03275430202484131,-0.3263119161128998,0.039719223976135254,0.15228330801752052,-0.07687442583211664,0.02344869834740473,,
0.29473899999999276,2.4509425571160017,37.32991359432361,-143.0271263304231,0.11385694146156311,-0.3390074372291565,-0.029665350914001465,0.16107656989779726,-0.08899846872764977,0.07021286380160395,,
0.3042509999999652,3.8180529347182692,36.79867363371264,-142.28981564721977,0.13183319568634033,-0.34685760736465454,-0.09910953044891357,0.18519142444825326,-0.11098162342834171,0.1269693723015722,,
0.3138179999999693,5.059698366990433,36.02335380813597,-141.51495951346152,0.10532563924789429,-0.32021641731262207,0,0.21583460978861177,-0.13403062805391566,0.18266003087665844,,
0.3232519999999681,7.084906936839218,35.23353900015683,-140.1943464236685,0.13535556197166443,-0.39379972219467163,-0.17415672540664673,0.2508744260691086,-0.1450888210245668,0.23581929588014985,,
0.3328409999999735,9.003596243972439,34.15300567704748,-138.9562517952603,0.25575563311576843,-0.4733172655105591,0.0723382830619812,0.3305467079540406,-0.13642879038490024,0.29830474772635907,,
0.34235100000000784,11.24406533237714,33.15691332873621,-137.49733605206487,0.27690649032592773,-0.7003017663955688,-0.11808538436889648,0.42980398220868,-0.11750995421824419,0.37957580449861406,,
0.35179399999998395,15.485533056292141,31.9982137118889,-134.97345246578868,0.2174069583415985,-0.8723219633102417,0.16683149337768555,0.5744931095114159,-0.1354961717006285,0.4773675351065407,,
0.3612759999999753,19.947767949345092,30.60224139333407,-132.12980565156207,0.2695421576499939,0.054997026920318604,2.3832285404205322,0.5907473208658669,-0.12297243508326461,0.5649004601874776,,
0.37080099999997174,20.089302818353115,29.980724668828405,-129.04971127631222,0.7059622406959534,0.15140312910079956,2.0657644271850586,-0.3003032163355129,0.06808116395183987,0.577157734323621,,
0.38031100000000606,18.521435411620388,29.903363398364746,-125.74443443617857,0.7299240827560425,-0.6967875957489014,0.4388349652290344,-0.6681546716604246,0.18106125598933542,0.591813170790749,,
0.3898299999999608,18.432087974171306,29.760274084327055,-122.51594552538775,1.1693973541259766,0.5463056564331055,0.7197793126106262,-0.3589249622040247,0.1534823891830128,0.5794226654139953,,
0.3991629999999873,16.88391129496557,30.606293294609273,-119.43454568765168,1.7372629642486572,0.3524358868598938,0.11952853202819824,-0.6345803990266407,0.3226860647580356,0.4866937219492585,,
0.4087409999999636,15.971456445708991,32.10295342522185,-116.44038007358402,1.8335044384002686,0.13996531069278717,-1.5944054126739502,-0.5130735075900887,0.4323353757802747,0.4411286376605515,,
0.4181759999999599,16.01405958678373,32.83730352599434,-113.4978357900833,1.8472472429275513,0.8900946974754333,-0.44276759028434753,-0.32601684577329193,0.2775206741911594,0.4701730481135869,,
0.4277139999999804,15.031034695975812,33.10482171617367,-110.25492582031202,1.2106648683547974,0.5781727433204651,-0.5388436913490295,-0.5803552840982672,0.20104594208087356,0.5605038292473392,,
0.43739199999998846,14.526322490559796,33.45759196063042,-106.016434241057,-0.3665271997451782,0.39827606081962585,-0.03188657760620117,-0.5998070452273643,0.2531393571594829,0.7217136303857468,,
0.44689399999998614,14.56281042348158,33.74558415983555,-100.88003866912028,-1.9202802181243896,1.3673853874206543,1.3734519481658936,-0.5966094954527181,0.27498928061956457,0.8701332324255701,,
0.4563999999999737,12.346121743010714,34.652177324293085,-95.5208131209997,-2.750943183898926,1.7709678411483765,2.3367486000061035,-1.0879663108233355,0.38783614141644984,0.8847886688926978,,
0.46590799999995625,8.57858710075753,36.8521525636353,-90.73033658036167,-3.449583053588867,1.1657757759094238,0.6057352423667908,-1.3640214413677823,0.577157734323621,0.7578192965911257,,
0.47542699999996785,5.0244763252228495,38.36727366089322,-88.01902784962468,-2.926236391067505,1.8725894689559937,1.9847779273986816,-1.0962266477411713,0.34986523784252743,0.4637779485642947,,
0.4849350000000072,-1.158808215798497,40.407962822829745,-88.6335844416437,-1.4259226322174072,2.1860246658325195,0.9592328667640686,-1.2130704457563644,0.39622970957489584,-0.040901990867348026,,
0.49425899999999956,-10.696262112589762,42.39517153770291,-93.0883736747032,-0.8948243856430054,1.5920517444610596,-1.0688942670822144,-1.3620229727586282,0.4475237372098438,-0.5736937220677544,,
0.5133529999999951,-31.01577817652931,37.067440202220915,-107.25894494407926,2.132479667663574,1.5389493703842163,-0.4665866494178772,-1.1127473215768429,-0.21343644745762716,-1.3048667705368293,,
0.5228700000000117,-39.57714040831588,32.77013213011399,-113.99376846754292,2.0770857334136963,0.953486442565918,-2.218627452850342,-0.9832465557036757,-0.11564471684970062,-1.346168455126008,,
0.5323769999999968,-44.32778407525886,27.86397958575019,-118.02524076730326,2.2430310249328613,0.6107198596000671,-2.444749355316162,-0.5707626347743289,-0.31602450272752286,-1.1356630949618063,,
0.5418929999999591,-45.921979677604085,24.29754770910512,-120.07598952952549,2.5709362030029297,0.44033676385879517,-1.8495310544967651,-0.14735375211494112,-0.2769877492287184,-0.7486263409890181,,
0.5513929999999618,-45.32709783356845,23.481077610741842,-121.19184178797899,2.2690091133117676,0.31021207571029663,-2.5552666187286377,0.2107718226454221,0.010658499248820334,-0.25567075073107776,,
0.560908999999981,-42.35691792958668,24.638495607011436,-120.36724352058566,2.2908730506896973,0.32527297735214233,-1.7042043209075928,0.5366554371781037,0.05462480865020421,0.2604670753930469,,
0.570336999999995,-37.2993938588501,27.17228041952669,-117.39994667491096,2.3155269622802734,0.2841726839542389,-0.9198868274688721,0.7707427269303204,0.050094946469455566,0.71292036850547,,
0.5798550000000091,-30.38552470063944,30.50205843969818,-112.78574293289024,1.1805963516235352,0.4778265953063965,-0.3300934135913849,0.9625957134090863,0.10911638605979815,1.01162480995366,,
0.5895399999999995,-22.592461598191527,32.828814831996056,-106.82831263460409,-0.359125018119812,0.9387075304985046,1.359259009361267,0.95926493239383,-0.03397396635561481,1.083436448642587,,
0.5990469999999846,-16.801416854104467,34.01264197215366,-101.36223490805443,-2.2394654750823975,1.1429150104522705,2.3692638874053955,0.5935451769186822,-0.08100459429103453,0.8913169996826004,,
0.6085539999999696,-14.399618118777253,35.01465364365236,-98.72383600095223,-4.774121284484863,1.591809868812561,1.8090503215789795,0.20277794820880682,0.07007963256099368,0.44805666217228474,,
0.6180610000000115,-16.039684564868875,35.62424505285128,-99.94285812765325,-5.3041911125183105,2.2590882778167725,2.7976081371307373,-0.18679019933557633,0.15601378275460764,-0.15641347647643836,,
0.6275809999999638,-21.870858917622478,37.18587447500915,-105.22597851854351,-4.248180389404297,1.125669240951538,1.5128647089004517,-0.5527764172919445,0.551444104885842,-0.6824104144057218,,
0.6370870000000082,-27.60511829244754,38.610190238429595,-113.19032639963976,-2.825805187225342,1.7202162742614746,2.1443850994110107,-0.1807947935081149,0.7624823900124846,-1.0046967854419266,,
0.6464300000000094,-35.82034164866876,38.162769982749595,-122.26917468659173,-0.17135119438171387,2.0857105255126953,2.53261399269104,-0.5314594187943038,0.6449724357942405,-1.2375849940286512,,
0.6559259999999654,-45.263158125566456,36.21107479171308,-130.8836875056421,1.5807567834854126,0.8974452018737793,0.10248738527297974,-0.8725313947565545,0.5562404295478112,-1.269027566812671,,
0.6654519999999593,-51.525432723188224,33.25658607874171,-137.4074287274924,2.098114252090454,1.4606282711029053,0.6234808564186096,-0.5349234310501705,0.36252220570050153,-1.127669220525191,,
0.6750359999999773,-56.36816841362879,29.758845053844595,-141.41805418403783,1.8403756618499756,1.2254835367202759,-0.10785561800003052,-0.569830016090057,0.09366156214900868,-0.9478070457013481,,
0.6844519999999648,-59.20076800581824,26.484789656148386,-143.5630198461346,1.0601739883422852,0.718349277973175,-0.3215295672416687,-0.37477947983664495,-0.06794793271122962,-0.7444961725301004,,
0.6939689999999814,-60.10063980620312,23.87996952897041,-144.79664611537262,-0.26929032802581787,1.0643043518066406,0.7513858079910278,-0.07940581940371148,-0.10312098023233673,-0.5559739670665906,,
0.7036650000000009,-60.85747183464287,21.81156125522224,-145.6446755949171,-0.9989379644393921,0.48421186208724976,0.10310211777687073,-0.0907304748555831,-0.10458652387904951,-0.4284716698025774,,
0.7131839999999556,-60.57722769755322,20.520027160537257,-146.8401656784119,-1.2466374635696411,0.3734265863895416,0.3681773543357849,0.14162480876870018,0.03877029101758396,-0.3298805517509893,,
0.7226799999999685,-59.57100818279972,19.86223399767281,-148.56355545753235,-0.8443222045898438,0.5201646089553833,0.47513341903686523,0.3256171520514612,0.19878101099049922,-0.2781868303942107,,
0.7321769999999788,-58.52579569794401,19.377010155457402,-150.32529548042524,0.4155235290527344,0.2651318907737732,0,0.3346768764129585,0.22329555926278596,-0.2592679942275546,,
0.7415229999999724,-57.11900192960742,18.97437597197986,-151.9349896430343,2.1312811374664307,0.10541009902954102,-0.47814834117889404,0.39449770344696256,0.20304441069002732,-0.23541960215831914,,
0.7510279999999625,-55.57238894649166,18.67364874784244,-153.49500965061452,3.69889235496521,0.14927124977111816,-0.8363450765609741,0.4174134768319263,0.20104594208087356,-0.21903215956325783,,
0.7605449999999792,-54.06910367180322,18.000139609551944,-154.6149356689496,5.119036674499512,-0.11922794580459595,-1.9524426460266113,0.37850995457373204,0.08460183778751139,-0.2379509957299139,,
0.7700449999999819,-51.86324879087109,15.781019021342544,-154.20922420820276,5.384289741516113,-0.0355563759803772,-1.1858659982681274,0.4250076575467107,-0.34133843844347117,-0.3130934154340973,,
0.7795539999999619,-49.37436228741993,12.360905350507931,-153.178159090387,4.383328437805176,0,-0.9033547043800354,0.44805666217228474,-0.6223231248904972,-0.3899678412662139,,
0.789085,-47.4421949473337,9.026366543665523,-152.63600581104484,2.4727160930633545,-0.05959981679916382,-0.7586436867713928,0.3639877493472144,-0.5727611033834826,-0.399960184311983,,
0.7985789999999611,-45.554310924265586,6.329316681665134,-152.38649655721235,1.5364391803741455,-0.3097965717315674,-0.6492844223976135,0.3703828488965065,-0.46164624871453064,-0.3226860647580356,,
0.8082799999999679,-43.718130037175754,5.769745021930341,-152.55973120561558,0.3530857563018799,-0.23902946710586548,-0.27835148572921753,0.3755788672803065,-0.08513476274995241,-0.09019754989314206,,
0.8177769999999782,-43.03002960743159,7.860797364681262,-152.63895493445767,-0.6147330403327942,-0.49540287256240845,-0.5966883897781372,0.14788667707738212,0.31082848434372295,0.2632649314458622,,
0.827290000000005,-42.74856266283357,12.187081209825381,-151.68588106585418,-0.9712884426116943,-0.44908618927001953,-0.34049317240715027,0.03583920372415837,0.5173369072896169,0.6982649320383421,,
0.8368039999999723,-42.374472105188694,18.607139578638417,-149.82332759576792,-1.4825714826583862,0.17911052703857422,0.08366680145263672,-0.007460949474174233,0.7159846870395059,1.1030214410122943,,
0.846318999999994,-41.96101495003157,26.028400665123076,-147.18344256030034,-2.7470264434814453,0.773614764213562,0.42746788263320923,-0.09552679951755225,0.7868637070441611,1.3265834627563007,,
0.855829999999969,-41.160392050939166,32.393648388948094,-143.78152345627186,-4.331987380981445,1.419549822807312,1.8890557289123535,-0.14961868320531543,0.5660995413529699,1.2639647796694813,,
0.8653319999999667,-40.89165572412876,36.579965812253405,-141.01127054218705,-5.147239685058594,1.806471586227417,2.3188698291778564,-0.24541194520408816,0.328148545623056,0.881191425396221,,
0.8748349999999618,-42.02252451372597,38.60299260667204,-140.98547783770974,-5.022391319274902,1.7070578336715698,1.689011573791504,-0.2226294030597347,0.28924502336486174,0.26619601873928783,,
0.8843449999999962,-44.1309862111698,37.9762180609383,-143.88633545348486,-4.06351900100708,1.9128550291061401,1.426848292350769,-0.05529096485325548,0.20797396659260675,-0.42367534514060823,,
0.8936869999999999,-47.25486575625629,34.26867280417768,-148.35727680577725,-1.8202346563339233,1.6575921773910522,0.46229618787765503,-0.10498621760088028,-0.02691271060327134,-1.0270796338644492,,
0.9032009999999673,-50.29873461703287,28.679614167994064,-153.11299167392295,0.08958211541175842,1.1364414691925049,-0.3580288290977478,-0.12403828500814663,-0.1618759573414588,-1.3605574291119156,,
0.9127119999999991,-51.95045004337511,22.58118684824138,-156.79013860459918,1.1880286931991577,0.8028000593185425,-0.5787457227706909,-0.023848392069235495,-0.2919096481770669,-1.34723430505089,,
0.9222029999999677,-52.23607735971588,17.17937375202079,-158.51588221175587,1.9975515604019165,0.3502914011478424,-0.6425701975822449,0.05249310880044014,-0.45218683063120263,-1.0329418084513005,,
0.9317259999999692,-51.473713821566854,13.754289598660979,-158.695712935305,2.1753976345062256,0.18167400360107422,-0.49609267711639404,0.16094333865718702,-0.43140275709600295,-0.5475803989081446,,
0.9412309999999593,-50.14599806554303,12.365731090746483,-157.71235650517588,2.068338632583618,0.2509572505950928,-0.8418153524398804,0.22476110290949877,-0.3478667692333736,-0.08979785617131131,,
0.9507489999999734,-48.39700725686919,12.017561204546165,-155.90477251205718,2.2500340938568115,0.4791475236415863,-0.8413549661636353,0.28071822396580554,-0.32521745832963045,0.17280091907149966,,
0.9602580000000103,-46.93026997443916,11.896215794854596,-154.444792721492,2.6283578872680664,0.5689902305603027,-0.7388982772827148,0.24008269557967798,-0.23941653937662674,0.16947013805624328,,
0.9697569999999587,-46.11376747626481,11.285221301334289,-154.21488180549997,2.948042154312134,0.37208420038223267,-1.02329683303833,0.16120980113840752,-0.12856814718889528,-0.06288514556803997,,
0.9792729999999779,-45.61627821253166,9.530053809386503,-155.16544269991286,3.543769359588623,0.2612868845462799,-0.9530049562454224,0.14095865256564888,-0.1220398163989928,-0.3877029101758396,,
0.9887879999999996,-45.969433644710875,6.913771568024547,-156.90702833859152,3.7691690921783447,0.4295531213283539,0,-0.013856049023466434,-0.12950076587316706,-0.6212572749656151,,
0.9983049999999594,-47.397366301558066,4.238155965357923,-159.07058622764188,3.339853286743164,-0.09376609325408936,-0.9628984928131104,-0.23888361441418568,-0.08113782553164478,-0.6758820836158194,,
1.0078100000000063,-48.35328399276998,2.352315774839247,-160.67703355521118,2.6164700984954834,0.06618368625640869,-0.31521734595298767,-0.1668055132440382,-0.03810413481453269,-0.49029096544573536,,
1.0174969999999917,-50.03984110282536,2.3434127145402144,-161.42137697701656,1.7532868385314941,0.04514646530151367,0.2472609281539917,-0.32495099584840986,0.09406125587083942,-0.09872434929219834,,
1.0270199999999932,-52.357334123360275,5.221411235600563,-161.42158637621364,0.5472981333732605,0,-0.23283573985099792,-0.4569831552931718,0.34946554412069664,0.4440597249539771,,
1.036514000000011,-54.72454736192592,10.957863342338161,-160.37381219322842,-0.8910490274429321,0.7759451270103455,0.23246687650680542,-0.49335528397977113,0.5197350696206015,1.030543646120316,,
1.0458309999999642,-57.41188448629104,18.764569957614746,-158.1294505430773,-2.3403124809265137,0.9310577511787415,-0.381999671459198,-0.6381776425231175,0.5234655443576887,1.5189693741975077,,
1.0553620000000024,-58.0699774852949,27.702282892649283,-154.9041862193063,-4.451410293579102,1.6244807243347168,-0.22145114839076996,-0.3654532929939272,0.4688407357074844,1.8075482413593182,,
1.0648649999999975,-56.313377221741916,35.714873371744126,-151.55181600328177,-6.882318019866943,2.7183799743652344,1.3876057863235474,0.03011026037791744,0.4114180710044648,1.6306171538289005,,
1.0745509999999854,-57.041290525104365,39.33122697653537,-152.7592987056199,-6.504323959350586,2.236721992492676,1.619177222251892,0.03743797861148142,0.5778238905266723,0.4740367540912843,,
1.0840579999999704,-58.56308983340569,39.54921681596389,-156.02693604412502,-5.00981330871582,0.9482547044754028,0.426852285861969,0.1348300154975772,0.45645023033073073,-0.2482098012569035,,
1.093578999999977,-56.771721177523155,37.59883315029834,-157.64004124703706,-2.699153423309326,0.5332015156745911,0.15304186940193176,0.5670321600372417,-0.007194486992953725,-0.4701730481135869,,
1.1030939999999987,-53.78619123884832,34.792899041041004,-159.47941273586855,-1.3100563287734985,0.6901699900627136,0.18180522322654724,0.8221699858058784,-0.08739969384032674,-0.6363124051545739,,
1.112435000000005,-51.21103165098716,30.71381634081334,-161.1245698631276,-0.34903085231781006,0.24096423387527466,-0.9344754219055176,0.7006630943693265,-0.28911179212425153,-0.821903523324658,,
1.1219469999999774,-47.812023694400644,25.020599588062627,-161.7645423877176,1.2316220998764038,0.07146763801574707,-0.5723307132720947,0.7326385921157876,-0.6864073516240293,-0.9283552845722509,,
1.1314360000000079,-44.49433862153105,19.535309881653337,-162.57388538560576,1.8323527574539185,0.15767258405685425,0.6483545899391174,0.720248086739034,-0.685607964180368,-0.8810581941556108,,
1.1409479999999803,-42.27588881918455,14.99264678875921,-163.31972605133475,1.7761690616607666,-0.36883193254470825,-0.7031848430633545,0.48789280311475075,-0.5911470145876977,-0.7163843807613366,,
1.1504620000000045,-39.69948060230495,10.825858165427642,-163.02512659141482,2.1935319900512695,-0.37318259477615356,-0.6807398796081543,0.49615314003258654,-0.7173169994456084,-0.46524349221100747,,
1.1599640000000022,-37.52923441283416,7.462357468140918,-161.86382853543125,2.5794098377227783,0,0.19021868705749512,0.3964961720561163,-0.7119877498211982,-0.20757427287077598,,
1.1694709999999873,-36.89901686751027,5.079840213574411,-160.51044958946522,2.6935007572174072,-0.12802588939666748,-1.2100801467895508,0.09939050549524961,-0.5772909655642313,-0.049162327785183785,,
1.178986000000009,-36.564138724944534,2.7416486876956467,-159.08621299814303,3.0563595294952393,0.2766904830932617,-1.2797266244888306,0.05222664631921963,-0.5774241968048416,-0.02984379789669693,,
1.1884939999999915,-37.120621189152786,0.21049599220069432,-158.34755603561598,3.6648941040039062,0.7643576264381409,-0.8031637668609619,-0.10924961730040841,-0.5290612564633193,-0.15987748873230498,,
1.1979989999999816,-38.85910965771051,-2.024967763431351,-159.0777023031823,3.5080275535583496,0.5490074753761292,-1.1307268142700195,-0.3429372133307942,-0.2932419605831694,-0.37184839254321933,,
1.2075159999999983,-39.93664206284182,-4.252800915492451,-160.599620760939,3.267167806625366,0.5724124908447266,-1.3984942436218262,-0.224361409187668,-0.1758652376055355,-0.5080107204468991,,
1.2170209999999884,-40.397956821922975,-5.810269014995097,-162.20536459844467,2.8055224418640137,0.8080710172653198,-0.4235498905181885,-0.11324655451871604,-0.04596477801053768,-0.44792343093167447,,
1.226541999999995,-41.19323093839787,-5.508588968607332,-163.24685451575675,2.032402992248535,0.37063926458358765,-0.8585087060928345,-0.17453292519943295,0.1807947935081149,-0.13562940294123876,,
1.236050999999975,-41.329985836702086,-2.711571371054551,-162.78070830713918,1.0462929010391235,0.22736024856567383,-1.1897013187408447,-0.015588055151399738,0.36505359927209635,0.41474885201972117,,
1.2455529999999726,-40.587237810714626,2.575711526147539,-160.1330302485607,-0.16123387217521667,0.5170404314994812,-0.7676143646240234,0.15614701399521788,0.4647105672485665,1.060920368979454,,
1.2550729999999817,-38.939315988859526,9.705233773554655,-155.3142567406497,-2.059847593307495,0.761823296546936,-0.5936225652694702,0.23728483952686266,0.4962863712731968,1.6151623299181113,,
1.2645709999999895,-35.25497699392947,16.7776518105936,-148.4582413390729,-5.342818737030029,1.0172834396362305,0.0727165937423706,0.43686523796102344,0.33201225160075337,1.8856217483569273,,
1.274267000000009,-30.844369406705912,21.09789865215155,-143.62313408710784,-7.575108051300049,2.4069697856903076,3.5280933380126953,0.5867503836475593,0.23222205238367297,1.2054762650415796,,
1.2837680000000091,-31.198184267600436,23.14538810567693,-145.89337891874652,-6.1404643058776855,-0.6416491270065308,1.156989336013794,0.11990811654922875,0.5726278721428724,-0.18119448722994566,,
1.2932859999999664,-30.35484280872677,24.47762294843615,-148.10408328580985,-3.177281141281128,0.26673656702041626,1.8040332794189453,0.3670520678812503,0.439263400292008,-0.24088208302333952,,
1.3027969999999982,-29.980440076084175,24.835719960731005,-149.21334057570488,-1.2418040037155151,0.1319471299648285,0.8331591486930847,0.18212710591421744,0.16001071997291527,-0.15774578888254095,,
1.3121489999999767,-29.563860353470425,23.948781460670755,-149.2430931216576,-0.48998820781707764,0,-0.8809965252876282,0.09752526812670605,-0.15801225136376143,-0.10698468621003408,,
1.3218219999999974,-28.81916646014223,21.06352870472352,-148.50536157830973,0.08153992891311646,0.4179261326789856,0.12746047973632812,0.09486064331450096,-0.5880826960536619,-0.15801225136376143,,
1.331327999999985,-29.281625568273387,17.002944929202666,-148.3155110233508,-0.10232797265052795,0.3165004849433899,-0.20721811056137085,-0.11031546722529045,-0.7572863716286846,-0.33734150122516354,,
1.340849999999989,-29.99996064835243,12.503810832506813,-149.28738972218383,-0.6147715449333191,0.39035651087760925,-0.5397100448608398,-0.10218836154806493,-0.729707504822362,-0.5649004601874776,,
1.3501789999999687,-30.657279065708273,7.611793327218024,-151.08448955957553,-0.599276065826416,0.4437398314476013,-0.5483439564704895,-0.07207810117014748,-0.70772435012167,-0.7551546717789206,,
1.3598599999999692,-31.265087224748846,3.1489866560665973,-153.37444664751382,-0.08023538440465927,0.18277990818023682,-0.7748765349388123,-0.07594180714784488,-0.5663660038341904,-0.8173736611439092,,
1.3691910000000007,-31.488524727669663,-0.13313459949358694,-155.63576135466684,0.7194280028343201,0.23349609971046448,-0.8509942889213562,-0.026513016881440574,-0.3502649315643582,-0.7119877498211982,,
1.3786989999999832,-31.89551222030763,-2.539763882750382,-157.13188215122216,1.7707966566085815,0.2890428304672241,-1.0250376462936401,-0.08113782553164478,-0.27259111828858,-0.49975038352906337,,
1.3882199999999898,-32.701089235318115,-4.296312977909637,-157.67529979423642,3.2586023807525635,0.4207088351249695,-1.0230681896209717,-0.16001071997291527,-0.2582021443026726,-0.27339050573224155,,
1.3977279999999723,-34.00167847977062,-5.2890973885658035,-157.8377437703008,4.12119722366333,0.980975866317749,-0.9567162394523621,-0.25527105700924696,-0.16587289455976645,-0.13243185316659264,,
1.4072170000000028,-36.19906953295433,-6.953873669309395,-158.08957175343113,4.276524066925049,1.0318611860275269,-1.8143125772476196,-0.4360658505173619,-0.2680612561078313,-0.22009800948813987,,
1.4167479999999841,-37.5151901828659,-10.23152067837128,-158.7179254768132,4.114307403564453,1.0505123138427734,-1.497148036956787,-0.2723246558073595,-0.4740367540912843,-0.4825635534903406,,
1.4262410000000045,-37.464200618860296,-13.745888771935865,-160.21284546635363,3.3008365631103516,1.1906623840332031,-0.42616695165634155,-0.0415681470703993,-0.4016921904399163,-0.6528330789902455,,
1.4357589999999618,-37.91606527645186,-16.2424553439077,-161.9595912796178,2.141956090927124,1.0697476863861084,-0.6636624932289124,-0.17080245046234582,-0.20797396659260675,-0.5686309349245648,,
1.4452660000000037,-38.68416595194721,-16.901800003961984,-162.91060240379875,1.3886767625808716,0.3550684452056885,-1.312652587890625,-0.2041102606149094,0.0039969372183076245,-0.2379509957299139,,
1.4549499999999966,-38.61120405188281,-14.561982225309867,-162.6753038249907,0.8423876166343689,0.6987241506576538,-0.22626394033432007,0.026379785640830326,0.3436033695338455,0.30083614129795394,,
1.4642799999999738,-38.97079730340477,-9.217051309294334,-160.92218502597837,0.3256053626537323,0.7287218570709229,-0.9110830426216125,-0.00159877488732305,0.6339142428235893,0.899977030322267,,
1.4738800000000083,-38.43617492462201,-1.8929942452854087,-157.37222815371783,-0.25361382961273193,0.8463431596755981,-0.8313723802566528,0.17826339993652007,0.7183828493704905,1.4285053618231451,,
1.4833169999999996,-35.922559127067935,5.999540718287184,-152.33400335017225,-1.6468960046768188,1.3587350845336914,-0.2482709288597107,0.4748361415349458,0.6676217466979837,1.7130872917666482,,
1.4928079999999682,-32.211847854018686,12.146300011096942,-146.25561342818787,-4.062488079071045,1.3698132038116455,0.582981526851654,0.5630352228189341,0.3559938749105991,1.6466049027021312,,
1.5023249999999848,-27.600290602057942,14.717224303556124,-140.31988839997786,-6.56986141204834,1.2887364625930786,1.490194320678711,0.6605604909456401,-0.1272358347827927,1.2274594197422717,,
1.5120180000000119,-23.101549545478857,14.64695965180839,-138.4570687730195,-7.644404411315918,2.2008767127990723,3.942532539367676,0.8200382859561144,-0.16773813192830997,0.2913767232146259,,
1.5215269999999919,-23.301477442166423,13.678335165454572,-141.8721810793832,-6.278537750244141,0.21140466630458832,1.8343427181243896,0.13696171534734128,0.07554211342601411,-0.7006630943693265,,
1.5310269999999946,-23.70992173875494,11.54415954688586,-146.34282304983128,-2.740779399871826,-0.3157719373703003,0.23804622888565063,0.1237718225269261,-0.04942879026640429,-0.9891087302905268,,
1.540549999999996,-24.055982915922478,9.309906574267254,-150.59846026772956,-0.4735775589942932,0,1.5301247835159302,0.09192955602107536,-0.08127105677225505,-0.9523369078820968,,
1.5498869999999556,-26.067077543879616,6.619197922852801,-153.19619650416337,0.9097510576248169,-0.581904411315918,-0.7336621284484863,-0.3256171520514612,-0.287779479718149,-0.6864073516240293,,
1.5593939999999975,-27.27431030214461,2.79467214773125,-152.94629175152133,1.7445640563964844,-0.4601617455482483,-0.7074182033538818,-0.24181470170761132,-0.7349035232061619,-0.271525268363698,,
1.5690809999999829,-28.31173638478945,-0.5878552824127273,-150.84518455810584,1.6606507301330566,0.2715414762496948,0.29480355978012085,-0.2098392039611503,-0.832428791332868,0.09952373673585985,,
1.578425999999979,-30.292244325731982,-3.238523304475349,-148.10291111545183,0.8616708517074585,0.2943175435066223,-1.1197106838226318,-0.3693169989716245,-0.769543645764828,0.26086676911487766,,
1.5879359999999565,-31.939590130490647,-6.31206236403869,-145.50841834447584,0.7708801031112671,0.7127875089645386,-1.2645628452301025,-0.2747228181383441,-0.8356263411075141,0.1690704443344125,,
1.5974319999999693,-33.54148448805834,-9.551686228353331,-144.51433399052084,1.3561099767684937,0.9370545148849487,-1.3640499114990234,-0.27938591155970294,-0.6905375200829473,-0.1488192957616539,,
1.606933999999967,-34.834088842477485,-12.606867819272493,-146.00188401995126,2.0853111743927,0.8005201816558838,-2.1329617500305176,-0.3031010723883282,-0.37051608013711684,-0.565566616390529,,
1.6164529999999786,-35.32858985854086,-15.842319056673354,-149.37349019944713,3.8017687797546387,0.6939796805381775,-2.009437322616577,-0.2566033694153495,-0.1685375193719715,-0.9086370609619334,,
1.6259579999999687,-35.40342179043306,-18.433665977559052,-153.62981427286607,5.495826244354248,0.5033057332038879,-1.2738964557647705,-0.2651301688144058,0.047963246619691494,-0.9851117930722192,,
1.6354650000000106,-36.19606469175275,-19.480778958315195,-157.0964600301288,6.221275806427002,0.3169516921043396,-1.1094129085540771,-0.3871699852133986,0.21929862204447836,-0.6836094955712142,,
1.6449709999999982,-38.5721124701375,-18.44978576597328,-158.25792620735956,5.502147674560547,0.8784587383270264,-0.8911413550376892,-0.551977029848283,0.2993705976512411,-0.07207810117014748,,
1.654485999999963,-42.789887713519335,-15.07721938707279,-157.26832612238883,3.9212687015533447,0.9070701599121094,-1.7845516204833984,-0.7851317009162277,0.38756967893522937,0.566632466315411,,
1.6639959999999974,-46.126389779375955,-9.709271584471603,-154.69436618609768,2.257662057876587,1.370879888534546,-1.3665063381195068,-0.5538422672168266,0.41541500822277244,1.0942281791320174,,
1.6735069999999723,-49.24478827826531,-3.126607553209286,-151.14002185110522,0.5222653150558472,2.275595188140869,0.30251258611679077,-0.5390535995090884,0.3658529867157579,1.4333016864851142,,
1.6830180000000041,-53.18123676531073,3.8432177421394935,-147.41163845215436,-1.45454740524292,1.8240935802459717,-0.4734024405479431,-0.7845987759537868,0.29057733577096434,1.5421516100636918,,
1.6925319999999715,-55.257223209153395,9.877386880475514,-143.29213559268476,-4.064762115478516,2.0522964000701904,0.35048502683639526,-0.5061454830783556,0.03384073511500456,1.4508882102456677,,
1.7020449999999983,-55.53480738093261,13.603869014626117,-138.667899382438,-6.9693450927734375,3.1357500553131104,1.5135847330093384,-0.23701837704564216,-0.3344104139317379,1.1235390520662734,,
1.711545000000001,-54.81821920093255,15.021973652599343,-137.41609664005375,-7.507535934448242,2.8197827339172363,1.5005425214767456,0.08846554376520875,-0.048895865303963275,0.3666523741594194,,
1.7210579999999709,-52.92049086839441,13.975493131610433,-138.31633080537952,-5.43096923828125,1.5589523315429688,2.139040231704712,0.4320689132990542,0.0057289433462409285,-0.27725421170993886,,
1.7307519999999954,-50.374147394156,11.952758970922222,-140.1546631538568,-3.793976068496704,0.39686593413352966,1.3662121295928955,0.6050030636111642,0.03770444109270193,-0.5606370604879495,,
1.7402669999999603,-45.99236622523137,9.722238406472277,-142.2425985556763,-1.8218989372253418,0.3019964396953583,1.2758435010910034,0.9701898941238708,0.0255803981971688,-0.6377779488012867,,
1.7497720000000072,-41.61150771697066,7.096049232846652,-143.897608560462,-0.0992206409573555,0.36211398243904114,0.8717010617256165,0.9388805525804611,-0.13403062805391566,-0.6373782550794559,,
1.7590979999999945,-38.26694668770771,4.135751932644576,-144.88035083154355,1.8372265100479126,-0.4606950283050537,-0.29185983538627625,0.6985313945195626,-0.32241960227681504,-0.5574395107133034,,
1.7686119999999619,-34.28705310234569,1.5858398930320272,-145.32807503974686,3.072554588317871,-0.2305395007133484,-0.25246208906173706,0.808846861744853,-0.36318836190355286,-0.38930168506316265,,
1.7781089999999722,-30.787415098116895,-0.6770512620659064,-145.0803213359337,3.460789680480957,-0.07810848951339722,-0.727457582950592,0.7073246563998393,-0.41541500822277244,-0.21490199110434,,
1.7876329999999712,-28.168921824564276,-3.366265830899982,-144.01240753804294,4.0251007080078125,-0.5088284015655518,-1.3479970693588257,0.5391868307496985,-0.5920796332719694,-0.07274425737319877,,
1.7971379999999613,-25.510766719163442,-6.050309246731184,-142.60720889978148,3.926682472229004,-0.30805346369743347,-0.6227041482925415,0.5639678415032059,-0.6275191432742971,0.021450229738250916,,
1.8066460000000006,-23.28164117007861,-8.142024524277575,-141.57886612779168,3.231895685195923,-0.34507229924201965,-1.1323039531707764,0.4802986223999662,-0.4828300159715611,0.01958499236970736,,
1.8161549999999806,-21.310390128206325,-9.844919544558408,-141.1292016179766,2.7816364765167236,-0.526138961315155,-1.2487467527389526,0.4170137831100955,-0.3639877493472144,-0.044765696845045395,,
1.82566700000001,-19.25082744495366,-10.675874480195,-141.35963161234702,2.463827610015869,-0.5026301741600037,-0.8008419871330261,0.41115160852324434,-0.1520168455363,-0.10538591132271105,,
1.8351779999999849,-17.57182432189125,-9.90568796424992,-142.18255990571183,1.8531475067138672,-0.5365502834320068,-0.8456573486328125,0.31136140930616396,0.18998774911022243,-0.12257274136143384,,
1.8448449999999639,-16.58616268785175,-7.944068048247157,-143.081486617959,1.198161244392395,-0.6910467743873596,-1.12510347366333,0.17280091907149966,0.4227427264563364,-0.08153751925347555,,
1.8544059999999831,-16.117584300161802,-5.319890631302169,-143.5888450958269,0.5111700296401978,-0.6297630667686462,-0.6286073327064514,0.08553445647178316,0.52946095018515,0.01705359879811253,,
1.863898000000006,-16.385222487555964,-2.042264023666855,-143.66416858147514,-0.5060739517211914,-0.3990491032600403,-0.09671348333358765,-0.049162327785183785,0.6295176118834509,0.14055895884381814,,
1.873404999999991,-17.461880840206963,1.3384493252312173,-143.34941948811056,-2.140186309814453,-0.12330833077430725,0.1636328101158142,-0.20824042907382723,0.6204578875219536,0.24301378287310357,,
1.8829119999999762,-19.110201042547782,3.7806573828740953,-142.66014467656487,-4.002753257751465,0.2928032875061035,1.6960420608520508,-0.329214395547938,0.409419602395311,0.2792526803190927,,
1.892232999999976,-21.275273866759818,5.8257868525180205,-141.48996246460953,-5.916252613067627,0.3556565046310425,1.6291298866271973,-0.44712404348801293,0.28804594219936946,0.36638591167819895,,
1.9017539999999826,-22.857130704146684,7.531160012394008,-139.55763256007978,-5.561923027038574,1.591715693473816,2.0523171424865723,-0.3558606436699889,0.15681317019826913,0.4881592655959712,,
1.9112529999999879,-25.657054364417014,8.486166096343322,-139.20749035088073,-3.8813352584838867,1.406739354133606,1.1127138137817383,-0.5658330788717494,0.1272358347827927,0.15215007677691025,,
1.920772999999997,-27.692871040584894,8.507635180757397,-140.83594182287058,-2.8083407878875732,0.9830573797225952,-0.37815725803375244,-0.3539954063014453,0.13243185316659264,-0.2823169988531286,,
1.930279999999982,-28.567825492766584,5.8246581004159195,-142.86670655944607,-0.37332451343536377,1.4405672550201416,0.2748258113861084,-0.11804287918068519,-0.2973721290420873,-0.6100658507543538,,
1.9397899999999595,-30.060388613150025,1.8654069172205918,-145.02935571518972,1.346740484237671,0.633691132068634,-0.8135179877281189,-0.2637978564083033,-0.4992174585666223,-0.7559540592225822,,
1.9493049999999812,-30.122021163161698,-1.8492749276874327,-146.75049750561473,2.0880846977233887,0.4064860939979553,-0.9242506623268127,-0.005329249624410167,-0.49828483988235056,-0.6488361417719378,,
1.9588099999999713,-29.262980944407943,-5.395304299251869,-146.98254900889933,2.5355472564697266,0.41693180799484253,-0.938511848449707,0.17799693745529954,-0.6212572749656151,-0.3695834614528451,,
1.9683329999999728,-28.366298257724093,-8.227144425655021,-145.73477042260245,2.6477527618408203,0,-1.2585523128509521,0.21956508452569884,-0.6420413485008148,-0.035705972483548114,,
1.9778269999999907,-26.693120166830283,-9.803876658344441,-143.6097140024357,2.2923905849456787,0,-1.1475242376327515,0.41155130224507513,-0.49442113390465325,0.2379509957299139,,
1.987338999999963,-24.542180451387072,-10.707281965459105,-141.25782360093055,2.061908721923828,0.17174910008907318,-1.1616995334625244,0.5227993881546373,-0.37837672333312183,0.3412052072028609,,
1.9968470000000025,-22.56530875758184,-11.024745039680123,-139.68097331880665,2.125762701034546,-0.10348731279373169,-1.01446533203125,0.46231240491758196,-0.1938514550879198,0.2536722821219239,,
2.0063599999999724,-20.31846692883885,-10.471102916106965,-139.65322843897698,2.145505428314209,-0.5137181282043457,-1.1444214582443237,0.4579157739774436,0.08953139369009079,0.040502297145517265,,
2.0158680000000118,-17.410234077623482,-9.263484425115253,-140.9336478581025,2.124061107635498,-0.5081417560577393,-1.166693925857544,0.5393200619903088,0.3100290969000614,-0.19864777974988893,,
2.0253789999999867,-14.651265557642855,-7.4607849920748865,-143.13654608195884,1.8667851686477661,-0.29841452836990356,-0.34464454650878906,0.48855895931780197,0.4681745795044331,-0.367984686565522,,
2.035063999999977,-13.391966049548364,-4.9887945213199725,-145.62529688880574,1.1691381931304932,-0.5456407070159912,-0.40962207317352295,0.20077947959965303,0.5979418078588208,-0.4034241965678496,,
2.04459700000001,-13.2299868603361,-2.022650733733908,-147.60944555040282,-0.1297278106212616,-0.7333412170410156,-0.57707679271698,0.013056661579804908,0.665223584366999,-0.2865803985526567,,
2.0540919999999687,-13.790340242571746,0.8778564008662856,-148.5168893688209,-2.048428773880005,-0.3840678632259369,0.36728787422180176,-0.10725114869125461,0.6006064326710258,-0.06728177650817835,,
2.063586999999984,-15.727896569009424,3.3587317452031042,-147.81232022414994,-4.059635639190674,-0.3805938959121704,1.9734489917755127,-0.38583767280729603,0.4351332318330901,0.24900918870056504,,
2.0729309999999828,-17.349098939656287,6.42272217017374,-143.95057856239447,-6.794784069061279,0,1.0176520347595215,-0.3843721291605832,0.3537289438202248,0.918895866488923,,
2.082615999999973,-18.400347741511183,8.794913105848066,-139.8210094722338,-5.348791122436523,1.9328786134719849,3.132220983505249,-0.3148254215620306,0.1842588057639815,0.9342174591591021,,
2.091969000000006,-21.526309383467513,11.42697549202354,-138.85495287387343,-3.9020276069641113,0.9199276566505432,-0.14904028177261353,-0.6528330789902455,0.4187457892380288,0.353862175060835,,
2.1014619999999695,-22.310319471872482,11.39558128399618,-139.5648449748936,-2.27410888671875,1.1088249683380127,0.11621540784835815,-0.12190658515838255,0.03450689131805583,-0.13669525286612078,,
2.1111669999999663,-23.040130885629928,8.534685329126749,-141.5689999782936,0.22504612803459167,1.5619539022445679,0.7150251269340515,-0.06967993883916293,-0.38783614141644984,-0.5906140896252566,,
2.1204859999999712,-24.999840395313374,5.2286034514898505,-144.8486081007039,1.3843432664871216,0.35942551493644714,-0.8356542587280273,-0.30856355325334867,-0.35759264979792216,-0.8548116397553908,,
2.1299889999999664,-24.915018854479108,1.302204096929795,-147.57725452364707,1.8507771492004395,0.49515336751937866,-0.699517011642456,0.05382542120654268,-0.5033476270255401,-0.8116447177976683,,
2.139505999999983,-24.597731227943296,-2.879436748041206,-148.78820948051242,2.4761340618133545,0.2505872845649719,-0.22805064916610718,0.06754823898939886,-0.6832098018493833,-0.5483797863518061,,
2.1490049999999883,-24.251875640106853,-5.481295653023125,-148.69353382245194,2.3329968452453613,-0.19692650437355042,-0.992953360080719,0.07980551312554225,-0.506411945559576,-0.17573200636492523,,
2.158522000000005,-23.10746793340203,-6.684801273246569,-147.38152822274796,1.9426913261413574,0.10411766171455383,-1.2738806009292603,0.26579632501745704,-0.3442695257368968,0.1532159267017923,,
2.1680220000000077,-21.95964546395188,-7.255387568484453,-145.53490557573167,2.380544900894165,0.12481379508972168,-1.548054575920105,0.2833828487780106,-0.2632649314458622,0.3031010723883282,,
2.1775409999999624,-20.50058998346022,-6.67025538950476,-144.38072757905587,2.721303701400757,0,-1.4444162845611572,0.32774885190122527,0.012656967857974145,0.25580398197168797,,
2.187055999999984,-18.49619401684352,-5.376165955956001,-144.45513441830462,2.9880118370056152,-0.17479360103607178,-1.4223967790603638,0.4051562026957829,0.2426140891512728,0.053159265003491406,,
2.196548000000007,-16.29290750028589,-4.040790997514594,-145.63779810327895,3.4221389293670654,-0.4101417064666748,-1.1992456912994385,0.4259402762309826,0.3240183771641381,-0.18212710591421744,,
2.2060639999999694,-14.237233822526116,-2.208186938706419,-147.476282529348,2.9946277141571045,-0.6335859298706055,-0.9636767506599426,0.3964961720561163,0.4485895871347258,-0.297771822763918,,
2.215580999999986,-12.62382425143072,0.11082494591861057,-149.01277620084954,1.676506519317627,-0.6778757572174072,-1.1697970628738403,0.3237519146829176,0.51893568217694,-0.2278254214435346,,
2.225099,-11.812110994032194,2.565080042653508,-149.36448132291642,-0.3053792119026184,-0.7168164253234863,-0.766532838344574,0.17173506914661762,0.489091884280243,0.004529862180748642,,
2.234780999999998,-11.890003347206287,4.8905777789209575,-148.0323165738849,-3.3180463314056396,-0.5708509087562561,0.7218009233474731,-0.0255803981971688,0.39063399746926525,0.34506891318055827,,
2.244114999999965,-12.902919258584884,7.811754238101871,-143.65417359207788,-7.396828651428223,-0.7569366693496704,1.7480740547180176,-0.2935084230643899,0.3707825426183373,0.9783169998010963,,
2.253811999999982,-13.508082996649135,10.347041053004501,-137.77399221291645,-7.602255344390869,1.4842205047607422,4.612299919128418,-0.30336753486954876,0.21157121008908364,1.2636983171882608,,
2.26331399999998,-17.715778998573327,13.520007540605935,-136.0842926919208,-4.412916660308838,2.27547550201416,2.5852456092834473,-0.9098361421274256,0.5054793268753043,0.5054793268753043,,
2.2726450000000114,-22.730850061576042,15.622627102733615,-137.5562290225944,-2.8218955993652344,0.9106841683387756,-0.0969313383102417,-0.9259571222412665,0.4781669225502022,-0.11644410429336213,,
2.282161999999971,-25.270164049345606,13.529681799787786,-139.98673301958385,-0.14543616771697998,2.3207342624664307,1.1521252393722534,-0.37890964829556284,-0.20291117944941708,-0.6058024510548257,,
2.2916529999999966,-29.874789401236022,9.342758388288114,-143.86606474148377,1.836936354637146,1.8611328601837158,-0.10942131280899048,-0.768477795839946,-0.4208774890877928,-1.0324088834888596,,
2.3011809999999855,-33.98000428390544,4.6735663145843205,-148.27636219964245,2.2735867500305176,0.7393814325332642,-1.9676164388656616,-0.7127871372648598,-0.36838438028735276,-1.2000137841765592,,
2.3106879999999705,-34.9012298942669,-0.920987691353016,-151.1023807264017,2.9590160846710205,1.0516191720962524,-1.0747209787368774,-0.16027718245413575,-0.641108729816543,-1.067715162250577,,
2.32970899999998,-34.52714128497836,-7.533824202756974,-153.03741350215267,3.2824289798736572,0.2989395558834076,-2.1611361503601074,0.11644410429336213,-0.2871133235150977,-0.29270903562072836,,
2.3392069999999876,-32.723365820802506,-7.941160996800477,-151.9706941130552,3.257815361022949,0.5193614363670349,-1.6395970582962036,0.39689586577794717,-0.1967825423813454,0.1259035223766902,,
2.3487159999999676,-30.734617536067322,-7.287519433185793,-149.8932469237942,3.593156576156616,0.29984188079833984,-1.4305956363677979,0.4580490052180538,-0.10845022985674689,0.4002266467932035,,
2.3582250000000045,-27.90822881858383,-5.292833803140967,-147.95625671761218,3.0055642127990723,0.1630738377571106,-1.4750128984451294,0.6125972443259486,0.15987748873230498,0.5050796331534736,,
2.3677419999999643,-24.274471150313126,-3.2284810083139566,-146.17481086816593,2.2589898109436035,0.38074320554733276,-0.9845342040061951,0.7583522215535667,0.21863246584142706,0.46457733600795625,,
2.377241999999967,-21.272822479662345,-1.5034986445143266,-144.70140540375616,1.433366060256958,0.055538564920425415,-0.5757710337638855,0.61859265015341,0.20717457914894521,0.36598621795636815,,
2.3869639999999777,-18.611533448545117,0.4835729025410838,-143.62098529222698,-0.08696290105581284,-0.09830042719841003,-0.09219133853912354,0.5414517618400729,0.2993705976512411,0.3043001535538205,,
2.396447999999964,-16.50684511649513,2.4167082495707346,-142.54932157098398,-2.4712705612182617,0.0921335518360138,0.5346271991729736,0.42354211389999796,0.29990352261368214,0.29337519182377964,,
2.405963999999983,-15.896602961963655,3.3705743448845826,-140.86086275327847,-5.226969242095947,-0.19428062438964844,2.5327775478363037,0.1124471670750545,0.07953905064432173,0.3654532929939272,,
2.4152959999999553,-16.055391944698112,5.042840592521244,-137.38764317606135,-7.846478462219238,-0.08875688910484314,2.7159132957458496,-0.07687442583211664,0.11537825436848011,0.7672787146744539,,
2.424982,-17.696619325062343,6.746822469693832,-135.20745248000173,-5.837808132171631,2.2246341705322266,4.163049697875977,-0.36838438028735276,0.1833261870797097,0.5273292503353859,,
2.434304999999995,-22.239983814347035,8.912226229348153,-136.4249714906353,-3.262763738632202,0.8226839303970337,-0.18045514822006226,-0.871199082350452,0.47416998533189453,-0.07221133241075775,,
2.4440020000000118,-24.367089993714792,9.129802047856975,-139.1380976385455,-1.4870847463607788,1.6237486600875854,0.9872559905052185,-0.334943338894179,0.23755130200808314,-0.47350382912884326,,
2.4533399999999688,-27.385675825452783,6.418135583883581,-142.49226489188865,1.2295640707015991,1.9170067310333252,0.29350364208221436,-0.5077442579656787,-0.21410260366067846,-0.8316294038892065,,
2.4628399999999715,-31.16386452292969,2.874661893922863,-146.3555853954802,2.9630305767059326,0.8153138160705566,-1.3108539581298828,-0.6873399703083013,-0.2590015317463341,-1.0145558972470854,,
2.4723409999999717,-32.46902328025441,-0.8521994335879313,-149.56947324452238,3.2715604305267334,0.9875194430351257,-1.5984816551208496,-0.2432802453543241,-0.31868912753972795,-0.9254241972788253,,
2.48187200000001,-33.03859739258339,-5.024351851334532,-150.61823232587653,3.9337716102600098,0.8540322184562683,-1.242761254310608,-0.11617764181214163,-0.6179264939503588,-0.6068683009797078,,
2.4913740000000075,-33.24062124361129,-7.690087332231659,-149.79828774396682,4.084681510925293,0.3580970764160156,-1.4351470470428467,-0.010791730489430587,-0.5699632473306674,-0.1264364473391312,,
2.500891999999965,-32.26034433525676,-7.769010041264518,-147.57102019278358,3.270552158355713,0.6182373762130737,-1.6320449113845825,0.2665957124611186,-0.2775206741911594,0.37890964829556284,,
2.5103970000000118,-30.938240390874046,-6.2268123495447325,-144.2214123826982,2.9073593616485596,0.4730812907218933,-2.098241090774536,0.35332925009839405,-0.09752526812670605,0.7235788677542904,,
2.5199059999999918,-28.390667488779272,-3.5892553563536365,-141.05290824406083,2.1338753700256348,0.3062499761581421,-1.6646223068237305,0.5711623284961596,0.1342970905351362,0.8055160807295967,,
2.529412999999977,-24.306708721725347,-0.883945815637907,-138.7722397944831,1.343650460243225,0.555587649345398,-1.041029453277588,0.8412220532131447,0.28378254249984136,0.6189923438752409,,
2.539116999999976,-20.480724604288092,1.3193452104004775,-138.02755453598812,0.7291643023490906,0.2310200333595276,-0.43607938289642334,0.7726079642988638,0.35759264979792216,0.25700306313718024,,
2.548610999999994,-17.170782312675488,3.2378527622419067,-138.8768323662971,-0.072098508477211,-0.1646607518196106,-0.4031824469566345,0.6786799396686347,0.4250076575467107,-0.09526033703633173,,
2.5581169999999815,-14.349315087170435,5.308724917881263,-140.7105019496546,-1.125756025314331,-0.3124427795410156,0,0.6032710574832308,0.5017488521382172,-0.29750536028269753,,
2.5676320000000032,-12.617802909808704,7.727626561842071,-142.68426797720062,-2.4204399585723877,-0.6316503286361694,0.5072709321975708,0.4040903527709009,0.5623690666158828,-0.32188667731437404,,
2.577161999999987,-11.945479719321877,10.333622743318802,-144.1823027564232,-4.077905654907227,-0.6369273662567139,1.510962963104248,0.19398468632853008,0.5683644724433443,-0.21636753475105278,,
2.5866550000000075,-12.772580747151835,13.047391053826075,-144.73142468447432,-5.682425498962402,-0.4248514771461487,1.6758649349212646,-0.13269831564781315,0.5459816240208215,-0.011191424211261349,,
2.5961659999999824,-15.365294709725978,15.020305810507532,-145.14901553265446,-4.196728229522705,0.683442234992981,2.5164289474487305,-0.49188974033305843,0.3913001536723164,0.012257274136143383,,
2.6056689999999776,-19.886314252089203,16.77025956103585,-146.33001241527128,-3.3084704875946045,0.9293869733810425,1.7380262613296509,-0.8368254222730064,0.3877029101758396,-0.10458652387904951,,
2.6151779999999576,-24.970427377828656,17.106633127527786,-148.01572449424887,-2.181673526763916,0.9954690933227539,0.6139664649963379,-0.9180964790452614,0.16707197572525873,-0.26153292531792893,,
2.6245179999999664,-29.440210469710507,15.446603537321666,-149.590812104082,-0.41779625415802,1.1848351955413818,-0.08662718534469604,-0.80724808685753,-0.18092802474872519,-0.4030245028460188,,
2.634104999999977,-33.078291945352866,13.017441356608217,-151.09213234860331,0.6049450635910034,1.088874340057373,-1.0049535036087036,-0.6529663102308556,-0.28751301723692846,-0.4881592655959712,,
2.6437689999999634,-35.10173643641138,10.06891828794979,-152.0602942212112,0.9515105485916138,0.9483446478843689,-1.3796106576919556,-0.36385451810660413,-0.4066217463424957,-0.47496937277555606,,
2.6530500000000075,-35.41835878604029,6.8439373696892645,-152.035599080753,1.402867078781128,0.8021575808525085,-0.7727277278900146,-0.06048698323705539,-0.5547748859010984,-0.35559418118876834,,
2.6625530000000026,-34.52714581020552,4.58454722651584,-151.51800850964455,1.4112060070037842,0.5035638809204102,-0.6679413318634033,0.1714686066653971,-0.4621791736769717,-0.15041807064897697,,
2.6720619999999826,-32.64627073671564,3.603345696345911,-150.3131861992755,1.3997340202331543,0.3351994752883911,-0.17687278985977173,0.3654532929939272,-0.3153583465244716,0.09699234316426504,,
2.6815750000000094,-30.12879738802679,3.972905794122061,-148.50526057872415,2.385342836380005,0.048915356397628784,-0.15786677598953247,0.4876263406335302,-0.1325650844072029,0.3350765701347892,,
2.691077000000007,-26.567039149637996,6.45999705086952,-146.73890287452033,3.095914125442505,-0.2206805944442749,-0.5380734205245972,0.6909372138047781,0.27538897434139537,0.5117411951839862,,
2.7005889999999795,-21.74643614506753,9.879902246616702,-144.99410289006292,2.4332449436187744,-0.5475056171417236,-0.30576515197753906,0.9302205219407946,0.49442113390465325,0.5402526806745805,,
2.710104000000001,-15.96608338218885,11.832512638530359,-143.1545957000937,2.4550058841705322,-0.45468708872795105,-0.3729463219642639,1.1062189907869404,0.26060030663365713,0.407820827507988,,
2.7198029999999562,-10.443822500169368,13.180760550936554,-142.0998823673366,1.2884817123413086,0.09770890325307846,0.8815155625343323,1.0807718238303818,0.21836600336020653,0.1967825423813454,,
2.7293039999999564,-7.41125258232974,14.321278896496311,-142.36498869671746,-0.2718363404273987,-0.07825237512588501,0.19281423091888428,0.638977029966779,0.22969065881207815,-0.06967993883916293,,
2.738634999999988,-5.9587042030396775,15.008970650984342,-143.97195966575026,-1.6195472478866577,-0.8618075847625732,-0.49217480421066284,0.38677029149156783,0.16467381339427412,-0.3266830019763432,,
2.7483219999999733,-4.096455444205985,15.92611558074846,-146.63284582469913,-2.5174098014831543,-0.2494724988937378,0,0.5285283315008782,0.21836600336020653,-0.5243981630419603,,
2.7578249999999684,-4.23210447759394,17.598533507604195,-150.16332165742392,-2.8879096508026123,-0.26343896985054016,0.31772762537002563,0.19225268020059674,0.3734471674305424,-0.6841424205336551,,
2.7673320000000103,-6.356226125786357,19.09103083635012,-153.95232905841812,-2.3986055850982666,-0.7752288579940796,-0.24401646852493286,-0.17173506914661762,0.35439510002327607,-0.717583461926829,,
2.7768539999999575,-8.897925084576924,19.78477318683211,-156.88091842983545,-1.2840619087219238,-0.35439184308052063,0.8086307048797607,-0.3016355287416154,0.20131240456209404,-0.5490459425548574,,
2.7863669999999843,-12.263268023142325,19.941530334955743,-157.96341915194418,-0.9098764061927795,-0.4210406541824341,0.17528527975082397,-0.5932787144374618,0.05662327725935802,-0.199713629674771,,
2.795882000000006,-14.456461497015237,19.020973085292166,-156.346171955827,-1.2029414176940918,-0.5830628871917725,-0.326668381690979,-0.5470474739457036,-0.26606278749867757,0.26819448734844165,,
2.8053959999999734,-14.694889974751284,17.790456114400488,-152.54809571936875,-1.5566260814666748,0.5631658434867859,2.027240753173828,-0.2932419605831694,-0.4409954064199413,0.6670888217355426,,
2.814895999999976,-15.45775025377453,17.540867866829263,-148.37448821665112,-2.413313150405884,1.0105690956115723,1.6420366764068604,-0.41021898983897254,-0.27592189930383637,0.7836661572695149,,
2.8244100000000003,-16.20830293333029,17.456243708449872,-145.20187020726962,-2.276618242263794,0.9873310327529907,0.5938668847084045,-0.3406722822404199,-0.19878101099049922,0.5924793269938001,,
2.833736999999985,-16.35577890711198,17.122781122307167,-144.09386700827594,-0.7657160758972168,1.128767490386963,-0.6044127941131592,-0.09139663105863435,-0.1377611027910028,0.18838897422289938,,
2.843264999999974,-17.020768341783945,16.806601033954458,-145.2516755291883,1.0704728364944458,0.7719128131866455,-0.469298779964447,-0.05489127113142471,-0.005196018383799912,-0.24714395133202147,,
2.852765999999974,-17.778092009479195,15.677174307749453,-147.56584051949562,3.263892650604248,0.3086523115634918,-0.7589296102523804,-0.011591117933092112,-0.09086370609619333,-0.5085436454093402,,
2.862277000000006,-17.742582703305146,13.684502495923729,-149.33252098596466,4.955814361572266,-0.05376520752906799,-0.8758446574211121,0.10751761117247512,-0.28284992381556956,-0.46644257337649986,,
2.8717770000000087,-16.44094956918163,11.435303272720375,-149.1722839670998,5.445754528045654,-0.36573678255081177,-0.7970712184906006,0.25766921934023157,-0.4552511491652385,-0.09499387455511121,,
2.8812829999999963,-13.640641322937686,9.138626581758368,-146.09759239390513,4.804607391357422,-0.6123448610305786,-0.6075990200042725,0.4537856055185257,-0.6183261876721896,0.48056508488118677,,
2.8908010000000104,-9.447279028288198,6.975262235873754,-140.37462016036795,3.36543869972229,-0.2901592254638672,0.111549973487854,0.680944870759009,-0.6689540591040861,1.0495957135275822,,
2.900482000000011,-5.603982675329693,5.121139903037415,-133.2644758442072,1.4615309238433838,0,0.5010585784912109,0.621124043725005,-0.5700964785712775,1.3904012270086124,,
2.909990999999991,-2.732938669501435,3.4357646623398512,-126.40384544068546,-0.1428256332874298,-0.38427796959877014,-0.7574583888053894,0.47496937277555606,-0.45098774946571035,1.3852052086248126,,
2.9193520000000035,0.8127399936235795,1.9448619187407743,-121.22635638044447,-0.8578771948814392,-0.37944644689559937,-1.3655672073364258,0.6658897405700503,-0.32801531438244574,1.0649173061977615,,
2.9288310000000024,5.305083497918775,0.9643983602965162,-118.50531097902079,-0.6863743662834167,-0.27448350191116333,-0.9904502034187317,0.8925160808480926,-0.1786630936583508,0.5493124050360779,,
2.9385330000000067,9.681145187411376,0.5162657127039927,-118.24002039528747,-0.04515625163912773,-0.5236907601356506,-0.6319146752357483,0.8829234315241543,-0.09739203688609578,0.03144257278401998,,
2.9480309999999577,13.30712547876956,0.043405617487772954,-119.6492313454273,0.33820968866348267,-0.5781478881835938,0.08313381671905518,0.7345038294843312,-0.16573966331915618,-0.28751301723692846,,
2.957544999999982,14.788676227764968,-0.989761790553353,-121.64246175690116,-0.4735563099384308,-0.48924916982650757,0.7961800694465637,0.3003032163355129,-0.3092297094563999,-0.34200459464652244,,
2.967055999999957,13.193890387572882,-3.088264998696288,-123.34267409163854,-2.233046293258667,-0.40850841999053955,2.0778188705444336,-0.3232189897204766,-0.49335528397977113,-0.20024655463721203,,
2.976567999999986,8.467257219178014,-6.042700673802847,-123.8106586298839,-3.9395010471343994,0.9630205631256104,4.949016094207764,-0.9416784086332766,-0.5984747328212617,0.0770076570727269,,
2.9860759999999686,-0.4707936973273966,-8.269347814546183,-119.76839255032584,-3.923896074295044,2.3778603076934814,4.94378137588501,-1.6701868322901459,-0.39463093468757277,0.9129004606614615,,
2.9955949999999802,-11.973339494898418,-7.748183409673404,-112.60959435010159,-3.325383424758911,3.5354597568511963,6.585423946380615,-2.0793399722042367,-0.07274425737319877,1.5176370617914052,,
3.0050939999999855,-23.64296263464313,-4.024088431215473,-108.76754085652999,-2.6485342979431152,2.8540096282958984,5.5876007080078125,-2.240416542102034,0.4391301690513977,1.0325421147294698,,
3.014415999999983,-32.641844060979196,-1.9323355887710092,-109.06977438577937,-1.6663281917572021,2.2793543338775635,1.691671371459961,-1.7950245047419542,0.360124043369517,0.18878866794473015,,
3.023933999999997,-40.13031470996076,-3.72346478775228,-112.51366771914608,0.04655737429857254,3.066892385482788,1.6048715114593506,-1.5241653925813077,0.08593415019361393,-0.7423644726803361,,
3.0335269999999923,-48.3102629298644,-9.197633623649773,-117.50303013664234,1.082339882850647,2.134859085083008,-1.0756521224975586,-1.7369356838358836,-0.13083307827926957,-1.4548851474639752,,
3.042947999999967,-54.511312663619194,-17.68436065649747,-121.01681576072843,2.144965887069702,1.2677156925201416,-2.699713706970215,-1.3746799406166026,-0.6056692198142154,-1.7060260360143047,,
3.0524519999999598,-58.88813642895283,-26.35130739426622,-121.674382821753,2.6599843502044678,1.1903295516967773,-1.5240494012832642,-0.874929557087539,-0.9499387455511121,-1.4658101091940163,,
3.0619800000000055,-63.957569386860925,-32.49313915536978,-119.57497173556864,2.2911696434020996,0.6951238512992859,-2.4739339351654053,-0.7476937223047464,-1.003764166757655,-0.8653369077636008,,
3.071480000000008,-69.81467603603218,-34.95865936386728,-114.8660040546757,1.3323259353637695,0.536933422088623,-2.8673386573791504,-0.6027381325207898,-0.9800490059290297,-0.12843491594828502,,
3.0809939999999756,-75.6520496018021,-33.97566822199561,-109.01492582400202,0.41341644525527954,1.1828103065490723,-2.5570216178894043,-0.4759019914598278,-0.9062388986309488,0.4786998475126432,,
3.090588999999966,-81.01599618248706,-30.866658744919917,-104.86749648740363,-0.7915217876434326,1.7906272411346436,-2.308417320251465,-0.6095329257919128,-0.590214395903426,0.7496921909139003,,
3.100007000000005,-85.40652087885216,-27.712205640282896,-103.00709085611734,-1.878591537475586,1.8662347793579102,-3.529693126678467,-0.6894716701580652,-0.2598009191899956,0.6605604909456401,,
3.1096000000000004,-88.262547200636,-26.099336454342172,-102.80871041535563,-1.9566978216171265,2.3979482650756836,-1.9085631370544434,-0.5542419609386573,-0.014655436467127957,0.3185558962991177,,
3.119114999999965,-90.80579948532603,-26.629312143868486,-104.53161287387847,-1.4157426357269287,2.1830973625183105,-1.2807248830795288,-0.6682879029010349,0.32255283351742536,-0.1139127107217673,,
3.128627999999992,-92.98344046137832,-28.617279306874327,-107.02963093533859,-0.6815473437309265,1.5624865293502808,-0.88697749376297,-0.6820107206838911,0.4848284845807149,-0.38690352273217804,,
3.1380629999999883,-94.63069617391659,-30.532844932712006,-108.95363905715483,0.41445672512054443,1.1434624195098877,0.1963176131248474,-0.5342572748471192,0.38557121032607555,-0.3630551306629426,,
3.1477459999999837,-95.20706966347792,-30.880335543240186,-110.60521042502093,0.9609253406524658,0.45496878027915955,0.5982404351234436,-0.29977029137307193,0.3152251152838613,-0.04676416545419921,,
3.1572499999999764,-92.82584064263914,-28.6895431192874,-112.19678697104384,0.5156296491622925,0.14363300800323486,1.3548932075500488,0.2959065853953745,0.2847151611841131,0.455517611646459,,
3.1665779999999586,-87.4042130359217,-24.092291156777833,-113.1145140072613,-0.7249799966812134,0.24068820476531982,3.0663883686065674,0.9776508435980451,0.21663399723227325,0.9162312416767179,,
3.176087999999993,-79.7809872298823,-18.558649582535285,-112.72457618901275,-2.3613343238830566,0.31589436531066895,4.222008228302002,1.535356816792569,0.10378713643538799,1.0978254226284943,,
3.185598999999968,-69.81501800505208,-14.488918700091768,-110.61744678295196,-2.9691216945648193,1.1537476778030396,4.093679428100586,2.1018560518673697,-0.12483767245180814,0.871199082350452,,
3.1951119999999946,-58.54332554249215,-13.815757766843113,-108.0591761613709,-2.040531873703003,2.1626060009002686,5.228576183319092,2.36938438301276,-0.33107963291648157,0.2993705976512411,,
3.204804999999965,-48.536666029111984,-16.367383074429338,-107.42592341962524,-0.32526904344558716,1.2292790412902832,3.6499123573303223,2.0191194514484017,-0.34200459464652244,-0.3971623282591677,,
3.2143159999999966,-38.769359362770174,-20.589117244722463,-109.15593153629722,1.647132158279419,0.2112220823764801,1.8056049346923828,1.821004596660954,-0.33307810152563544,-0.8939816244948054,,
3.2238340000000107,-28.22343151269728,-24.660012012745867,-111.62043024831296,3.0804455280303955,-0.05085033178329468,1.0132014751434326,1.8603078126409789,-0.35133078148924024,-0.9700566628832605,,
3.2333419999999933,-18.310164545495347,-27.644607126678725,-112.98687245502408,3.320629358291626,-0.5676180124282837,0.17385262250900269,1.800087291885144,-0.4071546713049367,-0.599673813986754,,
3.242841999999996,-9.904948907948409,-29.954241843213378,-111.25424749189702,2.6589536666870117,-1.1148649454116821,-0.6097075343132019,1.8096799412090823,-0.5138728950337503,0.09366156214900868,,
3.252350999999976,-2.56168378227614,-32.11550700039433,-105.80586411223332,1.1326172351837158,-0.9596119523048401,-0.49276992678642273,2.029245025734781,-0.541984686802514,0.8620061267483444,,
3.2616799999999557,4.358478130148229,-34.66517118387109,-97.42627459515748,-0.9258359670639038,-0.23087310791015625,-0.2822763919830322,2.319422667783915,-0.49988361476967363,1.4133170003935762,,
3.2711869999999976,12.432574758562644,-38.13674185525126,-88.55931187182101,-2.8860998153686523,0.4296698570251465,0.7499063014984131,2.691004597845913,-0.4870934156710892,1.534290966867687,,
3.2807039999999574,24.817220909265988,-42.41113823542439,-82.48422913247816,-3.8611860275268555,1.2607166767120361,3.168576240539551,3.2821516124336116,-0.5230658506358579,1.1636416554899598,,
3.2902109999999993,43.96117649236073,-45.8813928951853,-82.1468762487599,-3.0360066890716553,1.7193458080291748,5.755705833435059,3.8451868352525453,-0.584485452557185,0.3942312409657421,,
3.299732000000006,69.31219412310512,-45.60042160761594,-87.55814205597436,-0.167779803276062,2.1251564025878906,7.5724639892578125,4.234621751556318,-0.673084227563004,-0.5081439516875094,,
3.309236999999996,94.13740532902825,-40.069933530013785,-92.50299903982778,3.077670097351074,2.109437942504883,7.88385009765625,4.23062481433801,-0.6465712106815634,-1.221863707636641,,
3.3187509999999634,113.96684696554699,-32.29856086526845,-92.86349450440458,4.979257583618164,1.0350127220153809,5.895925045013428,3.8754303268710726,-0.518402757214499,-1.490191426225693,,
3.3282629999999926,132.19659838501647,-26.05298251440779,-91.16594342868892,4.882372856140137,0.47718346118927,3.4131462574005127,3.7653813221270034,-0.5277289440572168,-1.1683047489113187,,
3.3377610000000004,151.88835727179404,-22.428851916292135,-91.79383633351335,3.046851396560669,0.3011611998081207,2.3403213024139404,3.8960811691656625,-0.6574961724116043,-0.3627886681817221,,
3.3473520000000008,173.4484323466033,-20.386501486676913,-95.86048302228723,-0.7180628180503845,0.265900194644928,2.2734694480895996,4.023716697670285,-0.6308499242895533,0.5998070452273643,,
3.3566789999999855,-163.52933305155278,-17.485474910014812,-101.76135821977782,-7.1034722328186035,0.6834713816642761,3.4466404914855957,4.227560495803974,-0.4960199087919762,1.1649739678960624,,
3.3663669999999684,-141.36557016418416,-15.421704057912596,-103.23804173146877,-7.813368320465088,2.8002302646636963,5.399561405181885,4.359459424008127,-0.24834303249751374,0.4400627877356694,,
3.37588599999998,-119.40316354110763,-19.806398184063614,-103.83754566337419,-4.6418328285217285,5.679074287414551,8.433247566223145,4.365188367354367,0.648436448050107,-0.6032710574832308,,
3.3853169999999864,-95.78693828108608,-26.557330130961788,-108.42918989811716,-1.6613032817840576,3.085637092590332,8.081334114074707,4.365188367354367,1.210272589703549,-1.0434670764595106,,
3.3948279999999613,-71.8095604078264,-31.004195482784763,-112.97194512773787,5.334479331970215,3.8650259971618652,7.723572254180908,4.365188367354367,0.6892052076768448,-0.9817810120569629,,
3.4045189999999934,-46.704119930220514,-29.530531487647036,-119.55453207987765,6.50861930847168,3.320488691329956,7.394182205200195,4.365188367354367,1.1239387457881043,-0.33534303261600973,,
3.4140109999999595,-24.621987008278833,-24.22557666964447,-120.22204062230679,4.810233116149902,2.068952798843384,5.420114040374756,4.365188367354367,0.9264900472037074,0.5206676883048733,,
3.4235269999999787,-6.186877475158089,-21.93835192516379,-111.6497453630205,3.476411819458008,3.238553047180176,6.064780235290527,4.365188367354367,0.009725880564548555,1.648203677589454,,
3.433044999999993,10.658039196060631,-22.18401759571848,-98.38234691479441,-2.4684743881225586,5.397045135498047,7.080293655395508,4.364921904873147,0.035705972483548114,2.4707733571171633,,
3.4423779999999624,26.76480838625729,-28.683589497964302,-86.5056159939462,-7.064139366149902,2.814955472946167,7.142135143280029,4.241283313586831,-0.553575804735606,2.4590490079434613,,
3.451894999999979,45.54311254177968,-38.75581109695451,-81.5401412743868,-6.207107067108154,3.9266161918640137,7.444474697113037,4.308565090095009,-1.157379787181278,1.8633721311750147,,
3.4614070000000083,67.81394400462008,-43.3761896280958,-82.29099826702189,-5.835775375366211,5.516051769256592,7.716689586639404,4.365188367354367,-0.6183261876721896,0.7101225124526547,,
3.470912999999996,92.73554168730654,-40.366323708457934,-87.16044541448561,-0.557732105255127,4.347177505493164,8.027506828308105,4.343071981413065,-0.6291179181616201,-0.7255773363634442,,
3.4804249999999683,111.73058418826619,-32.02180367325265,-87.08965056628595,5.439139366149902,1.5107381343841553,8.299894332885742,3.811479331378151,-0.35626033739181956,-1.648203677589454,,
3.4899279999999635,125.3199876037991,-25.737391858787106,-80.30215324046024,6.903012275695801,-0.4459989368915558,5.085375785827637,3.4065895911635886,0.47976569743752523,-1.7080245046234583,,
3.4994439999999827,140.69369105015267,-22.642486349869724,-77.85674361318142,6.887627124786377,1.1356459856033325,6.069241046905518,3.295208274013416,-0.09006431865253182,-0.7823338448634124,,
3.5089439999999854,152.9228184771603,-22.556664071846942,-81.52636939154786,3.7628822326660156,-2.138789653778076,3.69026517868042,2.1620765726232043,-0.41088514604202386,0.5738269533083648,,
3.5185219999999617,169.41574306707543,-23.289211796235897,-91.3954750143262,-0.292463093996048,-0.5566437244415283,1.54068922996521,2.4959540615925015,-0.4882924968365815,1.846851457339343,,
3.5280539999999974,-171.7654629611282,-19.45644143754945,-104.3859745312949,-6.439971446990967,2.235862970352173,4.041719436645508,2.765480861347046,-0.8290980103176117,2.5183369100150244,,
3.5375569999999925,-155.10344436099587,-14.19899096607606,-112.22214335937974,-7.930594444274902,2.7467997074127197,3.7939558029174805,2.880992346956136,-0.5924793269938001,1.738800921204427,,
3.5470579999999927,-138.63774560646382,-14.077604689318514,-113.28091097359413,-6.920087814331055,3.214603900909424,7.078651428222656,3.251375195852643,0.08060490056920376,0.18092802474872519,,
3.556580999999994,-122.64283641901604,-18.637484661973428,-110.99599136209679,-2.241614580154419,0.39862722158432007,7.334914207458496,3.335843802399544,0.2508744260691086,-0.9872434929219834,,
3.5660080000000107,-101.11361507398446,-25.93781354569658,-111.40256288632837,1.2663918733596802,4.035070419311523,8.154958724975586,4.280320067085635,0.6068683009797078,-1.3412388992234285,,
3.5755229999999756,-78.9223185780945,-32.23303858897748,-116.32921570474961,4.135252952575684,3.0282998085021973,7.8239874839782715,3.963496176914451,0.8556110271990522,-1.2707595729406043,,
3.585209999999961,-59.1687381894422,-33.59158801312207,-122.26331918655846,4.903221130371094,-0.25142669677734375,4.534709453582764,3.3138606476988515,0.8253675355805246,-0.6175268002285281,,
3.594715000000008,-38.44156246460052,-30.000926145359873,-123.18891426481848,3.1865079402923584,1.660374402999878,3.728429079055786,4.058356820228952,0.583419602632303,0.43460030687064904,,
3.6042209999999955,-21.639388229404055,-25.747248757940145,-117.12781743395553,0.8299417495727539,2.366175651550293,5.258661270141602,3.956568152402718,0.16813782565014074,1.3918667706553252,,
3.6137390000000096,-9.995391236444611,-24.043109916451012,-107.07180461213296,-1.7165441513061523,1.3329025506973267,3.1774048805236816,3.2279264975052375,-0.21050536016420157,1.9486401251655774,,
3.6230679999999893,1.7047385875079577,-25.920944582472647,-97.09314338879754,-3.3771512508392334,2.176804304122925,2.7180874347686768,3.2565712142364425,-0.5287947939820987,1.926923432946106,,
3.632580999999959,14.729705155522172,-29.838666617149215,-91.05897723169313,-3.5325050354003906,2.330686092376709,4.0238037109375,3.2559050580333913,-0.6151286378975434,1.3160581947480907,,
3.642262999999957,30.06688780460218,-32.4053073725046,-90.66686085627657,-2.4074642658233643,1.1868805885314941,4.61178731918335,3.187424200359721,-0.41887902047863906,0.35999081212890677,,
3.6517829999999663,48.79419869793627,-31.51035926230361,-94.26766479075516,0,1.1822071075439453,6.0086750984191895,3.413384384434712,-0.22302909678156546,-0.54518223657716,,
3.661290000000008,66.41117260567277,-26.83074845000527,-97.53402093119435,2.2269647121429443,0.710612416267395,7.067724227905273,3.2303246598362225,0.03437366007744557,-1.0890321607482176,,
3.670613000000003,80.19146331750055,-21.129526926822606,-97.9967659338364,3.139893054962158,-0.72344970703125,5.343444347381592,2.7444303253306255,0.2752557431007851,-1.1138131715017248,,
3.6801329999999552,92.77733678070805,-17.89455405286123,-97.06778851644982,3.087460517883301,-1.2018039226531982,3.4620132446289062,2.5882833113354073,0.2034441044118581,-0.6423078109820353,,
3.6896389999999997,105.35011984180449,-18.377736970055228,-97.4925074377862,2.477741003036499,-0.9155795574188232,3.0307531356811523,2.4976860677204344,-0.07634150086967564,0.10338744271355724,,
3.699156999999957,117.48382959793598,-21.497474249063025,-100.84523272602429,1.2692614793777466,-0.7877705693244934,1.7322161197662354,2.2060428820245885,-0.37158193006199886,0.8080474743011915,,
3.7088379999999574,130.34870822812496,-24.770473000150325,-107.54869025053449,-0.1262461543083191,-0.4042276442050934,0.4481247663497925,2.051894336638524,-0.6713522214350708,1.2285252696671536,,
3.718164999999999,144.33694683999187,-25.77714918250141,-115.99739139233544,-1.5365962982177734,0.03994542360305786,-0.3922252655029297,2.0808055158509497,-0.9010428802471488,1.2577029113607991,,
3.727675999999974,159.02589593896528,-23.79334098028074,-123.04917169746756,-2.8127546310424805,0.2888799011707306,-0.8277612328529358,2.352197552974037,-0.9704563566050912,0.9366156214900867,,
3.7371779999999717,175.78391531842422,-20.034317196348074,-126.23688585423652,-3.7005615234375,1.284166693687439,1.023059606552124,3.121474736257645,-0.8778606443809647,0.40995252735775206,,
3.7467699999999695,-164.5352162870679,-17.05741346056773,-124.72756617506063,-4.0966010093688965,2.8219990730285645,4.986436367034912,4.041836146393281,-0.6361791739139636,-0.2330214398273345,,
3.7562839999999937,-144.2112965809193,-17.52527182827302,-119.86367525922971,-3.0612990856170654,4.479875564575195,8.567902565002441,4.362790205023383,-0.33121286415709184,-0.8891852998328362,,
3.7657989999999586,-124.24608695467819,-22.111071251559142,-114.47197742623005,-0.4877229332923889,4.630218982696533,8.512449264526367,4.365188367354367,-0.09979019921708036,-1.3793430340379613,,
3.7752309999999625,-103.60140432036295,-29.144867163609764,-111.80563282037589,2.962336301803589,3.751692295074463,8.196521759033203,4.365188367354367,0.12030781027105951,-1.4965865257749849,,
3.7847429999999918,-80.01788758893223,-34.735884856236005,-115.18977880079662,4.351357460021973,2.6490745544433594,7.697912216186523,4.365188367354367,0.6024716700395694,-1.1122143966144016,,
3.794421,-55.21202163826954,-34.62635737380668,-120.51079516566823,3.755617618560791,1.9168072938919067,5.9876203536987305,4.365188367354367,0.8115114865570582,-0.32015467118644075,,
3.8039440000000013,-33.687618663671,-29.847670358962866,-120.03760409444577,2.7469425201416016,1.4295620918273926,5.494279861450195,4.365188367354367,0.6189923438752409,0.7267764175289364,,
3.8134410000000116,-15.140920819498163,-23.85604395320551,-112.83688359866278,-0.14219987392425537,3.0127010345458984,6.721966743469238,4.365188367354367,0.5507779486827907,1.6717856071774693,,
3.8229670000000056,2.3301048227963195,-21.690985445825333,-101.61769634425782,-2.8535749912261963,3.631732940673828,7.061379432678223,4.365188367354367,0.18785604926045837,2.1135804010410717,,
3.832474999999988,20.095930497922737,-25.719010166040785,-91.56005355763449,-3.32712984085083,3.421412706375122,7.144963264465332,4.365188367354367,-0.4447258811570284,1.9716891297911514,,
3.841996999999992,39.80988979862692,-32.375147292433624,-87.2789944037488,-2.6412596702575684,4.395843982696533,7.342330455780029,4.365188367354367,-0.7963231251274892,1.3175237383948033,,
3.8514879999999607,63.611747076159844,-36.794677173993996,-90.83621613803841,-0.39261364936828613,3.9584250450134277,7.635236740112305,4.365188367354367,-1.0262802464207879,0.32801531438244574,,
3.8608239999999796,89.19499315805102,-35.20860208247529,-98.17268758004404,2.4284634590148926,2.2169764041900635,7.8769450187683105,4.260868305956539,-1.0980918851097148,-0.5958101080090565,,
3.870329999999967,111.39614731074715,-29.21390595429762,-102.04598775036209,4.053428649902344,1.1138174533843994,7.26764440536499,4.055159270454306,-0.8417549781755856,-1.0802388988679408,,
3.8798439999999914,131.6853599320141,-23.676745863202846,-102.2195288429789,3.596304416656494,0.5034508109092712,6.303841590881348,4.066217463424957,-0.5938116393999028,-0.9556676888973532,,
3.889415999999983,153.00532463751372,-21.524055466220897,-102.49157521454012,1.2978659868240356,-0.09132036566734314,7.379101753234863,4.2598024560316565,-0.37664471720518855,-0.24181470170761132,,
3.8989449999999692,176.0576470867706,-23.1955455976164,-105.84854128882947,-4.508500576019287,-0.4667593240737915,8.527326583862305,4.364522211151316,0.14602143970883857,0.6873399703083013,,
3.9084530000000086,-161.5337536898518,-24.358779787338865,-107.4491446667006,-6.152609825134277,0.6544962525367737,8.772590637207031,4.363189898745214,0.25806891306206226,0.25793568182145205,,
3.9179619999999886,-139.14147805763923,-30.68614215367295,-109.63709843222675,-3.957886219024658,0.4770880341529846,8.63998794555664,4.308431858854399,1.2640980109100914,-0.3401393572779789,,
3.9274729999999636,-113.01382248023272,-36.23248484047818,-117.86390021371001,-2.3794264793395996,1.9269344806671143,8.306452751159668,4.348267999796865,1.7264104158276736,-0.11844257290251595,,
3.936886999999956,-88.8046518176937,-35.85096207115884,-122.5532862724795,5.165314674377441,3.091219425201416,7.973507881164551,4.332546713404855,0.6790796333904654,0.2063751917052837,,
3.9465869999999654,-65.97674128246852,-31.182238606896203,-126.94580236968415,5.605829238891602,1.8579601049423218,6.361119747161865,4.117644722300516,0.8689341512600777,0.7607503838845512,,
3.9559150000000045,-46.164491291490435,-25.510336574599958,-124.04381124841517,4.846006393432617,3.060558557510376,2.2949776649475098,4.2799203733638045,0.14642113343066934,1.2648973983537528,,
3.9656119999999646,-29.65699131399663,-23.846439568079642,-113.37776776226697,3.3403215408325195,3.582404375076294,6.758992671966553,4.242215932271103,-1.0102924975475573,1.8203384404579026,,
3.975118000000009,-16.014435457727295,-24.10397103574906,-102.34731604609472,-2.3482539653778076,2.6606240272521973,6.296987056732178,3.6809127155801016,-0.8915834621638208,1.951171518737172,,
3.9844439999999963,-2.136719865826931,-27.87795063469973,-94.60299817833503,-6.769690990447998,3.054413318634033,4.826305866241455,3.5406202192175042,-1.0061623290886395,1.4202450249053094,,
3.9939749999999776,14.983966240849186,-34.12115589654738,-92.67840323780305,-5.614267349243164,2.9076733589172363,6.899535179138184,3.6302848441482056,-1.2219969388772511,0.464977029729787,,
4.0036589999999705,37.31148513564707,-34.199016875780416,-96.88311445179107,-4.106252193450928,2.5661919116973877,6.872599124908447,4.003865242819358,-0.33427718269112766,-0.6265865245900254,,
4.013160999999968,60.528830751352324,-27.921874594108434,-102.35837471799448,0.7809435129165649,2.9500067234039307,7.55275821685791,4.082738137260629,0.1060520675257623,-1.5773246575847992,,
4.02249599999999,76.4743519929939,-18.869473988586797,-105.06499832321869,6.450466632843018,0.04035264253616333,6.257763862609863,2.9770520714361295,0.18972128662900192,-1.8790934175670246,,
4.031997999999987,89.18006473493573,-12.803667041508815,-103.3810782630747,7.526087760925293,-0.9652700424194336,2.7685256004333496,2.6403767264140168,0.46284532988002297,-1.1723016861296263,,
4.041503999999975,102.14156533129969,-13.496105137279406,-104.00635286913247,7.040714263916016,-0.794191837310791,2.3313634395599365,2.5734946436276696,-0.11950842282739799,0.14522205226517704,,
4.051029999999969,116.72238683246687,-19.134672728253083,-110.40899126626968,3.607149839401245,-1.2148969173431396,1.6500587463378906,2.560704444529085,-0.7984548249772532,1.4711393588184263,,
4.060532999999964,136.1601983770907,-25.1019000506043,-122.95589198257552,-0.89350426197052,1.4478428363800049,4.04944372177124,2.9132343071838176,-1.2225298638396922,2.372049007824965,,
4.070116999999982,154.24622331105175,-25.551205744350508,-137.28348685376434,-7.755528926849365,2.3393969535827637,4.828336715698242,2.38497243816416,-1.4193124062210376,2.1779310902558247,,
4.079546999999991,165.20304652356884,-19.975933371604285,-139.34096262135276,-8.106731414794922,-0.0787036269903183,2.1354923248291016,2.0389709062993298,-1.192019909739944,-0.03557274124293786,,
4.089135999999996,178.46509497542266,-18.198213356665512,-129.3257636134048,-2.0969674587249756,-0.2691977918148041,2.9709219932556152,3.3113292541272568,-0.09432771835205994,-1.9375819321949264,,
4.098635999999999,-163.62052670330758,-27.09827329342589,-120.0034630825706,-2.382209300994873,2.979400157928467,8.128446578979492,4.29857274704924,1.5378882103641638,-1.9554349184367001,,
4.1081629999999905,-147.27887652395995,-38.969029193404886,-116.89378642320175,0.4041026830673218,0.04855048656463623,8.643136024475098,3.605770295875918,1.9410459444507928,-1.4738039836306314,,
4.117592999999999,-126.20846875728553,-45.76027004603069,-122.24533181282997,4.428450584411621,-1.4865896701812744,6.961362361907959,3.4955880598912383,1.5266967861529022,-0.360656968331958,,
4.1270959999999945,-95.41279445940746,-44.4642992438182,-135.24144557463356,3.046783685684204,3.522733449935913,5.075559616088867,4.315359883366132,1.6202251170613007,0.8933154682917542,,
4.136614000000009,-72.3975995952045,-35.22246473765699,-139.19466894913643,2.630053997039795,3.3160102367401123,5.057424545288086,4.096727417524705,0.7932588065934534,1.7794364495905546,,
4.1461289999999735,-56.49136111738363,-25.253001223289303,-131.84836976727584,1.8391047716140747,2.733489513397217,3.1261672973632812,3.922460954806492,-0.3011026037791744,2.3533966341395294,,
4.155630999999971,-40.043456735033345,-19.214039197694685,-120.3287836423966,-1.1980305910110474,4.6972761154174805,5.724373817443848,4.161078106739458,-0.8076477805793607,2.328082698423581,,
4.165126999999984,-26.97101809831563,-19.757185259895678,-109.86217185193888,-2.845184564590454,3.360992908477783,5.123169898986816,3.317191428714108,-1.196683003161303,1.5873170006305681,,
4.1746499999999855,-14.164612554035516,-24.196911374062104,-105.29674647349103,-2.84285831451416,1.9483174085617065,2.114629030227661,2.9111026073340533,-1.1444563568420834,0.47763399758776115,,
4.184330999999986,4.162246025300491,-27.252554540880514,-108.61917860947969,-2.395585060119629,2.8383355140686035,3.494159460067749,3.4253751960896346,-0.5779571217672825,-0.5774241968048416,,
4.193859999999972,23.275187289091907,-25.476973637488157,-115.95681151203584,-1.1910037994384766,1.5061755180358887,4.504356861114502,3.1772986260733416,0.02118376725703041,-1.3721485470450074,,
4.20335799999998,39.751018147224684,-19.09898931344285,-121.77867878648115,0.39816251397132874,-0.5223316550254822,3.8207473754882812,2.8579433423305622,0.5134732013119195,-1.5959770312702346,,
4.212867999999958,54.34401449922392,-11.208175799274041,-122.21471032563359,1.1388128995895386,-0.748299777507782,4.163365364074707,2.901509958010115,1.005895866607419,-1.2223966325990818,,
4.222196999999994,66.25689309796637,-6.200912388229297,-118.76499212847999,1.685856819152832,-1.1155052185058594,4.598183631896973,2.4946217491863987,1.0802388988679408,-0.5386539057872576,,
4.231706999999972,76.13130704259684,-6.4384065158224955,-115.37195108106535,2.674572229385376,-1.4120090007781982,2.100693702697754,2.0582894361878163,0.6129969380477793,0.2578024505808418,,
4.241222999999991,85.67491750182214,-10.832280214977086,-113.90911561488164,2.8517894744873047,-0.7231903076171875,1.2039036750793457,1.9607641680611105,0.1354961717006285,0.910502298330477,,
4.250908999999979,94.19775067205346,-16.704107352988693,-115.35546896716738,1.9773362874984741,0,1.0035560131072998,1.642874427965044,-0.29444104174866165,1.1713690674453547,,
4.260424999999998,100.27742860407089,-21.270230922352845,-119.67565926016907,0.931355357170105,-0.39032989740371704,-0.2161918431520462,0.9415451773926661,-0.7081240438435009,1.0049632479231472,,
4.269745999999998,104.86956781887778,-23.13547078419305,-124.6072385445753,-0.4246845245361328,-0.9999875426292419,-1.731502652168274,0.5526431860513342,-0.8225696795277091,0.5583721293975752,,
4.279258999999968,110.0464422755839,-22.326482002974252,-128.46265867293093,-1.8580918312072754,-0.9504179358482361,-2.7991607189178467,0.7447626350113208,-0.7394333853869106,0.054091883687763194,,
4.288778999999977,116.19325152171079,-19.614570885390886,-130.9015138361844,-2.7120566368103027,-1.1767630577087402,-1.9201582670211792,1.0623859126261668,-0.6444395108317994,-0.3254839208108509,,
4.298293000000001,124.27462802329678,-16.813148647364212,-131.41701910676264,-3.2065582275390625,-1.7889046669006348,-2.5447354316711426,1.5922465565331474,-0.37917611077678337,-0.44072894393872075,,
4.307796999999994,135.99212791982524,-15.939995428273978,-129.7550528563172,-3.392259120941162,-0.7889858484268188,0.49620819091796875,2.446392040085487,0.11990811654922875,-0.3452021444211686,,
4.31737099999998,148.29213223720544,-17.5836010044805,-126.95539359016514,-2.751413583755493,-0.8952620029449463,2.867694616317749,2.6303843833682476,0.5787565092109441,-0.22742572772170383,,
4.326884000000007,161.63801064826902,-20.85543565576721,-124.93636594384274,-1.3715918064117432,-1.4064815044403076,2.392134428024292,2.8107794831545316,0.7452955599737617,-0.07394333853869106,,
4.336389999999994,179.06089873260126,-23.992648165074947,-124.71869062667685,0.22040054202079773,0.751433253288269,4.047872066497803,3.5105099588395867,0.6168606440254767,0.06075344571827589,,
4.345904999999959,-162.65881904094735,-25.313616502853574,-125.70793327710217,2.0140719413757324,1.4964665174484253,5.141172885894775,3.583520678694006,0.2769877492287184,0.13589586542245924,,
4.355333999999971,-144.9754590319396,-24.516168225736383,-126.7291782545384,3.0239248275756836,1.277279019355774,4.647882461547852,3.4606814748513517,-0.07341041357625003,0.23262174610550373,,
4.3648469999999975,-126.97745693491869,-21.731289906217004,-126.50558618354887,2.8219432830810547,2.1040165424346924,3.940429210662842,3.626954063132949,-0.4431271062697054,0.3542618687826658,,
4.3743539999999825,-109.87788732234436,-17.74465974295403,-124.0286370785688,1.9638915061950684,2.601665496826172,4.5585856437683105,3.59604441531137,-0.8055160807295967,0.4764349164222689,,
4.383857999999975,-94.45497885298103,-14.179949065692774,-120.2221842931281,0.40549975633621216,1.9789372682571411,3.465834856033325,3.30240276100637,-0.8814578878774415,0.5397197557121396,,
4.3933680000000095,-77.95099519870845,-11.96595348415392,-116.25077350720387,-1.3690450191497803,2.285566806793213,2.245934009552002,3.489592654063777,-0.7580857590723462,0.49015773420512504,,
4.402886999999964,-59.506449908025076,-11.660288050728173,-112.51062609298796,-2.0721542835235596,2.7471630573272705,3.999575138092041,3.8521148597642783,-0.6756156211345988,0.319222052502169,,
4.412580999999989,-39.6078341850088,-12.683280849677708,-110.82357324504672,-2.0859498977661133,2.036996603012085,5.414562702178955,4.062220526206649,-0.3978284844622189,0.05342572748471192,,
4.422085999999979,-17.781392551487393,-13.439396834312992,-111.89339894758086,-1.1964950561523438,2.058743953704834,6.722780227661133,4.3330796383672965,-0.05302603376288115,-0.2467442576101907,,
4.431592999999964,4.5548853887672776,-13.311491314739502,-114.43034898272097,1.2085890769958496,2.9100005626678467,7.0192413330078125,4.365188367354367,0.06941347635794241,-0.48069831612179703,,
4.441103999999996,26.819338488665288,-11.762807364690623,-116.85133560066754,3.281405448913574,2.4003515243530273,7.117342948913574,4.365188367354367,0.16720520696586896,-0.5218667694703656,,
4.450627999999995,48.69171057864062,-9.964303903964392,-117.41051418333063,3.766319751739502,1.0076203346252441,6.738496780395508,4.365188367354367,0.20704134790833498,-0.3144257278401998,,
4.460117999999966,70.42737346573107,-10.670698018225792,-117.24002193458337,3.0034005641937256,1.3390856981277466,5.656487941741943,4.365188367354367,-0.05462480865020421,0.13469678425696696,,
4.4694619999999645,91.92944717710895,-14.173165909293637,-118.42674369760415,0.9416825175285339,1.234567642211914,6.083503246307373,4.259535993550436,-0.3503981628049685,0.6561638600055018,,
4.4789839999999685,112.89950149001999,-18.517012905277124,-122.2904207039733,-1.682569146156311,0.9224090576171875,4.459993839263916,3.9841470192090407,-0.5523767235701138,1.0088269539008445,,
4.488481999999976,135.7363897005689,-20.711208290708335,-128.8403704107457,-3.5679218769073486,2.0141525268554688,5.456705093383789,4.133632471173746,-0.7884624819314842,1.0595880565733513,,
4.498068999999987,158.94420054864733,-19.199941167223365,-134.62002691410402,-4.434701919555664,2.3032827377319336,7.371236801147461,4.254206743926026,-0.8578759582894265,0.751690659523054,,
4.5075689999999895,-179.01022294863452,-16.104050169834114,-135.90013839737577,-3.7419793605804443,2.474161386489868,8.24229621887207,4.341206744044522,-0.6685543653822553,0.1281684534670645,,
4.517091999999991,-157.86863695759286,-14.564136036859983,-133.50571155157505,-2.6090285778045654,4.923222541809082,8.88561725616455,4.365188367354367,-0.40875344619225973,-0.39862787190588045,,
4.526597999999979,-137.01285723387585,-16.527534168893762,-130.0643303400341,-1.5208659172058105,4.4685211181640625,8.692341804504395,4.365188367354367,-0.03770444109270193,-0.7807350699760893,,
4.536102999999969,-115.58936221316533,-21.1871143127372,-128.95472121981837,-0.23336805403232574,3.6422359943389893,8.39383316040039,4.365188367354367,0.3737136299117629,-0.8867871375018518,,
4.545546999999999,-92.56919665825211,-25.387234385739646,-132.08070104975482,0.33443498611450195,3.466681957244873,8.031641960144043,4.365188367354367,0.7552879030195309,-0.6848085767367063,,
4.555047000000002,-68.94669380135753,-25.999131527517186,-137.12003672684838,0.8662459254264832,2.447270631790161,7.667769432067871,4.296707509680696,0.8710658511098417,-0.27339050573224155,,
4.564731999999992,-47.95109027323614,-22.963656488583492,-139.63169357608086,1.4251554012298584,1.811793327331543,6.638505935668945,4.001067386766542,0.6998637069256651,0.27485604937895436,,
4.574244999999962,-30.20211403733471,-18.80300024200572,-137.8173560631361,1.3126813173294067,1.724565029144287,3.8684258460998535,3.6887733587761073,0.42287595769694675,0.7869969382847714,,
4.583758999999986,-15.277967727980217,-16.513962839837863,-132.52825329705635,0.878369152545929,1.5085349082946777,2.3750109672546387,3.3143935726612925,0.02078407353519965,1.1063522220275506,,
4.593267999999966,-2.1091637264515763,-17.10693641950804,-126.117940635443,0.09644460678100586,1.6158121824264526,2.454803466796875,3.0126248126790673,-0.3154915777650819,1.1946845345521488,,
4.602788999999973,9.022695755537628,-18.854560217896342,-120.83820326664247,-1.460742473602295,1.353877067565918,2.7334394454956055,2.560837675769695,-0.3007029100573437,1.021617152999429,,
4.612291999999968,18.634900674814656,-20.05664779683131,-117.79549772701296,-2.6034154891967773,0.2917473316192627,1.7751370668411255,2.134231243335661,-0.10818376737552639,0.6109984694386256,,
4.621801000000005,29.495059039617345,-19.823533882616683,-116.95983296325625,-2.4736862182617188,0.384429007768631,2.6716513633728027,2.2386845359741008,0.09526033703633173,0.11964165406800822,,
4.631304,40.07745655991153,-17.214790736510007,-117.17856514559914,-1.2134382724761963,0.5224834680557251,4.446123123168945,2.1117151636725287,0.3942312409657421,-0.3377411949469943,,
4.640827000000002,47.42010963334723,-12.870016204902186,-117.26678397609196,0.8881592750549316,-0.6334800720214844,3.7127010822296143,1.471938746262088,0.6054027573329949,-0.6195252688376819,,
4.650154999999984,52.64950817212499,-8.898407681635542,-116.95097140885896,2.936042070388794,-1.0443235635757446,2.5265920162200928,1.065583462400813,0.5469142427050934,-0.5750260344738569,,
4.659662999999966,55.98960808531376,-7.042128509202803,-116.44045230358772,4.279630661010742,-1.128725290298462,1.5814425945281982,0.689871363879896,0.28737978599631825,-0.24807657001629327,,
4.669162999999969,57.181520337986626,-8.323602477869116,-116.45807371490719,3.814358711242676,-0.9218838214874268,1.1406034231185913,0.24514548272286768,-0.15588055151399738,0.20717457914894521,,
4.678676999999993,57.40334512781391,-11.96307964502396,-117.3859414205763,2.4964520931243896,-1.1316876411437988,0.2990267872810364,0.018652373685435583,-0.5593047480818469,0.5093430328530016,,
4.688372999999956,57.935033006400204,-16.374517984953766,-119.09544949507703,0.4617557227611542,-0.09845370054244995,1.2165764570236206,0.029577335415476424,-0.7644808586216384,0.5638346102625955,,
4.697693999999956,57.43832854496225,-19.754917776755935,-121.55253976125371,-1.739827275276184,0.16004568338394165,-0.32024580240249634,-0.24501225148225741,-0.7687442583211664,0.31695712141179466,,
4.707218000000012,57.70762195276161,-21.14471778212543,-124.94989100683543,-2.9313178062438965,0.06406819820404053,-2.6341307163238525,-0.17679785628980726,-0.698797857000783,-0.1119142421126135,,
4.716726999999992,60.07524900942402,-20.57449512921273,-129.70657623512434,-3.3687806129455566,0.17089611291885376,-3.9851584434509277,0.16427411967244335,-0.6638912719608965,-0.5318591125161346,,
4.726233999999977,63.41360985012423,-18.630711528047623,-134.81664884276748,-2.9168941974639893,-0.521459698677063,-5.400836944580078,0.3477335379927633,-0.6368453301170149,-0.7826003073446328,,
4.735821999999985,67.9267276441473,-16.264946307352815,-138.81707767228707,-2.413412570953369,-1.396930456161499,-5.780348777770996,0.6828101081275525,-0.4757687602192176,-0.7346370607249415,,
4.745331999999962,73.64833959758448,-14.64023914198121,-140.9353825220879,-2.023005962371826,-2.016179323196411,-4.885805130004883,1.0526600320616182,-0.24541194520408816,-0.4311362946147825,,
4.754767999999956,80.4948178950598,-14.438001258257056,-141.06433398920507,-1.8365888595581055,-1.9706649780273438,-3.998140811920166,1.3873369084745764,0.03330781015256354,-0.036372128686599385,,
4.76428199999998,88.22271712290272,-15.98951130070889,-139.73453425897145,-1.9095699787139893,-1.4625065326690674,-1.8159911632537842,1.6451393590554182,0.2913767232146259,0.3372082699845533,,
4.7737789999999904,96.02472377403501,-18.815709764577743,-137.5886377891725,-2.2672526836395264,-1.1609011888504028,-1.611923336982727,1.7262771845870633,0.5128070451088683,0.5421179180431241,,
4.78329199999996,104.86510239951878,-21.74320297356613,-135.71083382769174,-2.0509297847747803,-0.7498456239700317,0.1508280485868454,1.9419785631350643,0.5361225122156626,0.49055742792695584,,
4.7927949999999555,114.57856365585889,-23.53340819505863,-133.54666552757934,-1.36655855178833,-0.2815043330192566,1.4140650033950806,2.118110263221821,0.48642725946803794,0.1975819298250069,,
4.802306999999985,123.53408474669851,-23.485474917963266,-131.09723023349042,0,-0.41769328713417053,2.0686023235321045,1.9952710593791665,0.37717764216762956,-0.23222205238367297,,
4.811816999999962,131.117855769847,-21.933484344172562,-127.80945247273634,1.4639790058135986,-0.5625873804092407,1.6016960144042969,1.7789035246281135,0.2829831550561798,-0.6209908124843947,,
4.830826999999999,140.67423145992737,-17.66463910530909,-119.93845523206835,2.9468343257904053,-0.7511425614356995,0.3115934729576111,0.9836462494255065,0.13296477812903365,-0.8305635539643245,,
4.840351999999996,141.75851438224652,-15.555130265485035,-117.56909416551973,2.773742914199829,-0.7392114400863647,-0.06412655115127563,0.3595911184070759,-0.05622358353752725,-0.6240551310184306,,
4.850038999999981,140.12605880443752,-13.91424537774377,-116.59733756295118,2.0709071159362793,-0.842786431312561,-0.4528049826622009,-0.2703261871982057,-0.14828637079921286,-0.35825880600097343,,
4.859368999999958,136.37598668819808,-12.786809570428346,-116.86115576563405,1.2597233057022095,-0.12837040424346924,0.6784235239028931,-0.7559540592225822,-0.21436906614189893,-0.1171102604964134,,
4.868876999999998,129.34574854491638,-12.307818506046752,-117.7148330803072,0.7342568635940552,0.9010332226753235,2.488306760787964,-1.4375650861846423,-0.19931393595294022,0.03810413481453269,,
4.878386999999975,118.63187152292662,-12.61029030674758,-118.48390844513345,0.43044522404670715,1.7321202754974365,3.889343500137329,-2.171136296984702,-0.1025880552698957,0.1293675346325568,,
4.887900999999999,104.38698889162251,-13.347713372451036,-119.3558891973208,0.5545418858528137,1.541245698928833,3.5351622104644775,-2.8840566654901716,-0.11604441057153136,0.19518376749402233,,
4.8975979999999595,89.50491797950073,-14.469074512045783,-120.80410432974162,1.1260217428207397,0.9788816571235657,3.379477024078369,-3.0420689168539328,-0.26459724385196476,0.2526064321970419,,
4.907096999999965,75.32985727899275,-15.936850604752888,-122.48018057389548,1.3574976921081543,1.291377067565918,3.1657888889312744,-2.918830019289448,-0.3723813175056604,0.24421286403859588,,
4.916604000000007,61.460149612398666,-17.27957552642372,-124.43309715850894,0.6220695972442627,1.0560178756713867,0.850777804851532,-2.881525271918577,-0.46018070506781783,0.10725114869125461,,
4.925938999999971,49.08839664938235,-18.315528867979882,-127.44403741271658,-0.7859480977058411,0.7755382657051086,-1.554434895515442,-2.653966312956263,-0.6028713637614,-0.1618759573414588,,
4.9355339999999615,39.480942245425794,-19.196814613706326,-131.94247774509404,-2.5892786979675293,0.6014159321784973,-4.187301158905029,-2.2055099570621475,-0.7345038294843312,-0.49308882149855066,,
4.9449730000000045,31.82991386729691,-20.68701775326967,-138.04757453271256,-5.092282772064209,1.9997413158416748,-3.618347644805908,-1.9406462507289624,-0.9247580410757741,-0.7656799397871308,,
4.954546999999991,20.403180561502165,-23.58660737268991,-143.97485491204196,-6.166645526885986,1.0963939428329468,-3.637834072113037,-2.7261776453670206,-1.0188192969466137,-0.7383675354620285,,
4.963976000000002,6.329582564041593,-25.687891040940475,-144.9713328616002,-4.727444648742676,1.327547550201416,-0.39397889375686646,-2.894049008535941,-0.46417764228612546,-0.08446860654690114,,
4.97349399999996,-10.926664541660102,-23.707446863738415,-139.72639792615539,-3.420650005340576,2.6313908100128174,1.7467117309570312,-3.007428794295267,0.3470673817897121,0.9667258818680042,,
4.982995999999957,-29.395127622765735,-17.80933705168264,-134.3776718789111,-0.9144315719604492,5.948092460632324,6.924375534057617,-3.3058667732622364,0.7535558968915975,1.346701380088449,,
4.992508999999984,-50.64824960020413,-10.733431600759777,-132.81287809628225,1.4607325792312622,5.642735004425049,5.369013786315918,-4.1657412001608165,0.882790200283544,1.1451225130451346,,
5.002009999999984,-70.39154786018254,-5.70730747425428,-134.83040134908558,3.326542615890503,3.888319492340088,5.374340534210205,-4.001067386766542,0.8358928035887346,0.6777473209843629,,
5.011521999999957,-88.38215750761039,-5.253853868019658,-138.41572113994823,2.317429780960083,5.402532577514648,6.536852836608887,-3.662526804375887,0.7103889749338752,-0.04756355289786074,,
5.021117000000004,-109.25467127762607,-9.723968415161904,-138.47773981923262,0.4632773995399475,4.897888660430908,3.123107671737671,-4.171470143507058,0.1386937214752746,-0.8926493120887028,,
5.030621999999994,-129.50764621719225,-15.316756938396507,-132.5881333760647,-0.21539407968521118,2.4176502227783203,1.481329083442688,-3.785366008218541,-0.4679081170232126,-1.5521439531094612,,
5.040133999999966,-146.30500375650382,-18.21155388224832,-123.23034135195584,-0.6722285151481628,2.1038782596588135,1.8898234367370605,-2.807715164620496,-0.7867304758035508,-1.728275653196217,,
5.049586999999974,-161.94013597421915,-16.696187134353803,-114.41488570994869,-0.4208071529865265,1.017913579940796,0.22989392280578613,-2.5877503863729663,-1.0209509967963777,-1.3906676894898329,,
5.0592849999999885,-175.24333081154788,-12.532576932562666,-110.02668901820873,0.7309133410453796,0.1028955802321434,0.32327669858932495,-2.432003066099579,-0.9985681483738549,-0.6750826961721579,,
5.068590999999969,173.07798630266922,-9.578050310817467,-110.98352535588494,1.1441084146499634,1.037739872932434,1.35072660446167,-2.367119451922386,-0.6078009196639794,0.1720015316278381,,
5.078094999999962,160.00613343520604,-9.24119549738677,-115.38516668587498,1.3690214157104492,1.76413893699646,1.5773181915283203,-2.7526906622484613,-0.28018529900336453,0.8266998479866271,,
5.087604999999996,146.14340377603168,-11.650714057324585,-120.44827899575198,1.6011853218078613,2.0052099227905273,2.686065673828125,-2.9498728983516376,-0.03317457891195329,1.1051531408620583,,
5.0971079999999915,131.42184734809467,-16.034973378269722,-123.13236114991554,1.3080271482467651,3.005033493041992,4.768804550170898,-3.0668499276074406,0.30576569720053326,0.9687243504771581,,
5.106612999999982,113.48113027136108,-19.453394075313042,-122.42537858789845,0.6548669338226318,3.0616862773895264,4.69510555267334,-3.540486987976894,0.47137212927907923,0.5021485458600479,,
5.116318999999976,94.33272735583198,-19.272943150411237,-120.7864889352217,0.3067227005958557,2.5199086666107178,4.275579452514648,-3.717684537988532,0.28138438016885675,-0.1151117918872596,,
5.125827999999956,76.14182019315386,-15.809325713876929,-121.11833183376454,0.15623101592063904,2.4818103313446045,3.6258583068847656,-3.6541332362174406,-0.01732006127933304,-0.704526800347024,,
5.135352000000012,59.02228598151291,-11.484152989525317,-125.05917699799389,-0.30746227502822876,1.4928650856018066,0.4543873071670532,-3.6041715209885954,-0.39209954111597795,-1.102355284809243,,
5.144668999999965,44.825809232339516,-9.173023263520815,-132.03816340041845,-0.8777759075164795,0.20630252361297607,-2.1792349815368652,-3.08243798275884,-0.8112450240758377,-1.220264932749318,,
5.154260999999963,34.06444852072004,-9.894941477265304,-139.46131943451573,-2.02821946144104,-0.044338881969451904,-3.402191162109375,-2.3911010752322315,-1.056257275558095,-1.0469310887153773,,
5.163685999999984,23.85159940056341,-13.401479633030599,-145.20103020568862,-4.300019264221191,0.695806622505188,-2.233123779296875,-2.2678621776677463,-1.1724349173702366,-0.6512343041029224,,
5.173205999999993,9.114520895235511,-18.487642071562426,-147.3356159482265,-5.305726528167725,1.879094123840332,1.1285736560821533,-3.059255746892656,-1.108084228155484,-0.11058192970651096,,
5.182712999999978,-12.463844572385293,-21.542160536966175,-143.80065898104186,-3.6139039993286133,2.573674201965332,3.319589376449585,-4.069548244440213,-0.6456385919972917,0.6451056670348507,,
5.192220999999961,-36.10692958491979,-18.4582424227576,-136.82991736708286,-1.8348281383514404,5.203334331512451,6.628372669219971,-4.243681475917816,0.011191424211261349,1.4522205226517704,,
5.201729999999998,-59.00886308571085,-10.539150449289917,-132.418231812903,0.5749297142028809,7.5613861083984375,7.480499744415283,-4.348001537315644,0.42887136352440813,1.7526569702278936,,
5.211238999999978,-80.85160494498308,-2.216005484890728,-132.6407786556383,2.7341432571411133,5.667216777801514,7.680258750915527,-4.363722823707655,0.6054027573329949,1.5546753466810554,,
5.220828999999981,-102.27636177750145,2.097571053701394,-137.95208057023035,2.598118782043457,6.0862956047058105,8.20118522644043,-4.278588060957702,1.0338744271355722,0.8921163871262618,,
5.230333999999971,-124.04706813493539,-0.43661305752545193,-142.4184383933469,0.31323862075805664,6.384609222412109,6.681918621063232,-4.335744263179501,1.0160214408937982,-0.12030781027105951,,
5.2398450000000025,-145.95919967555741,-6.460991577019041,-139.93397922951868,-1.0187592506408691,4.893746376037598,4.176956653594971,-4.345070450022219,0.4932220527391609,-1.2164012267716204,,
5.249363999999957,-166.80969150718806,-11.058618098568466,-131.0009669704388,-1.3127775192260742,3.4400789737701416,2.802377223968506,-3.8840903575107397,0.12270597260204408,-2.0025987776127305,,
5.258785999999986,173.7752243955326,-9.838830119297011,-119.70744398856215,-0.9304744601249695,3.176689624786377,2.328556537628174,-3.457217462595485,-0.3911669224317062,-2.218033693679511,,
5.268288999999982,154.6896843551823,-3.2854461559188906,-111.72008253529964,0.46044906973838806,1.8190152645111084,2.2982263565063477,-3.620558963583657,-0.8441531405065704,-1.898678409936732,,
5.277809999999988,136.2351660575245,3.4226046177019733,-109.44657456586154,1.4280608892440796,1.4794998168945312,4.276778697967529,-3.683310877911087,-0.8636049016356675,-1.1465880566918472,,
5.287327000000005,115.82229166422175,6.811971599397965,-112.20684688907782,1.346680998802185,2.653292655944824,6.960600852966309,-4.028379791091645,-0.8604073518610214,-0.23115620245879098,,
5.296819999999968,93.56514433710852,5.347305526585584,-116.62145748580357,1.7114143371582031,3.290929079055786,8.042323112487793,-4.353064324458834,-0.792059725427961,0.5045467081910325,,
5.306516999999985,71.66423162551632,0.47605082262935183,-117.61403901726833,1.4579137563705444,4.168415069580078,7.676558494567871,-4.365188367354367,-0.3357427263378405,0.9424777960769379,,
5.316009000000008,49.730541513043605,-3.6880842606309514,-114.63659965937191,0.5690897107124329,5.226010799407959,7.346041679382324,-4.365188367354367,0.1008560491419624,1.0197519156308852,,
5.325530999999955,27.605498904175366,-4.2483892601298425,-110.57611419984462,0.2099246084690094,4.925351619720459,7.1073079109191895,-4.365188367354367,0.4100857585983623,0.70239510049726,,
5.335047999999972,5.688085955663331,-0.7483620663454749,-108.85871465514359,-0.34392690658569336,5.078561305999756,6.968438148498535,-4.365188367354367,0.7628820837343153,0.12403828500814663,,
5.344557000000009,-16.23416489277617,3.4050906440944275,-112.01193048469148,-1.1591322422027588,5.776429176330566,5.818923473358154,-4.365188367354367,0.8797258817495082,-0.5606370604879495,,
5.353884999999991,-38.528669564929096,3.907618749734415,-118.81563953667751,-1.5388259887695312,5.669889450073242,4.9621195793151855,-4.365188367354367,0.7071914251592291,-1.1729678423326777,,
5.363392999999974,-60.61728961274565,-0.1466854431550366,-125.49430197133164,-1.9228404760360718,5.974681854248047,7.098360061645508,-4.365188367354367,0.4830964784527816,-1.498185300662308,,
5.372918999999968,-82.33520568897268,-6.329899114263147,-128.0218375837769,-2.072517156600952,6.859584808349609,7.858092308044434,-4.365188367354367,0.0750091884635731,-1.3476339987727208,,
5.382499999999993,-104.33923951141483,-8.879994271105765,-126.79560331141782,-0.6972880959510803,4.0738067626953125,8.235831260681152,-4.365188367354367,-0.22609341531560131,-0.5322588062379654,,
5.392007999999976,-126.0553492860314,-8.517710591473657,-127.60758672096836,-0.3543168902397156,4.346974849700928,8.573168754577637,-4.365188367354367,0.10352067395416749,0.12976722835438756,,
5.401530999999977,-147.4486368389758,-6.386404803570882,-129.84032092488147,0,3.53072452545166,8.549827575683594,-4.332813175886075,-0.01891883616665609,0.6137963254914409,,
5.411007999999981,-166.1961197367039,-5.235973866406992,-133.5710578018461,1.2800086736679077,2.0348732471466064,6.378016948699951,-3.820272593258428,0.06941347635794241,0.772208270577033,,
5.420534999999973,179.41150596454685,-7.178038883405489,-136.9761739757975,-0.37629133462905884,1.8266429901123047,3.570456027984619,-2.946808579817602,0.4537856055185257,0.6251209809433125,,
5.429963999999984,167.20592070024296,-8.677503994207695,-137.44836265729265,-1.7271348237991333,2.031287431716919,2.3855576515197754,-2.449323127378913,0.2761883617850569,0.12310566632387485,,
5.439478000000008,155.6135337215589,-8.626958563202116,-134.44009919388162,-1.5147145986557007,1.3103307485580444,1.0944786071777344,-2.22256355586026,0.168803981853192,-0.5735604908271442,,
5.449164999999994,146.17363407133493,-7.3830432942316575,-128.66528158205568,-1.4205009937286377,0.7514545917510986,0.1889965534210205,-1.7201485475189915,0.32801531438244574,-1.127535989284581,,
5.458493999999973,137.9652221947233,-4.27266220077134,-122.39160418180207,-0.15137386322021484,1.0042409896850586,1.3153597116470337,-1.5067121000613646,0.26579632501745704,-1.3742802468947717,,
5.468004000000008,128.50767721712793,-0.5042454204142485,-117.1422862838145,1.6198980808258057,0.7215931415557861,1.689453363418579,-1.8405895890306612,0.23701837704564216,-1.2752894351213526,,
5.47751999999997,117.63355735406347,2.277878762756434,-113.5376977214703,2.5000038146972656,0.6805765628814697,2.266235828399658,-2.180062790105589,0.28951148584608233,-0.8669356826509239,,
5.487017999999978,104.92824691984845,3.5339485205462426,-112.24287056477388,2.805673122406006,1.159157395362854,3.707172393798828,-2.549646251558434,0.13856049023466432,-0.33414395145051745,,
5.496541999999977,89.97016224554963,3.0199755386071967,-112.22877274940387,2.589315891265869,1.619997262954712,5.332003116607666,-2.9879770331661697,0.004529862180748642,0.09685911192365478,,
5.506219999999985,73.36055312354175,1.5282889543715694,-111.50816749040789,1.5760743618011475,2.0609426498413086,6.131577014923096,-3.3241194532258413,0.088065850043378,0.312427259231046,,
5.515743999999984,55.685190814749504,0.5220964915780358,-110.033369499492,0.2980095148086548,2.4755771160125732,6.231540203094482,-3.5371562069616376,0.16893721309380227,0.3049663097568717,,
5.525253999999961,37.581039725354344,0.7675552303304582,-108.91102429325494,-0.37846606969833374,2.590160369873047,5.554806232452393,-3.620558963583657,0.18625727437313533,0.1139127107217673,,
5.5347509999999716,19.94835880834188,2.175883101152954,-109.00772929727313,-0.40025120973587036,2.6002016067504883,4.501650810241699,-3.523166926697561,0.22715926524048335,-0.1584119450855922,,
5.544268999999986,2.9821563161460913,3.7948277506686594,-110.79635199198887,-0.08411043137311935,2.5791335105895996,3.186924934387207,-3.371283312401871,0.23581929588014985,-0.4215436452908442,,
5.553778999999963,-13.16497307351994,4.5005800727938485,-113.97265712844934,0.23098072409629822,2.6324377059936523,2.158592462539673,-3.1795635571637155,0.1859908118919148,-0.6263200621088049,,
5.563113999999985,-28.725418418320864,3.913991528437286,-117.69456953417404,0.30372896790504456,3.0159335136413574,2.2585947513580322,-3.0531271098245845,0.14482235854334627,-0.743297091364608,,
5.57262099999997,-44.8303700134305,2.161163480174254,-121.04563592734065,-0.04597596451640129,3.6186740398406982,2.864516258239746,-3.1811623320510383,0.10884992357857765,-0.7542220530946488,,
5.582133999999996,-62.57471272004675,-0.25406191719361343,-123.29943706453007,-0.7522948384284973,4.466167449951172,5.865228652954102,-3.5375559006834685,0.06608269534268607,-0.6645574281639478,,
5.591631000000007,-82.67194391399786,-2.4163225149332748,-124.31989539241991,-1.511290431022644,4.892284393310547,7.826131820678711,-4.021185304098691,0.05435834616898369,-0.48176416604667904,,
5.6012249999999995,-104.29233258954007,-3.4369519194247586,-124.69725522288425,-1.9285109043121338,4.43597412109375,8.237563133239746,-4.325485457652512,0.07660796335089615,-0.2057090355022324,,
5.610726999999997,-125.56345628338826,-3.2802031791217185,-126.11925352176443,-1.4189914464950562,3.452637195587158,8.571747779846191,-4.268062792949492,0.2342205209928268,0.14402297109968473,,
5.620237999999972,-144.6270809681728,-2.8439718927889097,-129.15565980104378,-0.4834555685520172,2.6528453826904297,8.06368637084961,-3.8410566667936274,0.3566600311136504,0.48882542179902255,,
5.629759999999976,-160.58298640321215,-2.973203881052744,-132.84789552691268,0.8853274583816528,2.0538554191589355,4.621390342712402,-3.2236630978057095,0.3521301689329018,0.640575804854102,,
5.639267999999959,-173.62666704725154,-4.910979236943768,-135.87503288346386,1.0236035585403442,1.8039425611495972,3.500443935394287,-2.6450398198353757,0.5025482395818788,0.4988177648447916,,
5.648694999999975,175.17387116975422,-7.116978410061573,-136.3682415772047,-0.038757726550102234,1.2736564874649048,0.8221238851547241,-2.2450796355233926,0.4320689132990542,0.08726646259971647,,
5.658214999999984,165.49660669601988,-7.463941294035051,-133.89281988421854,-0.41954928636550903,1.134468913078308,0.8952764868736267,-1.8671026059121016,0.1394931089189361,-0.4785666162720329,,
5.66771,156.89929185522922,-6.325476669505948,-129.08788291442536,-0.4854644536972046,0.8925578594207764,0.7983378767967224,-1.5975758061575578,0.08047166932859351,-0.983379786944286,,
5.677403999999967,149.07267411352387,-4.064201801941899,-123.40199440200232,-0.3690526485443115,0.6659271121025085,0.6600128412246704,-1.4552848411858061,0.10018989293891113,-1.2214640139148103,,
5.686736999999994,141.08527354576643,-1.02785627480568,-118.7130775619615,0.5461868047714233,0.4114497900009155,0.8934264183044434,-1.5490796345754252,0.02691271060327134,-1.1228728958632221,,
5.696238999999991,132.06823726014895,1.2047409700461948,-115.77773705836975,1.6177642345428467,0.5218096375465393,1.6425318717956543,-1.798488516997821,0.06768147023000912,-0.7399663103493516,,
5.7057570000000055,120.92457574496719,1.6337507720992586,-114.56828746014396,2.297226667404175,0.7849329710006714,2.1976523399353027,-2.229891274093824,0.13203215944476188,-0.21849923460081683,,
5.715262999999993,107.96829008314666,0.35163262686274394,-114.68782051322391,2.611814022064209,1.1101455688476562,3.1453614234924316,-2.5864180739668643,0.07301071985441929,0.23901684565479597,,
5.724778999999955,93.40245837010293,-1.960499654703662,-114.57838157714049,2.3828485012054443,1.8464199304580688,4.909692764282227,-2.9085712137624586,0.09605972447999325,0.4469908122474027,,
5.73448099999996,76.85623267552526,-3.6418400203861596,-113.27930739082727,1.3301993608474731,2.1940321922302246,4.97040319442749,-3.292810111682432,0.2194318532850886,0.35359571257961453,,
5.743970999999988,59.53034859517809,-3.2449090594309578,-111.89789257076718,0.05367562919855118,2.4307363033294678,4.6571245193481445,-3.4453598821811724,0.2752557431007851,0.02371516082862524,,
5.753480999999965,42.07238420756736,-0.7589719993924575,-112.02341312717425,-0.8404081463813782,2.5351009368896484,3.694728136062622,-3.489059729101336,0.2845819299435029,-0.40835375247042904,,
5.763005999999962,24.872366798164485,2.354923472045741,-114.4323043414715,-1.3416523933410645,2.2427167892456055,2.4270734786987305,-3.429105670826721,0.2432802453543241,-0.7540888218540385,,
5.772521999999981,8.201865340043797,4.131347601012414,-118.45408854470594,-1.149166226387024,2.307936906814575,2.089400053024292,-3.284016849802155,0.10072281790135217,-0.8799923442307288,,
5.782022999999981,-8.65494064166775,3.913911201355713,-122.22241407240226,-0.6605604290962219,2.737774133682251,2.059792995452881,-3.3143935726612925,-0.05235987755982988,-0.7604839214033308,,
5.791345999999976,-26.823008465344287,2.2300877260787884,-124.09283885074267,-0.5937737226486206,3.6009931564331055,3.282409429550171,-3.6104333892972775,-0.21969831576630913,-0.46590964841405885,,
5.800857000000008,-47.266208439262556,0.30916407692699355,-123.54352938928295,-0.8444552421569824,4.843293190002441,6.656379699707031,-4.08860031184748,-0.38690352273217804,-0.14988514568653596,,
5.8103739999999675,-69.05147262321037,-0.1863878591747711,-122.13021018291688,-0.9641255736351013,5.687553882598877,7.633112907409668,-4.355196024308598,-0.3061653909223641,0.06022052075583488,,
5.819958999999983,-90.88817116464924,0.6872181067766832,-122.06349997241679,-1.135048270225525,5.67142915725708,8.006646156311035,-4.365188367354367,0.0057289433462409285,0.17053598798112535,,
5.829457999999988,-112.7513079873604,1.4190190885080831,-123.37505956236613,-0.8916962742805481,5.359241008758545,8.377737998962402,-4.365188367354367,0.21663399723227325,0.19331853012547878,,
5.838976000000002,-134.62238676195702,0.830633483240788,-125.21354561751018,-0.14971309900283813,4.6587910652160645,7.890183925628662,-4.363989286188875,0.36212251197867085,0.10165543658562393,,
5.848478,-155.78254957794528,-1.4341896132115852,-126.40826574041212,0.14381559193134308,3.887749195098877,6.172130107879639,-4.2296921956537386,0.5001500772508941,-0.06781470147061938,,
5.8579879999999775,-175.72076562021945,-4.168034877635568,-125.71315547093504,0.44214752316474915,3.3886609077453613,4.98909854888916,-3.9768193009754764,0.4872266469116995,-0.27592189930383637,,
5.867504999999994,164.845809304244,-6.1795319690377,-123.19831217186233,1.0059559345245361,3.282042980194092,4.872653961181641,-3.836926498334709,0.4388637065701772,-0.46830781074504335,,
5.876935000000003,144.37963835290947,-6.697669214311333,-119.76081452208481,1.5757365226745605,3.3073337078094482,5.366534233093262,-4.011725886015363,0.37717764216762956,-0.5814211340231492,,
5.886443999999983,122.88992839895418,-5.465207690506675,-116.81929158378814,2.131244659423828,2.943485975265503,5.800325393676758,-4.231690664262893,0.2432802453543241,-0.5911470145876977,,
5.89596499999999,101.1427535675964,-3.2860312851519193,-115.33429438124999,2.2330987453460693,3.348076581954956,7.64752197265625,-4.323486989043358,0.10018989293891113,-0.5238652380795193,,
5.90564599999999,79.3110088051766,-1.1672315784696259,-115.53768153863734,1.9379703998565674,3.5598325729370117,7.769103050231934,-4.365188367354367,-0.05435834616898369,-0.43180245081783375,,
5.915165000000002,57.48588207524833,0.07651537292326462,-116.86768021953732,1.2586675882339478,3.2853989601135254,7.448473930358887,-4.365188367354367,-0.1685375193719715,-0.33667534502211227,,
5.924765999999977,35.64469552410918,0.28786286666895383,-118.41252036149145,0.35980087518692017,3.404872417449951,7.093989372253418,-4.365188367354367,-0.20837366031443752,-0.24994180738483682,,
