timestamp,Roll,Pitch,Yaw,Acc X,Acc Y,Acc Z,Gyro X,Gyro Y,Gyro Z,Acc Magnitude,Gyro Magnitude
0.0,-32.470921552447884,-14.491503154896844,42.15942344366356,-0.8741774559020996,-0.4576178789138794,0.9600306749343872,0.6167274127848665,-0.03397396635561481,-0.1915865239975455,,
0.009512999999969907,-29.73066989208892,-15.83293534153436,41.612138578565265,0,-0.5176272392272949,0.27481985092163086,0.5301271063882013,-0.19305206764425825,-0.22449464042827827,,
0.018921999999975014,-27.614922809779653,-18.038445892959405,41.4164098727981,0.7560958862304688,-0.154811829328537,0.9001572728157043,0.4191454829598596,-0.38117457938593713,-0.24994180738483682,,
0.02851999999995769,-27.258394688914656,-21.0284107541931,41.558656400875115,1.2061376571655273,-0.47378814220428467,0.2670755982398987,0.08233690669713706,-0.5482465551111959,-0.270992343401257,,
0.04755099999999857,-29.100312472808106,-29.3197484637102,43.70117342045518,1.743096113204956,-0.3694092035293579,0,-0.1450888210245668,-0.9085038297213233,-0.2324885148648935,,
0.05706099999997605,-31.822480695317854,-34.38324584310154,46.19145655109332,1.4369754791259766,-0.5325111150741577,-0.42542731761932373,-0.29950382889185134,-1.0799724363867202,-0.18865543670411988,,
0.06657099999995353,-35.38166188784486,-39.904639802285885,50.085436634477354,1.175715446472168,-0.5161885619163513,-0.23908323049545288,-0.26886064355149286,-1.2509081180896762,-0.13736140906917205,,
0.07606999999995878,-40.10636358101616,-45.14931330577897,55.31439745007446,0.8223031759262085,-0.36208394169807434,-0.5388043522834778,-0.2780535991536004,-1.2820842283924756,-0.07873966320066021,,
0.08558399999998301,-46.67281786366103,-49.7669806500563,61.95431648861901,0.3664390444755554,-0.3021802008152008,-1.1503955125808716,-0.3790428795361731,-1.2674287919253477,-0.021450229738250916,,
0.10443799999995917,-66.7719373244313,-56.43053852616633,81.14972781265966,0.23783361911773682,0.06052619218826294,-1.4842607975006104,-0.5716952534586006,-1.2830168470767478,0.07620826962906538,,
0.11393599999996695,-78.37054840204432,-57.50625059672977,91.72625553236573,0.16611027717590332,0.2512901723384857,-1.8610248565673828,-0.601805513836518,-1.1365957136460783,0.12270597260204408,,
0.12344699999999875,-89.18300958537093,-57.271077963347956,101.41400973658399,0.137822687625885,0.5433667898178101,-1.6972744464874268,-0.5819540589855902,-1.006961716532301,0.15041807064897697,,
0.13296099999996613,-99.0662627828353,-56.24957758564812,109.75651085984359,-0.046383440494537354,0.7763482928276062,-1.2667951583862305,-0.6224563561311075,-0.9069050548340002,0.1348300154975772,,
0.1424639999999613,-107.87468374008877,-54.912080614153965,116.74286205201078,-0.4550631046295166,0.8836205005645752,-1.1484105587005615,-0.6381776425231175,-0.8181730485875709,0.07660796335089615,,
0.1519959999999969,-115.55370422615694,-53.44047807533611,122.83895043609449,-1.019284725189209,1.2479825019836426,-0.28859713673591614,-0.5641010727438162,-0.7678116396368948,0.010525268008210078,,
0.16157899999996062,-122.0891076101686,-51.96227351866293,127.79514458839631,-1.4150333404541016,1.3219456672668457,-0.20626574754714966,-0.5266630941323348,-0.6708192964726296,-0.030243491618527695,,
0.1805180000000064,-129.83007884533595,-49.688102317500885,131.8476962948115,-1.2628347873687744,0.9680736660957336,-0.4642634689807892,-0.41248392092934694,-0.2503415011066676,0.06967993883916293,,
0.199545999999998,-130.262144938881,-47.55294572569457,129.83198156645892,0.045973002910614014,1.1251168251037598,0.2988198399543762,-0.1020551303074547,-0.015454823910789482,0.27445635565712356,,
0.20922400000000607,-128.5951537763986,-46.45611009643707,127.86500994834074,0.4499172568321228,0.9299101829528809,0.07914125919342041,0.09179632478046512,0.027978560528153375,0.31189433426860497,,
0.21873299999998608,-125.38835173617099,-45.18006668304617,126.27883492052118,0.6779645085334778,0.8839036226272583,0.4040927290916443,0.4688407357074844,-0.02571362943777905,0.3043001535538205,,
0.2375729999999976,-114.0315973175463,-42.57723666285281,123.93313919713988,0.6484910249710083,0.605070173740387,1.5511868000030518,1.186157735153093,-0.023981623309845747,0.2727243495291903,,
0.24707100000000537,-106.19205631184931,-41.226257233240425,122.71649321212065,0.596014678478241,0.5262378454208374,1.8102291822433472,1.4731378274275804,0.003330781015256354,0.2887120984024208,,
0.2565829999999778,-98.19836551378191,-39.705350748532005,121.61913101932124,0.6786758899688721,0.30437737703323364,2.4175798892974854,1.5717289454791683,-0.03530627876171735,0.3016355287416154,,
0.26626099999998587,-90.89732760573538,-38.13654940892588,121.61707613591425,0.8131964802742004,-0.376525342464447,1.4535129070281982,1.5606707525085173,-0.15028483940836668,0.29923736641063087,,
0.27578899999997475,-83.10789281164355,-36.735352600653755,123.21057144528335,0.9465650916099548,0.23461681604385376,2.2065963745117188,1.8424548263992049,-0.35745941855731195,0.29417457926744117,,
0.28530399999999645,-76.30874079220241,-35.821705426744856,125.95873219855585,0.9691816568374634,0.46081843972206116,2.6476478576660156,1.773307812522483,-0.5226661569140271,0.273656968213462,,
0.2948030000000017,-70.84861031683657,-35.417032650523865,128.97714845225443,0.635763943195343,0,1.8894929885864258,1.5266967861529022,-0.5603705980067291,0.2410153142639498,,
0.3043159999999716,-65.57429200493044,-35.54461054847455,132.99343404736493,0.45021843910217285,0.17744261026382446,1.4451159238815308,1.5294946422057178,-0.6295176118834509,0.2142358349012887,,
0.3138349999999832,-61.29206750126904,-36.18704783410474,137.60167023866327,0.4403986930847168,0.4795072376728058,1.1550135612487793,1.4046569697539095,-0.7382343042214183,0.2142358349012887,,
0.3802159999999617,-73.31262311311063,-27.720078359851847,-163.26992802307598,-3.3610057830810547,0.445599228143692,1.8245726823806763,0.10392036767599823,-1.3327120998243724,1.2037442589136464,,
0.4469839999999863,-74.98067766429213,-15.5471884692644,-141.54327824468916,2.0221166610717773,-0.5234739184379578,-0.6392049193382263,0.3894349163037729,-0.22635987779682185,0.4517871369093719,,
0.47550300000000334,-62.51192355173979,-7.435478381219308,-136.66145459822266,0.09114925563335419,0.43000754714012146,0.09386205673217773,0.8794594192682877,-0.3065650846441948,0.5766248093611799,,
0.48503299999998717,-58.585418205607844,-5.9107263043683345,-135.1305894041189,-0.7981483340263367,0.5017266273498535,0.3041650652885437,0.8286983165957809,-0.1267029098203517,0.410485452320193,,
0.49434499999995296,-54.91880427374121,-4.861125269746816,-134.9577422788475,-1.4601800441741943,0.3752802312374115,-0.14362847805023193,0.7443629412894899,0.0747427259823526,0.18958805538839169,,
0.504035999999985,-51.31750322865643,-4.142269980088406,-135.6996312933978,-0.47362279891967773,-0.1817379593849182,0.48983728885650635,0.7163843807613366,0.19318529888486854,0.02118376725703041,,
0.5135479999999575,-46.84456243682703,-2.1251731040308464,-137.82675395391337,0.4148003160953522,-0.29085516929626465,0.2967088222503662,0.8778606443809647,0.5915467083095285,0.006661562030512708,,
0.5230599999999868,-42.00051462727845,1.1347522852324214,-139.92315827007405,1.0131304264068604,-0.31376034021377563,0.3838580250740051,0.9724548252142452,0.7835329260289047,0.11631087305275187,,
0.5420749999999543,-30.237978208764616,8.610639405845934,-138.55285051536532,3.1670427322387695,-0.5553754568099976,1.945732831954956,1.3101960201612393,0.5453154678177703,0.6440398171099686,,
0.5513919999999644,-22.548174449834647,12.676875971355674,-135.3882019774504,1.7247174978256226,0.23483283817768097,-0.18341457843780518,1.4392970923125756,0.46590964841405885,0.8649372140417702,,
0.5610810000000015,-15.892276772724003,14.25085129591332,-130.86647633180976,0,0.3796275854110718,0.8878322243690491,1.1356630949618063,0.006128637068071692,0.9010428802471488,,
0.5706019999999512,-11.534630856869398,14.754532474738626,-126.99303503947972,-1.9786198139190674,0.06675475835800171,0.6394941806793213,0.6802787145559578,-0.09605972447999325,0.7659464022683511,,
0.5799289999999928,-8.397134560250906,16.33927954780981,-124.92651887585248,-5.10518217086792,0.3219331204891205,-0.49669161438941956,0.5181362947332784,0.22809188392475513,0.463911179804905,,
0.5896319999999946,-6.6799794376587505,18.45068416332238,-125.28492095691479,-5.4901814460754395,0.5756658315658569,1.041822910308838,0.36492036803148614,0.4134165396136187,0.005595712105630674,,
0.5991309999999999,-7.537072192037666,22.78773525332088,-127.9986548845817,-3.5168745517730713,-0.3995080888271332,-0.03360515832901001,0.018252679963604822,0.9101026046086461,-0.3797090357392244,,
0.6086489999999571,-8.872669375799289,28.313982478056563,-131.91990183749522,-1.842170238494873,-0.487374871969223,0.2440696358680725,0.07047932628282444,1.1818943354535647,-0.5317258812755243,,
0.6181639999999788,-11.820122719529842,32.65410194717222,-136.10853077861813,-0.23042672872543335,0.062192633748054504,0.746587872505188,-0.1572128639200999,0.9727212876954656,-0.5601041355255085,,
0.6276969999999551,-16.795029076077714,35.6386109617928,-140.07267519740196,0.6871797442436218,-0.55204838514328,0.04625391960144043,-0.5561071983072008,0.7249111801603928,-0.4755022977379971,,
0.6371809999999982,-21.240490199662748,38.29889465430984,-143.63783420649432,0.4141537547111511,0.13208092749118805,1.1169013977050781,-0.47536906649738686,0.6682879029010349,-0.34333690705262493,,
0.6561949999999683,-33.61963669720256,41.55204718712856,-151.15821607955863,-0.37946826219558716,0.7364439964294434,0.33731162548065186,-0.8865206750206311,0.5020153146194377,-0.37398009239298347,,
0.6657159999999749,-41.65164069336231,43.20854338809829,-157.01651100978228,-1.0654656887054443,0.7291458249092102,0.2477811574935913,-0.8341607974608013,0.7636814711779769,-0.4676416545419921,,
0.6752239999999574,-49.8393778338087,44.26914951009033,-164.22524648931733,-1.3497698307037354,1.029632329940796,0.41159510612487793,-0.6588284848177068,0.8641378265981084,-0.5621026041346623,,
0.6942729999999528,-67.51727208300015,44.62665503023563,178.0068228579816,0.1957889199256897,0.724668562412262,0.6637303233146667,-0.45192036814998215,1.217733539177723,-0.6079341509045897,,
0.7130760000000009,-83.05006711146682,43.917348079272266,160.40573868473416,1.5301434993743896,0.4968406558036804,1.542165994644165,-0.28964471708669254,1.131133232781058,-0.2913767232146259,,
0.7416129999999725,-97.68136455243214,46.97439283691188,140.44227697075326,1.5417134761810303,-0.04884159564971924,2.3292860984802246,0.2531393571594829,0.6864073516240293,0.4296707509680696,,
0.7511240000000043,-98.4469352141001,48.8695117560931,136.0889932871044,1.0746610164642334,0.06612896919250488,2.095583438873291,0.5172036760490066,0.5279954065384372,0.4545849929621872,,
0.7798239999999623,-95.20973054888793,47.887050221943745,129.74716900167726,-0.735497772693634,0.5239882469177246,-0.45651179552078247,0.4854946407837661,0.20197856076514528,-0.36598621795636815,,
0.7893509999999537,-94.94875170512894,44.69889284146047,127.38483391313912,-1.20045804977417,0.3435245156288147,-1.60093092918396,0.37264777998688087,0.34320367581201466,-0.6144624816944921,,
0.8178749999999582,-99.71343698930367,35.95737096170925,115.60946100888474,-1.4481871128082275,-0.08257979154586792,-2.4282374382019043,0.11537825436848011,0.7592848402378384,-0.30856355325334867,,
0.8273759999999584,-103.05090929430112,34.585388398426616,110.25844959115165,-0.6600991487503052,0.1619240641593933,-1.9031034708023071,-0.031709035265240486,0.9142327730675641,-0.09859111805158807,,
0.8368889999999851,-107.62882423821556,33.359399800060004,103.94758555232781,-0.09078222513198853,-0.03318214416503906,-2.280151128768921,-0.17999540606445338,1.0959601852599508,0.04463246560443514,,
0.8464249999999538,-111.38468024944179,32.10212597994961,98.17998972408616,0.4909963309764862,0.26385217905044556,-1.5222442150115967,-0.09472741207389071,1.024814702774075,0.09539356827694198,,
0.8557279999999992,-114.46271565297607,30.56939355708831,93.64491564664885,1.3955888748168945,0.5598872900009155,-1.0609999895095825,-0.11817611042129546,0.8500153150934214,0.026379785640830326,,
0.8652359999999817,-117.45964522342727,28.284034812786196,89.82099524681442,1.4513695240020752,0.7061601877212524,-0.5188454389572144,-0.20610872922406318,0.8047166932859352,-0.11631087305275187,,
0.8747529999999983,-120.00942741873044,25.4070230315163,87.17908274731347,1.1337746381759644,0.9180186986923218,-0.519752025604248,-0.25740275685901104,0.6912036762859987,-0.27658805550688764,,
0.893970999999965,-124.02885068134069,19.289815960110534,84.11759445677754,0.5438904166221619,0.591835081577301,-0.15345990657806396,-0.22302909678156546,0.5642343039844263,-0.3605237370913478,,
0.9033729999999878,-125.1162615188994,16.715949751146,81.88355657239374,0.35598525404930115,0.7982326745986938,0.6188433170318604,-0.07620826962906538,0.6213905062062254,-0.19465084253158133,,
0.9223139999999717,-126.26915315968081,15.053775879546773,75.19919398891213,0.8087598085403442,0.5828198790550232,1.001286268234253,0.19092036779449423,0.6032710574832308,0.39103369119109593,,
0.9319249999999784,-125.38480631878309,15.961624395712978,70.91534070213007,0.7156938314437866,0.6910580396652222,1.5686898231506348,0.40702144006432645,0.5337243498846782,0.6128637068071692,,
0.950839999999971,-119.68713153843844,20.051425295828814,64.84607761376442,0.1560048907995224,0.3921847939491272,1.6128671169281006,0.9009096490065386,0.07887289444127048,0.5828866776698619,,
0.9603740000000016,-113.96145303033852,22.150273474684987,64.75098637187814,-0.5628008842468262,0.4690856635570526,0.8474158644676208,1.1313996952622782,-0.2516738135127701,0.3446692194587275,,
0.9793729999999528,-95.3401948407524,22.267083429469388,70.00209489625246,-2.255005359649658,1.344718098640442,2.2539541721343994,1.8757626365517681,-0.5810214403013184,-0.3031010723883282,,
0.9888809999999921,-85.08933347035169,19.18777444230607,71.39539614557216,-3.257115364074707,1.1073839664459229,2.615730047225952,1.9381148571573672,-0.3284150081042765,-0.6236554372965997,,
0.9983889999999747,-74.82351293185758,14.950746221354457,70.59984159303018,-2.789781093597412,0.773145318031311,2.3238346576690674,2.0854686092723083,-0.08273660041896783,-0.8553445647178317,,
1.0079059999999913,-64.48175332703948,11.001785546335809,67.44137658849239,-1.4983470439910889,0.7500013113021851,3.4346249103546143,2.2041776446560446,0.23355436478977554,-0.9404793274677842,,
1.0175969999999666,-55.41969733964364,8.384696523819578,62.83762848283125,0,-0.05307328701019287,2.075993061065674,1.967292498851013,0.47150536051968944,-0.8903843809983286,,
1.0271029999999541,-46.322986245604405,6.870118432735796,59.10763397752876,1.807870864868164,-0.10001599788665771,1.3030368089675903,1.9197289459531524,0.33001378299159956,-0.6742833087284963,,
1.036421999999959,-37.29027939140356,5.999840263691873,57.59217445979117,3.270195484161377,-0.1496543288230896,0.8465594053268433,1.8495160821515482,0.05955436455278361,-0.34640122558666087,,
1.0459539999999947,-27.868006771182245,5.435213821094898,58.034450221973685,3.9487125873565674,-0.06970325112342834,0.40488189458847046,1.8848223609132655,-0.1545482391078948,0.008260336917835759,,
1.0746599999999944,2.869263214301825,-2.2080339766404675,66.1681110482334,2.151854991912842,-0.17422260344028473,0.3359437584877014,2.1536830044647584,-0.7179831556486597,0.5245313942825707,,
1.0841580000000022,14.656128953677495,-5.294161714627946,67.86607247797205,0.8295506238937378,-0.07799805700778961,1.3214908838272095,2.388702912901247,-0.5716952534586006,0.42514088878732104,,
1.0936669999999822,27.405587691294063,-7.9067897098593924,68.02295087717927,0.29893583059310913,0,1.491891622543335,2.5631026068600695,-0.4897580404832943,0.21223736629213488,,
1.103179999999952,40.648309680372385,-9.252531262626068,66.36496654281159,0.5284925699234009,-0.12376999855041504,3.276963949203491,2.628785608480925,-0.3458683006242198,-0.017453292519943295,,
1.112703999999951,53.27482927219496,-8.676331923003788,64.93031615230979,0.6062595844268799,-0.2904937267303467,3.7382445335388184,2.51087596054085,-0.04556508428870692,-0.19491730501280186,,
1.1315329999999904,73.37377857130127,-5.516854887829516,64.22745189981683,1.0421086549758911,-1.4261723756790161,1.9820802211761475,1.8774946426797015,0.20784073535199646,-0.2456784076853087,,
1.1410489999999527,82.0684192009304,-4.792969026347734,65.29992773572317,0.7601853609085083,-1.2880833148956299,1.6601699590682983,1.767045944213801,0.2283583464059756,-0.10138897410440341,,
1.150545999999963,89.57740399139153,-4.965285109376736,66.18008319264827,0.19184038043022156,-1.1614081859588623,1.5614604949951172,1.5253644737468,0.16107656989779726,0.04210107203284031,,
1.1601709999999912,95.48613630165211,-5.565527185021297,66.33491192388448,-0.2948809266090393,-1.4074649810791016,0.9409894943237305,1.1928192971836056,0.024514548272286767,0.1136462482405468,,
1.1695990000000052,100.59618063038208,-5.982533217140085,66.14098569131771,-0.8286750912666321,-1.220836877822876,0.8464480638504028,1.0261470151801775,-0.03823736605514295,0.08300306290018834,,
1.179079999999999,104.58029571636766,-5.639535380817289,66.04713839439005,-1.280462622642517,-0.9891860485076904,0.8969978094100952,0.8027182246767812,-0.044898928085655654,-0.06808116395183987,,
1.1981119999999805,107.93136927911542,-2.0187515889994914,67.3690312429806,-1.4150512218475342,-1.2865405082702637,0.19556640088558197,0.23222205238367297,0.056090352296917,-0.4898912717239045,,
1.2076089999999908,108.07244693385891,0.4156299396002965,69.30906934420007,-1.3950129747390747,-1.1326249837875366,0.3398548662662506,0.04063552838612752,0.20704134790833498,-0.5887488522567131,,
1.2171319999999923,106.85435631884397,2.5233101767829393,71.70411794389749,-1.2545363903045654,-1.066611886024475,0.15582410991191864,-0.24914241994117528,0.3189555900209484,-0.5515773361264522,,
1.2266459999999597,104.25305152017555,3.657492457426195,74.1718469990667,-0.91903156042099,-0.9232916831970215,0.3024357557296753,-0.5403859119151909,0.40275804036479834,-0.35626033739181956,,
1.2458389999999895,96.06220628920491,0.7250734048737073,79.72370208973005,-0.1029997169971466,-0.5104622840881348,-0.1712091565132141,-0.8605405831016316,0.6299173056052817,0.3978284844622189,,
1.2553609999999935,91.11209067848849,-3.522641822741902,82.89146108167793,0.781812846660614,0.21671253442764282,-0.2991596758365631,-0.9679249630334965,0.6748162336909374,0.8040505370828839,,
1.2648599999999988,84.00332644278538,-8.921699582331238,87.48741417795436,3.179886817932129,1.2669298648834229,2.1536808013916016,-1.314725882341988,0.8572098020863753,1.113946402742335,,
1.2743600000000015,73.20204159036153,-13.818397236116839,94.38063903769704,3.1371068954467773,2.1279125213623047,0,-1.8796263425294655,1.1230061271038323,1.2235957137645743,,
1.2933799999999565,51.997669361275584,-18.042347376515227,101.44813861055246,2.556994915008545,1.043863296508789,1.7668321132659912,-1.6272863728136442,0.12550382865485943,0.3627886681817221,,
1.3123089999999706,26.12047952372858,-18.436622913308174,101.29944739952879,-1.316941499710083,0.2162022888660431,-1.629863977432251,-3.072845333434902,-0.3779770296112911,-0.17626493132736626,,
1.3219279999999571,16.95544765190906,-21.04128749839319,99.66673325427932,-0.49133628606796265,-0.3380945324897766,0.41536062955856323,-1.9382480883979776,-0.6104655444761846,-0.09992343045769062,,
1.3314439999999763,9.502155001525416,-21.970377046610576,100.5967138398538,-0.6674649119377136,1.0376057624816895,0.2565702795982361,-1.4171807063712736,-0.1532159267017923,0.20624196046467347,,
1.3408489999999915,1.168305131195985,-22.44796990701479,103.92242723856688,0.28251686692237854,-0.8284386992454529,-3.1866254806518555,-1.4097197568970994,-0.04956202150701454,0.6179264939503588,,
1.3597899999999754,-1.004415303992539,-21.297073877706133,115.77449681956145,0.37484803795814514,-0.0673576295375824,-1.5815637111663818,0.6415084235383739,0.16587289455976645,1.1629754992869086,,
1.3884860000000003,19.695363826883696,-26.563907824610865,123.33242151235761,-1.5428152084350586,0.4007577896118164,1.4793493747711182,2.045499237089232,-0.4243415013436595,0.05795558966546056,,
1.3978359999999839,30.120799747544577,-26.490769381682423,120.84665542846145,-2.0038089752197266,-0.1654072403907776,1.760822057723999,1.8720321618146811,-0.1861240431325251,-0.4155482394633827,,
1.4170389999999884,47.85512929859996,-20.803879566623017,116.22227514741269,0.31456252932548523,-0.6697380542755127,1.9955823421478271,1.4696738151717135,0.343869832015066,-0.7158514557988956,,
1.4358659999999759,52.7893764438686,-15.509490735890253,117.332608537843,2.3397064208984375,-1.3867454528808594,-0.9871872663497925,0.2865803985526567,0.2925758043801181,-0.17133537542478686,,
1.4453829999999925,52.38639978696744,-15.963309975124579,118.67291569663023,2.6202456951141357,-0.4617781937122345,0.12162429094314575,-0.0009326186842717791,0.13829402775344382,0.22396171546583724,,
1.4550610000000006,48.585937314797135,-17.422015522312922,120.82595879582935,1.6754887104034424,0.26064223051071167,0.03773701190948486,-0.6300505368458919,0.12110719771472102,0.4829632472121713,,
1.4930989999999724,9.196254090823558,-16.91704393038741,127.88954381773907,0.03642246127128601,1.659511923789978,1.6924930810928345,-2.5499127140396545,0.3834395104763115,-0.03757120985209167,,
1.5121359999999981,-16.002240029626563,-14.629282924751886,128.38085541555202,1.658166527748108,2.482778310775757,2.3897953033447266,-2.657030631490299,0.18639050561374557,-0.031042879062189218,,
1.530969999999968,-40.38059818644057,-14.452079114906834,131.28121197156403,1.3212685585021973,2.1104536056518555,1.8285572528839111,-2.1761990841278913,-0.26819448734844165,0.29310872934255916,,
1.5404889999999796,-51.22726816150959,-14.197179176050282,134.2254319185923,0.6692197322845459,1.997354507446289,0.6383559703826904,-2.031243494343935,-0.35079785652679923,0.39583001585306515,,
1.55007599999999,-60.58574166659032,-13.142060477695663,136.86007711233103,-0.3930724859237671,1.7223358154296875,-0.1463133990764618,-1.7418652397384629,-0.3180229713366766,0.45751608025561274,,
1.5595769999999902,-68.05951125833808,-11.698482000131932,139.42893777143894,-1.1834243535995483,1.9433940649032593,-0.6993135213851929,-1.3785436465942997,-0.33933996983431736,0.4732373666476228,,
1.5690899999999601,-74.3656404860142,-10.03222751423966,141.4099192646532,-1.5089051723480225,1.8101153373718262,-1.6419001817703247,-1.1806952542880722,-0.273124043251021,0.4363323129985824,,
1.5785089999999968,-79.07947564389762,-8.210295532929326,142.36264304424563,-2.0770137310028076,1.587217092514038,-2.670808792114258,-0.9065053611121693,-0.11124808590956221,0.3932986222814703,,
1.5880349999999908,-82.132546194322,-6.49087298887093,142.95287643108864,-2.604300022125244,1.5083658695220947,-3.101205825805664,-0.5891485459785439,-0.07114548248587572,0.3537289438202248,,
1.5975399999999809,-83.8886482875188,-5.022197483148439,143.3947527895569,-2.8481693267822266,1.2691606283187866,-3.267916679382324,-0.3357427263378405,-0.06328483928987072,0.29750536028269753,,
1.6165619999999876,-83.03266210196271,-2.833189699930144,141.37736702151543,-2.4901669025421143,0.9372499585151672,-2.333616018295288,0.21796630963837582,0.3041669223132103,0.1545482391078948,,
1.6260729999999626,-80.96753564958594,-2.175704608545638,139.20790743293293,-1.6910691261291504,0.9493319392204285,-1.3616230487823486,0.4024915778835778,0.4119509959669059,0.06834762643306039,,
1.6355769999999552,-78.90587303604042,-1.8255666355916125,136.9507615608172,-0.5781769752502441,0.549691379070282,-1.1489195823669434,0.40502297145517263,0.41434915829789043,-0.009459418083328045,,
1.6547860000000014,-73.5370797716582,-1.4136995508903185,133.49600606095825,0.7571014761924744,0.1350034475326538,-0.574766218662262,0.5867503836475593,0.22462787166888853,-0.02851148549059439,,
1.6643009999999663,-70.60177938654489,-1.196631008564599,132.75902292346683,0.8836215734481812,-0.2327670454978943,-0.7106290459632874,0.5927457894750208,0.08247013793774732,0.010125574286379316,,
1.6738019999999665,-66.88335630808379,-0.79246107829198,132.332206995818,0.5807955265045166,-0.11904048919677734,0.09432584047317505,0.7515574282824438,0.013856049023466434,0.07181163868892698,,
1.692813000000001,-58.802113119847654,1.0037354993261498,130.76715478160216,-0.3123680651187897,-0.2019408941268921,0.7382932305335999,0.8191056672718425,0.20197856076514528,0.13016692207621833,,
1.7023379999999975,-54.46524350250564,2.461123638049105,129.05740097446122,-0.6334207653999329,0.0761951208114624,0.7809474468231201,0.8830566627647646,0.36425421182843487,0.09685911192365478,,
1.721356999999955,-47.94703413488245,5.285082366080002,124.21836012268884,0.10261555016040802,-0.13969755172729492,1.1255282163619995,0.6014058201146874,0.5414517618400729,-0.11098162342834171,,
1.7308669999999893,-45.62571948353418,6.570430697945319,121.15400159263669,0.3472156822681427,-0.11797887086868286,1.0928637981414795,0.5315926500349141,0.5852848400008465,-0.2127702912545759,,
1.7403779999999642,-44.03965636650556,7.299722084043955,118.08263133010242,0.5404126644134521,0.0815388560295105,1.3517613410949707,0.3930321598002498,0.4892251155208533,-0.3017687599822257,,
1.7498939999999834,-43.82410073471614,7.514835908176571,115.23798411040539,0.7276242971420288,-0.07739990949630737,1.069896936416626,0.12084073523350053,0.3967626345373369,-0.3669188366406399,,
1.7593899999999962,-44.482269285079695,7.6073778808408195,112.37231635997082,0.3915296196937561,0.2007301151752472,1.5574431419372559,-0.049295559025794036,0.3978284844622189,-0.4002266467932035,,
1.7689009999999712,-46.666701315825954,7.244877198195096,109.79892632298073,-0.15788894891738892,0.16921567916870117,1.201525330543518,-0.36079019957256825,0.31868912753972795,-0.43047013841173115,,
1.7879299999999603,-53.24619918871994,5.7149897400247465,105.51510180860151,-0.2666506767272949,0.38322633504867554,1.7609905004501343,-0.6447059733130198,0.2816508426500773,-0.39729555949977785,,
1.7974269999999706,-57.76681279950276,5.405712689769877,103.4700929930228,-0.33717185258865356,0.4591013193130493,1.3178895711898804,-0.8516140899807445,0.34666768806788134,-0.3264165394951227,,
1.8069459999999822,-62.42662640893192,5.112309435100009,102.14095846815636,0.06350015848875046,0.5999062061309814,1.1687382459640503,-0.8943813182166361,0.25686983189657003,-0.2272924964810936,,
1.8164579999999546,-66.89685229690816,5.006085044209612,101.25464680183453,0.29442912340164185,0.7247983813285828,0.8636261224746704,-0.8666692201697034,0.19771516106561715,-0.12776875974523375,,
1.825779999999952,-70.61225571633506,4.888059671833217,100.89720286923973,0.14378061890602112,0.6873638033866882,-0.9057413339614868,-0.7270428800101569,0.08646707515605495,-0.06861408891428089,,
1.8448039999999537,-76.4872797762269,3.430578034331898,101.74727201392741,-0.2895609438419342,1.1292054653167725,-1.9096405506134033,-0.6289846869210098,-0.12763552850462348,-0.17466615644004319,,
1.8543149999999855,-79.19066082750054,2.0259148592180685,101.9549167961094,-0.46752774715423584,0.9457991719245911,-3.1065115928649902,-0.5353231247720012,-0.09219601850229589,-0.2755222055820056,,
1.8733279999999581,-81.81665153833391,-1.6469119261503353,99.96648903468585,0.2750360667705536,0.5990273952484131,-3.2655959129333496,-0.17626493132736626,0.25273966343765214,-0.43566615679553106,,
1.8828449999999748,-81.67600659060552,-3.6409344935141883,97.59293547460942,0.6975240111351013,0.5053427219390869,-3.2868237495422363,0.013189892820415163,0.40089280299625474,-0.46830781074504335,,
1.8923549999999523,-81.107641628344,-5.5905689871978295,95.10306285693265,1.2211439609527588,0.3135201334953308,-2.195261240005493,0.08060490056920376,0.4212771828096237,-0.4653767234516178,,
1.9113839999999982,-78.98680630213258,-8.621654052501972,90.29284783919631,1.009558916091919,0.12651711702346802,-1.7054513692855835,0.2255604903531603,0.385304747844855,-0.3474670755115428,,
1.9210630000000037,-77.61277944227398,-9.662068567953643,88.71844020889164,0.5397408604621887,0.2374773621559143,-0.8064625263214111,0.2319555899024525,0.2508744260691086,-0.2721914245667492,,
1.9305860000000052,-76.54295349585082,-10.328125676759802,87.33108033268095,0,-0.1441153883934021,-0.8007546663284302,0.1729341503121099,0.22516079663132954,-0.1962496174189044,,
1.949610000000007,-72.81453173017147,-10.491279264043929,83.51416857174509,-0.881658136844635,0.22693562507629395,0.46453267335891724,0.30243491618527696,0.3751791735584757,-0.112180704593834,,
1.9590979999999831,-71.36217219678525,-10.378225338076332,81.14005398819737,-0.6371814012527466,-0.09466016292572021,0.48730456829071045,0.21516845358556047,0.4218101077720647,-0.12137366019594152,,
1.9781319999999596,-67.68975846502904,-9.849594466995509,75.70415151764462,-0.29796522855758667,-0.04737132787704468,1.1120496988296509,0.2756554368226159,0.4848284845807149,-0.1444226648215155,,
1.9876539999999636,-65.96939958471768,-9.771006012624257,73.6327727252188,-0.1385013908147812,-0.2818107604980469,1.359743356704712,0.28284992381556956,0.3589249622040247,-0.14655436467127958,,
1.9971559999999613,-63.80464171772648,-9.588230794037695,71.83687294878892,-0.3522723913192749,0,2.0302181243896484,0.38197396682959867,0.31389280287775884,-0.11724349173702366,,
2.006657999999959,-62.001506863073985,-9.249776428756466,70.06645786913857,-0.9030081033706665,-0.08812105655670166,2.1236493587493896,0.31296018419348703,0.3144257278401998,-0.09579326199877275,,
2.0256769999999733,-58.38286828244353,-9.186843109367624,67.24224354125485,-1.321603775024414,0.17751169204711914,2.1780505180358887,0.353862175060835,0.1758652376055355,-0.14668759591188982,,
2.035188000000005,-56.93438819972544,-9.75318345453462,65.75590105758388,-1.2530308961868286,0.19598358869552612,1.5195465087890625,0.2502082698660573,0.16454058215366388,-0.2508744260691086,,
2.044708999999955,-55.730791610377565,-11.137322414723393,64.35070085573608,-0.9844789505004883,0.11720341444015503,0.9826205372810364,0.19691577362195567,0.06501684541780403,-0.3891684538225524,,
2.063725999999974,-53.496685516659845,-16.33955105259112,61.88921353262278,-0.08104273676872253,0.057224154472351074,0.34864145517349243,0.16494027587549465,-0.14082542132503864,-0.6224563561311075,,
2.0827489999999784,-52.419040476270226,-23.060944746450335,60.15315498154522,0.5451977252960205,-0.11258983612060547,-0.8623879551887512,0.0019984686091538122,-0.3282817768636662,-0.6391102612073891,,
2.0922599999999534,-52.45644128579756,-26.287430240883275,59.99432917448397,0.9812943339347839,0,-0.8971163034439087,-0.019052067407266345,-0.37358039867115267,-0.5418514555619036,,
2.111072999999976,-54.654107073515775,-30.739147833379104,61.15242245795921,2.0669054985046387,0,-2.3610358238220215,-0.20837366031443752,-0.30776416580968713,-0.24581163892591892,,
2.120591999999988,-56.32338478979013,-31.84087588058306,62.00677055974779,2.425743579864502,0.3024243116378784,-2.7084245681762695,-0.2617993877991494,-0.22542725911255007,-0.1259035223766902,,
2.1301129999999944,-58.43345988388488,-32.7107065877193,62.725522698027376,2.3065223693847656,0.429740846157074,-2.8056833744049072,-0.3653200617533169,-0.17253445659027913,-0.10898315481918791,,
2.139632000000006,-60.10226146858957,-33.87995417921771,63.291481168946575,2.0342390537261963,0.41180673241615295,-2.74072265625,-0.2932419605831694,-0.17573200636492523,-0.17999540606445338,,
2.1586529999999584,-61.5867012267808,-36.3959346451615,62.02595197389297,0.507975161075592,0.5569403171539307,-2.048668384552002,-0.2671286374235596,0.03983614094246599,-0.31868912753972795,,
2.1681539999999586,-61.229471590745504,-37.468814504266675,60.480948937242836,-0.13309860229492188,0.3987613618373871,-1.5079302787780762,-0.11764318545885442,0.11457886692481857,-0.3185558962991177,,
2.1873489999999833,-58.525157008737104,-37.18552537983501,56.15597964310151,-0.25580254197120667,0.34909752011299133,0.17830175161361694,0.00985911180515881,0.39236600359719853,-0.06768147023000912,,
2.196871999999985,-56.32102339456141,-34.71405242518603,52.86816808380528,-0.23527708649635315,0.3275710344314575,-0.6887319684028625,0.07993874436615249,0.6825436456463321,0.13856049023466432,,
2.20637099999999,-53.992186518474654,-31.230758858545705,49.953576423653665,0.06704479455947876,0.3821040987968445,-0.3195895254611969,0.1778637062146893,0.7602174589221102,0.30736447208785633,,
2.2158999999999764,-51.645207830913684,-27.427165957474834,47.61913682705692,0.4411420226097107,0.18123865127563477,-0.9132622480392456,0.2784532928754312,0.729707504822362,0.3885022976195011,,
2.2349199999999882,-45.47532626840534,-20.808880041889825,43.54294847456408,-0.32894715666770935,0.2702411115169525,-0.18179211020469666,0.4772343038659304,0.6016722825959079,0.21290352249518613,,
2.2444319999999607,-42.76931312906334,-19.041676377410536,41.57193847026755,-0.8074673414230347,-0.2801280617713928,-0.18730872869491577,0.4324686070208851,0.4656431859328383,0.011058192970651094,,
2.253932999999961,-39.106244216017764,-17.822520961283114,39.12444471046379,-1.3062663078308105,-0.06532931327819824,0.5540372729301453,0.5979418078588208,0.4527197555936437,-0.16787136316892026,,
2.2634439999999927,-35.713819835420175,-16.87624428965524,36.31697789687861,-1.581104040145874,-0.22848987579345703,0.8937472105026245,0.5274624815759962,0.44739050596923347,-0.29337519182377964,,
2.272942999999998,-32.790005957709106,-16.27112646756162,33.98773785428127,-1.1627682447433472,-0.8728270530700684,-0.04956555366516113,0.4647105672485665,0.3298805517509893,-0.2913767232146259,,
2.291954999999973,-25.699920836280164,-14.85656197956974,32.75270744728057,0.23400577902793884,-0.6944069862365723,0.5225618481636047,0.7189157743329315,0.09552679951755225,0.11058192970651096,,
2.3014739999999847,-22.664234561155148,-14.98557036212368,34.67566570210561,0.9696857929229736,-0.7852668762207031,0.8727521896362305,0.7282419611756492,-0.20970597272054006,0.37278101122749113,,
2.310987999999952,-20.04691116516568,-16.194506146892476,38.391689088356664,1.6157238483428955,-0.2758932411670685,2.3223488330841064,0.7442297100488796,-0.5156049011616836,0.6189923438752409,,
2.3300069999999664,-22.46995809375795,-18.839830121459947,47.7004798586553,1.4699454307556152,0.5850239992141724,2.304048538208008,-0.28378254249984136,-0.5024150083412684,0.7378346104995875,,
2.3395189999999957,-26.54223840947671,-20.81327224970999,51.5627062470059,-0.8153107166290283,0.5773181915283203,0.8515642285346985,-0.5590382856006264,-0.6577626348928247,0.4596477801053769,,
2.348846999999978,-30.365620628370355,-25.566993794431475,54.56340904175149,-1.2746435403823853,1.2617487907409668,2.0548102855682373,-0.5501117924797394,-1.07983920514611,-0.031842266505850744,,
2.358359000000007,-33.16431604189941,-30.073211090930467,54.73479364620399,-1.7026287317276,0.5276101231575012,0.29044920206069946,-0.5766248093611799,-0.7555543655007513,-0.5180030634926682,,
2.3773879999999963,-33.582585337223016,-39.68839008374193,51.47165449714835,-0.8109609484672546,0.5520703196525574,-0.3330589830875397,-0.2928422668613387,-0.7329050545970082,-0.821903523324658,,
2.3870619999999576,-34.09581424615116,-43.92581492469085,50.32986369915595,0.5335012674331665,-0.03568181395530701,-0.2688671052455902,-0.27911944907848246,-0.602338438798959,-0.647903523087666,,
2.4059179999999856,-36.541005567264186,-48.94082484582417,51.66379092153991,1.0709879398345947,0.13682714104652405,-2.338308095932007,-0.20717457914894521,-0.5407856056370216,-0.112180704593834,,
2.4154159999999933,-39.432926461995514,-51.31582454188224,55.01521989855829,1.0187926292419434,0.3289080858230591,-2.655661106109619,-0.07833996947882944,-0.6401761111322712,0.027045941843881597,,
2.424925999999971,-42.32726175790158,-53.29875556310517,58.22594373106157,0.642366349697113,0.4597409665584564,-3.053209066390991,-0.0767411945915064,-0.5625022978564931,0.024514548272286767,,
2.4344370000000026,-44.320462226359915,-55.06290828390553,60.165374875465695,0.24272924661636353,0.26635777950286865,-3.626192331314087,-0.08393568158446013,-0.4212771828096237,-0.08580091895300367,,
2.4534629999999993,-42.68827247361189,-57.456569928142656,57.66332092337046,-0.4370805025100708,0.27195435762405396,-2.009770631790161,-0.058088820906070815,0.03757120985209167,-0.30989586565945115,,
2.462981999999954,-39.513018500895164,-57.456583140690476,53.888576412629654,-0.7803887128829956,0.1228625476360321,-1.6833745241165161,0.03317457891195329,0.24394640155737538,-0.2980382852451386,,
2.4821779999999762,-32.80610401688428,-53.644129717249015,47.095716946231605,-0.4665423035621643,0,-0.6320464015007019,0.1613430323790178,0.6091332320700821,0.03384073511500456,,
2.501203999999973,-29.125808321695768,-46.1039019122022,45.35341770987309,-0.19560670852661133,0,0.5888186097145081,0.368517611527963,0.6340474740641995,0.4324686070208851,,
2.510706999999968,-27.601950517404553,-42.40449005833789,45.85885686931438,-0.3643263578414917,-0.056314051151275635,0.9844422936439514,0.46524349221100747,0.565566616390529,0.4852281783025456,,
2.5202209999999923,-25.616910421247603,-39.39828576425775,46.365297273154354,-0.7292201519012451,0.20821905136108398,2.1358890533447266,0.5354563560126115,0.45884839266171534,0.39982695307137267,,
2.529724999999985,-24.032518073897055,-37.61047328211851,46.401294846369346,-0.8768194913864136,-0.12168136239051819,2.645479679107666,0.37304747370871166,0.28751301723692846,0.20091271084026327,,
2.548753999999974,-21.048996605126124,-37.293015528973335,44.59152669785077,-0.886328399181366,-0.22761967778205872,3.3026435375213623,0.14095865256564888,0.005196018383799912,-0.1898545178696122,,
2.5582489999999893,-20.678873111752733,-38.053351818715164,43.20525910622756,-0.5832933783531189,-0.526623010635376,2.3424072265625,-0.09352833090839842,-0.07341041357625003,-0.2705926496794262,,
2.596299999999985,-30.546800617069795,-45.67342954152497,47.82173293005993,0,0.22777339816093445,0.7620639204978943,-0.489091884280243,-0.6046033698893334,0.11804287918068519,,
2.605808999999965,-35.996825166655974,-48.21090484780679,51.59663629056886,-0.35969457030296326,0.4209427237510681,0,-0.577157734323621,-0.6962664634291882,0.11204747335322375,,
2.6152209999999627,-41.83068245637601,-50.98225414158996,55.613908315659664,-0.7692470550537109,0.5621070861816406,-0.8564146757125854,-0.6071347634609283,-0.7394333853869106,0.012923430339194655,,
2.6247249999999553,-47.50269246403691,-53.997493907220345,59.32547039046118,-0.9530596137046814,0.6000142097473145,-1.8101799488067627,-0.5942113331217336,-0.7293078111005313,-0.13802756527222332,,
2.6436709999999835,-56.807176939093345,-59.841497970502594,64.42562534895968,-0.6080665588378906,0.8326742649078369,-3.867004871368408,-0.5156049011616836,-0.5074777954844581,-0.33560949509723026,,
2.653176999999971,-60.80950224605768,-61.856666779890716,65.38205243938779,-0.1908804178237915,0.6778454780578613,-3.5523831844329834,-0.6449724357942405,-0.29204287941767715,-0.30736447208785633,,
2.662681999999961,-63.22186203740183,-62.685522659045965,64.79303224717913,0.33113574981689453,0.6261836886405945,-3.388533353805542,-0.5976753453776001,-0.03317457891195329,-0.18172741219238667,,
2.681714999999997,-65.10805886668817,-61.13006513139007,61.14841099472821,1.0298049449920654,1.0156205892562866,-2.0723085403442383,-0.526796325372945,0.26832771858905186,0.12803522222645425,,
2.6912189999999896,-66.25683868189142,-59.71279260226051,59.596927911269866,0.7731282711029053,1.1508159637451172,-1.6693123579025269,-0.4784333850314227,0.23728483952686266,0.19398468632853008,,
2.7007339999999544,-68.22695240340873,-58.697438752499416,59.249364596813535,0.33739012479782104,1.2128998041152954,-1.2092828750610352,-0.43406738190820804,0.09259571222412663,0.17173506914661762,,
2.710254999999961,-70.4277916287509,-58.200329575819794,59.37758557483839,-0.14997327327728271,1.0309772491455078,-0.8602777123451233,-0.3967626345373369,0.002264931090374321,0.09605972447999325,,
2.7197549999999637,-72.0057123181759,-58.049442310882945,59.29032103086572,-0.6597626209259033,0.8101214170455933,-0.5129523277282715,-0.3152251152838613,0.0017320061279333043,0.022249617181912443,,
2.7389629999999556,-73.50643508620213,-57.788318589274645,58.158904649817664,-0.8008139729499817,0.0600665807723999,0.12553367018699646,-0.20557580426162217,0.0770076570727269,0.018385911204215073,,
2.748483999999962,-73.29642354569927,-57.04117994768656,57.04847411667396,-0.6947262287139893,0,0.7324536442756653,-0.11324655451871604,0.13043338455743883,0.10871669233796738,,
2.75797399999999,-73.77375323038297,-55.786617878944284,56.41096582502339,-0.455204039812088,-0.39622581005096436,1.0674434900283813,-0.17253445659027913,0.11298009203749554,0.22009800948813987,,
2.767475999999988,-74.41381745621699,-54.03669888701516,56.34177299360027,-0.03943765163421631,-0.8176735639572144,0.29352903366088867,-0.10018989293891113,0.07021286380160395,0.336009188819061,,
2.786504999999977,-73.46503553761295,-49.39442266797473,56.1294552497614,-0.06610578298568726,-0.31969213485717773,1.6527334451675415,0.08819908128398825,0.10418683015721876,0.4593813176241563,,
2.796015999999952,-73.11702352213211,-47.24222132535894,56.608169075463564,-0.1192048192024231,-0.6736368536949158,1.0127407312393188,0.1879892805010686,0.01732006127933304,0.4361990817579721,,
2.815036999999961,-68.67720757466782,-44.188288569127835,57.55493024816489,-0.05807614326477051,-0.40201079845428467,2.0801053047180176,0.6147289441757127,-0.006928024511733217,0.2627320064834212,,
2.8245419999999513,-65.10380287776728,-43.6503502594211,57.97400742492195,0.40008771419525146,-0.582735002040863,2.3997962474823,0.8191056672718425,-0.061686064402547675,0.13336447185086442,,
2.8435719999999947,-54.326536500930004,-44.59601110049005,58.75957601988175,1.3476463556289673,-0.24456721544265747,0.6721493601799011,1.3071317016272035,-0.1775972437334688,-0.08766615632154724,,
2.8530680000000075,-48.59679704351295,-46.233369974860544,59.582555812667884,1.5801239013671875,-0.07945406436920166,1.0657167434692383,1.3048667705368293,-0.3322787140819739,-0.16920367557502278,,
2.8720969999999966,-41.19190386284268,-51.896209880934435,63.302950756876285,1.2135565280914307,-0.3914984464645386,0.8231395483016968,1.030143952398485,-0.6868070453458602,-0.192385911441207,,
2.881604999999979,-39.61115652303757,-55.06413162470388,66.26192473455073,0.6309207677841187,-0.28396180272102356,0.9622490406036377,0.8253675355805246,-0.7357029106498236,-0.13336447185086442,,
2.891118000000006,-40.293580467893314,-58.03108190898903,69.96806799273268,-0.10986107587814331,-0.5099401473999023,0.265646755695343,0.4993506898072326,-0.7338376732812798,-0.06821439519245012,,
2.9004549999999654,-43.090589791618264,-60.86227807314396,74.93145526139965,-0.5700327754020691,-0.3489336669445038,-0.6420626640319824,0.29150995445523614,-0.7662128647495717,-0.010125574286379316,,
2.9099489999999832,-48.3867301632274,-63.55147650541808,81.37894912620531,-0.9676786661148071,-0.622865617275238,-1.6497509479522705,0.06448392045536301,-0.8087136305042427,0.020251148572758632,,
2.919461999999953,-55.562115641884446,-65.96497083022402,89.90343060690236,-1.021022915840149,-0.8112952709197998,-2.9089601039886475,0.08153751925347555,-0.8692006137412981,0.05289280252227091,,
2.928976999999975,-63.09020386587573,-67.50074630243834,99.60261876394412,-1.1631280183792114,-0.44734036922454834,-1.7918907403945923,0.2610000003554879,-0.818306279828181,0.11644410429336213,,
2.938490999999999,-69.84817440327285,-67.86872833895902,108.0617540981543,-1.6320950984954834,-0.36808323860168457,-1.9229638576507568,0.20717457914894521,-0.6245880559808715,0.18132771847055595,,
2.9479879999999525,-74.78509569458004,-67.3732818611429,114.44768250852043,-1.831566333770752,-0.701879620552063,-3.461865186691284,0.1935849926066993,-0.44192802510421303,0.23595252712076015,,
2.967016000000001,-74.17439325920878,-64.64794983433853,119.1784408475328,-2.1060025691986084,-0.11066478490829468,-2.081507682800293,0.5527764172919445,-0.011990811654922873,0.3221531397955945,,
2.9765199999999936,-72.35007006783502,-62.99413534753431,119.50828794897927,-1.8063230514526367,-0.2504333555698395,-1.4028695821762085,0.4463246560443514,0.048895865303963275,0.3226860647580356,,
2.9860400000000027,-69.95861128047557,-61.24767293605885,119.04155586790789,-1.2784483432769775,-0.225849449634552,-0.4781954288482666,0.4271393573964748,0.13069984703865933,0.31602450272752286,,
2.9955469999999877,-66.29572898793653,-59.36198447169667,116.97533433605346,-1.036686897277832,-0.05030262470245361,-0.4811345636844635,0.41408269581666995,0.3016355287416154,0.2761883617850569,,
3.0147589999999695,-58.21828414133276,-56.260839154579884,111.30010742564684,-0.3275817632675171,0.14728915691375732,-0.23719923198223114,0.3665191429188092,0.3874364476946191,0.08673353763727547,,
3.033784999999966,-50.74270225623629,-54.65617640300587,104.16002896734578,0.27511972188949585,0.3456357419490814,1.448495864868164,0.104320061397829,0.3943644722063523,-0.17253445659027913,,
3.0527909999999565,-41.78898532638491,-53.51019226299143,92.87280475996904,1.2831058502197266,0.39820972084999084,1.7674119472503662,0.015454823910789482,0.5830199089104723,-0.417280245591316,,
3.0623049999999807,-37.492308224211435,-52.97256573976281,87.02006355349741,1.7786738872528076,0.7693527936935425,2.300297498703003,-0.02984379789669693,0.4984180711229608,-0.45205359939059236,,
3.0717970000000037,-35.47725733390105,-52.94475445778617,82.90990356184119,1.9290263652801514,0.5178252458572388,1.8977197408676147,-0.21383614117945793,0.2728575807698005,-0.3803751919422756,,
3.081316999999956,-35.2577315256202,-53.49875916849523,81.5116742514488,2.015956401824951,0.48828989267349243,2.004702091217041,-0.15934456376986397,-0.011191424211261349,-0.19744869858439668,,
3.0908359999999675,-36.90727695738337,-54.24593619548729,82.85493942575856,1.7854950428009033,0.6299988627433777,2.2240278720855713,-0.1139127107217673,-0.2226294030597347,0.030243491618527695,,
3.100337999999965,-40.758437559592004,-55.05308851279124,86.84198133917077,1.6248431205749512,0.3405115604400635,1.7761927843093872,-0.1296339971137773,-0.4196784079223006,0.24394640155737538,,
3.1098539999999844,-45.494529465552894,-55.501000795098385,92.59861576532289,1.4891176223754883,0.3111737072467804,1.65787672996521,0.0026646248122050836,-0.5239984693201296,0.4106186835608034,,
3.119357999999977,-50.69677691099104,-55.50078890608764,99.13983583138508,0.9440236687660217,0.3196362555027008,1.4965455532073975,0.03277488519012252,-0.5571730482320828,0.48429555961827386,,
3.1288679999999545,-56.85786130538855,-55.6850638054597,106.61599352074236,0.47372591495513916,0.10619974136352539,0.6272270679473877,-0.0191852986478766,-0.6998637069256651,0.4531194493154744,,
3.1478929999999536,-70.31599290680946,-56.77235248755369,122.23578464003917,-0.6782560348510742,0.2471836507320404,-0.025308653712272644,-0.13709494658795152,-0.8248346106180836,0.21037212892359133,,
3.166736999999955,-85.71881103360633,-57.62952478498816,138.37948298874534,-1.6535768508911133,0,-1.1605134010314941,-0.1476202145961616,-0.8978453304725027,0.07913935692249097,,
3.176242000000002,-93.08741274453371,-56.93088998059708,146.06094493701292,-2.1679251194000244,-0.19049286842346191,-2.0337514877319336,-0.17852986241774055,-0.8376248097166679,0.14295712117480275,,
3.185752999999977,-98.76189031269074,-55.14559141165804,152.30065565017844,-2.698052406311035,-0.2834961414337158,-2.2645106315612793,-0.09579326199877275,-0.7399663103493516,0.2781868303942107,,
3.195270999999991,-102.12991738625367,-52.502769137573075,156.57772851014522,-3.2781410217285156,-0.11897414922714233,-1.8147187232971191,0.02424808579106626,-0.6044701386487231,0.42340888265938775,,
3.223792000000003,-101.71241922575203,-46.16661196945784,160.63278730642784,-3.2910172939300537,0.12267440557479858,-1.0148857831954956,0.3984946406652702,-0.10325421147294697,0.19918070471232996,,
3.242998,-95.17629852781045,-48.42455735751187,159.09523819206078,-0.7332988977432251,0,0.09708169102668762,0.5422511492837344,0.18625727437313533,-0.342803982090184,,
3.2524949999999535,-90.5585587026472,-50.75185011588425,156.2772226972558,0.4354791045188904,-0.31322216987609863,-0.12619143724441528,0.5016156208976069,0.376911179686409,-0.45218683063120263,,
3.262024999999994,-85.32957932960693,-52.682126743624465,152.8547508510641,1.0011810064315796,-0.34311288595199585,-0.6318897604942322,0.5157381324022938,0.39862787190588045,-0.4064885151018855,,
3.271523000000002,-81.1158282685964,-53.74953424103749,150.1699776586144,1.450452208518982,-0.5080472826957703,-0.11361581087112427,0.5036140895067608,0.2206309344505809,-0.24794333877568298,,
3.2905419999999594,-74.80450686939179,-52.8042450905354,146.98601615976963,0.8473902940750122,-0.08306241035461426,1.097571849822998,0.36745176160308096,0.17280091907149966,0.1397595714001566,,
3.300056999999981,-73.36647627779212,-51.67693983077267,145.89287687745633,0.6844918131828308,0,1.3093516826629639,0.14961868320531543,0.1584119450855922,0.18119448722994566,,
3.3095649999999637,-72.38401320035841,-50.831735667751936,144.3104171984888,0.9823775291442871,0.25200292468070984,1.9513355493545532,-0.01971822361031762,0.20943951023931953,0.10392036767599823,,
3.319082999999978,-71.82010025020253,-50.55827236118871,141.92832684580026,1.4599814414978027,0.4151323735713959,1.952075719833374,-0.2351531396770986,0.2816508426500773,-0.04223430327345057,,
3.328587999999968,-72.09913669026584,-50.972648915911755,139.58742976841913,2.2586543560028076,0.48493272066116333,2.1663360595703125,-0.4082205212298188,0.2415482392263908,-0.17479938768065348,,
3.347614999999962,-76.30896855492277,-52.2911938917745,138.5039506958058,2.9785642623901367,0.3889628052711487,1.5692464113235474,-0.48616079698681747,-0.09765849936731631,-0.09259571222412663,,
3.3571099999999774,-81.3443560034376,-52.01567855151986,141.59849588304525,2.555734634399414,0.475098192691803,1.3124818801879883,-0.5242649318013501,-0.3643874430690452,0.12070750399289028,,
3.366636999999969,-87.1384583100714,-50.52386239493837,145.90112322224093,1.6719107627868652,0.3791329562664032,1.0534697771072388,-0.49188974033305843,-0.5089433391311708,0.34506891318055827,,
3.376133999999979,-92.71480628729422,-47.760351691398654,150.74859025415657,0.8643487691879272,0.7394387125968933,1.208536982536316,-0.38663706025095756,-0.6355130177109123,0.5486462488330267,,
3.3854879999999525,-98.31898727929921,-43.9458238304497,155.28145698774966,-0.04527515172958374,0.8377283215522766,0.8909465074539185,-0.4760352227004381,-0.7015957130535985,0.6952006135043062,,
3.404498999999987,-107.4477340473992,-34.490035592610546,162.69312274493825,-2.0774307250976562,0.8298907279968262,-1.0100936889648438,-0.4030245028460188,-0.7949908127213866,0.8036508433610531,,
3.4140049999999746,-110.46977555968387,-29.51446287491008,165.99899590224888,-3.3184733390808105,0.6688032150268555,-1.4626119136810303,-0.27712098046932865,-0.8201715171967247,0.7703430332084895,,
3.4235109999999622,-111.94759672589862,-24.978993265418666,168.71045756562611,-5.0812788009643555,0.5288647413253784,-1.8026841878890991,-0.05649004601874777,-0.7604839214033308,0.6782802459468039,,
3.4520459999999957,-114.20015745754111,-19.1381221703943,166.85113926951436,-3.1082706451416016,-0.10288900136947632,-1.2771930694580078,-0.2959065853953745,0.3719816237838296,0.38357274171692174,,
3.4615679999999998,-113.98988022385326,-17.547206646226375,163.16642512494624,-1.6091278791427612,0.1224522590637207,-1.104784369468689,-0.17892955613957134,0.48589433450559694,0.5663660038341904,,
3.4712490000000003,-114.02325794062705,-15.356289200631359,159.31087790264763,-0.7621281147003174,0.2572917342185974,-1.5315032005310059,-0.21556814730739124,0.4775007663471509,0.6929356824139319,,
3.4807609999999727,-114.1529481715717,-13.004253386027969,155.76949365704058,-0.5908095836639404,0.1133224368095398,-1.6129910945892334,-0.19425114880975056,0.42927105724623893,0.7078575813622804,,
3.4899989999999548,-113.8432124953883,-11.126127017149665,152.75808935229188,-0.7468752861022949,0.592409610748291,-0.6487921476364136,-0.05595712105630675,0.36918376773101425,0.5760918843987389,,
3.4996209999999905,-114.49460280974522,-10.424954463304944,150.30608384420708,-1.097679853439331,0.7756080031394958,0,-0.2121041350515246,0.3558606436699889,0.31375957163714857,,
3.5186299999999733,-117.71663682664182,-12.723471431997535,146.13266760233924,-1.064759373664856,0.2800554037094116,0.38985246419906616,-0.3755788672803065,0.4605803987896486,-0.13069984703865933,,
3.528336999999965,-119.58981511397569,-14.60367075752085,143.77187107248872,-0.6198731660842896,-0.05405610799789429,0.5020875930786133,-0.4708392043166383,0.5401194494339704,-0.1325650844072029,,
3.5378109999999765,-121.19901354896234,-15.802835825233647,140.89288244853435,0,-0.30552440881729126,0.5829505920410156,-0.46151301747392043,0.5743598782708057,0.06035375199644514,,
3.5663490000000024,-122.31997516084735,-11.66539976936418,126.70485202283389,0.8308728933334351,-0.3165608048439026,0.6195887923240662,-0.14002603388137713,0.6221898936498869,1.026946402623839,,
3.575683999999967,-120.62160220719143,-8.30501973888362,120.84375522162817,0.72344571352005,-0.09989166259765625,1.0204262733459473,0.14309035241541299,0.6229892810935485,1.1717687611671854,,
3.585188999999957,-117.90617136856675,-4.6891610076231585,115.43810876598153,0.8937510251998901,-0.1289709210395813,1.781478762626648,0.42753905111830565,0.5727611033834826,1.1519173063162575,,
3.594701999999984,-113.69390699807275,-1.3778251183273915,110.54771714679377,1.0410115718841553,-0.196516752243042,1.8087505102157593,0.7993874436615249,0.5523767235701138,1.003897397998265,,
3.613722999999993,-98.8109190456774,3.074561485116014,103.42778357311819,0.35815465450286865,0.4504441022872925,1.24522864818573,1.7381347650013759,0.3052327722380923,0.43140275709600295,,
3.623235999999963,-88.38784240892215,3.3748406477086164,101.86132841011354,0.12573190033435822,0.9822579622268677,2.087285041809082,2.100390508220657,0.10152220534501366,0.06235222060559895,,
3.6327359999999658,-77.02273573172886,2.0423933289961917,100.47684986383894,-0.5031082630157471,1.0751293897628784,2.4906935691833496,2.2867810138344025,0.04703062793541971,-0.2820505363719081,,
3.6422509999999875,-65.06460436083852,-0.4280266230152994,98.55859883208673,-0.42861542105674744,1.1971696615219116,2.730029821395874,2.4038912743308156,0.032508422708902016,-0.5442496178928883,,
3.661451999999997,-41.0010732901981,-4.212825997898658,91.39246259239339,0.4616207182407379,0.7231743931770325,1.5285561084747314,2.3828407383143957,0.2703261871982057,-0.6357794801921328,,
3.6709579999999846,-29.92576992559299,-4.334365019215981,88.68989866850336,1.3493731021881104,-0.38333165645599365,0.38731616735458374,2.183926496083286,0.2820505363719081,-0.4593813176241563,,
3.680296999999996,-17.991955902823964,-3.4324505785658124,87.47896878304701,1.9243282079696655,-0.8533154726028442,-0.5755724906921387,2.3800428822615802,0.25207350723460087,-0.15308269546118206,,
3.6899760000000015,-3.6041398808814997,-2.5087691454184067,88.19785890930874,1.9223737716674805,-0.2736652195453644,0.20146310329437256,2.895381320942043,0.14349004613724373,0.17120214418417656,,
3.6994869999999764,13.02174038894375,-3.2818145184098593,89.0519420330669,1.8015371561050415,0.3501273989677429,2.315220355987549,3.3559617197316918,-0.13363093433208492,0.4063552838612752,,
3.709001999999998,31.23958784759716,-6.51466212712129,89.41527904105435,1.5132752656936646,0.6060962677001953,5.079751968383789,3.6786477844897276,-0.5040137832285916,0.5098759578154426,,
3.718495999999959,50.47653480085327,-11.101186265146833,87.51948870283019,1.0718398094177246,0.7472671270370483,5.879172325134277,3.8286661614168738,-0.8286983165957809,0.4607136300302589,,
3.728017999999963,70.77413187390084,-14.737161929666891,82.85230645365516,0.48246052861213684,1.4880051612854004,6.957742214202881,3.8972802503311548,-1.0233491591273622,0.264730475092575,,
3.737342999999953,89.7411792281629,-15.508724383018032,77.38582282457831,0.0761309564113617,0.9896494746208191,6.508385181427002,3.516238902185828,-1.0833032174019765,-0.031709035265240486,,
3.7468599999999697,106.61227014026674,-13.415474702712306,72.88383128141791,0,0.21277838945388794,5.065249443054199,3.157580402463023,-0.9382143963774098,-0.2964395103578155,,
3.75636099999997,122.25098969763766,-10.257905010589864,70.7669836985482,0,0.2983155846595764,4.8249616622924805,3.049796328809328,-0.6528330789902455,-0.41021898983897254,,
3.7659629999999993,135.3585915849847,-7.775168393241482,70.43953819670314,0.18555566668510437,-0.40065473318099976,4.706153869628906,2.6203920403224785,-0.3745130173554244,-0.3526630938953427,,
3.7754699999999843,146.21111571714474,-6.904459485893131,70.39726471954218,0.5617497563362122,-1.4326341152191162,2.5069971084594727,2.1784640152182657,-0.15228330801752052,-0.10898315481918791,,
3.7849729999999795,156.96119097427015,-7.460407590830831,69.16505594996435,0.6267855167388916,-0.7366683483123779,2.631936550140381,2.1281026062675896,-0.030243491618527695,0.26353139392708275,,
3.794491999999991,165.93653858541614,-8.262237379718755,66.32177308833211,0.6753847002983093,-0.765529990196228,1.6021721363067627,1.7254777971434017,-0.03890352225819422,0.5811546715419287,,
3.8040939999999637,174.13929415007374,-8.394256537331042,62.468224806938856,0.5350005626678467,-0.937922477722168,-0.23686134815216064,1.5366891291986715,-0.11777641669946469,0.7519571220042744,,
3.81361899999996,-176.47173991423307,-7.350160534440181,58.859734660727455,0.18070988357067108,0.08005876839160919,-0.46726667881011963,1.786897399064729,-0.23541960215831914,0.7069249626780085,,
3.823131999999987,-167.3606901291179,-5.122283794864215,56.97746841020806,-0.4362616539001465,0.47777003049850464,-0.3635365962982178,1.7895620238769339,-0.40102603423686506,0.42900459476501845,,
3.832638999999972,-158.32154422504487,-2.3087997499918282,57.60920525859433,-1.0050666332244873,0.06966337561607361,-0.5813366770744324,1.8243353776762103,-0.5878162335724414,0.040502297145517265,,
3.841966999999954,-146.46418250998627,-0.3138924978182311,60.28185324521639,-1.7334871292114258,0.7280681729316711,0.9270209670066833,2.3923001563977238,-0.6145957129351024,-0.29470750422988223,,
3.8515479999999798,-131.8527156138629,-0.43197895285236204,63.58615697891375,-2.6461563110351562,1.4682345390319824,2.78543758392334,2.93561715560634,-0.42753905111830565,-0.5225329256734169,,
3.8609749999999963,-115.55289853540167,-2.755579860233909,65.7351678632853,-2.9255738258361816,1.4198358058929443,3.8938024044036865,3.28135222498995,-0.11164777963139298,-0.6329816241393176,,
3.870489999999961,-96.96439427435271,-6.2467837014211485,65.06965686103595,-2.5344295501708984,2.089346408843994,5.505012512207031,3.7168851505448703,0.3130934154340973,-0.6417748860195943,,
3.880000999999993,-77.72162055602034,-9.220552646815959,61.977513226870364,-0.7834327220916748,2.0827765464782715,5.924130439758301,3.7745742777291107,0.5763583468799595,-0.6309831555301638,,
3.889521000000002,-58.901421692935585,-10.602827454806592,58.58120740028936,2.1656954288482666,1.7813591957092285,5.529211044311523,3.6569310922702565,0.5108085764997145,-0.5118744264245966,,
3.908705999999995,-24.695808586661517,-9.162004384071327,57.4051217647253,4.386960029602051,0.5574557185173035,2.430018663406372,3.3664869877399024,0.057689127184240054,0.2583353755432828,,
3.918231999999989,-7.925928693112404,-10.711420300957199,61.98024673367458,3.4321446418762207,1.3694156408309937,2.553349733352661,3.5211684580884075,-0.5649004601874776,0.776871363998392,,
3.937253999999996,18.63548053826872,-21.19892770241956,73.47811914601087,-2.0103635787963867,0.44429081678390503,2.847830295562744,2.679280248672211,-0.9326186842717791,1.2636983171882608,,
3.946564999999964,31.07652022279762,-26.901035418325996,76.888421536431,-3.8585071563720703,0.589562714099884,1.5000953674316406,2.774007660746102,-0.7869969382847714,1.0433338452189003,,
3.956090999999958,45.91156008785099,-30.379183295880438,78.39389705816656,-4.23630428314209,1.0309746265411377,3.4129271507263184,3.1210750425358142,-0.39316539104086007,0.6375114863200662,,
3.965598,61.01947415623375,-29.957893466593486,80.57582654428825,-4.095990180969238,0.1726861596107483,4.390803337097168,3.251375195852643,0.34320367581201466,0.15241653925813076,,
3.9844359999999597,90.8442719827967,-24.567489730232882,89.7798934566487,-0.3311525583267212,-0.14855408668518066,7.424790382385254,3.301603373562708,0.9847120993503885,-0.44326033751031557,,
3.993947999999989,101.8231279117247,-23.600889292196157,95.4735417097482,1.3639470338821411,-1.5964140892028809,4.762633323669434,2.668754980664001,1.0034977042764344,-0.31296018419348703,,
4.013144999999952,124.07669934023065,-28.363635799619942,98.13969442899304,1.7869945764541626,0.0674101710319519,7.231414318084717,2.157280247961235,0.15854517632620244,0.625387443424533,,
4.022650999999996,129.34448416026572,-32.8474020741139,96.07020055040503,1.3982999324798584,-0.2345578372478485,5.336297512054443,0.8500153150934214,0.23928330813601645,0.9279555908504202,,
4.032249999999976,130.70889501377414,-37.342254429024706,95.39401906149953,-2.1016440391540527,-1.5355989933013916,-0.3774023652076721,0.2022450232463658,0.4825635534903406,0.7552879030195309,,
4.04167799999999,133.87398137550727,-37.49244212898361,94.35145638202458,-1.4175983667373657,0.5002887845039368,2.1859548091888428,0.5137396637931401,-0.11404594196237756,0.12870137842950552,,
4.0511960000000045,130.54056199457057,-35.28093831281788,97.61124816718383,-0.05525940656661987,0.4408973455429077,2.446532726287842,-0.27299081201041075,0.07993874436615249,-0.6860076579021986,,
4.060706999999979,123.87697553472717,-31.41972076908894,104.25914523081315,-0.4398772716522217,-0.790630578994751,-0.15157637000083923,-0.5936784081592925,0.4066217463424957,-1.2926094964006858,,
4.0702249999999935,120.29685166059848,-24.93825654619686,108.2361311633416,0.9749581217765808,0.02870500087738037,1.610430359840393,-0.3326784078038046,-0.10618529876637256,-1.477267995886498,,
4.089235999999971,113.25989754449441,-17.040204899486426,111.18142973706004,1.8519221544265747,-1.0520586967468262,-1.518937587738037,-0.5097427265748324,-0.030243491618527695,-0.47656814766287914,,
4.108444999999961,108.87033242670704,-22.32929553326502,105.79353258470933,1.9616878032684326,-0.24766993522644043,-1.4235953092575073,-0.7703430332084895,-0.35506125622632734,0.9851117930722192,,
4.117930999999999,107.33566340013525,-27.96029444884855,102.87084476290647,0.5529495477676392,0.29420334100723267,-1.6120837926864624,-0.5486462488330267,-0.1648070446348844,1.231189894479359,,
4.136776999999995,103.10982448169426,-33.72945725923002,98.31322877741147,-1.4588783979415894,1.0457048416137695,-2.3102943897247314,-0.8211041358809963,-0.2351531396770986,0.3261500770139022,,
4.146298000000002,98.68360129576133,-31.5230518924729,98.66592882555149,-1.6165196895599365,0.8605238795280457,-2.732321262359619,-0.8410888219725347,-0.0369050536490404,-0.4503215932626591,,
4.165486999999985,86.46184804382005,-20.212771249533127,100.67906581750833,-0.44364166259765625,0.4058693051338196,-1.4617540836334229,-1.3970627890391252,-0.0005329249624410166,-1.2474441058338097,,
4.175009999999986,78.95500231299202,-15.447287211556588,100.94289252369504,0.6098166108131409,-0.21062159538269043,-0.6722843647003174,-1.540686066416979,-0.030909647821578963,-0.9703231253644812,,
4.18449499999997,70.70488867885011,-13.771515513285955,101.30621539416755,1.0526773929595947,0,0.15352308750152588,-1.6713859134556386,-0.022382848422522698,-0.3559938749105991,,
4.1940119999999865,61.14134766173265,-15.465766066967602,102.45070375516318,1.3049057722091675,0.036936163902282715,0.30768170952796936,-1.8864211358005887,-0.07540888218540386,0.33840735115004555,,
4.203532999999993,51.461622182798926,-19.104703953569857,104.953920471326,0.9226726293563843,0.28685706853866577,0.42152833938598633,-1.781301686959098,-0.017586523760553547,0.8674686076133649,,
4.222373000000005,34.55298168839281,-24.108455111377594,113.31750034611076,-1.6900078058242798,0.6278350353240967,-0.6079833507537842,-1.2341209817727843,0.1854578869294738,0.7824670761040227,,
4.231878999999992,30.662453780247066,-23.97492749403017,114.72014035575464,-2.5184550285339355,0.3684535622596741,-0.03610503673553467,-0.6576294036522146,0.14908575824287443,0.1965160799001249,,
4.2510879999999815,34.646018413622755,-19.618577585668955,107.31229400772477,-0.7476739287376404,-0.9640197157859802,1.3881940841674805,0.38543797908546534,-0.07887289444127048,-1.1127473215768429,,
4.260424999999998,40.124987161406345,-15.855207212476367,101.47490244534075,1.0028761625289917,-1.8397541046142578,2.056849718093872,0.7466278723798644,-0.08953139369009079,-1.34710107381028,,
4.269931999999983,46.461562953655296,-12.033538979586453,96.98523959081643,2.0177438259124756,-2.5202574729919434,0.9043181538581848,1.0579892816860283,-0.05342572748471192,-1.1651071991366726,,
4.279435999999976,53.9993682277226,-10.075953025016165,94.1971074264889,2.397515058517456,-1.903865098953247,1.8896656036376953,1.4087871382128276,-0.18226033715482767,-0.6572297099303838,,
4.288944999999956,60.36798418508932,-10.864036662019648,92.7071893979547,2.350559711456299,-1.997321367263794,2.104597330093384,1.2278591134641024,-0.343869832015066,-0.03144257278401998,,
4.298451,65.6363091170623,-14.136906788074974,91.87509543406637,1.4532356262207031,-1.8711118698120117,1.565988540649414,1.0254808589771263,-0.4541852992403564,0.5052128643940837,,
4.3079609999999775,70.3373792754967,-18.828639512580608,90.36692333292609,0.5500060319900513,-1.1904710531234741,1.9955003261566162,0.8620061267483444,-0.6323154679362663,0.7575528341099053,,
4.326985999999977,75.59594547478046,-25.400884239458065,85.20710597921337,-0.5414904356002808,-1.1352869272232056,1.110345482826233,0.1978483923062274,-0.6087335383482513,0.30883001573456914,,
4.336490999999967,76.94162502610925,-25.248687217586898,82.17371911961895,-0.45564109086990356,-0.9857550263404846,1.0370028018951416,0.016520673835671518,-0.5377212871029857,-0.16494027587549465,,
4.346030999999982,76.96532124518443,-23.01754923282295,78.77848436730356,0.16647467017173767,-1.1719099283218384,0.6006755828857422,-0.26632924997989804,-0.5153384386804631,-0.5802220528576568,,
4.355541999999957,75.96783800627632,-19.7932857545182,75.36196674464557,0.5875511169433594,-1.3279027938842773,0,-0.4441929561945873,-0.4844287908588841,-0.7827335385852431,,
4.365046000000007,74.36714359508849,-16.92212208442164,71.83749232533985,0.6348694562911987,-1.0967704057693481,-0.12396523356437683,-0.5494456362766882,-0.5522434923295035,-0.742764166402167,,
4.374720999999965,71.59637944727899,-15.35971937867583,68.11332504542057,0.1708703339099884,-0.7993394732475281,0.28397491574287415,-0.7748728953892382,-0.6712189901944605,-0.5339908123658986,,
4.384232999999995,67.27021632690251,-15.360028344720524,64.92867944421901,-0.4869588315486908,-0.6102944612503052,0.2585173547267914,-1.058388975407859,-0.6916033700078293,-0.2600673816712161,,
4.393744999999967,61.84216530373374,-16.52301877918789,62.975595345886134,-1.3807306289672852,0.35933858156204224,0.9721660614013672,-1.2258606448549485,-0.5740934157895852,-0.014655436467127957,,
4.403251999999952,53.82601005672357,-18.064898722703667,62.54289300442199,-1.975435495376587,1.737902283668518,2.3286428451538086,-1.6815114877420179,-0.4035574278084598,0.11351301699993654,,
4.412575000000004,41.52281801394463,-19.229577269775938,63.54813875052687,-2.411206007003784,2.090708017349243,2.6054506301879883,-2.4775681503882865,-0.2153016848261707,0.12550382865485943,,
4.422087999999974,27.012789465476228,-19.909457700686588,65.3867420037987,-2.3443081378936768,1.9245820045471191,3.647836446762085,-2.8767289472566073,-0.08993108741192156,0.12243951012082357,,
4.431605999999988,12.44523595974119,-20.24598731927528,67.64729524177402,-1.256949543952942,1.9440081119537354,3.0569050312042236,-2.8594088859772753,-0.028378254249984136,0.14841960203982313,,
4.441102999999998,-1.5580750254087108,-20.468558187714997,68.59794956374726,-0.061332106590270996,2.3266406059265137,3.3859593868255615,-2.7308407387883795,-0.03916998473941472,0.17719755001163803,,
4.450613999999973,-15.540628238248413,-21.213083967899593,69.52104001005193,0.5455501079559326,2.1115169525146484,2.382936477661133,-2.7271102640512925,-0.18519142444825326,0.1438897398590745,,
4.4603179999999725,-27.78808347355517,-22.799159087524405,70.33585408253414,0.826102077960968,1.77401864528656,1.5188391208648682,-2.384173050720498,-0.36332159314416307,0.018252679963604822,,
4.479239000000007,-47.841787623127665,-28.304471096459256,70.99673975868747,-0.4163922965526581,1.8187825679779053,-0.6859976649284363,-1.9333185324953983,-0.5358560497344422,-0.41834609551619806,,
4.488730999999973,-56.27754734951659,-32.39914536064374,71.89787724596871,-0.358741819858551,1.3479130268096924,-1.4163285493850708,-1.5902480879239937,-0.6391102612073891,-0.5565068920290317,,
4.498175000000003,-63.43430852666488,-36.2586506491618,73.48939609398641,-0.048610568046569824,1.7140597105026245,-1.2266881465911865,-1.2457120997058764,-0.6276523745149074,-0.5415849930806832,,
4.507685999999978,-71.2902710771928,-39.24555045877359,76.16604750414825,0.7212260961532593,1.184892177581787,-2.837850332260132,-1.2373185315474302,-0.6332480866205381,-0.3942312409657421,,
4.5172000000000025,-78.56804521767224,-40.734842950540646,80.05143058512016,1.423793077468872,1.2118690013885498,-3.0487632751464844,-0.9498055143105019,-0.6648238906451682,-0.13816079651283356,,
4.536215999999968,-93.8202852286093,-39.62607649510929,89.58324988980105,1.3805081844329834,1.4145442247390747,-3.1798458099365234,-0.9635283320933581,-0.7487595722296283,0.20784073535199646,,
4.555232999999987,-106.9362284807964,-37.185431531475594,99.11205189283035,-0.3277812898159027,1.9920392036437988,-2.0433597564697266,-0.6990643194820036,-0.7620826962906538,0.03503981628049684,,
4.583759999999984,-125.19886176445837,-36.67210918842645,110.32274257531195,-1.2719744443893433,1.5268703699111938,-0.3028050661087036,-0.7163843807613366,-0.39223277235658827,-0.27392343069468256,,
4.602796999999953,-132.99370595374734,-36.770215934577784,112.0845675275985,-0.581119179725647,1.2421553134918213,-0.27209997177124023,-0.6091332320700821,-0.08233690669713706,-0.042500765754671085,,
4.621835999999973,-135.1067648068054,-35.43366564767693,110.21653487071374,0.24366271495819092,1.024897575378418,0.03897768259048462,-0.07794027575699869,-0.05062787143189658,0.17133537542478686,,
4.640829999999994,-129.16988907444292,-34.39117713197655,107.15116379568701,0.3696047067642212,0.9324532747268677,0.7640422582626343,0.757952527831736,-0.02078407353519965,0.0961929557206035,,
4.6596589999999765,-113.4817491978835,-34.24661313192324,104.01315197431828,0.5978768467903137,0.4118362069129944,2.398097515106201,1.8380581954590665,0.07807350699760894,0.04290045947650183,,
4.669176999999991,-102.20426459734684,-33.972421152979166,101.7990879236089,0.7770314812660217,-0.06718027591705322,3.565810203552246,2.148753448562179,0.13469678425696696,0.09979019921708036,,
4.678683999999976,-89.4104639422303,-32.94199270925054,99.92379269882878,0.9647897481918335,0,2.7838351726531982,2.4880934183964962,0.08846554376520875,0.21290352249518613,,
4.688370999999961,-75.30719892098571,-31.25309338587307,99.35726103890963,0.9543832540512085,1.5757567882537842,4.471278190612793,2.8875206777460387,-0.05688973974057853,0.34307044457140445,,
4.69807099999997,-63.897333353684,-29.697923040944396,100.54108102853161,1.0177946090698242,0.8322883248329163,4.170486927032471,2.5100765730971886,-0.25220673847521113,0.4171470143507058,,
4.717086999999992,-42.45356772023996,-28.752144200500712,108.25762065865693,0.6283820867538452,1.440690517425537,3.9782495498657227,2.6049372164116895,-0.5732940283459236,0.5005497709727249,,
4.7264169999999694,-34.46788562688373,-29.73160058741448,112.75881070708101,0.26722800731658936,0.4697672128677368,3.0429816246032715,2.0456324683298424,-0.6550980100806196,0.4892251155208533,,
4.735929999999996,-28.094807195026238,-30.998317188995397,117.15520792940954,-0.16103777289390564,-0.4390653371810913,1.208573818206787,1.7276094969931657,-0.623255743574769,0.512673813868258,,
4.745623999999964,-21.548945709834328,-32.05734174458506,121.80554798745708,-0.5462106466293335,-0.23987698554992676,0.6230760216712952,1.8040842291034516,-0.5377212871029857,0.6267197558306355,,
4.754949999999951,-16.396469441156956,-32.64594792509267,127.27664084365192,-1.0436224937438965,-0.2368694394826889,0.24831068515777588,1.6243552855202186,-0.4242082701030492,0.8321623288516475,,
4.7644599999999855,-13.799565953965793,-32.7233269613652,134.24727406723073,-1.5803391933441162,-0.9470862746238708,-0.806951105594635,1.2802189910239323,-0.3326784078038046,1.1251378269535963,,
4.7739669999999705,-12.244157087239046,-32.25409248731252,143.23058932321058,-2.319338321685791,-0.9196056723594666,-0.8178625106811523,1.2840826970016297,-0.26219908152098015,1.4941883634440005,,
4.783477000000005,-10.849361094681402,-30.8844700652912,153.88033128195374,-3.416489362716675,-0.3933013677597046,0,1.4019923449417047,-0.10738437993186485,1.8296646273006205,,
4.7929790000000025,-8.595190801750837,-28.5181392670142,163.6791036997314,-6.360584735870361,-0.07191871106624603,0.7233397364616394,1.5181699867538463,0.14002603388137713,1.9081378280200603,,
4.802493999999967,-3.69299151299129,-25.8378042911015,169.79265440845603,-6.727423191070557,0.5057179927825928,2.6808581352233887,1.6247549792420495,0.3887687601007216,1.2870137842950553,,
4.812004999999999,0.8183754109339723,-21.706115726445947,172.47673766202362,-4.236319065093994,0,3.4793694019317627,1.174699848460611,0.800453293586407,0.6171271065066973,,
4.821524999999951,4.724899605484819,-16.53812109963927,174.36384287271574,-2.863283395767212,-1.4741660356521606,-0.16577666997909546,0.9328851467529997,1.0422679952940184,0.3605237370913478,,
4.831207000000006,10.88842419954715,-12.85020859404129,175.56306451607134,-0.9710246324539185,-0.4987056255340576,0.4214528203010559,1.3245849941471468,0.7638147024185871,0.21170444132969388,,
4.840722999999969,15.895987057121657,-10.575117707104676,176.19534293406824,0.6536149978637695,-0.6952978372573853,0.8828813433647156,1.0586554378890796,0.4865604907086482,0.11990811654922875,,
4.850033999999994,19.530433360718995,-9.117457721657406,176.98266774161885,0.9270759224891663,-1.3871327638626099,0.051073551177978516,0.7807350699760893,0.34720061303032235,0.1589448700480332,,
4.859735000000001,23.174944923503897,-9.029295856305584,178.00933315627236,1.219199538230896,-0.8191263675689697,1.6414198875427246,0.7861975508411096,0.11764318545885442,0.27712098046932865,,
4.869246999999973,24.681433035637056,-9.360713511699773,179.37884053531624,0.8008847832679749,-0.7848933935165405,0.7517025470733643,0.36771822408430144,0.07580857590723461,0.35559418118876834,,
4.878590999999972,25.08772272306374,-9.834248309059452,-179.42853730066022,0,-1.0261167287826538,-0.16300833225250244,0.14255742745297198,0.037304747370871166,0.3257503832920714,,
4.888270999999975,25.638981665210895,-10.537452016545362,-179.2371787023548,-0.29807066917419434,-0.28881216049194336,1.2006266117095947,0.13856049023466432,-0.08833231252459851,0.1618759573414588,,
4.897772999999972,24.754739504937493,-10.31528612407442,-179.9543195415564,-0.46139663457870483,-0.40396401286125183,0.4617723226547241,-0.18452526824520202,-0.00479632466196915,-0.09499387455511121,,
4.907285000000002,23.668710534349316,-9.097123724019577,178.63315843844956,-0.6031856536865234,-0.39400598406791687,0.19610291719436646,-0.2503415011066676,0.11524502312786986,-0.31762327761484593,,
4.916796999999974,22.244767145768424,-7.461930767296534,176.83897234251103,0.0860552042722702,-0.070648193359375,1.1640924215316772,-0.3256171520514612,0.1625421135445101,-0.4332679944645465,,
4.926315999999986,19.466412782879253,-5.11830605569922,175.54291072449186,1.073191523551941,-0.20703911781311035,1.399922251701355,-0.5762251156393492,0.3398728947967583,-0.4006263405150342,,
4.935810000000004,16.29763921890713,-2.325447192656129,175.2034602349553,1.7269549369812012,0.1719440221786499,0.9663882255554199,-0.6315160804926048,0.5013491584163864,-0.2366186833238114,,
4.9451649999999745,12.93373289951477,0.30089524698270287,175.55268004390274,2.2215042114257812,0.4066459536552429,-0.05131345987319946,-0.6650903531263888,0.5176033697708374,-0.05995405827461438,,
4.954672999999957,10.201818159033325,2.8936096843972114,176.27029409955253,2.133516311645508,0.4935985803604126,0.10848140716552734,-0.5443828491334984,0.5286615627414886,0.04543185304809667,,
4.964350999999965,8.433141594095748,5.60304941876396,176.8556837550159,1.6560767889022827,0.8307582139968872,0.5593305826187134,-0.35745941855731195,0.546248086502042,0.044232771882604376,,
4.973860000000002,6.712341783407436,8.286689183733412,176.87184962595285,1.0813496112823486,0.8493404984474182,0.7501161694526672,-0.34200459464652244,0.5258637066886732,-0.03970290970185574,,
4.983364999999992,4.904669761760905,10.85517625691756,176.36156098382554,0.6478043794631958,0.7563567161560059,0.9242075681686401,-0.3429372133307942,0.4928223590173302,-0.12803522222645425,,
4.992700999999954,2.9811666328200057,13.417491993411387,175.634732559404,0.1554599404335022,0.538665235042572,-0.846208930015564,-0.35332925009839405,0.4922894340548891,-0.1554808577921666,,
5.002213999999981,1.322742570525062,15.773421131130267,175.03534799106066,-1.1174657344818115,0.3530542552471161,-2.1850054264068604,-0.30203522246344616,0.45645023033073073,-0.11124808590956221,,
5.011718999999971,0.36364347558548243,17.558165518339646,174.55646169230482,-2.6150617599487305,0.2689361870288849,-1.5541071891784668,-0.16986983177807405,0.344935681939948,-0.06115313944010666,,
5.021228000000008,-0.0007928622486187182,19.487850004052873,173.89556394421658,-3.526184320449829,0.20326505601406097,-0.7750685214996338,-0.041967840792230066,0.3745130173554244,-0.07807350699760894,,
5.030742999999973,0.15009458461051234,22.175486988429597,172.67545311437212,-4.044516563415527,0.02514582872390747,-2.4878523349761963,0.10898315481918791,0.5262634004105039,-0.1945176112909711,,
5.040251999999953,0.7818007825707464,25.269238882193033,170.3929070196399,-3.302854299545288,0.1318635791540146,-1.2035887241363525,0.30456661603504104,0.6046033698893334,-0.3995604905901522,,
5.049761999999987,0.6540932469383204,28.941288281269863,166.77249247702795,-2.232473850250244,-0.2359353005886078,-1.7597670555114746,0.29950382889185134,0.715584993317675,-0.6356462489515226,,
5.059275999999954,-0.032054651603860146,32.072456837390135,162.01002243547862,-0.9758812785148621,-0.6329498887062073,-1.6559484004974365,0.344935681939948,0.6105987757167948,-0.8149754988129247,,
5.068781999999999,-0.9854364800680473,33.98742940177696,156.60648224944234,0.09719416499137878,-0.750922441482544,-1.5917309522628784,0.3978284844622189,0.37944257325800385,-0.8961133243445695,,
5.078373999999997,-1.8119427812376159,34.754742770730815,151.18880443134125,0.5711174607276917,-0.8211871981620789,-1.6678156852722168,0.44072894393872075,0.16320826974756136,-0.8769280256966929,,
5.08781799999997,-2.2319011926584986,34.3349308302347,146.22204936833805,0.3218134045600891,-0.6437184810638428,-1.357484221458435,0.47097243555724844,-0.06754823898939886,-0.8035176121204428,,
5.097336999999982,-2.6704722048082585,32.916883514366354,141.72775548964827,-0.07406902313232422,-0.7887760996818542,-1.271600604057312,0.39982695307137267,-0.2643307813707443,-0.7391669229056902,,
5.106815999999981,-2.7227427542424367,31.316469612876,137.35018143946726,-0.540345311164856,-0.6838493943214417,-0.8457382321357727,0.43273506950210555,-0.2989709039294104,-0.7142526809115726,,
5.11651599999999,-2.798194323403952,29.983017173683603,132.8083373672533,-0.7987575531005859,-0.4827982187271118,-0.2097177505493164,0.43047013841173115,-0.2426140891512728,-0.7571531403880744,,
5.126021999999978,-3.514578188399343,28.859637162831717,127.88143413797377,-0.4447135627269745,-0.4706609547138214,0.22290253639221191,0.3377411949469943,-0.1898545178696122,-0.8568101083645445,,
5.135537999999997,-4.814997101751601,27.94513321427738,122.48163368231828,0.049496859312057495,-0.47752439975738525,0.08257901668548584,0.2610000003554879,-0.12510413493302866,-0.9667258818680042,,
5.1545509999999695,-8.628302781011772,25.240384980588704,110.79484636266153,0.537250280380249,-0.3818076252937317,0.19617611169815063,0.10498621760088028,-0.19331853012547878,-1.0962266477411713,,
5.164071999999976,-10.917612593906464,23.370169048532237,105.1503200803876,0.29082730412483215,-0.3092399835586548,0.8093646764755249,0.014122511504686942,-0.20557580426162217,-1.083569679883197,,
5.173569999999984,-13.524508720817966,21.622440489752353,99.94630629481873,-0.29831376671791077,-0.1578410565853119,1.0606167316436768,-0.10858346109735714,-0.1458882084682283,-1.0373384393914389,,
5.18309499999998,-16.66842131655616,20.175983239847543,95.0363308975923,-0.8069729804992676,0.13701586425304413,1.7055304050445557,-0.2627320064834212,-0.04596477801053768,-0.9892419615311372,,
5.192587000000003,-20.833460350143653,19.283049758178276,90.1949764626022,-1.144944429397583,0.5594874620437622,2.0934267044067383,-0.488026034355361,0.12257274136143384,-0.9563338451004044,,
5.202110000000005,-26.58103024773465,18.69079350533396,85.49544130235135,-1.2242599725723267,1.119555950164795,2.686997413635254,-0.8171071986626888,0.2610000003554879,-0.9207611038574666,,
5.21161699999999,-34.14138191066017,18.13104389146505,81.3177130173754,-0.9292626976966858,1.1524527072906494,2.736365795135498,-1.213470139478195,0.3362756513002815,-0.8207044421591656,,
5.221127999999965,-41.65972919595846,17.829231713082926,78.06466743386838,-0.33525383472442627,1.323359727859497,2.82464861869812,-1.2710260354218246,0.37051608013711684,-0.5943445643623438,,
5.230451999999957,-48.1402943948622,17.983529316946054,76.01850780066911,0.423953115940094,1.4785157442092896,2.128675699234009,-1.141125575826827,0.33667534502211227,-0.31082848434372295,,
5.239969999999971,-53.08445877671698,18.41714886098865,74.87209657285258,0.7846994996070862,1.1321887969970703,-0.03322291374206543,-0.9018422676908103,0.2342205209928268,-0.09459418083328046,,
5.2495609999999715,-55.52521734072893,18.584882661683668,74.34427769810898,0.48516005277633667,1.3392212390899658,-0.33951830863952637,-0.45192036814998215,0.08033843808798326,-0.02984379789669693,,
5.258996999999965,-56.67823969758703,17.802092228270535,74.0076672670212,0.03663918375968933,1.5342273712158203,-0.2516078054904938,-0.21157121008908364,-0.06794793271122962,-0.15614701399521788,,
5.2684959999999705,-57.60370623212916,15.79552486147616,72.995013581792,-0.29774224758148193,1.0711709260940552,-0.7670036554336548,-0.13336447185086442,-0.10458652387904951,-0.42340888265938775,,
5.278000999999961,-57.568561108367646,12.695842431468405,71.13585118809165,-0.2589230537414551,0.8634687662124634,-1.0881826877593994,0.09965696797647011,-0.05955436455278361,-0.7098560499714343,,
5.28752499999996,-57.061242715566244,8.957409789839573,68.45940488660048,0.24258515238761902,0.7875955700874329,-1.168242335319519,0.20610872922406318,0.013722817782856177,-0.9106355295710873,,
5.297023999999965,-57.005098621389585,5.364674585034565,65.41993082757342,1.171010971069336,0.08992975950241089,-2.2139718532562256,0.09526033703633173,0.11151454839078273,-0.9422113335957175,,
5.306543999999974,-56.37243049397943,2.7660782867525757,62.45649861761002,2.056140899658203,-0.38508141040802,-3.3697896003723145,0.176131700086756,0.20277794820880682,-0.768477795839946,,
5.316055000000006,-54.29827058236955,1.480375056438506,60.113547087783516,2.7225258350372314,-0.30736929178237915,-3.3983099460601807,0.43873047532956694,0.20850689155504776,-0.4703062793541972,,
5.325560999999993,-50.99354252016624,1.2044606153573165,58.72244314231178,3.0912749767303467,-0.24929475784301758,-3.429575204849243,0.6737503837660553,0.12763552850462348,-0.18092802474872519,,
5.335071999999968,-46.263953728538205,1.220349097740664,58.14596572985959,2.6779723167419434,0,-3.0510776042938232,0.9544686077318608,0.007460949474174233,-0.017719755001163802,,
5.344583999999998,-40.32971784529215,0.4981381280265387,57.89869733233667,1.9553271532058716,0.1096954345703125,-2.371427297592163,1.1942848408303182,-0.15854517632620244,-0.06022052075583488,,
5.354093999999975,-33.67759463760446,-1.3946743889050215,57.13127194412018,1.0502334833145142,0.2547851502895355,-1.3713667392730713,1.3384410431706133,-0.28324961753740036,-0.27485604937895436,,
5.36359699999997,-26.674185648595408,-4.049501239341695,54.896201921780815,0.30196014046669006,0.21434155106544495,-0.8020110130310059,1.392266464377156,-0.2948407354704925,-0.5762251156393492,,
5.373301999999967,-19.131983156197684,-6.548351805344179,50.89533714493844,-0.13479703664779663,0.3022243082523346,0,1.4504885165238373,-0.1955834612158531,-0.8558774896802727,,
5.382802999999967,-11.901839444876089,-8.11559714780828,45.620936645566715,-0.25977373123168945,0,0.360617458820343,1.3281822376436236,-0.05275957128166065,-1.030010721157875,,
5.392304999999965,-5.345968158739788,-8.452351291844028,40.12218253307561,0,-0.6166502833366394,0.37424808740615845,1.1701699862798622,0.07487595722296284,-1.0252143964959057,,
5.401825999999971,0.654721522779521,-7.619571098560657,35.57761515705604,0.24509915709495544,-0.7762673497200012,0.7334886789321899,1.0912970918385918,0.18878866794473015,-0.8245681481368631,,
5.411332999999956,5.0518293352219885,-6.255232276762628,32.67800392059502,0.31168365478515625,-0.7990482449531555,0.822981595993042,0.8281653916333399,0.23701837704564216,-0.5040137832285916,,
5.420840999999996,7.204519515010104,-5.093551289927718,31.486163559944806,0.3094138503074646,-0.9067088961601257,0.607088029384613,0.4238085763812185,0.20437672309612986,-0.1720015316278381,,
5.43037099999998,7.48944867009434,-4.2302803979147265,31.49692773568718,0,-0.5345578193664551,0.9478632211685181,0.07087902000465521,0.17053598798112535,0.05622358353752725,,
5.4398669999999925,5.594622725833653,-3.5482680976373393,31.811535001353917,-0.45473769307136536,0.24208837747573853,1.400313138961792,-0.36385451810660413,0.1384272589940541,0.10498621760088028,,
5.449377999999967,1.150420241516173,-2.9544120313036357,31.6620801793472,-1.2188441753387451,0.9108067154884338,2.944082736968994,-0.8823905065617134,0.10765084241308535,-0.002264931090374321,,
5.458880999999963,-4.3915162083175305,-2.849299133744921,30.684371610651056,-1.7747958898544312,0.6652589440345764,2.0139095783233643,-1.1110153154489095,0.013989280264076687,-0.1674716694470895,,
5.468383999999958,-8.278630971990754,-3.765391433972755,29.53791520414198,-1.917639970779419,1.3627194166183472,2.2750840187072754,-0.7869969382847714,-0.1641408884318331,-0.29444104174866165,,
5.477899999999977,-11.853866418973722,-5.496858598963957,28.19166686630148,-1.548092007637024,0.6083183884620667,1.8677005767822266,-0.7334379795594491,-0.3000367538542924,-0.36452067430965535,,
5.487410999999952,-12.722082083480448,-7.332935817788849,27.219506308223714,-1.0719319581985474,0.12036147713661194,0.7673768401145935,-0.19318529888486854,-0.32108728987071256,-0.3120275655092153,,
5.496926999999971,-11.766505960655348,-9.429664930124106,26.699483546578218,-0.6054987907409668,0.7987504005432129,2.144274950027466,0.18132771847055595,-0.39756202198099844,-0.2066416541865042,,
5.506423999999981,-12.152570893679503,-12.029686784438223,26.678357572532207,0.383497416973114,-0.24596889317035675,0.08796530961990356,-0.0738101072980808,-0.5172036760490066,-0.13096630951987984,,
5.515953999999965,-11.543827295084558,-14.793934554983982,27.159032147835383,1.060514211654663,-0.26399171352386475,-0.3504546284675598,0.14868606452104366,-0.5704961722931083,-0.037304747370871166,,
5.5347830000000044,-12.528902553378495,-22.512105635929245,29.635487295606666,2.1000139713287354,-0.5842785835266113,-2.6368567943573,-0.1783966311771303,-0.9082373672401025,0.0770076570727269,,
5.5442919999999845,-13.646213056509737,-27.052356384520724,31.933413849269524,2.467766284942627,-0.32153886556625366,-2.181549072265625,-0.03450689131805583,-0.9864441054783218,0.17320061279333043,,
5.55397099999999,-15.846116366946196,-30.75620765950106,35.03568134563577,4.769924640655518,-0.43291008472442627,-0.044381022453308105,-0.14748698335555135,-0.8605405831016316,0.30669831588480506,,
5.563327999999956,-18.96229075605567,-32.437895710249464,38.794363702238265,2.558194637298584,-0.17444396018981934,-3.378903388977051,-0.2295574275714679,-0.5212006132673143,0.49482082762648394,,
5.572824999999966,-23.084405088457356,-35.98323257393526,44.390040125943386,1.6542444229125977,-0.18680569529533386,-3.503962278366089,-0.21290352249518613,-0.9929724362682243,0.5706294035337186,,
5.582341999999983,-27.32048153603849,-39.70353233581488,50.76069381758215,0.2797586917877197,0,-2.3772966861724854,-0.09033078113375233,-1.096093416500561,0.5513108736452318,,
5.591927999999996,-29.929181447848645,-41.44681016974935,55.280415511833084,-2.512753486633301,0.4137735664844513,-2.772308111190796,0.07354364481686029,-0.6472373668846148,0.4310030633741722,,
5.601433999999983,-30.88338784386786,-42.91442966633859,57.83303185278235,-4.169952869415283,0.528924286365509,-1.9709105491638184,0.18119448722994566,-0.4691071981887049,0.19371822384730955,,
5.610940999999968,-29.637204738159078,-43.876819684862454,57.832044610908,-3.758087635040283,0.5165332555770874,-1.6197412014007568,0.2969724353202565,-0.199713629674771,-0.06528330789902453,,
5.620478999999989,-25.570480934408284,-42.22153536514733,54.384310251404905,-2.9981415271759033,0.26353487372398376,-0.8475035429000854,0.40502297145517263,0.48842572807719176,-0.2462113326477497,,
5.62991599999998,-20.79347595028986,-38.87691843232664,49.77462537871952,-1.6391139030456543,0.08826294541358948,-0.29558488726615906,0.4231424201781673,0.8521470149431856,-0.3214869835925433,,
5.639569999999992,-17.15029581829898,-35.63654492898407,46.21566629807821,0.6743679642677307,-0.28443360328674316,-0.3983253240585327,0.3678514553249118,0.7592848402378384,-0.25207350723460087,,
5.649084999999957,-14.306612085674836,-31.9511392134914,44.064031479234615,2.2293968200683594,-0.22389325499534607,0.13678592443466187,0.4068882088237162,0.7672787146744539,-0.04849617158213252,,
5.658589000000006,-12.526316104393878,-28.276708177954106,43.398772578514915,2.0186657905578613,-0.12031614780426025,-0.469755083322525,0.37358039867115267,0.6999969381662754,0.1827932621172687,,
5.668098999999984,-11.588412901238808,-26.413996558271705,44.37437436422266,1.6432379484176636,0.06427314132452011,0.2524075508117676,0.3422710571277429,0.2935084230643899,0.351730475211071,,
5.677611999999954,-11.435861041643404,-25.55032969006209,46.01498734654998,0.8452460765838623,0.5761339664459229,1.8907490968704224,0.22369525298461673,0.08153751925347555,0.4036906590490701,,
5.687117000000001,-12.702237673539042,-24.6332885060739,47.27815872626137,-0.5288611650466919,0.8611367344856262,2.487560272216797,-0.11138131715017248,0.10751761117247512,0.3156248090056921,,
5.696639000000005,-14.561187574419163,-24.20322462757308,47.7505141425064,-1.1110416650772095,0.7744362950325012,2.494680166244507,-0.30763093456907686,0.04210107203284031,0.13856049023466432,,
5.706143999999995,-15.623187865408969,-24.1062055232169,47.372811195912256,-0.9328403472900391,1.342387318611145,3.786003589630127,-0.2226294030597347,0.01692036755750228,-0.036505359927209644,,
5.715665999999999,-16.84027582706301,-24.006546819167966,46.354127292108814,-0.686275839805603,1.1782112121582031,3.3003060817718506,-0.30883001573456914,0.05262634004105039,-0.1545482391078948,,
5.725173999999981,-17.740789439057416,-24.645620168899264,45.68873396361428,-0.10840088129043579,0.5402606129646301,2.443971633911133,-0.22396171546583724,-0.1005895866607419,-0.1500183769271462,,
5.734677999999974,-17.636672906440317,-25.916421505242244,45.943515825347035,0.7477453947067261,0.6480562686920166,3.0703072547912598,0.05342572748471192,-0.2705926496794262,-0.03077641658096871,,
5.744182999999964,-18.25627416326219,-27.138770654009885,47.09564210511804,1.0480512380599976,0.27197661995887756,2.4789443016052246,-0.006661562030512708,-0.3126937217122665,0.1299004595949978,,
5.753702999999973,-19.566006100174008,-28.806336438563388,49.49882348107069,1.2851324081420898,-0.061538636684417725,1.4562816619873047,-0.031975497746460996,-0.4637779485642947,0.2843154674622824,,
5.763200999999981,-21.423906844611444,-30.966351102045145,52.90123728298955,1.323447823524475,0.3459305465221405,1.7616393566131592,-0.03530627876171735,-0.6175268002285281,0.3806416544234961,,
5.772715000000005,-25.377212782998967,-33.41747371510998,56.783908954537566,0.6540623307228088,0.30212292075157166,0.757754921913147,-0.3889019913413319,-0.7114548248587572,0.376378254723968,,
5.7822419999999966,-30.93158795129234,-36.55947341103398,61.167689502275124,-0.14311733841896057,0.12108117341995239,-0.7650448679924011,-0.6351133239890816,-0.882790200283544,0.28951148584608233,,
5.791637999999978,-37.2089327102484,-40.12847114816008,65.87583593802526,-0.8597986698150635,0.47264087200164795,-1.0995317697525024,-0.7026615629784805,-0.9905742739372396,0.1669387444846485,,
5.801144999999963,-44.611937895476906,-43.49919670187768,70.61317874319258,-1.5890414714813232,0.3432798385620117,-2.7642288208007812,-0.8855880563363594,-0.9528698328445377,0.05049464019128632,,
5.810657999999989,-52.33393328868163,-46.40925236609587,75.695823845977,-1.9338889122009277,0.14318424463272095,-4.039699077606201,-0.85960796441736,-0.9069050548340002,0.009459418083328045,,
5.820095999999978,-59.82051447152049,-48.28636865530854,80.89651873732424,-2.0126967430114746,0.19478008151054382,-4.324237823486328,-0.7535558968915975,-0.7853981633974483,0.06235222060559895,,
5.829596999999978,-65.98497099954636,-48.589130779953805,84.9642931387999,-1.984482765197754,-0.11370491981506348,-5.216868877410889,-0.6176600314691383,-0.5202679945830424,0.1869234305761866,,
5.839102999999966,-68.89433757667139,-47.39040216236632,87.55211810140919,-2.3899149894714355,0.24698546528816223,-4.610247611999512,-0.20757427287077598,-0.2255604903531603,0.3436033695338455,,
5.848703999999998,-69.5912648030717,-45.49941671451101,88.74901840480621,-2.608975410461426,0.7473955750465393,-3.865227460861206,0.05835528338729132,-0.04716385917602997,0.4132833083730084,,
5.858228999999994,-68.49367349191452,-43.519915969670244,88.25319979165059,-2.273967742919922,0.7414689064025879,-2.6546921730041504,0.19398468632853008,0.16120980113840752,0.3531960188577838,,
5.867719999999963,-64.78890631692207,-41.788344572400085,85.73662643539912,-1.9901707172393799,0.8202353715896606,-2.0354559421539307,0.4689739669480946,0.4044900464927316,0.19291883640364801,,
5.877229999999997,-59.81038091402537,-40.8954252463491,82.56068124422647,-1.1371567249298096,0.7919636964797974,-0.6303220987319946,0.6621592658329631,0.41514854574155197,-0.027179173084491845,,
5.886845999999991,-54.33000008438484,-40.77797688157267,79.24531183970694,-0.05200165510177612,0.39558061957359314,-0.7866891026496887,0.7474272598235258,0.3476003067521531,-0.20970597272054006,,
5.896354999999971,-48.16566651506508,-40.848428710755954,75.83724146475448,0.7917956709861755,0.2927775979042053,-0.22356173396110535,0.8672021451321443,0.3172235838930152,-0.2871133235150977,,
5.905869999999993,-42.6559885817645,-40.92343997518518,73.08631041756654,1.2439136505126953,-0.1768156886100769,-0.6861061453819275,0.8144425738504838,0.22103062817241168,-0.2555375194904675,,
5.915360999999962,-37.930540913778266,-41.1535713504368,71.93119306719285,1.4114397764205933,-0.2911006212234497,-0.5015490055084229,0.8557442584396624,0.0255803981971688,-0.12030781027105951,,
5.924889000000007,-34.513404424955844,-41.5303254650635,72.36049374451979,1.1322462558746338,-0.12262716889381409,0.3682907819747925,0.8029846871580019,-0.1476202145961616,0.05275957128166065,,
5.93439699999999,-32.71482708902444,-41.78630502078685,73.7960473792587,1.2328518629074097,-0.14306950569152832,1.7000229358673096,0.6043369074081129,-0.20197856076514528,0.18852220546350962,,
5.9439049999999725,-31.137697129564817,-40.54014727806761,74.59318269428992,0.9791197180747986,0.33467280864715576,2.6307055950164795,0.46577641717344853,0.1136462482405468,0.2656630937768468,,
5.95341099999996,-30.203886241548418,-38.50770574407929,74.60082352659195,0,0.8746201992034912,1.7035343647003174,0.23382082727099604,0.31375957163714857,0.2440796327979856,,
5.962921999999992,-30.640285422117827,-37.35857213115181,74.66248260039394,0,0.9128856062889099,2.0573055744171143,-0.050094946469455566,0.16707197572525873,0.14495558978395653,,
5.972437999999954,-30.7181173015714,-36.25761237236536,74.01272745488257,0.32569950819015503,1.0307170152664185,3.11301589012146,-0.07181163868892698,0.22103062817241168,0.03477335379927634,,
5.981944999999996,-30.009446350597262,-34.84197563082873,72.46722492971743,0.42656803131103516,1.2535340785980225,3.214113712310791,-0.007993874436615249,0.343869832015066,-0.0511607963943376,,
5.991452999999979,-29.43069767833685,-34.04073084640663,71.2543416377617,1.2811224460601807,0.8315176963806152,2.4264602661132812,0.004396630940138387,0.21330321621701692,-0.07554211342601411,,
6.000967000000003,-28.511252463697353,-33.69145077058692,70.81521190067217,2.170685052871704,0.4884459674358368,2.266727924346924,0.16001071997291527,0.07194486992953725,-0.011724349173702365,,
6.010475999999983,-27.83500721311171,-33.84326341313937,71.5964138334226,2.2582740783691406,0,1.5240732431411743,0.24487902024164715,-0.11084839218773147,0.11564471684970062,,
6.019983999999965,-27.654090505902605,-35.08731519988289,74.22668188905853,2.0376064777374268,-0.1906529664993286,1.2289832830429077,0.3537289438202248,-0.44272741254787457,0.2792526803190927,,
6.029485999999963,-28.96208979983246,-36.868624654604886,78.3665063925505,1.076460838317871,-0.2935851514339447,1.3043367862701416,0.2435467078355446,-0.6511010728623121,0.43007044468990047,,
6.038996999999995,-31.801551756501546,-38.61165092780074,83.52489100011653,-0.3059466779232025,-0.7469531297683716,0.07849693298339844,0.07740735079455767,-0.7298407360629723,0.5301271063882013,,
6.0483299999999645,-34.80734198790341,-40.110734782042854,89.36582987611257,-1.6347496509552002,-0.2873639762401581,0.46136045455932617,0.14722052087433082,-0.7587519152753974,0.5856845337226774,,
6.057842999999991,-38.76955531955765,-40.973696968091154,95.1622785055937,-2.7334606647491455,-0.21625837683677673,-0.4592271149158478,-0.031575804024630234,-0.6780137834655834,0.5975421141369899,,
6.067425999999955,-42.92790571419851,-40.90213770103704,100.65956260821108,-3.570657253265381,-0.6681185960769653,-1.9402039051055908,-0.11231393583444427,-0.5383874433060372,0.6257871371463639,,
6.076934999999992,-45.165749814809224,-39.86834886299443,105.65859254150278,-4.238892078399658,-0.7752497792243958,-3.8633310794830322,0.216500765991663,-0.4002266467932035,0.694001532338814,,
6.086454000000003,-44.64431498556315,-38.09029393526303,109.14640186848008,-4.518545627593994,-0.47928690910339355,-2.628971815109253,0.5878162335724414,-0.17519908140248425,0.663091884517235,,
6.095978000000002,-42.442337608772775,-35.87385271966748,110.73115701843466,-4.143601894378662,-0.6619120240211487,-3.5268454551696777,0.6942679948200344,0.08460183778751139,0.5378545183435961,,
6.105470999999966,-37.79333548156071,-33.785149678197534,111.57790227220654,-3.7820792198181152,-1.0412571430206299,-3.9624011516571045,1.1087503843585351,0.14988514568653596,0.4524532931124231,,
6.114981,-28.64184257888546,-31.989498597145772,111.55687848340808,-3.2960634231567383,-0.052628666162490845,-1.5270421504974365,1.9425114880975056,0.20197856076514528,0.3257503832920714,,
6.124236999999994,-16.854692602097234,-30.30092079269471,109.70027642451225,-2.600569486618042,0.17594122886657715,0.053126394748687744,2.299304750451766,0.34413629449628647,0.022249617181912443,,
6.133933999999954,-3.476141127227563,-29.32188735025956,106.09987114271243,-0.9702175855636597,-0.13330131769180298,0.5388593673706055,2.4491898961383023,0.25460490080619574,-0.37731087340823977,,
6.1434339999999565,11.7651340258291,-28.9875284902859,101.03350379697591,1.2740672826766968,0.13467563688755035,1.685684323310852,2.6819448734844165,0.0063950995492922,-0.6838759580524346,,
6.153137999999956,27.022755003990486,-28.15766386992301,95.52041193229348,2.59999680519104,0.1371631622314453,2.8673391342163086,2.638245026564253,-0.11298009203749554,-0.7940581940371148,,
6.1626529999999775,40.57468776458582,-27.279901018174083,90.61056535996342,2.6191723346710205,-0.7157576084136963,1.5576021671295166,2.347934153274509,-0.2596676879493854,-0.6918698324890498,,
6.172158999999965,53.9420303209329,-27.650599877123856,86.08279602201138,1.9570709466934204,-0.6378089785575867,1.3838779926300049,2.334611029213484,-0.5549081171417086,-0.40582235889883417,,
6.190999999999974,75.72721964173759,-30.89088055629792,77.44626776839672,-0.4810220003128052,-0.9263222217559814,0.7950707674026489,1.511774887204554,-0.7792695263293765,0.09725880564548554,,
6.200493999999992,83.44042629564599,-31.93683675485419,73.44296234053206,-0.8260034322738647,-0.6515073776245117,0.5534537434577942,1.1329984701496014,-0.7225130178294084,0.0772741195539474,,
6.21017999999998,87.78845013225163,-31.514107820833996,70.54018480085303,-0.5274149775505066,-0.2781945466995239,-0.10766938328742981,0.5716952534586006,-0.49815160864174035,-0.1272358347827927,,
6.219533999999953,87.56729385188338,-29.550260741121825,68.7702198382949,-0.28414544463157654,-0.6275473833084106,-2.045396089553833,-0.21743338467593476,-0.30083614129795394,-0.4103522210795828,,
6.229027999999971,85.18384673213458,-26.66137343756813,66.54471246775783,0.5672388076782227,-0.6755356788635254,-0.7834711670875549,-0.6801454833153475,-0.3675849928436912,-0.6072679947015385,,
6.238726999999983,80.39898621190073,-23.72064120362836,64.52648939385624,0.8942840099334717,0.13162308931350708,-0.500992476940155,-1.1228728958632221,-0.30083614129795394,-0.6353797864703021,,
6.24805299999997,71.7243374367534,-21.42917926968678,63.12318291028313,0.6623277068138123,0.4431784749031067,0.3499371409416199,-1.8375252704966252,-0.1532159267017923,-0.5134732013119195,,
6.257564000000002,60.991641339878946,-20.587954008088612,61.927648900971285,0.8341476321220398,1.5424516201019287,3.2681221961975098,-2.2277595742440597,-0.14908575824287443,-0.2494088824223958,,
6.267072999999982,46.283486508774025,-21.273389060337333,61.648858820888705,1.3685564994812012,3.305823802947998,5.950916290283203,-2.9580000040288628,-0.13536294046001823,0.0747427259823526,,
6.27657499999998,27.577183535992265,-23.096541783014864,62.961034650694955,1.799761414527893,1.649338960647583,2.497741222381592,-3.639078106028482,-0.1578790201231512,0.410485452320193,,
6.286088000000007,11.009404884926472,-25.51169703972779,66.11732822417942,1.3763103485107422,2.1556339263916016,4.307684421539307,-3.049263403846887,-0.2784532928754312,0.7003966318881061,,
6.295597999999984,-5.8947237494954345,-27.32172461881677,70.33159500313852,0.7192275524139404,3.4094104766845703,3.987015962600708,-3.0010336947459746,-0.34080551348103016,0.7682113333587255,,
6.304935,-23.27282350173232,-27.85851367625218,74.26856264763241,-0.443684846162796,1.890458106994629,0.2370835542678833,-3.106686068549907,-0.29244257313950783,0.6459050544785121,,
6.314452999999958,-36.473523327920944,-28.349870837785712,77.56446981714035,-1.5841425657272339,1.9945192337036133,-0.11566811800003052,-2.324885148648935,-0.38756967893522937,0.4513874431875411,,
6.3242179999999735,-47.79296928553606,-29.428880349086278,80.10476927157013,-2.3079891204833984,2.4639594554901123,-1.1869738101959229,-2.013523739342771,-0.47123889803846897,0.18039509978628412,,
6.333733999999993,-57.92388358156938,-30.88619368393505,81.90577816179925,-2.7094035148620605,1.0795420408248901,-4.175398349761963,-1.8401898953088303,-0.43686523796102344,-0.04956202150701454,,
6.343225999999959,-63.83805670669014,-32.25923182315856,83.48313986655137,-3.078742742538452,0.9954556822776794,-4.300634860992432,-1.0117580411942702,-0.3806416544234961,-0.11444563568420833,,
6.352750999999955,-67.07344273593253,-33.06212327682461,84.2278267294018,-3.0158777236938477,1.1825315952301025,-3.711353302001953,-0.5603705980067291,-0.1926523739224275,-0.09925727425463934,,
6.3622609999999895,-68.46473703813378,-32.85488469504551,82.87960285441046,-2.778358221054077,0.571567177772522,-3.941873073577881,-0.4184793267568083,0.2137029099388477,-0.05235987755982988,,
6.371767999999975,-66.95393824498235,-31.705328558655467,79.64760428242148,-2.4110097885131836,0.7301676273345947,-3.3065454959869385,-0.036238897445989134,0.5818208277449799,0.0003996937218307625,,
6.38127499999996,-64.44530366309198,-30.25702535201353,75.58776983253692,-1.5041038990020752,0.9835188388824463,-1.9435973167419434,0.09059724361497283,0.742764166402167,-0.027578866806322613,,
6.3907069999999635,-62.11733750964825,-28.883611135304463,71.08897457313083,-0.5243331789970398,0.5446155071258545,-1.7413603067398071,0.03477335379927634,0.8015191435112891,-0.10658499248820333,,
6.400233999999955,-58.85454898053195,-27.69542388666429,66.4114141243939,0.22788196802139282,0.5277417898178101,-1.1332318782806396,0.232754977346114,0.7961898938868788,-0.18905513042595065,,
6.409902999999986,-55.334823083173745,-26.848242668143737,61.911403940798166,0.830774188041687,0.6428560018539429,-0.20455580949783325,0.31176110302799476,0.7313062797096851,-0.28378254249984136,,
6.419408999999973,-52.476277096940876,-26.41322123847832,57.83712444189139,1.0449621677398682,0.3284902274608612,0,0.2211638594130219,0.616460950303646,-0.3551944874669376,,
6.428932999999972,-49.99664638193677,-26.26903824479692,54.37652937005574,0.8473816514015198,0.31630587577819824,0.9767135977745056,0.19944716719355046,0.48496171582132513,-0.3667856054000297,,
6.4384339999999725,-48.42669634900008,-26.127376824659805,51.50097528901741,0.371848464012146,0.22006481885910034,1.4365990161895752,0.06301837680865022,0.40422358401151115,-0.3264165394951227,,
6.447956999999974,-47.8310256852877,-25.725231901884005,49.172603445479375,-0.13399434089660645,0,2.270850658416748,-0.08700000011849597,0.36865084276857324,-0.23781776448930367,,
6.457459999999969,-47.92148493061212,-24.890026093414793,47.40463318002205,-0.3043026328086853,0,3.5367724895477295,-0.17599846884614576,0.35905819344463497,-0.11484532940603907,,
6.466958999999974,-48.72775699363564,-23.56354759361419,46.138039394553914,-0.12751570343971252,0,3.8770041465759277,-0.2728575807698005,0.3614563557756195,0.018385911204215073,,
6.4764639999999645,-49.666769009137965,-21.981568097487564,45.52245907880779,0.36105743050575256,-0.15707552433013916,3.0684502124786377,-0.24221439542944204,0.30563246595992305,0.1394931089189361,,
6.485989999999958,-49.34974729818359,-20.538285761728087,45.41601820200032,0.8283717036247253,-0.2186233401298523,2.4781198501586914,0.0575558959436298,0.2011791733214838,0.19318529888486854,,
6.5049999999999955,-46.63159699983836,-21.771986201899537,46.68968678187222,0.7824243307113647,-0.3818574547767639,1.7284491062164307,0.32761562066061495,-0.3609234308131785,-0.1386937214752746,,
6.514511999999968,-45.016123483954615,-25.352058959492155,47.751062982686896,0.7944473624229431,-0.40166813135147095,1.0180182456970215,0.4036906590490701,-0.6319157742144355,-0.4020918841617471,,
6.524022000000002,-43.24821947041805,-29.971959923568377,48.35075435826384,0.21698468923568726,0.028714418411254883,0.7623469829559326,0.40142572795869574,-0.729707504822362,-0.5936784081592925,,
6.533553999999981,-42.94633074917662,-35.1355294414782,48.93976335094326,-0.4069858193397522,-0.32827305793762207,-0.6858679056167603,0.10525268008210079,-0.80724808685753,-0.6682879029010349,,
6.542872999999986,-43.73532923286413,-39.980446024648685,50.02651021895432,-0.8165844678878784,-0.7622232437133789,-1.88309645652771,-0.049695252747624805,-0.8076477805793607,-0.5752924969550774,,
6.5523789999999735,-45.28972991790997,-43.560761885135264,51.861300744002925,-1.2199159860610962,-0.6074101328849792,-2.503641128540039,-0.0929954059459574,-0.6886722827144038,-0.3392067385937071,,
6.561889000000008,-48.588413577494954,-45.61218409305126,54.654212975903036,-1.3969414234161377,-0.5243452787399292,-3.4108128547668457,-0.3053660034787026,-0.5501117924797394,-0.06421745797414251,,
6.571402999999975,-52.873028503173764,-46.125202362009524,57.875327883415764,-1.2733688354492188,-0.4824672341346741,-4.232640266418457,-0.4399295564950592,-0.385304747844855,0.16760490068769973,,
6.580911999999955,-56.43461572566195,-45.36388392695433,60.19758530033899,-1.179426908493042,0,-3.9509575366973877,-0.41434915829789043,-0.15534762655155634,0.2836493112592311,,
6.590418,-59.20479238653959,-44.231376189270826,61.1256213426851,-1.0372991561889648,0.2938888370990753,-3.8756601810455322,-0.4703062793541972,0.04316692195772235,0.2283583464059756,,
6.599933999999962,-60.71846149584917,-43.60630992160051,60.2504289050346,-0.7083356976509094,0.4700284004211426,-3.689735174179077,-0.44792343093167447,0.1874563555386276,0.02438131703167651,,
6.609440000000006,-60.50745560182722,-43.852566808188,57.2480772938574,-0.6150619983673096,0.6669451594352722,-2.9346837997436523,-0.38663706025095756,0.36105666205378883,-0.271525268363698,,
6.618951999999979,-59.05615328053874,-45.12662085384884,52.49085021825064,-0.7011986374855042,0.7505249977111816,-1.9410767555236816,-0.39076722870987546,0.46524349221100747,-0.5778238905266723,,
6.628481999999963,-57.231516385784815,-47.19179285794904,47.021185697685056,-0.27379074692726135,0.6226181983947754,-1.116729497909546,-0.44259418130726436,0.43460030687064904,-0.7687442583211664,,
6.63817499999999,-55.03922788391235,-48.90145392238604,41.1679643025583,0.26916712522506714,0.16074469685554504,-0.6354031562805176,-0.4488560496159463,0.46524349221100747,-0.7369019918153157,,
6.647655999999984,-52.01756043123653,-49.22160312690933,35.695544333531465,0.5099932551383972,0.02799302339553833,-0.4493769109249115,-0.2228958655409552,0.5322588062379654,-0.4866937219492585,,
6.657173999999998,-49.14632410540834,-48.05822488291596,31.827559176350398,0.6193038821220398,0.2766576409339905,0.29787343740463257,0.018519142444825328,0.5192021446581604,-0.1398928026407669,,
6.66668199999998,-46.92870374327127,-45.70299748088078,29.669128677523368,0.5512667894363403,0.2976391911506653,0.6561028957366943,0.17506585016187395,0.49575344631075574,0.1729341503121099,,
6.676189999999963,-44.43128335556277,-42.787971515514386,28.60008296433621,0.08214563131332397,0.5862258672714233,1.126246452331543,0.4196784079223006,0.46031393630842804,0.3499984690831377,,
6.685697000000005,-41.86435343956182,-40.47065566902267,28.35396129696601,-0.19481754302978516,0.6021386384963989,1.937988519668579,0.5418514555619036,0.31082848434372295,0.32948085802915855,,
6.695217999999954,-38.777523556994794,-39.40229153349794,28.23540219990617,-0.16685453057289124,0.2648552656173706,2.8856961727142334,0.6359127114327431,0.14309035241541299,0.14322358365602322,,
6.704725999999994,-34.27155886471121,-39.56305547576588,27.335118507450215,0.18892759084701538,0.15427425503730774,2.9417741298675537,0.8128437989631607,0.032108728987071254,-0.1183093416619057,,
6.714237999999966,-28.937610655848456,-40.66734975908955,25.57693297341108,0.5116382837295532,0.030796796083450317,3.9217851161956787,0.8521470149431856,-0.06141960192132717,-0.34626799434605054,,
6.723736999999971,-24.249049144317436,-42.44491336864906,23.499775027604628,0.9339644908905029,-0.6604706048965454,3.4296512603759766,0.6605604909456401,-0.1859908118919148,-0.45205359939059236,,
6.733249000000001,-20.489936259480057,-44.48020007857613,21.952807038687983,1.2163512706756592,-0.9285112619400024,2.713346004486084,0.52946095018515,-0.296173047876595,-0.384771822882414,,
6.742762999999968,-18.805550193302714,-46.689150277637715,21.939520318113523,1.216207504272461,-0.7331533432006836,2.3871092796325684,0.319222052502169,-0.4200781016441313,-0.1769310875304175,,
6.75227799999999,-20.808205527403786,-49.16050598314287,24.252053541754687,1.1936461925506592,-0.6124181747436523,1.1283137798309326,-0.0848683002687319,-0.571828484699211,0.08966462493070106,,
6.761785999999972,-26.69261050006203,-51.7570878979044,29.300168743378876,0.9256734251976013,-0.36220648884773254,0.3791961669921875,-0.4499218995408283,-0.7270428800101569,0.33014701423220977,,
6.77129199999996,-36.1633118960757,-54.363866926748464,37.37047104253,0.5752738118171692,0.33768099546432495,-0.30771100521087646,-0.7455620224549823,-0.9043736612624053,0.45578407412767946,,
6.780448999999976,-48.5415572117864,-56.52329982049665,47.02290064057388,0.24840617179870605,0.7632232308387756,-1.315149188041687,-1.0674486997693564,-0.9811148558539117,0.4174134768319263,,
6.7899589999999534,-61.93472905677836,-58.153367126152936,56.75926751529676,-0.15856927633285522,0.810756504535675,-2.622419595718384,-1.2267932635392202,-0.9588652386719991,0.2554042882498572,,
6.799632999999972,-75.30734447023366,-59.627601153862095,66.78986976536835,-0.9382687211036682,1.0833110809326172,-3.0685107707977295,-1.1246049019911553,-0.9863108742377116,0.05982082703400411,,
6.809152999999981,-89.76428770197445,-60.90695140277295,77.99686473783841,-1.9192440509796143,1.3949156999588013,-3.1101815700531006,-1.090764166876151,-1.0601209815357924,-0.1256370598954697,,
6.818663999999956,-104.19211997174438,-61.5815809114568,88.95129786769152,-2.8911490440368652,1.2016792297363281,-3.496887445449829,-1.0870336921390638,-0.9705895878457015,-0.25846860678389305,,
6.828249999999969,-116.70545103236412,-61.53210892202179,98.08899185996219,-3.5207457542419434,1.6209278106689453,-2.138911247253418,-0.9864441054783218,-0.7810015324573097,-0.2816508426500773,,
6.837761999999998,-128.25215237653336,-61.05087589876007,104.14428114259468,-3.551846981048584,1.4825122356414795,-0.6317205429077148,-1.305799389221101,-0.5243981630419603,-0.21743338467593476,,
6.847263999999996,-136.5348612186337,-60.758928570295716,105.34543189714049,-2.817368984222412,0.7964969873428345,-1.0956408977508545,-1.4820643205484674,-0.12057427275228003,-0.02531393571594829,,
6.856793999999979,-139.65551486556217,-60.98499046513125,101.35167593868415,-2.087777853012085,1.5101343393325806,0.20926713943481445,-1.3161914259887009,0.28191730513129776,0.2543384383249752,,
6.866295999999977,-141.2182158742767,-61.405928288578075,94.22437763702156,-1.2073060274124146,1.883134126663208,0.6372236013412476,-1.4975191444592566,0.47043951059480743,0.4463246560443514,,
6.8759000000000015,-142.30255101302396,-61.86274195687463,86.12291898106605,0.08356952667236328,1.035786747932434,-0.5075783729553223,-1.5562741215683789,0.5097427265748324,0.5090765703717811,,
6.885415999999964,-141.29660660949153,-62.61675587270613,78.18136817658494,0.5422590970993042,1.3492743968963623,0.534731388092041,-1.1007565099219199,0.5325252687191858,0.44272741254787457,,
6.894931999999983,-142.10350700150204,-63.40787790354887,72.81133011455881,0.8714922666549683,1.4125144481658936,0.4487488865852356,-1.0050964791637576,0.3809081169047166,0.23648545208320115,,
6.904436999999973,-145.3409255657074,-64.04656111795478,71.08334074679294,1.18644118309021,0.37336283922195435,-0.7603831887245178,-0.8456186841532832,0.15121745809263848,0.0005329249624410166,,
6.913944999999956,-146.94220858330957,-64.50715019547391,71.59287798851865,1.396939754486084,0.33973968029022217,-0.5478591918945312,-0.11004900474406994,0.010392036767599824,-0.13789433403161305,,
6.923461999999972,-145.28290395863422,-64.96130431321362,71.91515185430595,1.6353600025177002,0.3818608522415161,-0.20616623759269714,0.5475803989081446,0.009059724361497283,-0.13749464030978228,,
6.932953999999995,-138.8809444268318,-65.549148694191,69.92781988703695,1.796008825302124,-0.2031119465827942,0.6610822677612305,1.0996906599970377,0.13469678425696696,-0.008926493120887028,,
6.942476999999997,-126.36418587632662,-65.61870814805943,65.19247349110167,1.9821670055389404,-0.4791628122329712,1.7386987209320068,1.8367258830529638,0.22342879050339623,0.192385911441207,,
6.951980999999989,-110.435077357297,-64.37137484061567,60.28967458708925,2.427886486053467,-0.3913804590702057,2.9643678665161133,2.509543648134747,0.15095099561141795,0.36745176160308096,,
6.961304999999982,-94.70926391472126,-61.90376224150937,58.97361263353487,3.574871778488159,0.5811278820037842,3.401344060897827,3.173967845058085,-0.1291010721513363,0.4768346101440996,,
6.970821999999998,-81.98274614115256,-59.02896411777718,62.98466306299767,4.239617347717285,1.9721835851669312,5.586257457733154,3.516238902185828,-0.5415849930806832,0.5878162335724414,,
6.980320000000006,-75.31217880594863,-56.610260431679464,70.92540977456333,3.2087533473968506,0.9862996935844421,5.114682674407959,2.934418074440848,-0.9005099552847079,0.6670888217355426,,
6.989843000000008,-71.52469313425426,-55.08110020228189,81.33084148741153,1.6492068767547607,0.4090930223464966,3.1837780475616455,2.688073510552488,-1.1761653921073238,0.6601607972238093,,
6.9993539999999825,-67.84228059079518,-54.21340944033951,92.39390045323289,-0.7329854965209961,1.5740973949432373,3.554546356201172,2.713254215027826,-1.2630321609852095,0.6427075047038661,,
7.0088649999999575,-65.70597021019243,-53.952471412491334,102.14680748798541,-3.38478946685791,1.2563045024871826,2.3542304039001465,2.1274364500645384,-1.1183430336824733,0.5262634004105039,,
7.018467999999984,-63.946421559606826,-54.450286399812896,110.46148248438664,-5.361148357391357,0.12989234924316406,-0.7775905132293701,1.7910275675236467,-0.988709036568696,0.343869832015066,,
7.027978999999959,-58.35644578108039,-55.11475368085079,115.36222586305679,-5.957828998565674,0.680077850818634,0.5743759274482727,2.017520676561079,-0.6275191432742971,0.1819938746736072,,
7.037485000000004,-48.793225899649045,-54.47423216378468,115.21989883493691,-5.633939266204834,-1.1606006622314453,-0.7132391929626465,2.0187197577265708,0.0095926493239383,0.13882695271588483,,
7.046908999999971,-34.33493643413526,-51.74827182897679,112.5456788354618,-5.072483539581299,-0.5440961122512817,0.9929296374320984,2.64717151968514,0.5246646255231808,0.2147687598637297,,
7.056246999999985,-19.15384607222779,-48.203122673634354,112.03938188223304,-4.6976799964904785,-0.5940792560577393,1.84053635597229,3.1699709078397778,0.5774241968048416,0.4086202149516495,,
7.06574599999999,-1.7992743580732011,-45.68989466776775,114.12266826277089,-4.605269432067871,1.2836580276489258,4.8843770027160645,4.003065855375696,0.3964961720561163,0.5684977036839545,,
7.075265000000002,17.03979556284396,-45.714900753974526,115.90997463892569,-3.0727663040161133,2.191220998764038,7.05415153503418,4.25114242539199,0.044765696845045395,0.4545849929621872,,
7.084947999999997,36.74445845684326,-47.423477670707534,114.82058404076939,-0.8901931047439575,1.5269893407821655,6.466155052185059,3.991474737442604,-0.3016355287416154,0.18345941832031995,,
7.094641999999965,57.54956500581591,-48.56946435503533,111.31681090460576,0.4757528305053711,1.3104422092437744,5.735342025756836,3.8166753497619506,-0.4044900464927316,-0.05502450237203497,,
7.103966999999955,76.63328072389582,-48.34650519440476,107.67264739515284,0.44978582859039307,0.6383637189865112,5.032479286193848,3.406856053644809,-0.33894027611248656,-0.19198621771937624,,
