timestamp,Roll,Pitch,Yaw,Acc X,Acc Y,Acc Z,Gyro X,Gyro Y,Gyro Z,Acc Magnitude,Gyro Magnitude
0.0,11.865248362516834,5.159028032867569,70.39435736276387,0,0.027968332171440125,0.044526100158691406,0,0,0,,
0.009508999999980006,11.84045744656854,5.123117088668768,70.53670468160118,0,0.03496663272380829,0.04901862144470215,0,0,0,,
0.019029999999986558,11.822615905297951,5.094599797211588,70.67590754499003,0,0.03526116907596588,0.05647546052932739,0,0,0,,
0.02852500000000191,11.80120014396883,5.068455650978116,70.76071101587264,0,0.028541401028633118,0.06636375188827515,0,0,0,,
0.038035999999976866,11.773102998786609,5.0487205990598545,70.80469272618944,0,0,0.0669662356376648,0,0,0,,
0.047549000000003616,11.73386869568721,5.039840948177818,70.8376615961114,0,0,0.0658378005027771,0,0,0,,
0.057045999999957075,11.680266487597395,5.049730203688226,70.89701678409322,-0.026890426874160767,0,0.07176369428634644,0,0,0,,
0.0665559999999914,11.610690045661764,5.085815700803914,70.99967140418583,-0.04358699172735214,0,0.09036195278167725,0,0,0,,
0.07600800000000163,11.552331114995447,5.104027287768066,71.15162659274972,-0.0559583380818367,0,0.10043376684188843,0,0,0,,
0.08551199999999426,11.482077112549607,5.148240306463102,71.35914914719923,-0.059581637382507324,0,0.10977345705032349,0,0,0,,
0.09502699999995912,11.386435589700815,5.220250968702118,71.67006544814016,-0.05784176290035248,0,0.10345518589019775,0,0,0,,
0.10460699999998724,11.23678005282327,5.359330874755064,72.02008814767184,-0.04932433366775513,0,0.08559644222259521,0,0,0,,
0.11410100000000511,11.088243882543509,5.509612205341278,72.3926503627847,-0.03670881688594818,-0.028468221426010132,0.07265239953994751,-0.01958499236970736,0.023049004625573973,0.04769678413847099,,
0.1236149999999725,10.931634277017235,5.682761644668942,72.77651662566561,-0.03370072692632675,-0.03745335340499878,0.04558205604553223,-0.021050536016420155,0.028644716731204643,0.053692189965932426,,
0.13311799999996765,10.768449892193347,5.880885909996653,73.16646197799315,-0.035871878266334534,-0.04753640294075012,0.03563070297241211,-0.02131699849764067,0.0337075038743943,0.058488514627901576,,
0.14263199999999188,10.596825607155239,6.1084239538750635,73.53342342615751,-0.02923772484064102,-0.05551166832447052,0.04866206645965576,-0.021583460978861175,0.04170137831100955,0.06062021447766564,,
0.15214800000001105,10.408949639128332,6.379124171720191,73.90208148862499,0,-0.06294853985309601,0.05711311101913452,-0.02344869834740473,0.05262634004105039,0.0592879020715631,,
0.16165200000000368,10.193184147967028,6.678081645195318,74.30688154384772,0,-0.06257683038711548,0.06800776720046997,-0.0287779479718149,0.06128637068071692,0.053692189965932426,,
0.17115799999999126,9.917916371594739,6.957119264807247,74.69102147578705,0.06404871493577957,-0.063878133893013,0.05066406726837158,-0.040235834664296755,0.0688805513955014,0.044765696845045395,,
0.18066499999997632,9.58465149701798,7.213969780032933,75.03958868605173,0.15682603418827057,-0.06175488978624344,0.04559522867202759,-0.05222664631921963,0.08326952538140886,0.03850382853636345,,
0.1901809999999955,9.207211917548719,7.5018050612067,75.41701359600661,0.14302107691764832,-0.028607264161109924,0.030523180961608887,-0.06928024511733216,0.08660030639666522,0.04063552838612752,,
0.19969299999996792,8.73240042988383,7.71059787008104,75.82309994271415,0.13784967362880707,0,0.06290268898010254,-0.09699234316426504,0.07034609504221419,0.04942879026640429,,
0.20914399999998068,8.16315096181982,8.164258333030151,76.2701759937062,0.07664084434509277,0.052186012268066406,0.14232659339904785,-0.11804287918068519,0.08979785617131131,0.05968759579339386,,
0.21861200000000736,7.5338236061755,8.783707712664782,76.78356559829706,-0.0802922397851944,0.11635918915271759,0.26612937450408936,-0.13203215944476188,0.12310566632387485,0.06421745797414251,,
0.22813299999995706,6.781485174011333,9.527114617212446,77.33521949170496,-0.14409677684307098,0.1692524403333664,0.36050254106521606,-0.15694640143887942,0.14628790219005905,0.05795558966546056,,
0.23763499999995474,5.883652995287004,10.598681143139792,77.86212883472264,-0.1081116646528244,0.21569332480430603,0.4023091793060303,-0.18585758065130456,0.20970597272054006,0.044232771882604376,,
0.2471400000000017,4.863776575564865,12.04943326194843,78.35887336272773,-0.05400113761425018,0.25305691361427307,0.32852137088775635,-0.20997243520176057,0.28351608001862083,0.030909647821578963,,
0.2566620000000057,3.750526562806858,13.682048759131261,78.75351931932802,0.11676529049873352,0.2992626428604126,0.3414788842201233,-0.2283583464059756,0.31842266505850747,0.024514548272286767,,
0.2661630000000059,2.5400889620205467,15.540055416357601,79.15785668521755,0.28259220719337463,0.3435475528240204,0.4085506796836853,-0.2494088824223958,0.3627886681817221,0.028111791768763626,,
0.2756660000000011,1.2420319940484041,17.63820244651706,79.61313089029572,0.34184688329696655,0.4019482135772705,0.49831753969192505,-0.2705926496794262,0.41021898983897254,0.040235834664296755,,
0.2851929999999925,-0.16722165428961575,19.874372773370794,80.09964833156008,0.3966180682182312,0.43486911058425903,0.6058101058006287,-0.29750536028269753,0.43673200672041307,0.05635681477813752,,
0.2947019999999725,-1.659910166451084,22.3543023270647,80.60045796326452,0.4296780228614807,0.4791696071624756,0.6774219274520874,-0.319222052502169,0.48376263465583286,0.07354364481686029,,
0.30420499999996764,-3.3080266243722596,25.18330544783835,81.09739828551147,0.4089876115322113,0.42871811985969543,0.45005524158477783,-0.3537289438202248,0.5513108736452318,0.08913169996826004,,
0.3136030000000005,-2.9997490166902936,28.27819595530802,81.649918333775,0.2251882702112198,-1.8053799867630005,-5.549327850341797,0.027045941843881597,0.6026049012801795,0.11151454839078273,,
0.3232449999999858,4.062651044746874,30.553770465107622,81.92808742961088,-1.5077488422393799,1.700174331665039,5.099292755126953,1.3776110279100282,0.44499234363824886,0.06768147023000912,,
0.3327579999999557,3.7204984129987286,31.62447582416915,80.5130866004224,-0.7841435074806213,0.6542919874191284,0.36497265100479126,0.08047166932859351,0.18625727437313533,-0.25460490080619574,,
0.34208699999999226,1.7187875750662902,32.795531878562144,77.89922200873185,0.04469597339630127,-1.9650161266326904,-1.9167060852050781,-0.0961929557206035,0.20011332339660176,-0.488026034355361,,
0.3517699999999877,3.6841932573500267,34.66486599864349,74.59484341039264,0.04011273384094238,0.8001672625541687,2.346142292022705,0.7810015324573097,0.33534303261600973,-0.5920796332719694,,
0.3612749999999778,0.23745448659740123,35.21105569340162,70.64473460720737,0.9417005777359009,-0.38427042961120605,1.872158408164978,-0.20557580426162217,0.07420980101991156,-0.6917366012484396,,
0.37061599999998407,-3.2826179690697845,34.24455997893818,67.40229529643656,1.6066428422927856,-1.4927881956100464,0.5955830216407776,-0.3037672285913795,-0.18998774911022243,-0.5783568154891133,,
0.38030599999996184,-4.323687649351486,33.55264090632302,65.70212082535853,0.8768178820610046,-0.2284996509552002,3.3665809631347656,0.018785604926045835,-0.1281684534670645,-0.34133843844347117,,
0.3898100000000113,-6.3803418995473695,32.49897876060153,65.17825075930268,0.12768927216529846,-1.2284996509552002,1.5396556854248047,-0.33014701423220977,-0.2110382851266426,-0.1392266464377156,,
0.39932499999997617,-6.174476539054514,31.249620025045388,65.82599021059748,-0.5284025073051453,-0.9247852563858032,3.4215567111968994,-0.007727411955394741,-0.27019295595759546,0.05688973974057853,,
0.4088350000000105,-5.751249132970443,31.734018901635054,66.73385850228621,-1.7758400440216064,-0.44497358798980713,2.8172483444213867,0.00013323124061025415,0.06928024511733216,0.15361562042362303,,
0.41835399999996525,-6.139755789545066,33.89598705207803,67.3060213384759,-2.227245330810547,-0.7032366991043091,0.5387275815010071,-0.14095865256564888,0.4076875962673777,0.14788667707738212,,
0.42785199999997303,-6.2029326254224255,37.889829659124594,67.46822188194959,-1.6422744989395142,-0.332935094833374,0.7004843354225159,-0.044099540641994124,0.7778039826826638,0.13363093433208492,,
0.4373679999999922,-6.886178404672738,43.79812192135765,67.31413874353308,-0.559984564781189,-0.18161022663116455,0.37420493364334106,-0.14668759591188982,1.1616431868808061,0.14921898948348467,,
0.44669199999998455,-7.643276748465073,50.430606644497765,67.61499699631935,0.9259093403816223,-0.07509298622608185,-0.2859512269496918,-0.2304900462557397,1.295940277415942,0.2420811641888318,,
0.4562750000000051,-7.576881590210166,56.95067940541233,69.28955748008691,2.4248151779174805,0.3688514530658722,-0.7543928623199463,-0.3062986221629743,1.2509081180896762,0.40555589641761364,,
0.46580000000000155,-6.188181292003829,63.03446409743809,73.40315181656435,3.4173011779785156,0.5971354842185974,-2.009953022003174,-0.5006830022133352,1.143257275676591,0.5908805521064773,,
0.4752889999999752,-1.9263548733092268,68.08116198834833,81.1282967233742,3.7053048610687256,1.3084256649017334,-2.031691789627075,-0.6139295567320512,0.9475405832201276,0.7334379795594491,,
0.4847949999999628,2.4572336000787103,71.41398719650141,91.51560251089427,3.497300386428833,2.189910650253296,-1.0563557147979736,-1.1204747335322374,0.657362941170994,0.7299739673035825,,
0.4943209999999567,0.9316136494199592,72.84248043457644,100.05655271172691,2.7241528034210205,2.2246367931365967,-0.8083597421646118,-1.959431855655008,0.2900444108085233,0.521067382026704,,
0.5037539999999581,-9.893864748515128,72.72566957558314,101.36467518119682,1.76389741897583,2.7762045860290527,1.4444761276245117,-2.4190796357603848,-0.041301684589178794,0.07261102613258852,,
0.5132749999999646,-32.25499883605429,71.1928733073185,93.22043712306893,0.41580742597579956,4.1593451499938965,3.736438751220703,-2.906173051431474,-0.1151117918872596,-0.5914134770689182,,
0.5227620000000002,-61.02917123657256,66.48628952237867,80.9293060649119,-1.183005690574646,4.034450531005859,2.9970779418945312,-3.42830628338306,-0.004130168458917879,-1.3069984703865931,,
0.5322879999999941,-83.27934011235526,57.949909308265,74.33849157964086,-2.73518443107605,3.1281137466430664,1.9971849918365479,-3.242581933972365,0.06461715169597326,-1.8293981648194,,
0.5417909999999893,-97.88322390615112,48.19007421888432,73.84060203869578,-3.016519546508789,2.769109010696411,1.1019697189331055,-2.814110264169788,0.08033843808798326,-1.9640949490763668,,
0.5514849999999569,-111.34209301188312,40.62764067733329,73.87178101133479,-1.0423660278320312,0.05969434976577759,-3.8760807514190674,-2.673950999047801,0.3809081169047166,-1.4715390525402572,,
0.5609869999999546,-120.61677076792516,36.25203108351149,70.46411710580757,0.8068788051605225,-1.1007390022277832,-5.626751899719238,-1.401192957498043,0.879059725546457,-0.5459816240208215,,
0.5703249999999684,-126.96008931121584,33.30902319953601,63.270967410583076,2.7342567443847656,1.2447313070297241,-3.5600526332855225,-0.41408269581666995,1.3291148563278956,0.1842588057639815,,
0.5798369999999977,-132.98276121418354,31.956116234971276,55.49662704230318,5.772908687591553,-0.8741609454154968,-7.363940238952637,-0.31256049047165624,1.220264932749318,0.6749494649315476,,
0.5893330000000105,-130.73533129473682,35.06177900218314,50.06809915208198,7.345057487487793,0.8999769687652588,-3.7767984867095947,1.0731776431155973,0.2671286374235596,1.0794395114242792,,
0.5988459999999804,-123.61711621551946,42.61627056685059,49.31506373966298,7.82516622543335,-0.7847059369087219,-2.5102732181549072,1.4877932638947082,-0.8692006137412981,1.2446462497809945,,
0.6084769999999935,-110.1349036775665,52.35461081883454,53.6249476157234,4.171324729919434,1.7486000061035156,2.5329623222351074,1.9843460976491254,-1.4784670770519905,1.439030629831355,,
0.6178729999999746,-93.00832681988108,60.841397258292396,65.89839196072832,-0.060138702392578125,1.4266911745071411,5.877315044403076,1.261300154857276,-1.7466615644004322,1.3654869850144948,,
0.627557999999965,-76.2492981174503,65.4895486135126,80.76619965330104,-4.121990203857422,1.0385767221450806,5.05048942565918,0.59234609575319,-1.3132603386952753,1.0443996951437824,,
0.6370650000000069,-66.10029785138708,68.48761115470934,90.7806913979853,-5.8873701095581055,1.7457996606826782,3.738379955291748,0.11804287918068519,-0.5887488522567131,0.8236355294525912,,
0.6465729999999894,-65.84007884836332,73.36426941611587,93.79317729451833,-4.018092155456543,1.220721960067749,3.346729278564453,-0.5349234310501705,0.1990474734717197,0.9711225128081425,,
0.6558929999999918,-81.1745863315195,78.01631912563775,80.65415076727281,-0.9490025639533997,2.107957363128662,6.050584316253662,-0.4988177648447916,0.8757289445312006,0.7001301694068855,,
0.6654130000000009,-118.69267726401041,78.09001294727112,49.140769016857305,1.8711717128753662,3.438979148864746,7.996655464172363,-1.2746232789183014,1.2626324672633786,0.23342113354916527,,
0.6750099999999861,-143.94224877015867,73.76817428259493,35.09695965570514,3.9351305961608887,2.163745880126953,5.77052640914917,-2.28571516390952,1.0747764180029202,-0.19798162354683768,,
0.6845219999999586,-155.22421157864852,67.94136997042123,35.413468491668226,3.8102869987487793,2.1069865226745605,4.758810043334961,-2.315958655528048,0.9857779492752706,-0.6176600314691383,,
0.6939439999999877,-160.39639713015197,61.89721085833594,42.39983397410049,1.1708879470825195,2.412473678588867,2.0778465270996094,-2.3308805544763964,0.8791929567870672,-1.0277457900675007,,
0.7036420000000021,-162.90336479547156,57.03926095106937,52.286474422512676,-0.9808267951011658,1.4628071784973145,-1.0136901140213013,-2.2643981654118797,0.5815543652637594,-1.3019356832434037,,
0.713156999999967,-165.72338089429223,52.63775867172701,60.23725465623033,-1.082402229309082,1.260265588760376,-2.3053836822509766,-1.9307871389238032,0.5744931095114159,-1.1750995421824417,,
0.7226699999999937,-176.39968919322857,48.26650653522969,59.073017523329774,-0.6761589050292969,0.3392198979854584,-5.509215354919434,-1.9900750409953665,0.8721317010347238,-0.02784532928754312,,
0.732168999999999,170.85520566134252,43.727079250114805,52.960709199235424,-0.025544285774230957,1.4545979499816895,-2.306138515472412,-1.6681883636809924,0.8553445647178317,0.8818575815992722,,
0.7414870000000064,156.18201476609974,38.561039647744835,47.756169957877326,2.8660454750061035,3.992374897003174,2.292520761489868,-2.2350872924776235,0.7562205217038026,1.0490627885651413,,
0.7510009999999738,136.5859883642648,33.982389122104145,46.4975301219874,6.06781005859375,5.443362712860107,3.219028949737549,-3.743398167426311,0.6263200621088049,0.698797857000783,,
0.7605110000000082,117.26086781541677,35.46332987144943,50.578184095601756,5.118180751800537,1.793197751045227,0.864087700843811,-4.257137831219451,0.26886064355149286,-0.5890153147379336,,
0.7699220000000082,103.34111018367149,45.67774970366359,57.07602695189282,1.7725366353988647,2.9466304779052734,4.863462448120117,-3.2031454867517306,-0.24980857614422658,-2.104653907920185,,
0.7796129999999835,81.45728081106074,60.80616808645745,48.60948323205321,-2.3418383598327637,5.3118791580200195,3.8639333248138428,-3.4846630981611977,-0.7851317009162277,-3.0143568188070002,,
0.7889449999999556,35.733370602502,71.65237963250138,14.589912630630376,-3.806741237640381,-2.33817720413208,-4.137406349182129,-3.420445640187055,-1.0288116399923826,-3.0938958694513223,,
0.7986459999999624,10.199276004729668,71.91026941746856,-6.562124502073736,-3.839249849319458,-2.822866916656494,-3.2287731170654297,-1.6119647801434651,-0.41115160852324434,-1.078240430258787,,
0.808068999999989,28.229936539174865,72.51525440034209,16.201246084319763,-1.868652105331421,0.31748726963996887,-3.6549055576324463,-0.8496156213715907,0.5684977036839545,1.2975390523032653,,
0.8175850000000082,65.66276445184909,71.85939355660872,55.600167388451666,-0.7236462235450745,0.5333260297775269,-3.0403897762298584,-0.12230627888021332,1.6530000022514235,1.7185497726316685,,
0.8270729999999844,92.79473816047152,68.21978818921107,80.16732559705494,0.2765413522720337,0,-4.236891746520996,0.8027182246767812,1.4924563573160672,1.0068284852916907,,
0.8366780000000063,103.18438450605412,68.36302141441381,84.00871581634034,6.828134536743164,-1.795544981956482,-5.040081024169922,1.3176569696354137,0.28737978599631825,-0.07620826962906538,,
0.8461869999999863,111.62931603553002,71.58682641438976,82.6699724722101,7.5528059005737305,-1.4951202869415283,0.4289645850658417,1.919595714712542,-0.2825834613343491,-0.5982082703400412,,
0.8556909999999789,107.30536609166175,74.21727788967395,70.06620403363915,5.77851676940918,0.06878989934921265,2.6426477432250977,1.5546753466810554,-0.8842557439302569,-0.25300612591887267,,
0.8651929999999766,91.48886820097127,73.53629969238948,49.34428313429544,3.0260674953460693,-3.344043731689453,2.6675894260406494,0.8719984697941136,-1.1307335390592272,0.31695712141179466,,
0.8748099999999681,90.32835825657334,68.09150878208375,40.446019065055864,-3.01731538772583,0.3955847918987274,5.464715003967285,1.515905055663472,-0.599140889024313,1.0936952541695766,,
0.8843219999999974,85.61135848207265,58.95765382003135,36.62619270415353,-4.571596622467041,-0.029861271381378174,3.8864221572875977,-0.21037212892359133,-0.43699846920163365,1.8102128661715233,,
0.893841000000009,83.65662870696313,48.22402095769814,41.066843503412755,-2.139432430267334,2.4631190299987793,6.4752702713012695,-1.0825038299583152,0.3007029100573437,2.182993877399014,,
0.90333499999997,80.0449079795587,39.223493282514816,51.022405923883696,0.3613581955432892,4.493521213531494,7.755486488342285,-2.0934624837089237,1.1620428806026368,1.9804823916714278,,
0.9126749999999788,71.7818889106328,35.014705871598196,61.60622412276392,2.0251848697662354,1.7706420421600342,5.028900623321533,-2.9232266502295867,1.4263736619733811,1.2238621762457949,,
0.9221870000000081,66.15336899673244,38.29665805196272,72.01635127552356,3.520986557006836,2.8433778285980225,6.946987628936768,-2.3801761135021904,1.809147016246641,-0.008393568158446012,,
0.9318619999999669,56.96119252085916,49.52746783538633,80.32815098343926,1.8397995233535767,4.889795780181885,4.843493461608887,-2.9678591158340217,2.1054532953638465,-1.4183797875367659,,
0.9410299999999552,31.954373511146777,62.57664568288779,74.19784452898782,0.4551490545272827,3.8799192905426025,-0.09332051873207092,-3.749660035734993,1.2782205224147782,-2.4324027598214104,,
0.9505269999999655,-13.015291904642542,66.72041748694883,45.239228367755146,0.09742140769958496,2.9549922943115234,0.6212674379348755,-3.363156206724646,0.34933231288008637,-2.732839207397533,,
0.9600399999999922,-45.3088533285498,59.549496574494896,29.70446397153161,-0.7259989976882935,3.717398166656494,1.8346867561340332,-3.403658503870163,-0.5077442579656787,-2.044833080886181,,
0.9697370000000092,-60.00937597241338,53.9459633083607,36.74661168578892,1.7167518138885498,1.4334501028060913,2.952913522720337,-3.973888213682051,-1.239716693878415,-0.4854946407837661,,
0.9792349999999601,-71.1230712649209,55.673530177865345,48.25182283132141,1.9017579555511475,4.348880290985107,7.541324615478516,-4.090465549216024,-1.076641655371464,0.8588085769736983,,
0.9887459999999919,-80.76443709304378,62.79927348692792,61.63673802916889,1.7193882465362549,6.567786693572998,7.917824745178223,-4.353064324458834,-1.076241961649633,1.7312067404896425,,
0.9982519999999795,-99.01336596464532,72.04824429666319,64.41260595794543,2.1233913898468018,6.598174571990967,8.039363861083984,-4.365188367354367,-0.3116278717873845,1.8593751939567071,,
1.0077650000000062,-151.2098530497941,74.85895683180767,32.888774087628306,-0.7274410724639893,7.569911003112793,8.1038179397583,-4.365188367354367,1.1336646263526526,1.4690076589686625,,
1.0172789999999736,168.55663949086605,66.1641712769954,13.830037445559118,-3.1150591373443604,7.514902591705322,6.762964725494385,-4.36132466137667,1.8936156227935423,1.0149555909689163,,
1.026789000000008,150.13299881349153,54.91890757960773,17.90477162391889,-1.7579336166381836,6.820440292358398,5.723546028137207,-4.353863711902496,2.2453460980046134,0.42980398220868,,
1.0363019999999779,140.24969807401337,44.59640098134675,32.49620258247393,1.4822818040847778,4.852787971496582,7.329184055328369,-4.195584998057513,2.766546711271928,-0.384771822882414,,
1.045808999999963,129.0185135906711,39.00599626040589,47.53633961735827,4.322192192077637,7.074090003967285,8.478561401367188,-4.24101685110561,2.3789770323366985,-0.7945911189995557,,
1.0553170000000023,113.40519579126303,40.39097176772717,57.316348811640616,8.181840896606445,7.295575141906738,8.29364013671875,-4.365188367354367,1.1397932634207244,-1.0284119462705519,,
1.0648390000000063,97.47484884016929,45.48151354394896,66.02414750329851,7.310159206390381,6.895298480987549,8.082345008850098,-4.365188367354367,0.9534027578069787,-1.3335114872680338,,
1.0745049999999878,81.24099193406309,52.998674814692414,73.45907377338638,-0.3902703523635864,7.070580005645752,7.899524211883545,-4.365188367354367,0.9831133244630654,-1.5063124063395337,,
1.0840269999999919,56.73369258563861,56.54851182541881,70.20136705244354,-4.891469478607178,5.981521129608154,7.522433280944824,-4.365188367354367,-0.10858346109735714,-0.808313936782412,,
1.0935399999999618,36.52519865552672,52.714166888585304,72.2035914826886,-0.5130731463432312,2.7878007888793945,7.437267780303955,-4.365188367354367,-0.37251454874627066,0.7167840744831674,,
1.1030399999999645,26.149688816227606,53.522143175900965,86.551820394338,0.10587948560714722,7.509400367736816,7.45751428604126,-4.365188367354367,1.0270796338644492,1.3894686083243406,,
1.112369000000001,17.350365385037826,53.10367322894009,102.832154420278,3.522150993347168,6.4243388175964355,7.418114185333252,-4.365188367354367,0.6351133239890816,1.8411225139931022,,
1.1218920000000026,8.513097266755187,55.66256196040155,118.50072813157564,7.7420334815979,3.12461519241333,7.433331489562988,-4.329082701148988,0.9002434928034875,1.681245025260797,,
1.1313949999999977,-3.691901310002835,62.58617563235808,128.97431570819722,5.151005268096924,7.150291442871094,7.531797885894775,-4.233955595353267,1.422243493514463,1.0169540595780702,,
1.1409049999999752,-31.09131002699265,66.98267061476798,122.82334164083424,2.0209646224975586,7.326373100280762,7.199710369110107,-4.363323129985823,0.9905742739372396,-0.24341347659493434,,
1.1504150000000095,-70.29585108677071,63.755590224770046,103.19800041191611,-2.8444454669952393,3.6146953105926514,3.1687986850738525,-4.255805518813348,0.8509479337776933,-1.5397534477327073,,
1.159928999999977,-91.88550127748772,52.69553061475924,97.21659530139678,-6.542754173278809,3.8427090644836426,4.031688690185547,-3.2796202188620165,0.2712588058824775,-2.2969065881207817,,
1.1694349999999645,-105.22123161481439,43.36093056132602,102.77151348228918,-2.7376010417938232,2.158329963684082,4.506625175476074,-3.505713634177618,-0.4910903528893969,-1.9734211359190845,,
1.1789399999999546,-121.49930160688453,42.28729163753493,103.51694904952632,0.9645293951034546,-1.5563459396362305,1.7263915538787842,-3.3646217503713585,-0.03823736605514295,-0.2516738135127701,,
1.1885299999999575,-139.78688208361083,47.53518649864784,97.72569250466081,4.239690780639648,5.447986602783203,8.448953628540039,-2.805716696011342,-0.053558958725322174,1.346168455126008,,
1.1980429999999842,-172.29955622486278,54.457540546880104,82.48471743689153,8.201395034790039,4.373956203460693,8.46514892578125,-4.034641659400326,-0.4695068919105357,2.36938438301276,,
1.207556000000011,152.42058596788726,51.143290670943465,62.50868926888964,6.95642614364624,3.628552198410034,8.546502113342285,-3.7485941858101115,0.2063751917052837,2.5599050570854236,,
1.2169869999999605,128.9344545183466,43.22898170955198,56.331213085594335,1.8889142274856567,6.552810192108154,8.448918342590332,-3.7142205257326655,0.6464379794409532,1.7005635551492841,,
1.2266839999999775,112.25998447101966,38.893388045722645,63.97180565015289,-3.0347166061401367,6.3411712646484375,5.5919294357299805,-4.3152266521255225,1.413849925356017,0.16467381339427412,,
1.2361909999999625,99.95944704959936,41.51466773272261,74.933661413726,-5.370965003967285,4.108205795288086,1.8215293884277344,-3.8776952579614474,1.4707396650965956,-0.9805819308914707,,
1.2456889999999703,92.39802100590119,35.37288669637343,81.49754506794774,-0.0788419246673584,5.725068092346191,3.3155763149261475,-2.316491580490489,1.1389938759770628,1.1078177656742634,,
1.2552139999999667,89.97333017983112,19.840993402528483,91.3574413842629,-3.0755622386932373,5.84745979309082,-0.10740390419960022,-1.3893353770837302,1.8016860667724668,3.0615206779830304,,
1.2647230000000036,86.91013671611287,15.436108954155898,104.18757169692456,-1.1253284215927124,0.30700844526290894,0.4059363603591919,-1.3824073525719973,2.4132174611735335,0.9395467087835123,,
1.2740389999999593,87.99066353267615,22.612344693123898,116.29332999654679,2.0891358852386475,3.1078505516052246,7.626211166381836,-0.5579724356757444,2.312228180790961,-1.3351102621553568,,
1.283549999999991,78.66342667718543,38.251383725628244,123.6613973888739,7.6459174156188965,6.467102527618408,5.522205829620361,-2.596410417012633,1.621823891948624,-2.9693246594807343,,
1.2930700000000002,51.472726499004395,54.03133514023054,116.12069087685853,4.523139476776123,5.936300754547119,2.32981538772583,-4.306966315207686,0.36918376773101425,-3.327450234241098,,
1.3025719999999978,4.64675955873974,55.83404366753358,85.66984738493744,3.7384581565856934,2.2202908992767334,3.5313405990600586,-4.306833083967076,-1.3453690676823464,-3.2543062831460685,,
1.3122789999999895,-26.497758714772978,47.24356158193176,67.3190294460342,0.20975613594055176,-0.966876745223999,4.31160831451416,-3.3173246599547186,-1.2541056678643223,-2.5765589621617053,,
1.3217799999999897,-38.66814111685985,41.183640137700266,69.28908610656137,-5.3528547286987305,-0.08753207325935364,3.190361976623535,-2.702728947019616,-1.1890888224465184,-0.4215436452908442,,
1.3310950000000048,-44.5982968677195,44.68450681953112,85.43426507200759,-0.178264319896698,2.054222345352173,2.850353956222534,-3.378744261876046,-1.0661163873632538,2.2312235864999264,,
1.3501109999999699,-78.17258510379908,81.68748355018609,91.76488429645653,3.967174530029297,7.021091938018799,2.4585440158843994,-4.120975503315772,2.3556615652299038,3.3766125620262817,,
1.3596259999999916,154.5727420920056,78.05205177580935,-17.69613146060651,2.0689187049865723,2.8965635299682617,4.188701629638672,-3.5106431900801973,2.3716493141031343,2.3444701410186424,,
1.3691369999999665,155.19795700494544,65.57794101260623,-0.8229087306768993,4.82515287399292,7.694768905639648,8.188928604125977,-3.029278717755349,2.6768820863412266,0.11071516094712121,,
1.3786489999999958,162.0119879203391,55.87226626051711,31.407731413167184,1.4747567176818848,6.5297651290893555,3.914320945739746,-4.279120985920144,2.8901853025582436,-2.2461454854482747,,
1.3881569999999783,168.5503982798854,52.81721389132694,66.20680981395232,0,7.399195194244385,5.349208354949951,-4.361857586339111,1.586784075668127,-3.7667136345331063,,
1.39786399999997,175.20304301646948,52.243655542364614,100.38940935544628,-3.5705161094665527,4.23590087890625,-0.12125909328460693,-4.108851460420238,0.6838759580524346,-4.09352986775006,,
1.407182999999975,174.59208280284633,57.803600087024925,120.10265686789936,-1.613898754119873,1.1402925252914429,2.8872923851013184,-3.3506324701072816,-0.9090367546837642,-2.3575268025984473,,
1.4166859999999701,156.25484087196597,62.205393804709736,120.89042182078994,1.7002053260803223,3.0866265296936035,4.877670764923096,-3.7984226697983465,-0.8490826964091497,-0.3048330785162615,,
1.4261919999999577,127.0431203873972,60.012239891545065,112.43231073185439,3.5261058807373047,3.8813118934631348,4.437344074249268,-4.354263405624327,-0.1758652376055355,0.9133001543832923,,
1.4357139999999617,97.16892859740484,52.67455960893037,102.85475486082636,3.9543914794921875,3.631972074508667,6.9212164878845215,-4.363989286188875,-0.44685758100679246,1.7630490069954934,,
1.4452190000000087,76.73874778052271,44.14039876907009,104.7688656211096,4.961886882781982,6.356338024139404,7.825569152832031,-4.362790205023383,0.15281623297996152,1.7254777971434017,,
1.4549199999999587,63.089428471303826,41.86262626332525,116.81308302866867,0.34024298191070557,6.420945644378662,5.798467636108398,-4.365188367354367,1.4963200632937648,1.0324088834888596,,
1.4644139999999766,51.03333302647764,45.36087219849034,128.96367029381906,-1.2427868843078613,5.589080333709717,0.29029104113578796,-4.079940281207813,1.8543124068135175,0.3681179178061323,,
1.4739299999999957,45.537932938472665,49.539418673026326,142.19164584114998,-2.580613374710083,6.051673889160156,-0.6232088804244995,-3.042202148094544,1.8829571235447218,0.5653001539093084,,
1.4832569999999805,44.480476538687746,55.856518919737404,156.4204330500229,-0.619649350643158,4.272560119628906,-3.2216262817382812,-2.471173050838994,2.1001240457394363,0.3250842270890202,,
1.4927829999999744,49.08262470527691,65.71235849582911,171.42815265046326,-1.3504955768585205,2.1151883602142334,-3.4542930126190186,-1.6997641677056228,2.398961718428237,-0.4310030633741722,,
1.5022739999999999,42.90115267755648,78.05180853362727,173.18616142736283,4.466705799102783,3.4994587898254395,3.6135997772216797,-1.558938746380584,1.787163861545949,-1.7108223606762736,,
1.5118549999999686,-62.84552327455833,83.54498547906375,81.04526310086973,7.645005226135254,3.957286834716797,0.5452617406845093,-2.870333847707316,1.2062756524852414,-2.4683751947861787,,
1.5213599999999587,-90.84152937298288,72.235903582089,69.71981404518748,6.781135082244873,1.7210378646850586,-0.8408358097076416,-3.3402404333396825,-0.061686064402547675,-2.325418073611376,,
1.530873999999983,-90.83185645334022,63.160758156766825,87.73220420696515,3.6779141426086426,3.6517229080200195,2.1456046104431152,-3.328516084165979,-1.3525635546753,-1.8293981648194,,
1.540504999999996,-93.65622682968029,55.98731123562954,102.92395596411458,0.5150097608566284,-1.3695549964904785,-0.6639832258224487,-3.1803629446073773,-1.4959203695719339,-1.494987750887662,,
1.5500169999999684,-94.25244644833026,53.09124552792945,111.76029805846761,-4.495575428009033,-0.43901288509368896,3.5170319080352783,-1.553209803034343,-0.9952373673585986,-0.6537656976745172,,
1.5595250000000078,-99.31767798580601,58.0972540763969,114.2868308736879,-7.077998638153076,-0.8780592083930969,-3.6697261333465576,-1.4246416558454478,-0.4146156207791109,0.9571332325440658,,
1.5690199999999663,-109.69091882333295,63.64939971599063,105.23140321393137,-5.0398030281066895,2.7251129150390625,2.1850473880767822,-0.48376263465583286,0.5634349165407648,1.2896784091072602,,
1.578534999999988,-127.23919970529356,63.317829490359074,88.75735687004021,-1.124478816986084,0.3503725230693817,-2.6934196949005127,-0.5493124050360779,1.3097963264394086,0.6369785613576252,,
1.5878669999999602,-131.73043574668242,61.66432179189661,80.47167262998117,2.32820987701416,-0.09866297245025635,-1.6139445304870605,0.5803552840982672,0.7892618693751455,0.2267595715186526,,
1.5974499999999807,-126.82340842622162,60.31724152089582,79.27688001417671,6.792498588562012,0.34466004371643066,0.33286789059638977,1.1986814717704566,0.24914241994117528,-0.14055895884381814,,
1.6069599999999582,-121.37929388452169,60.296945416364615,80.62641856854376,6.9572672843933105,-0.22797733545303345,1.619032382965088,0.8620061267483444,-0.12017457903044926,-0.08353598786262936,,
1.6164739999999824,-115.31656838186848,63.75315539682963,86.72647978797643,3.834303379058838,-0.048034071922302246,0.7642238736152649,0.14029249636259766,-0.8441531405065704,0.3313460953977021,,
1.625900999999999,-105.8121179173618,68.96538303847008,97.68841592763333,1.0852715969085693,-0.4385231137275696,2.551506757736206,-0.10578560504454182,-1.2001470154171696,0.6594946410207582,,
1.6354119999999739,-97.43719758011589,74.07126252533867,108.79061980778675,-3.1803958415985107,2.1265006065368652,5.383353233337402,-0.38677029149156783,-0.8923828496074824,0.8541454835523394,,
1.6451099999999883,-98.89904087476154,78.23174568185078,115.06353836634996,-5.606677055358887,1.7811671495437622,1.673951506614685,-1.4691408902092726,-0.41834609551619806,0.7795359888105972,,
1.6546109999999885,-123.20841167526186,80.56559545033234,98.3407340066004,-3.5727624893188477,3.224398136138916,3.81893253326416,-1.5249647800249693,0.39902756562771124,0.6513675353435325,,
1.6641139999999837,-159.3208175037341,78.76272191075272,70.45894171350669,-1.8089206218719482,1.4629653692245483,0.7245433926582336,-1.668454826162213,0.8869203687424618,0.553042879773165,,
1.6734429999999634,-172.80249865403988,74.15529819165437,63.15480400159477,0.892853319644928,1.7418817281723022,3.274993896484375,-1.2213307826742,0.9695237379208195,0.11444563568420833,,
1.6830299999999738,-174.4163445956279,69.50780471859045,68.57637020213559,2.702444314956665,2.038471221923828,2.031158208847046,-1.3197886694851777,0.8774609506591339,-0.4357993880361413,,
1.6925359999999614,-172.9022234924864,66.75569850882583,79.53622208216481,3.183532238006592,1.3792383670806885,0.27443620562553406,-1.7268101095495043,0.4445926499164181,-0.8770612569373032,,
1.7020650000000046,-168.34648286330724,66.63271503970671,93.16425086040086,2.9816267490386963,0.7580971121788025,-0.4543895423412323,-1.5882496193148399,-0.16294180726634083,-1.0721117931907154,,
1.7115629999999555,-161.52644510156534,68.21435152660871,106.96374856762343,1.6021579504013062,0.8660370111465454,0.9526672959327698,-1.2253277198925074,-0.5954104142872259,-0.9628621758903069,,
1.7212030000000027,-156.49237454034562,70.79080200134453,118.58369016303936,0.1453651785850525,0,0.9340550303459167,-1.1905543660932312,-0.7860643196004996,-0.5886156210161029,,
1.7306879999999865,-157.19278933662298,74.13976007106004,123.13996127188486,-0.8352285623550415,-0.510901927947998,1.1374425888061523,-0.9953705985992087,-0.7358361418904338,0.008793261880276773,,
1.740191999999979,-177.28322825093778,77.24114333569844,106.71528307941723,-1.7129374742507935,0.5108741521835327,0.6752581596374512,-0.7678116396368948,-0.4310030633741722,0.9331516092342201,,
1.7497149999999806,147.68164335236764,76.4702181063176,75.52127254855914,-1.363905668258667,1.5728245973587036,1.1805596351623535,-0.827232772949068,-0.22982389005268844,1.40492343223513,,
1.7591429999999946,131.35409160309297,71.7840871429683,63.31981722289371,-1.110796332359314,0.9218217730522156,-0.5588482022285461,-0.8292312415582218,0.2528728946782624,1.1252710581942065,,
1.7687229999999659,127.87482393051043,68.96991280297176,61.84130055251344,-0.8732879757881165,1.2167177200317383,0.03840671479701996,-0.3499984690831377,0.25500459452802643,0.5065451768001863,,
1.7780609999999797,127.94644219545177,70.1962052997173,63.892338287014304,0.9287992119789124,1.5056244134902954,1.276176929473877,-0.32908116430732776,-0.05995405827461438,-0.27911944907848246,,
1.7876569999999674,133.97752654415382,73.94461664869696,72.92572500479135,1.725590705871582,0.5744063854217529,0.2100711315870285,-0.50321439578493,-0.08473506902812164,-0.9344839216403227,,
1.7971819999999639,149.01423693629317,78.69522067606536,89.13258992074206,1.7874090671539307,0.2201409935951233,-0.4659615159034729,-0.14895252700226413,-0.27458958689773383,-1.192019909739944,,
1.8066579999999703,174.202035927423,82.88745212370516,113.76641663177959,2.005053758621216,0.22186784446239471,1.2151144742965698,0.17852986241774055,-0.5497120987579087,-1.0034977042764344,,
1.8161159999999654,-159.63164914867127,84.74897526244722,138.95416632378408,1.2487365007400513,-0.4980018138885498,0.7308784127235413,0.2596676879493854,-0.44432618743519764,-0.48189739728728925,,
1.8257899999999836,-163.36043850080617,86.40939202383173,133.10645298091134,0.07781869173049927,-0.39565223455429077,0.921690821647644,0.4810980098436277,-0.3060321596817538,0.1901209803508327,,
1.8352889999999888,123.64570361087621,86.69311645679797,57.98986940524476,-0.41329944133758545,-0.07966142892837524,1.2283916473388672,0.5409188368776319,-0.33041347671343035,0.7412986227554542,,
1.8448060000000055,96.61237707370974,82.45086241157362,28.6592113776064,-0.7079789042472839,0,0.8708544373512268,0.5574395107133034,-0.2380842269705242,0.9708560503269221,,
1.854315999999983,93.29434647828487,78.36896233936645,22.220479620037963,-0.9348111152648926,0.2774420976638794,0.9093697667121887,0.7010627880911575,-0.1680045944095305,0.8322955600922577,,
1.863822999999968,89.96943713262185,76.43360619966468,15.853654071600735,-0.35975170135498047,0.39189183712005615,1.676792860031128,0.6642909656827273,-0.295107197951713,0.3914333849129268,,
1.873156999999992,84.85559414460829,77.08286674350005,8.654458674745623,0.45804816484451294,-0.20176813006401062,1.5917813777923584,0.4404624814575003,-0.34720061303032235,-0.15028483940836668,,
1.8826669999999694,76.53008986251751,79.53948231050715,-1.5915810411129852,0.9969472885131836,-0.3656531572341919,1.2836883068084717,0.40675497758310597,-0.3519969376922915,-0.5587718231194059,,
1.892170999999962,56.282399814175854,81.84689023664924,-23.331385321731986,1.3828805685043335,-0.4924412965774536,1.3513071537017822,0.3037672285913795,-0.47496937277555606,-0.7046600315876344,,
1.901679999999999,29.894983958336336,81.6573342130786,-50.6147929999659,1.5361257791519165,-0.850480318069458,1.0714592933654785,0.17226799410905863,-0.5699632473306674,-0.5467810114644831,,
1.9112010000000055,19.372659511100604,79.36601939569985,-61.84755054157289,1.1798808574676514,-0.5943829417228699,1.3231210708618164,0.1552143953109461,-0.5851516087602362,-0.1540153141454538,,
1.9207040000000006,21.18449157450451,76.00788233462889,-59.666490377521576,0.8362739086151123,-0.22971156239509583,1.3623334169387817,0.01025880552698957,-0.6172603377473075,0.30203522246344616,,
1.9303999999999633,26.756496115042253,72.05237743645921,-52.661798598352185,0.5996326208114624,0.08174163103103638,1.0626325607299805,-0.15681317019826913,-0.5871500773693901,0.6504349166592609,,
1.9399070000000052,32.07711506122099,68.0154680690682,-45.90511063750315,0.32547539472579956,0.45498526096343994,0.5908079147338867,-0.14202450249053092,-0.4992174585666223,0.7752725891110689,,
1.9494189999999776,34.845303986679625,64.26768662590493,-42.18562256700894,0.17213881015777588,1.0466866493225098,0.821013867855072,-0.06408422673353226,-0.4856278720243764,0.6392434924479994,,
1.9589310000000069,33.52719904077201,61.465981760519995,-42.42776991961754,0.2615888714790344,0.9193819165229797,0.4623848795890808,-0.16667228200342796,-0.5020153146194377,0.272058193326139,,
1.9684519999999566,29.391039549419457,59.80288980397421,-46.40843649498657,0.4530450701713562,0.549128532409668,-0.22109365463256836,-0.09472741207389071,-0.5089433391311708,-0.17972894358323288,,
1.977959999999996,23.97318564965872,58.63773661618795,-53.35430076357368,0.7537370324134827,0.8311790227890015,0.27350011467933655,0.14455589606212577,-0.5465145489832626,-0.5502450237203498,,
1.9872879999999782,17.628779215093665,57.45912569328094,-61.35029298252335,1.0190575122833252,0.5420299768447876,0.16100066900253296,0.1384272589940541,-0.541984686802514,-0.7375681480183671,,
1.9967809999999986,12.814797203021406,56.15116622551738,-68.04572412343467,1.0951297283172607,0.13461712002754211,-0.13521865010261536,0.22222970933790395,-0.46644257337649986,-0.6800122520747374,,
2.00631199999998,10.964185629881307,54.79095522332202,-72.0070339119942,0.9791916608810425,0.1760697066783905,0.3713419437408447,0.3325451765631944,-0.37677794844579876,-0.4174134768319263,,
2.016005000000007,11.394730358889962,53.5500247920836,-72.73923610410723,0.849147617816925,-0.06686756014823914,0.16756653785705566,0.24661102636958046,-0.2769877492287184,-0.06554977038024504,,
2.025529000000006,14.140866825163148,52.52438447546379,-70.61668107744455,0.6078024506568909,0.039728373289108276,0.2753949761390686,0.2482098012569035,-0.16067687617596652,0.26672894370172884,,
2.035018999999977,17.90789355859278,51.55113706231879,-66.9328907261355,0.3919038474559784,0.2536128759384155,0.4342394471168518,0.20850689155504776,-0.07993874436615249,0.46297856112063324,,
2.044557999999995,21.334414764351216,50.61631055160444,-63.23691993155143,0.3277292847633362,0.23861479759216309,0.2936208248138428,0.14362327737785396,-0.03903675349880447,0.47536906649738686,,
2.0540269999999623,23.902887236097015,49.97176637538739,-60.67739682723253,0.35787367820739746,0.3474452495574951,0.48696547746658325,0.15041807064897697,-0.012390505376753635,0.328681470585497,,
2.0635199999999827,24.847545471734602,49.818119296832734,-59.85670632224161,0.49205389618873596,0.2847086489200592,0.4514167308807373,0.09379479338961892,-0.004130168458917879,0.0860673814342242,,
2.073067999999978,24.277031150286344,50.05368272356119,-60.7783900739897,0.8504525423049927,0.14202997088432312,0.4403913617134094,0.05222664631921963,-0.024514548272286767,-0.14668759591188982,,
2.0823819999999955,22.821717158618835,50.48821525736273,-62.7332615913997,1.1873847246170044,0.0914108008146286,0.4458410143852234,0.03144257278401998,-0.036771822408430146,-0.280451761484585,,
2.0918869999999856,21.025998722474554,50.66756132276989,-64.8005841628117,1.4297127723693848,0,0.3828246593475342,-0.01985145485092787,-0.08047166932859351,-0.2721914245667492,,
2.101407999999992,19.883981588754395,50.2564123960158,-65.99806403196172,1.4161158800125122,-0.05177938938140869,0.21411383152008057,-0.027578866806322613,-0.14482235854334627,-0.1264364473391312,,
2.1109159999999747,19.872544232190595,49.309465773258715,-65.65302542788632,1.1341149806976318,0.08068850636482239,0.2868638038635254,-0.039969372183076245,-0.17719755001163803,0.09486064331450096,,
2.1206379999999854,20.82849812023247,48.02845881008612,-63.78358199644998,0.7877517938613892,0.12258946895599365,0.31472069025039673,-0.0747427259823526,-0.16867075061258177,0.3092297094563999,,
2.1301039999999603,22.747471020308854,46.68962314911488,-60.88439169506902,0.4261728525161743,0.2344667911529541,0.4865165948867798,-0.023981623309845747,-0.11870903538373645,0.44925574333777707,,
2.139612999999997,24.993204624957812,45.39187296910223,-57.88185739148233,0.22793638706207275,0.310106486082077,0.4255184531211853,0.04170137831100955,-0.08739969384032674,0.46577641717344853,,
2.1491139999999973,26.813695090437168,44.27185028612514,-55.63993701398597,0.26384755969047546,0.2525845170021057,0.46663856506347656,0.0752756509447936,-0.08326952538140886,0.36079019957256825,,
2.1586389999999938,27.94172946744568,43.63462385616497,-54.487708990132575,0.4756838083267212,0.12567195296287537,0.61977618932724,0.09033078113375233,-0.05702297098118878,0.18479173072642255,,
2.168136000000004,28.310174057634416,43.460130250918496,-54.37160913735508,0.6513521671295166,-0.029488086700439453,0.7111348509788513,0.0764747321102859,-0.040369065904907006,0.01532159267017923,,
2.1776669999999854,28.07327212226359,43.455686925446486,-54.85298911958497,0.8299039602279663,-0.2037680447101593,0.48640960454940796,0.03743797861148142,-0.05129402763494785,-0.07714088831333717,,
2.18699399999997,27.777269883957683,43.5335446837209,-55.16787087925376,0.9160457849502563,-0.34007444977760315,0.3281007409095764,-0.0005329249624410166,-0.02344869834740473,-0.06062021447766564,,
2.1965059999999994,27.897169272300765,43.51731296588056,-54.71147802983601,0.8577682971954346,-0.41299930214881897,0.3376649022102356,-0.02571362943777905,0.013323124061025416,0.049162327785183785,,
2.206188999999995,28.6099996810013,43.10949789565559,-53.35817031719198,0.8235525488853455,-0.3469133973121643,0.25542014837265015,-0.0287779479718149,0.005995405827461437,0.20024655463721203,,
2.2157379999999876,29.759650412631142,42.363733443220546,-51.32437439198537,0.7027271389961243,-0.2577042281627655,0.2783174514770508,-0.03277488519012252,0.0003996937218307625,0.3226860647580356,,
2.225228999999956,31.132253554383507,41.48529909988246,-49.097705423267904,0.5119785666465759,-0.1333262324333191,0.16017669439315796,-0.008127105677225504,0.0002664624812205083,0.36225574321928106,,
2.234745999999973,32.2563082453756,40.6223068464646,-47.344218304263265,0.3703227937221527,-0.033016473054885864,0.35668277740478516,0.011324655451871604,-0.0255803981971688,0.3012358350197847,,
2.2446239999999875,32.80170688930365,39.99212597640802,-46.47220384328116,0.29044198989868164,-0.03003188967704773,0.38947784900665283,0.012923430339194655,-0.05262634004105039,0.16533996959732541,,
2.253723999999977,32.75409528132248,39.75331793349339,-46.50763420012616,0.2523505985736847,-0.04070284962654114,0.6050208806991577,0.011324655451871604,-0.06088667695888615,0.006794793271122961,,
2.272646000000009,31.125333778107617,40.1666162579144,-48.19237892128309,0.5706883668899536,-0.19641751050949097,0.6008402109146118,-0.061686064402547675,-0.0386370597769737,-0.16760490068769973,,
2.2822669999999903,30.165471535684343,40.53222031667534,-48.7581072196554,0.8839679956436157,-0.2540866732597351,0.45709866285324097,-0.10924961730040841,0.0057289433462409285,-0.11937519158678772,,
2.291589999999985,29.567460234711152,40.708321048763715,-48.493984131672484,1.1869093179702759,-0.2791597843170166,0.3836404085159302,-0.14722052087433082,0.03890352225819422,0.01212404289553313,,
2.301091999999983,29.55280890225359,40.488113786756806,-47.16743262067434,1.3372228145599365,-0.20263323187828064,0.31329238414764404,-0.15881163880742297,0.04369984692016337,0.1818606434329969,,
2.310615999999982,29.976162643370568,39.8100533937481,-45.11300696224771,1.2840116024017334,-0.07907748222351074,0.2118702530860901,-0.1628085760257306,0.020251148572758632,0.3241516084047483,,
2.320128000000011,30.56388725610007,38.85272052643823,-42.86980601522003,1.0690538883209229,0.03756207227706909,0.13498497009277344,-0.15481470158911534,-0.005329249624410167,0.3859709040479063,,
2.3298189999999863,31.085183841554393,37.947166021642346,-40.88798184275212,0.806566059589386,0.11888280510902405,0.22072988748550415,-0.13109954076049007,-0.010658499248820334,0.3503981628049685,,
2.339339999999993,31.37460774733293,37.33003985115639,-39.48955138581464,0.7001914978027344,0.12181082367897034,0.16813379526138306,-0.09992343045769062,-0.006528330789902454,0.24168147046700106,,
2.348874999999964,31.417676555728963,37.02709725991786,-38.78399592643386,0.8340821266174316,0.07766643166542053,0.09446930885314941,-0.06128637068071692,-0.010658499248820334,0.11298009203749554,,
2.3581949999999665,31.237182794612142,36.8773616080936,-38.64784062140284,1.1116173267364502,0,0.09718561172485352,-0.03743797861148142,-0.031575804024630234,0.01985145485092787,,
2.367703000000006,31.052044483700943,36.63738719628503,-38.72794047593589,1.336157202720642,-0.1396813690662384,-0.12077552080154419,-0.01438897398590745,-0.06368453301170149,0.0017320061279333043,,
2.377194999999972,31.175652474745746,35.97599433736134,-38.62926532753472,1.4210375547409058,-0.17325106263160706,0.2451491355895996,0.027978560528153375,-0.12243951012082357,0.06768147023000912,,
2.3867219999999634,31.630796242510776,34.86502303514884,-37.95439788895984,1.3164180517196655,-0.2524658441543579,0.1259557008743286,0.03410719759622506,-0.1546814703485051,0.18758958677923784,,
2.396232999999995,32.55298681407465,33.37435680155837,-36.62152432105912,1.0062248706817627,-0.24198532104492188,0.1882563829421997,0.06115313944010666,-0.16227565106328956,0.31655742768996387,,
2.4059029999999666,33.7296910925953,31.568826504639524,-34.94829073087331,0.7270962595939636,-0.1925434172153473,0.1162157654762268,0.08113782553164478,-0.17573200636492523,0.4048897402145624,,
2.4154439999999795,34.9630945367045,29.77001841386268,-33.22816067296966,0.49830162525177,-0.19149041175842285,0.2761859893798828,0.09232924974290613,-0.15534762655155634,0.42300918893755696,,
2.4249429999999847,36.203546944189576,28.260320299958682,-31.692841638362484,0.33886072039604187,-0.20407718420028687,0.2992554306983948,0.11817611042129546,-0.1136462482405468,0.37184839254321933,,
2.43444999999997,37.29388187646467,27.073286064344558,-30.61024376452484,0.3351494073867798,-0.2826302945613861,0.4045987129211426,0.13443032177574643,-0.09845788681097783,0.27592189930383637,,
2.443967999999984,38.23877067681086,26.18769139065795,-29.994639403434668,0.4179546535015106,-0.4154040217399597,0.2078266143798828,0.15135068933324872,-0.09712557440487528,0.17413323147760218,,
2.4534779999999614,39.09700544810965,25.49798805604422,-29.744043045185272,0.4837352931499481,-0.5094850063323975,0.35123318433761597,0.1669387444846485,-0.10418683015721876,0.1003231241795214,,
2.4629879999999957,39.82921710772486,24.866939784679715,-29.687212352737145,0.5286668539047241,-0.6153330206871033,0.3452059030532837,0.15694640143887942,-0.11377947948115706,0.06967993883916293,,
2.472471999999982,40.51070955607558,24.251710821145796,-29.55773149316563,0.5630630850791931,-0.6425832509994507,0.5198183655738831,0.14255742745297198,-0.10458652387904951,0.07580857590723461,,
2.482056,40.196921820809756,23.191271121295593,-29.638488377139293,0.5253763198852539,-0.6570049524307251,0.3181353211402893,0.12190658515838255,-0.07354364481686029,0.09206278726168562,,
2.4913229999999658,40.84223846319204,22.63707394259884,-29.317137360883315,0.7419217824935913,-0.7078427076339722,0.35007309913635254,0.11964165406800822,-0.0706125575234347,0.09672588068304451,,
2.5007929999999874,41.652104758322686,22.275331919501262,-28.961163528031292,1.0686579942703247,-0.7146188020706177,0.36858564615249634,0.1485528332804334,-0.03330781015256354,0.08007197560676275,,
2.5102959999999825,42.66422562225163,22.272385206346133,-28.543692676371897,1.3762943744659424,-0.823129415512085,0.4822689890861511,0.18345941832031995,0.03077641658096871,0.04263399699528134,,
2.5198110000000042,44.00305927017031,22.527070936012827,-28.195951006686677,1.658564805984497,-0.831336259841919,0.6744976043701172,0.2536722821219239,0.0610199081994964,-0.002398162330984575,,
2.5293269999999666,45.42362426860786,23.100298237218194,-27.785301642840274,1.9342361688613892,-0.8668062686920166,1.3514047861099243,0.2648637063331853,0.11431240444359807,-0.04103522210795828,,
2.5388419999999883,46.86385098468373,24.068533685639594,-27.04924935626552,1.7386655807495117,-0.8942372798919678,0.9862082600593567,0.23901684565479597,0.21570137854800148,-0.05555742733447599,,
2.548371999999972,47.872690655960135,24.980686936803625,-26.388114158500162,0.7808114290237427,-0.5459345579147339,0.2999963164329529,0.1540153141454538,0.2006462483590428,-0.05795558966546056,,
2.5580759999999714,47.54570996970925,25.524958853234498,-26.436633470791687,-0.39277586340904236,-0.3474348187446594,-0.15469074249267578,-0.05435834616898369,0.05515773361264523,-0.09166309353985486,,
2.56737499999997,46.22673485807429,26.354169541218333,-26.871494747302016,-2.3300514221191406,0.29231446981430054,-2.008896827697754,-0.21903215956325783,0.04463246560443514,-0.17986217482384312,,
2.5770650000000046,42.58509819290917,27.223547378400536,-28.165256953198067,-4.413440227508545,1.408050537109375,0.8440265655517578,-0.6054027573329949,-0.049162327785183785,-0.29217611065828736,,
2.586572999999987,38.26665408626596,28.325843421805054,-27.147318264044365,-4.674820423126221,1.585148572921753,1.057219386100769,-0.969257275439599,0.29377488554561043,0.012923430339194655,,
2.5960769999999798,34.28757672520597,31.0217625348943,-24.267065325121017,-4.528771877288818,2.417856454849243,1.1686415672302246,-1.1074180719524327,0.753822359372818,0.12523736617363893,,
2.6055900000000065,26.340721681120566,33.91494261770997,-24.760166132662036,-2.5754036903381348,1.4795589447021484,1.4958081245422363,-1.5666661583359789,0.4751026040161663,-0.32135375235193303,,
2.6150969999999916,16.509934708905448,35.30186814090161,-29.00891432777011,-0.0486220121383667,1.0531989336013794,0.1489475965499878,-1.5093767248735692,0.007727411955394741,-0.7161179182801161,,
2.6244350000000054,5.564991520868288,33.83039761376931,-34.88936026544022,2.711338996887207,1.3004751205444336,-0.3594575524330139,-1.538954060289046,-0.4800321599187457,-0.8672021451321443,,
2.634006999999997,-4.91626953554513,29.360689261926083,-39.44385233775165,5.0973429679870605,-0.15856310725212097,-3.209481954574585,-1.6212909669861826,-0.9113016857741384,-0.7626156212530949,,
2.643530999999996,-9.368699184380459,23.564262511650774,-40.61596326041696,7.305036544799805,-0.3402318060398102,-3.4358561038970947,-0.7704762644490998,-1.1352634012399756,-0.37544563603969616,,
2.6529539999999656,-9.47604890978744,18.80333144738195,-38.81527309042281,8.304828643798828,-0.6795858144760132,-1.8523530960083008,-0.13203215944476188,-1.001765698148501,0.13789433403161305,,
2.66246000000001,-6.016219047264085,15.709685950940619,-34.655341894389124,6.3778791427612305,-0.5183627605438232,-1.2925870418548584,0.4673751920607716,-0.7259770300852749,0.6513675353435325,,
2.671974999999975,-0.26746784640699794,13.477623282146817,-29.86247741452536,3.634460210800171,-0.49199971556663513,-0.7318580746650696,0.9260903534818767,-0.5065451768001863,0.857609495808206,,
2.6816609999999628,6.927943604965002,12.345876150517679,-26.083628001156537,0.763576328754425,-0.3986925482749939,0.21147090196609497,1.2875467092574961,-0.19744869858439668,0.7041271066251932,,
2.691167000000007,15.392643174635705,13.051020651316813,-24.269487259633824,-1.5045958757400513,-0.09318001568317413,0.15830451250076294,1.6318162349943928,0.18718989305740708,0.2727243495291903,,
2.700685999999962,24.188366038005125,15.523801442970305,-24.922576198169825,-2.156705379486084,0.442322701215744,1.5855094194412231,1.8110122536151847,0.39742879074038817,-0.33214548284136364,,
2.710188999999957,30.78393255365108,20.023568615568472,-27.450153290707515,-1.7422783374786377,0.2557156980037689,1.832230567932129,1.4968529882562056,0.543050536727396,-0.8921163871262618,,
2.719699999999989,34.240694780693374,26.165810283134867,-30.58917804806925,-1.0385801792144775,-0.3881840109825134,1.202789306640625,0.9624624821684761,0.6925359886921011,-1.188555897484077,,
2.7292150000000106,34.63426341588643,31.883209610066704,-33.74611976975929,-0.6380520462989807,-0.9523307085037231,0.4157775640487671,0.40155895919930606,0.6104655444761846,-1.12180704593834,,
2.7385439999999903,32.673509963378045,34.98147086192514,-36.29603888212185,-0.2640115022659302,-1.2614636421203613,0.08461934328079224,-0.10645176124759306,0.27045941843881594,-0.7006630943693265,,
2.748244999999997,29.80974264582411,34.804009203771976,-36.790897616762464,-0.3846483826637268,-0.7920377254486084,0.6266987323760986,-0.5157381324022938,-0.07980551312554225,-0.048895865303963275,,
2.757745,26.0004050976035,31.86552082990713,-34.63783049211889,-0.8564503788948059,0.1368815004825592,1.3263545036315918,-0.999633998298737,-0.35812557476036316,0.5982082703400412,,
2.7672469999999976,21.12189109457199,27.524180193453695,-30.40686429767692,-1.0313326120376587,0.8259760141372681,1.4651963710784912,-1.3979954077233967,-0.5078774892062888,1.0320091897670287,,
2.7767619999999624,15.353933794115381,23.484137827649253,-25.336055264219567,-0.9683337211608887,1.156215786933899,0.4558917284011841,-1.5902480879239937,-0.489091884280243,1.131133232781058,,
2.7860959999999864,9.607822197801664,20.394757464257744,-21.10726375208764,-0.2280341386795044,0.6218980550765991,-1.8811113834381104,-1.4626125594193702,-0.4441929561945873,0.9038407362999643,,
2.7956909999999766,5.789193507494168,18.28375978180807,-18.994010830263512,1.4000577926635742,0.3165704309940338,-2.9786388874053955,-0.8958468618633489,-0.3778437983706808,0.44206125634482335,,
2.8051949999999692,4.124613315836629,17.577601838123453,-19.574733347936668,3.4862420558929443,-0.22644522786140442,-2.7703328132629395,-0.28444869870289263,-0.16374119471000234,-0.12190658515838255,,
2.8146259999999756,5.408086945993425,18.106218180038454,-22.36599895687819,5.151785850524902,-1.0243582725524902,-1.852206826210022,0.4440597249539771,0.04729709041664023,-0.5715620222179904,,
2.824122999999986,9.466779507516115,18.800664655893723,-25.736418831583276,5.708380222320557,-0.49268555641174316,0.5248987674713135,1.0458652387904952,0.0383705972957532,-0.6960000009479678,,
2.83364499999999,13.714767420810688,20.534530367431,-28.268468074144128,4.306307792663574,-1.3815417289733887,0.26512664556503296,1.040003064203644,0.22582695283438084,-0.5754257281956878,,
2.8431489999999826,20.37402498402294,22.81127506003251,-29.103244257856264,2.094534397125244,-1.5575493574142456,-0.3509470820426941,1.4146493127996786,0.3695834614528451,-0.3178897400960664,,
2.8528409999999553,28.924518119652248,24.32839886489569,-28.462812332512303,0.23659121990203857,-0.2589772939682007,1.5236968994140625,1.6803124065765251,0.3017687599822257,-0.0511607963943376,,
2.862345000000005,34.534830968551624,25.414884428711314,-26.896715186765395,-1.6025543212890625,-0.4384082853794098,0.961085319519043,1.0162879033750187,0.3028346099071077,0.08966462493070106,,
2.871862999999962,37.28908062698474,26.21830513808894,-25.420284217023486,-2.9585258960723877,-0.8524625897407532,-0.11756443977355957,0.4405957126981105,0.26153292531792893,0.09779173060792655,,
2.8813789999999813,38.29780535589723,26.952345420569795,-24.641632437034378,-3.2601194381713867,-0.14500516653060913,1.2732657194137573,0.14282388993419246,0.1854578869294738,0.009192955602107537,,
2.890874999999994,36.08164661436246,28.295722025633587,-24.364180976971962,-2.8999390602111816,0.24900859594345093,1.120422601699829,-0.4705727418354177,0.24168147046700106,-0.11631087305275187,,
2.9003999999999905,30.760821351572858,29.339138538069044,-24.77692405368188,-2.153201103210449,0.5132661461830139,1.04535973072052,-1.0389372142787618,0.14322358365602322,-0.14988514568653596,,
2.909898999999996,23.42518683351551,28.73579982495221,-25.736261958345963,-0.9814491271972656,0.8667341470718384,1.3758671283721924,-1.3969295577985148,-0.1726676878308894,-0.05435834616898369,,
2.9194009999999935,14.581177282770481,26.49615563969906,-26.28291389437509,0.17756006121635437,1.0368754863739014,0.9465780854225159,-1.742531395941514,-0.4493889745783873,0.1025880552698957,,
2.928844999999967,5.735463413521974,23.174327131419766,-25.853135261820395,1.2693043947219849,0.13771972060203552,-1.552011251449585,-1.8230030652701077,-0.6445727420724097,0.23821745821113444,,
2.9383300000000077,-0.06310134437324626,19.40536111674976,-24.593637903669883,2.356522798538208,0.044470902532339096,-2.690701484680176,-1.253439511661271,-0.7531562031697668,0.28791271095875925,,
2.9478320000000053,-3.1989168806941133,16.354229573140955,-23.469382813511327,3.5595128536224365,0.06160439923405647,-3.206003427505493,-0.6869402765864705,-0.6283185307179586,0.18239356839543794,,
2.957352999999955,-3.6167475941390292,14.758340499864968,-23.37329856393198,4.4945244789123535,-0.8086061477661133,-2.9890522956848145,-0.07420980101991156,-0.33014701423220977,-0.033041347671343035,,
2.9667719999999917,-0.22587491889264288,14.12100580488913,-24.32931989090809,4.2253546714782715,-0.5046722888946533,-1.200589895248413,0.7412986227554542,-0.13203215944476188,-0.22422817794705777,,
2.9762719999999945,4.9398768519868455,14.633238859919407,-25.96419549126309,3.3570799827575684,-0.7360290884971619,-0.40275800228118896,1.1308667702998372,0.0764747321102859,-0.358525268482194,,
2.9857959999999935,11.461895273367976,16.797025905025716,-27.37243639022888,2.027769088745117,-1.1077042818069458,0.10707205533981323,1.398928026407669,0.3737136299117629,-0.37024961765589626,,
2.995480999999984,19.426886914389186,19.85489622032686,-27.88937315097307,0.5927178263664246,-0.5539449453353882,1.003782868385315,1.64593874649908,0.5433169992086164,-0.2976385915233078,,
3.0049929999999563,26.25802041807336,22.833332150398046,-27.547049435643558,-0.21749839186668396,-0.41072186827659607,1.488100528717041,1.3626891289616796,0.5501117924797394,-0.20877335403626823,,
3.014505999999983,30.60741564097213,25.414536386504995,-26.637966105425548,-1.0564876794815063,-0.7937222123146057,0.39851540327072144,0.8103124053915658,0.5146722824774118,-0.11884226662434672,,
3.024016999999958,33.027226187420304,27.243486489360716,-25.647044783371776,-1.9294548034667969,-0.6437130570411682,0.5007756948471069,0.4063552838612752,0.3902343037474344,-0.05209341507860938,,
3.0335289999999873,32.8789303936753,28.26208018165667,-25.032051483617643,-2.166259765625,-0.2280985414981842,1.0828063488006592,-0.08007197560676275,0.2187656970820373,-0.024647779512897018,,
3.0430359999999723,29.896826072970452,28.624566381632366,-24.80242547927204,-2.2763521671295166,0.23831573128700256,1.2413681745529175,-0.6207243500031742,0.07967228188493199,0.005196018383799912,,
3.052552999999989,24.246416846614846,27.87713074462445,-24.88173518578938,-2.045309066772461,0.6295457482337952,1.3669018745422363,-1.1310000015404476,-0.1394931089189361,0.0738101072980808,,
3.0620529999999917,16.80577684121962,25.806356095839195,-24.858225511443308,-1.23527193069458,0.973825991153717,1.6760663986206055,-1.5035145502867184,-0.3859709040479063,0.1786630936583508,,
3.0715639999999667,8.228786396707951,22.820298814209114,-24.334787411344937,-0.3960718512535095,0.7708591818809509,0.29119908809661865,-1.7746401249285855,-0.5650336914280879,0.26406431888952375,,
3.0809789999999566,0.3624386153599706,19.18954724129556,-23.256396126319625,0.7550114989280701,0.41028892993927,-1.5414683818817139,-1.6556646270636284,-0.7201148554984239,0.2780535991536004,,
3.0904899999999884,-5.492732171482651,15.578235135951198,-22.13724584269368,2.092738151550293,0.46236440539360046,-2.87227725982666,-1.229857582073256,-0.7436967850864387,0.16920367557502278,,
3.0999949999999785,-9.514461949063671,12.892206810582202,-21.97826764373321,3.4256508350372314,0.19750884175300598,-3.794942617416382,-0.7997871373833557,-0.5458483927802112,-0.06928024511733216,,
3.1094949999999812,-10.473497301192687,11.404624499180075,-23.2320375859298,4.604893684387207,-0.652358889579773,-3.515420436859131,-0.12483767245180814,-0.2564701381747393,-0.3322787140819739,,
3.118938999999955,-7.9461734214301245,10.698750737915141,-25.30335389846068,4.424928665161133,-0.1986646056175232,-1.207170009613037,0.6007396639116359,-0.07927258816310122,-0.47123889803846897,,
3.1284479999999917,-4.009440586722039,11.165397335175015,-27.511642966379604,3.605522871017456,-0.8764045238494873,-1.3344167470932007,0.8870535999830722,0.13083307827926957,-0.46857427322626394,,
3.137959999999964,2.14176131181362,13.380227024113635,-28.786852159428406,2.116834878921509,-0.8293629288673401,-0.06204777956008911,1.3016692207621832,0.43673200672041307,-0.28831240468058994,,
3.147641999999962,8.99246779377787,16.31075511811841,-28.539170493670117,0.6278569102287292,-0.7170909643173218,0.6092675924301147,1.3748131718572127,0.5740934157895852,-0.048229709100912004,,
3.157152999999994,15.289367042443173,18.733482822756006,-26.947949887164125,-0.2114374041557312,-0.6594340205192566,1.1297780275344849,1.1792297106413596,0.5217335382297553,0.16667228200342796,,
3.166653999999994,20.198069129540926,20.644388459317476,-24.541189209837885,-1.0611164569854736,-0.5017455220222473,1.151632308959961,0.8326952538140885,0.4865604907086482,0.296173047876595,,
3.1761750000000006,22.82909909839452,21.90798304225743,-22.21123442444223,-1.9087151288986206,-0.42540204524993896,0.8705037832260132,0.36625268043758874,0.38144104186715766,0.30216845370405643,,
3.1856919999999604,23.100836453214686,22.432191488591307,-20.65692278268707,-2.0859251022338867,-0.13481085002422333,1.1023178100585938,-0.056090352296917,0.19744869858439668,0.21929862204447836,,
3.204699000000005,15.825630325762505,22.105691542800578,-20.215821305491534,-1.8928272724151611,0.831882894039154,1.5579314231872559,-0.9965696797647011,-0.1264364473391312,-0.006261868308681946,,
3.21421399999997,8.844420347853996,20.247532293223813,-21.01191773319442,-1.1571556329727173,0.8939491510391235,1.1935759782791138,-1.3361761120802391,-0.40555589641761364,-0.06355130177109124,,
3.2237220000000093,0.9804022960629453,17.400049726551778,-21.703220549857306,-0.5432016253471375,1.0858181715011597,0.8134496212005615,-1.5212343052878823,-0.591813170790749,-0.09139663105863435,,
3.233136000000002,-7.124808039618107,13.76583646385338,-22.05930009509054,0.06401792168617249,0.6233697533607483,-1.3202495574951172,-1.5882496193148399,-0.7337044420406696,-0.14189127124992068,,
3.2426379999999995,-13.488618607599998,9.72952901754834,-22.358693618886278,0.8927266001701355,0.6940181255340576,-2.430469036102295,-1.2483767245180817,-0.7913935692249096,-0.2371516082862524,,
3.2521449999999845,-18.350866273604023,6.147320523958092,-23.16195911192662,1.7611771821975708,0.742264986038208,-3.452968120574951,-0.9388805525804611,-0.6476370606064455,-0.3913001536723164,,
3.261660000000006,-21.32443182057321,3.4514837638497857,-24.84636158627127,3.0777602195739746,0.11415928602218628,-4.1620941162109375,-0.5563736607884214,-0.39036753498804466,-0.5461148552614319,,
3.271090999999956,-21.068715130118424,2.0931877594298762,-27.27544605916657,3.826338291168213,0.026237457990646362,-2.3657639026641846,0.08393568158446013,-0.07274425737319877,-0.599673813986754,,
3.2806039999999825,-18.809909038802196,2.0521352618971513,-29.666483001722135,3.88955020904541,-0.30920395255088806,-2.0171308517456055,0.4781669225502022,0.15934456376986397,-0.5005497709727249,,
3.2901049999999827,-14.739043211921961,3.298728388081474,-31.003739099220617,3.208322286605835,-0.5001718997955322,-1.4749541282653809,0.8364257285511757,0.3161577339681331,-0.22755895896231412,,
3.299629999999979,-9.7165105097692,5.481659474643947,-30.712129428615093,1.9809293746948242,-0.42220985889434814,-0.3743136525154114,1.0100260350663368,0.4086202149516495,0.12004134778983899,,
3.3093039999999974,-4.8212657631955,7.636933266310409,-28.87502273247198,0.689967155456543,-0.787521481513977,-0.22731554508209229,0.9459418083328046,0.37131546758077827,0.40395712153029056,,
3.3188219999999546,0.74886378906013,9.028550288370427,-26.125541861777908,-0.288349986076355,-0.3303537368774414,0.7565898895263672,1.0441332326625619,0.24794333877568298,0.5369218996593242,,
3.3283289999999965,5.482409932012267,9.723276690721852,-23.670188785884775,-0.8636930584907532,0.13566651940345764,1.2949113845825195,0.8770612569373032,0.15281623297996152,0.4568499240525616,,
3.337834999999984,8.054219989876444,9.9645409031352,-22.550460736073898,-1.0732874870300293,-0.29686063528060913,0.8204036355018616,0.48576110326498667,0.06088667695888615,0.1962496174189044,,
3.3473490000000083,9.71804563326238,9.917307574676634,-23.13359597345541,-0.7642196416854858,-0.22852155566215515,0.9842584729194641,0.36345482438477333,-0.0415681470703993,-0.13509647797879773,,
3.356858999999986,9.740028574789447,9.849084326935598,-25.293116567783095,-0.49943283200263977,0.04435129463672638,1.3308448791503906,0.08819908128398825,-0.09965696797647011,-0.4373981629234644,,
3.366367999999966,7.519513923328453,9.36526309411782,-28.3634582789436,-0.1256558895111084,-0.47830235958099365,0.603672444820404,-0.3322787140819739,-0.20077947959965303,-0.6055359885736051,,
3.3758789999999976,5.0810601528198855,8.252342028093858,-31.232941755019056,0.4063425064086914,-0.27456486225128174,0.26523566246032715,-0.3895681475443831,-0.2980382852451386,-0.5683644724433443,,
3.3853899999999726,2.084616878744297,6.461736621498541,-33.19909396863703,0.34069645404815674,0,0.3919564485549927,-0.5399862181933601,-0.3951638596500138,-0.39209954111597795,,
3.394910999999979,-1.579995923817346,3.6697535461673656,-33.97023674601785,0.20626705884933472,0.060948196798563004,0.05236256122589111,-0.7119877498211982,-0.5715620222179904,-0.16867075061258177,,
3.404401000000007,-5.332353075608354,0.3798273924944557,-33.582243387725235,-0.16148582100868225,0.304980605840683,0.3336626887321472,-0.7466278723798644,-0.6734839212848348,0.023049004625573973,,
3.4138360000000034,-8.948913637249792,-2.708266607562836,-32.54962655912976,-0.5782015919685364,0.6800028085708618,0.05467188358306885,-0.71292036850547,-0.650568147899871,0.11937519158678772,,
3.4232419999999593,-12.412584335692905,-5.297723977941851,-31.47829319002733,-0.47249680757522583,0.7542786598205566,-0.6747652292251587,-0.6726845338411732,-0.5578392044351342,0.09259571222412663,,
3.4328459999999836,-14.911976569136142,-7.266198159254542,-31.08613139487295,0.11725768446922302,0.5317566990852356,-1.976029872894287,-0.48576110326498667,-0.41128483976385455,-0.03011026037791744,,
3.442342999999994,-15.560658474485674,-8.747118595557989,-31.619333284563897,1.1218276023864746,0.6463040113449097,-2.1086883544921875,-0.14069219008442838,-0.26459724385196476,-0.20490964805857093,,
3.451779999999985,-15.158887380385433,-9.950585637276346,-33.214592239010074,2.4589593410491943,0.38252753019332886,-2.528374195098877,0.031042879062189218,-0.15334915794240253,-0.39902756562771124,,
3.470796000000007,-10.15431505753461,-12.51773624300139,-37.72953524180848,4.652490139007568,-0.40248623490333557,-2.7643301486968994,0.600206738949195,-0.1827932621172687,-0.5317258812755243,,
3.4802970000000073,-6.8268726139950795,-14.181360173236863,-39.17306778288699,4.116227626800537,-0.16777630150318146,-1.4699158668518066,0.5948774893247849,-0.29244257313950783,-0.3806416544234961,,
3.4898079999999823,-4.504173025776746,-15.742672478927227,-40.09617027383417,2.9804298877716064,-1.2585951089859009,-3.097676992416382,0.41474885201972117,-0.3016355287416154,-0.24927565118178552,,
3.499321000000009,0.0406915561945576,-17.005964655194525,-40.76275044155555,1.4179248809814453,-0.4676952362060547,-1.3134766817092896,0.8714655448316724,-0.25846860678389305,-0.16986983177807405,,
3.509005000000002,4.156342106730053,-17.81008487136038,-41.778933513823524,0.02885940670967102,0.12228147685527802,0.1484438180923462,0.7632817774561461,-0.18052833102689442,-0.2153016848261707,,
3.518519999999967,6.34161160124973,-17.730717765942284,-43.565426408555766,-0.6315492987632751,-0.6410481333732605,0.30018627643585205,0.3305467079540406,-0.028378254249984136,-0.360656968331958,,
3.528033999999991,8.652759416721006,-16.731847830016413,-45.999634489940604,-1.3895959854125977,-0.45958858728408813,1.5083813667297363,0.32188667731437404,0.12443797872997737,-0.5036140895067608,,
3.5375439999999685,9.61423560089846,-15.33503550914787,-48.84184456714282,-1.9607903957366943,-0.17377817630767822,2.4449121952056885,0.04223430327345057,0.1775972437334688,-0.5895482397003746,,
3.5470469999999636,8.780898307074068,-13.585395383177682,-51.39749982745106,-1.8304455280303955,-0.8862624168395996,1.8092715740203857,-0.28324961753740036,0.25766921934023157,-0.5333246561628474,,
3.556558999999993,8.020174872901931,-11.230066065069973,-52.669388981964126,-1.6990381479263306,-0.1895742416381836,2.4872052669525146,-0.19318529888486854,0.4231424201781673,-0.28911179212425153,,
3.5660689999999704,5.571371552218702,-9.388716054363057,-52.497883242336286,-1.1638000011444092,0.06304485350847244,2.1595618724823,-0.46937366066992536,0.36358805562538365,0.027578866806322613,,
3.575585999999987,2.7384008143542893,-8.684394128359825,-50.9713404105125,-0.37159013748168945,-0.12629112601280212,0.9521535634994507,-0.5050796331534736,0.15414854538606404,0.3308131704352611,,
3.5850810000000024,1.0942024215181294,-8.481789578846696,-48.57903792636043,-0.03844914585351944,0.8646337985992432,1.7488007545471191,-0.24447932651981638,0.046098009251147945,0.5082771829281196,,
3.5946050000000014,-1.2044394865275863,-9.238405197813828,-46.44511042184512,0,0.6912622451782227,0.04092109203338623,-0.3815742731077679,-0.1636079634693921,0.4545849929621872,,
3.6039289999999937,-2.6366395429580622,-11.613838947311619,-45.34965130560507,0.2212633639574051,0.48670655488967896,-1.1678272485733032,-0.2379509957299139,-0.49468759638587373,0.20610872922406318,,
3.6134379999999737,-2.7249036877604214,-14.76503096393248,-45.932750465957604,0.5847102403640747,0.7840774059295654,-1.6019833087921143,-0.040502297145517265,-0.6360459426733532,-0.1616094948602383,,
3.6230189999999993,-2.475551807170407,-17.77830438171363,-48.326108777818526,1.180823564529419,0.2534162402153015,-3.8498172760009766,-0.08726646259971647,-0.5919464020313592,-0.5257304754480628,,
3.6325429999999983,-0.987929209024418,-19.932168135052695,-51.77473247028221,2.3005855083465576,-0.029172802343964577,-4.72437858581543,0.06794793271122962,-0.42167687653145436,-0.7110551311369264,,
3.641963999999973,1.0727289591055937,-19.68715189004154,-55.009512264587535,3.8496174812316895,-0.20404566824436188,-4.4110426902771,0.18812251174167885,0.0369050536490404,-0.647370598125225,,
3.65147300000001,2.361443420618807,-16.699889374795504,-56.84696919240259,4.258562088012695,-0.2751750946044922,-2.8174965381622314,0.14668759591188982,0.5754257281956878,-0.38264012303264994,,
3.6609919999999647,2.8265090312406778,-13.567807174841342,-56.893271593623496,4.349396705627441,-0.4807986915111542,-2.879225492477417,0.1023215927886752,0.6152618691381537,-0.02518070447533804,,
3.6704859999999826,3.621622973773263,-10.853987267067378,-55.432656726819864,3.5875649452209473,-0.3736342191696167,-1.628695011138916,0.23501990843648837,0.5487794800736369,0.2820505363719081,,
3.6800029999999992,4.78318501249599,-8.302694926901191,-53.37507385535946,1.5574755668640137,-0.09447961300611496,-0.9467847347259521,0.31455895908081005,0.5303935688694218,0.40102603423686506,,
3.6897050000000036,5.901868380156044,-6.556338625609424,-51.79601886741748,0.02732275426387787,0,-0.29913467168807983,0.2757886680632261,0.368517611527963,0.30469984727565125,,
3.699201999999957,7.045896811030108,-4.9409508437714225,-51.287376838265295,-1.2031738758087158,0.15080933272838593,0.5777230858802795,0.24794333877568298,0.3230857584798663,0.07594180714784488,,
3.7087080000000014,7.769126531218648,-2.9415336997388737,-51.93715939292974,-2.444964647293091,0.2612323760986328,0.9942077398300171,0.14362327737785396,0.37011638641528605,-0.17400000023699194,,
3.718221999999969,7.706438911572518,-1.243927878550457,-53.349116255873085,-2.7537803649902344,0.1186981052160263,1.3057961463928223,-0.015588055151399738,0.28831240468058994,-0.3220199085549843,,
3.727735999999993,6.998925367610215,0.1004703770302989,-54.54667873660381,-2.2598822116851807,-0.23874469101428986,2.017683267593384,-0.13709494658795152,0.22462787166888853,-0.2773874429505492,,
3.7372459999999705,6.275491707424648,1.5638002301523972,-54.40891363268781,-1.7299938201904297,0.0805472657084465,2.2993879318237305,-0.13829402775344382,0.2825834613343491,-0.011591117933092112,,
3.746744999999976,4.632592834080198,2.123387551203695,-52.663591907334585,-1.0804628133773804,0.4414374530315399,2.867204427719116,-0.33427718269112766,0.13616232790367974,0.36425421182843487,,
3.756271999999967,2.2110713986840302,1.3861005371006174,-49.38539778535849,-0.08658270537853241,0.16418859362602234,1.0464890003204346,-0.4992174585666223,-0.11724349173702366,0.7021286380160394,,
3.76577199999997,0.6789883448250129,-0.20186626917475567,-45.23174728799891,0.25145623087882996,0.6310879588127136,0.6229204535484314,-0.30869678449395893,-0.30736447208785633,0.8766615632154723,,
3.7752759999999626,-0.7281514619332763,-3.036505469273688,-41.41369416640516,0.46917980909347534,0.9162243008613586,-0.21527498960494995,-0.25233996971582134,-0.5794226654139953,0.7835329260289047,,
3.7846189999999638,-2.2794399362445197,-7.012690151357315,-39.07414250555414,0.7777644991874695,0.6714415550231934,-1.442155361175537,-0.2624655440022007,-0.819771823474894,0.4405957126981105,,
3.7942019999999843,-2.830030894638596,-11.7720295479028,-38.90385992169867,1.1189192533493042,0.5539098381996155,-2.255350351333618,-0.10165543658562393,-0.9641944882964094,-0.03810413481453269,,
3.803709999999967,-2.179347882265244,-16.84218346055154,-40.87632714851186,1.6705158948898315,0.19670969247817993,-3.5018088817596436,0.023049004625573973,-1.0062955603292496,-0.496419602513807,,
3.813155999999992,0.40982807382722686,-21.328090284948846,-44.420404703295176,2.235081672668457,-0.5766478180885315,-4.142263889312744,0.2637978564083033,-0.8978453304725027,-0.7736738142237459,,
3.8226569999999924,5.38151738248619,-24.20696509483209,-48.32472409540619,2.289520502090454,-0.7833918929100037,-3.8196730613708496,0.6660229718106606,-0.6276523745149074,-0.7752725891110689,,
3.8321679999999674,10.931853874076733,-24.92459987903537,-51.08889346697308,1.9640995264053345,-1.1392170190811157,-4.003080368041992,0.8646707515605494,-0.23262174610550373,-0.5337243498846782,,
3.8416669999999726,16.02840686468557,-23.48975129658384,-51.41413934988948,1.0619391202926636,-1.1733893156051636,-0.5984014272689819,0.9935053612306652,0.2502082698660573,-0.1456217459870078,,
3.851189999999974,19.749230240899387,-21.265577463806032,-49.558983501687564,-0.2602657973766327,-1.0205844640731812,-0.40979790687561035,0.8987779491567746,0.5218667694703656,0.1975819298250069,,
3.8703729999999723,24.576252561152476,-16.84728419125681,-44.15541718508622,-0.9759931564331055,-0.4298248291015625,1.0633604526519775,0.5854180712414567,0.6674885154573733,0.2925758043801181,,
3.8798850000000016,25.264557400327913,-13.843674462210222,-42.83891030492821,-1.137961506843567,-0.30465513467788696,1.3935978412628174,0.2231623280221757,0.6541653913963479,0.0005329249624410166,,
3.8894019999999614,24.60713542186842,-10.86318969265892,-43.65946235843989,-0.6003648042678833,-0.08129477500915527,2.0409951210021973,-0.15361562042362303,0.4737702916100638,-0.37664471720518855,,
3.8989029999999616,22.36738612282763,-7.8478004281986715,-46.12515835784448,-0.26710253953933716,0.26102837920188904,2.430626392364502,-0.5174701385302272,0.35799234351975295,-0.669353752825917,,
3.908411000000001,18.253849027266245,-5.713693369993636,-49.492183301517606,-0.25475648045539856,0.44785645604133606,2.198751926422119,-0.8919831558856517,0.1685375193719715,-0.7492924971920695,,
3.9179249999999683,12.999819452431238,-5.67707434064709,-52.56802681823513,-0.07185238599777222,0.34293487668037415,1.9525612592697144,-1.1026217472904636,-0.16054364493535628,-0.5645007664656468,,
3.927449999999965,6.9111605327740575,-7.306280276963727,-53.97614184690247,0.1926916539669037,0.32324522733688354,1.9784669876098633,-1.2389173064347534,-0.3738468611523732,-0.18052833102689442,,
3.9369459999999776,0.3571382043850855,-9.534772830507785,-53.04209204788168,0.5216770768165588,-0.1244879961013794,-0.02577793598175049,-1.2679617168877888,-0.4412618689011618,0.27458958689773383,,
3.9462629999999876,-4.920943432531218,-11.853652921792605,-49.985754967004354,0.89914470911026,0.4121440649032593,-0.7932806015014648,-0.9238254223915022,-0.5021485458600479,0.6415084235383739,,
3.9557909999999765,-9.718414225349617,-13.790637181761829,-46.17407878418967,1.427377462387085,0.9015754461288452,-2.064983367919922,-0.7703430332084895,-0.4986845336041813,0.7424977039209465,,
3.965381999999977,-14.048052427189427,-14.962910818846103,-43.349516288168,1.9650955200195312,0.7271738648414612,-4.347812652587891,-0.7065252689561778,-0.36452067430965535,0.5317258812755243,,
3.9748839999999745,-16.54218072472638,-15.616161690587836,-42.78461575038296,2.8149280548095703,0.9042568206787109,-4.51902961730957,-0.4580490052180538,-0.17106891294356633,0.08180398173469605,,
3.9843159999999784,-17.619005498086167,-16.328404640422466,-45.137185335754545,3.14750337600708,0.6633490324020386,-4.441642761230469,-0.3394732010749276,-0.013722817782856177,-0.4838958658964431,,
3.993829000000005,-17.516125907945163,-17.22927482965075,-49.46310805095654,2.75229549407959,1.0714794397354126,-2.7791213989257812,-0.22982389005268844,0.07407656977930131,-0.8731975509596057,,
4.003332,-17.396473381994205,-17.598472488530046,-54.31430724672987,2.0973503589630127,0.40507572889328003,-2.4514071941375732,-0.2728575807698005,0.20837366031443752,-0.9510045954759943,,
4.012841999999978,-16.667091734546457,-16.414197956908833,-58.094294662815976,1.2135865688323975,0,-1.4039913415908813,-0.07887289444127048,0.43699846920163365,-0.6602940284644195,,
4.022551999999962,-16.076388188087282,-13.472889939265485,-59.58372406874867,0.5450958609580994,0,-0.5140182971954346,0.04583154676992743,0.6372450238388456,-0.12443797872997737,,
4.032061999999996,-15.858570071142422,-9.28630406411167,-58.35656908162015,0.13653187453746796,-0.10799124836921692,-0.19047731161117554,0.10298774899172647,0.7226462490700186,0.4759019914598278,,
4.041552999999965,-14.50017362519252,-4.412174627096709,-54.918190976153205,-0.5344423651695251,0.2743209898471832,0.709060549736023,0.36505359927209635,0.7418315477178952,0.9439433397236507,,
4.051062999999999,-11.874831141655804,0.06486011119649479,-50.49834660823449,-1.6922277212142944,0.6218243837356567,1.4401793479919434,0.5672986225184622,0.6493690667343788,1.1015558973655815,,
4.060582000000011,-8.600684236391759,3.1120411580145673,-46.6294772555207,-2.7887911796569824,0.7005446553230286,2.3071951866149902,0.6395099549292199,0.4433935687509259,0.9073047485558309,,
4.070089999999993,-5.166296716875331,4.71537069348346,-44.73365665047934,-3.3745298385620117,0.7766152620315552,3.3818676471710205,0.667355284216763,0.25940122546816485,0.4283384385619672,,
4.079598999999973,-2.631579640174915,5.258964549006868,-45.55612368461233,-3.258692741394043,0.5576391220092773,3.6229612827301025,0.52946095018515,0.10858346109735714,-0.1685375193719715,,
4.089111000000003,-1.4217667986871676,4.731868243311738,-48.67431321490954,-2.207190752029419,-0.03651290386915207,2.368232250213623,0.3061653909223641,-0.09406125587083942,-0.6605604909456401,,
4.098613999999998,-0.8570044104365488,3.1539715364043954,-52.72391479212399,-0.60718834400177,-0.45695942640304565,2.112870693206787,0.17892955613957134,-0.3104287906218922,-0.8661362952072622,,
4.108123999999975,-0.8520853002787565,0.5065970541073891,-56.209131342320156,0.7691469788551331,-0.7839831709861755,0.5876137018203735,0.031575804024630234,-0.5305268001100321,-0.752223584485495,,
4.1174629999999866,-1.0076421783696814,-3.525794158320619,-57.9541070052077,1.9558848142623901,-0.921600878238678,-1.1602122783660889,-0.03410719759622506,-0.8128437989631607,-0.3951638596500138,,
4.126958000000002,-1.1785362978220766,-8.406884321444206,-57.49686999321321,2.5721802711486816,-0.6599220633506775,-2.3473901748657227,-0.01958499236970736,-0.9903078114560191,0.04942879026640429,,
4.136549000000002,-1.9381174381887474,-13.249001949238687,-55.24965923801356,2.959862232208252,-0.3338073194026947,-4.648190021514893,-0.06328483928987072,-0.9924395113057833,0.3956967846124548,,
4.146055999999987,-3.23097629531049,-16.893662225686185,-52.37358323802669,3.623852014541626,-0.08392325043678284,-5.27850341796875,-0.09965696797647011,-0.7660796335089615,0.5262634004105039,,
4.155484999999999,-4.64454184396455,-18.93798075909099,-50.35739055653005,3.535486936569214,0,-4.966794967651367,-0.1453552835057873,-0.44779019969106426,0.3699831551746758,,
4.165005000000008,-4.863670878145609,-20.685119702586526,-50.49849038393157,2.792851448059082,-0.32668548822402954,-4.669981956481934,-0.0464977029729787,-0.35812557476036316,-0.06062021447766564,,
4.1745070000000055,-3.1547176227288536,-21.98644071169703,-52.96837292055231,1.3991928100585938,0.11545300483703613,-2.215628147125244,0.16347473222878187,-0.23835068945174467,-0.4973522211980788,,
4.184022999999968,-1.9990028473852293,-21.695394526819253,-57.067377866575754,-0.04789149761199951,0.05876759812235832,-1.0910786390304565,-0.0750091884635731,0.0816707504940858,-0.7832664635476843,,
4.193611999999973,-1.681619984984613,-19.342718364477676,-61.48967317306526,-1.6913235187530518,-0.582306981086731,-1.4679744243621826,-0.24807657001629327,0.4862940282274276,-0.8405558970100936,,
4.203225999999972,-1.6363930037764407,-16.228367381426867,-64.85367970545664,-1.5700243711471558,-0.40787333250045776,0.5689084529876709,-0.1921194489599865,0.6303169993271124,-0.6355130177109123,,
4.2127309999999625,-3.5049248165137783,-12.404629925186017,-66.20075079811522,-0.6386744379997253,-0.4873321056365967,1.5234955549240112,-0.43007044468990047,0.764347627381028,-0.21743338467593476,,
4.222247999999979,-6.193530731469625,-7.997268763825509,-65.18128329601404,0.22172923386096954,-0.3694343566894531,1.9208180904388428,-0.4868269531898687,0.8469509965593857,0.3148254215620306,,
4.231752999999969,-8.262112733132854,-4.040527087512236,-62.15651970023825,0.9074794054031372,0.28244584798812866,2.1580026149749756,-0.336009188819061,0.6894716701580652,0.762215927531264,,
4.241255999999964,-9.74418767934324,-1.0681607107421769,-58.08403454229273,0.8968433737754822,0.8697690963745117,2.0694823265075684,-0.2503415011066676,0.43819755036712593,0.9571332325440658,,
4.250772999999981,-11.07666557551458,0.665616023022215,-54.317681220144706,0.41885465383529663,1.1547175645828247,1.8639847040176392,-0.25686983189657003,0.18266003087665844,0.857609495808206,,
4.260281999999961,-12.49683208610327,0.5448079793030317,-51.89656473320984,-0.5199699997901917,1.0948073863983154,1.1035990715026855,-0.28311638629679003,-0.14655436467127958,0.5227993881546373,,
4.269796999999983,-13.55206800062552,-1.8414228709506844,-51.057304821006056,-0.980566143989563,1.040418028831482,1.227280855178833,-0.20211179200575558,-0.5209341507860938,0.07620826962906538,,
4.279319999999984,-13.8086536225863,-5.324220210421003,-51.76321222614923,-0.8379813432693481,0.866716742515564,0.2689613103866577,-0.053558958725322174,-0.654698316358789,-0.3121607967498255,,
4.288636999999994,-13.024872961433445,-8.719207527203327,-53.41309957344029,-0.49663087725639343,0.6402854919433594,-0.9893537759780884,0.12017457903044926,-0.5906140896252566,-0.5077442579656787,,
4.298226999999997,-11.46192124183145,-11.61554646401108,-55.116380690391814,0.3573860824108124,0.44160300493240356,-1.4709100723266602,0.2535390508813137,-0.5000168460102838,-0.4893583467614635,,
4.307727,-9.818692782696878,-13.830672550348062,-56.154680606444145,1.1295068264007568,0.2815103530883789,-2.300234317779541,0.28404900498106184,-0.4051562026957829,-0.31296018419348703,,
4.317165999999986,-8.594545068285836,-15.523261248940324,-56.046726133789214,1.7477703094482422,0.132786363363266,-2.992527723312378,0.2540719758437547,-0.3474670755115428,-0.05182695259738886,,
4.326761999999974,-7.84252698141657,-16.015822636131908,-54.904600444574356,2.1215996742248535,0.1265372633934021,-3.504664897918701,0.2211638594130219,-0.1414915775280899,0.20371056689307862,,
4.3362639999999715,-7.279007560281615,-14.705258106805973,-53.34752319185664,1.4797351360321045,0,-3.9589290618896484,0.20824042907382723,0.20610872922406318,0.34853292543642483,,
4.345762999999977,-5.914659467139351,-12.886228062528037,-52.00663366174061,0.7407507300376892,-0.06594165414571762,-2.4785122871398926,0.3502649315643582,0.3173568151336254,0.32042113366766123,,
4.355383999999958,-3.951831528380824,-11.078194345431712,-51.43775057922538,0.5029786825180054,0,-0.39928221702575684,0.4259402762309826,0.3385405823906558,0.14788667707738212,,
4.36490299999997,-2.33370708219301,-8.667358910589193,-52.016373454681066,0.10450378060340881,-0.34843143820762634,0,0.31256049047165624,0.4761684539410484,-0.08406891282507037,,
4.374421999999981,-0.8447581542792779,-6.10684922666402,-53.54856103630039,-0.03368686884641647,-0.35353419184684753,0.03253656625747681,0.2665957124611186,0.5090765703717811,-0.28737978599631825,,
4.38390499999997,-0.10311833887485598,-3.861936382470347,-55.62126033807621,0.2068934440612793,-0.33712005615234375,0.6317050457000732,0.11897549786495695,0.4412618689011618,-0.4194119454410801,,
4.39341300000001,-0.5832544405924445,-2.0775758658542687,-57.90540145196833,0.526405930519104,-0.42268162965774536,0.970765233039856,-0.11351301699993654,0.3483996941958146,-0.472304747963351,,
4.402927999999974,-2.201518893770168,-1.3034926944865846,-60.30501637565871,0.6948522925376892,-0.41006189584732056,1.7416050434112549,-0.33121286415709184,0.15494793282972558,-0.48149770356545857,,
4.412435999999957,-4.759702282178102,-2.192215734445823,-62.79926326560768,0.6349381804466248,-0.33967939019203186,1.8106672763824463,-0.520001532101822,-0.15987748873230498,-0.4994839210478428,,
4.421947999999986,-7.444643072060813,-5.065130111930258,-65.25600240572979,-0.05828933045268059,-0.21642260253429413,3.0175652503967285,-0.5607702917285597,-0.5329249624410166,-0.5409188368776319,,
4.4314620000000104,-9.514197430847586,-9.58214608646296,-67.50058795764663,-0.8430984020233154,-0.0968504548072815,3.063039541244507,-0.46271209863941265,-0.8425543656192473,-0.5656998476311391,,
4.440969999999993,-10.432599648000634,-13.97876649552898,-69.33028886237886,-1.4791665077209473,-0.21514683961868286,0.7802663445472717,-0.2516738135127701,-0.8165742737002478,-0.5109418077403246,,
4.45030399999996,-9.659080223640725,-16.97211932202983,-70.68523074332936,-1.430209994316101,-0.0666636973619461,-1.009482502937317,0.08939816244948054,-0.5562404295478112,-0.3671852991218605,,
4.4599039999999945,-8.015182170646254,-18.602533987868515,-71.494922593752,-0.834621012210846,0.2668570280075073,-1.3322930335998535,0.2865803985526567,-0.3105620218625025,-0.20784073535199646,,
4.46939900000001,-6.596309474412292,-19.814291337740702,-71.82800612782215,0.2146126627922058,0.39747124910354614,-2.4371001720428467,0.2691271060327134,-0.24434609527920614,-0.09845788681097783,,
4.478828999999962,-5.666524197860027,-20.78250584116736,-72.04232607476185,1.5568653345108032,0.6137545704841614,-2.7723000049591064,0.18505819320764302,-0.20211179200575558,-0.04756355289786074,,
4.488331999999957,-5.736320853822746,-20.941413021092202,-72.36920117059131,2.3482491970062256,0.8441492319107056,-3.3577795028686523,-0.021450229738250916,-0.03956967846124548,-0.04596477801053768,,
4.497833999999955,-7.383721324811543,-20.861464384097495,-72.8975001384224,2.3461368083953857,1.2037094831466675,-3.4123008251190186,-0.3483996941958146,0.01185758041431262,-0.06954670759855268,,
4.507353999999964,-11.534043947503664,-21.100173941492024,-73.59563390134787,1.9498944282531738,1.2609012126922607,-2.36832594871521,-0.8578759582894265,-0.04436600312321464,-0.09979019921708036,,
4.516869999999983,-17.284660023271172,-21.06599820132052,-74.39982840969833,1.1713590621948242,0.9378061890602112,-1.1896485090255737,-1.1822940291753954,0.01931852988848685,-0.09819142432975732,,
4.5358850000000075,-29.7331794938428,-18.545691031129262,-75.31044088698971,-0.3429964482784271,1.1219871044158936,0.22843921184539795,-1.312061257529783,0.2847151611841131,0.14202450249053092,,
4.545575999999983,-36.109101704752334,-15.94146100143213,-75.06602407983041,-0.4415922164916992,0.3786012530326843,-0.44663333892822266,-1.2367856065849892,0.36891730524979377,0.3670520678812503,,
4.555101999999977,-39.71832792114639,-11.995460795610178,-74.37864226968527,-0.4906613230705261,0.351849764585495,0.2658790946006775,-0.6706860652320195,0.5012159271757761,0.6224563561311075,,
4.564591000000007,-40.412906913795325,-7.172926421532516,-73.39494985492861,-0.7046270966529846,0.428570032119751,0.3772791624069214,-0.09339509966778817,0.5800888216170466,0.79152680046552,,
4.574100999999985,-38.31322879684989,-2.7385261339800904,-72.04554115144111,-0.9518052339553833,-0.10462325811386108,0.38410454988479614,0.45338591179669496,0.4830964784527816,0.7917932629467405,,
4.583602999999982,-32.479529968252955,-0.05736126940654596,-70.34449683014624,-1.0936332941055298,-0.16882628202438354,1.6323281526565552,1.1832266478596671,0.22622664655621155,0.5872833086100002,,
4.5931170000000066,-23.344268547464797,-0.0859995982743642,-69.0246801746854,-0.7735171914100647,0.12620097398757935,2.7309041023254395,1.8364594205717433,-0.12337212880509535,0.19345176136608902,,
4.602635999999961,-12.148216457889996,-2.990790680294704,-68.97507561849147,0.3250407576560974,0.8016413450241089,4.290472030639648,2.2462787166888853,-0.5421179180431241,-0.2590015317463341,,
4.612153999999975,-1.167223250741542,-7.390161612975329,-70.9068432170509,1.4019675254821777,0.38937628269195557,3.96171498298645,2.1584793291267275,-0.8290980103176117,-0.6104655444761846,,
4.621645999999998,9.716764860651907,-12.03463717165509,-74.29076536539858,1.813005805015564,-0.24634411931037903,2.0786995887756348,2.049096480585709,-0.9989678420956856,-0.7249111801603928,,
4.631156999999973,21.04631321968602,-16.965189322630703,-77.9587510481219,1.6906657218933105,-0.38794758915901184,0.8839200139045715,2.058822361150258,-1.18469219150638,-0.5434502304492267,,
4.640481999999963,31.584786321030425,-22.190735267915002,-80.96580738609147,0.9727923274040222,-0.7482963800430298,-0.7943210601806641,1.8793598800482452,-1.2446462497809945,-0.135762634181849,,
4.65007700000001,40.79168650015789,-27.757723971548504,-82.77566625196765,-0.1388436257839203,-1.0844810009002686,-4.028779983520508,1.6683215949216026,-1.1412588070674372,0.34040581975919937,,
4.659588999999983,49.82661622413818,-33.673041078905996,-83.45327979434018,-1.269455909729004,-0.8338075876235962,-5.499701023101807,1.7298744280835403,-0.9468744270170765,0.7375681480183671,,
4.669111999999984,59.357642274707345,-39.07551219148119,-83.16887814269504,-2.445310592651367,-0.22847110033035278,-4.582072734832764,1.947840737721916,-0.601805513836518,0.9043736612624053,,
4.678521999999987,69.85042204883113,-42.77130131756017,-82.34249497620412,-3.2877793312072754,-0.1954905390739441,-3.755810260772705,2.2237626370257524,-0.20797396659260675,0.7222465553481879,,
4.688040999999998,83.80637552668762,-43.76441152319614,-81.50602966524129,-2.948554515838623,0.14611196517944336,-0.19365735352039337,2.9160321632366326,0.061952526883768184,0.21690045971349378,,
4.697542999999996,100.70741189737134,-41.307587598892624,-80.63920330373055,-0.7336440682411194,1.3313789367675781,3.947068214416504,3.507578871546161,0.09712557440487528,-0.5037473207473709,,
4.707057999999961,115.02693116109133,-35.67393351113938,-77.95801001343399,2.659012794494629,0.9183576107025146,5.549252033233643,3.2054104178421055,0.04236753451406082,-1.2116049021096513,,
4.716566999999998,126.07699256214211,-28.97048389091033,-72.9769770695007,5.590680122375488,-0.5261847972869873,2.0963802337646484,2.7492266499925946,0.032508422708902016,-1.5927794814955885,,
4.726069999999993,136.7833774894579,-22.696452297142834,-69.25365115312144,5.772653102874756,0.706699013710022,2.5990121364593506,2.4649111825303125,-0.3521301689329018,-1.3830735087750485,,
4.735582999999963,142.3750697720117,-16.83155041306572,-68.34631678224993,3.2308297157287598,-0.5991401076316833,0.5797753930091858,1.1868238913561442,-0.7952572752026071,-0.8971791742694516,,
4.745092,146.0719338288603,-11.706921953180043,-69.46919933332077,0.0842520147562027,-1.7657363414764404,-1.6018593311309814,0.6910704450453883,-0.9717886690111939,-0.4282052073213569,,
4.754611000000011,149.39229838313963,-7.551298705383221,-71.85688946713071,-4.278701305389404,0.4137413501739502,1.8497419357299805,0.5912802458283081,-0.9669923443492247,-0.05062787143189658,,
4.764116999999999,146.0116658765143,-5.901402375111412,-74.13783343169221,-6.7928242683410645,-0.8485471606254578,-0.46815335750579834,-0.7231791740324596,-0.5333246561628474,0.20184532952453504,,
4.773622999999986,139.85621394178366,-9.573049735352622,-75.06449563335278,-4.875041961669922,1.3707585334777832,2.5965306758880615,-1.2498422681647943,0.46444410476734593,0.585018377519626,,
4.783149999999978,129.73233545625197,-18.476437629873242,-74.43117181569887,-2.046433925628662,-0.4784803092479706,-0.3613719344139099,-1.9848790226115667,1.3336447185086442,1.174699848460611,,
4.792648999999983,122.91878223612612,-28.665832364874593,-73.36241445520493,0.5791877508163452,0.9149399399757385,3.867304563522339,-1.2676952544065683,1.3560275669311668,1.5230995426564256,,
4.802337999999963,115.36560687760975,-37.561493512113984,-72.90735473104802,4.089004039764404,0.9367001056671143,1.078023076057434,-1.4522205226517704,0.9232924974290613,1.5145727432573692,,
4.8118409999999585,108.41819680126189,-44.87703326634091,-72.51733588121496,5.1981306076049805,-1.0955193042755127,-3.4696807861328125,-1.330447168733998,0.5895482397003746,1.3331117935462031,,
4.8213629999999625,110.4394815516385,-49.01888571958014,-77.07030007522367,3.5669331550598145,-1.090638518333435,-2.8167452812194824,-0.25500459452802643,-0.3226860647580356,0.9837794806661169,,
4.830873999999994,120.75718487609059,-49.87484286084168,-87.86713586140506,2.4682469367980957,-0.9118207693099976,-0.6827377080917358,0.4271393573964748,-1.2040107213948668,0.7558208279819719,,
4.840280000000007,133.16181084337342,-49.548538521969434,-98.03876763888223,-0.9018579125404358,-1.95147705078125,1.8343654870986938,0.9338177654372715,-1.1022220535686327,0.7342373670031107,,
4.8497879999999896,149.28068613008276,-49.00232559881095,-106.14552599860191,-4.431197166442871,-1.0923644304275513,1.4742658138275146,2.0011332339660175,-0.7603506901627205,0.7524900469667154,,
4.859291999999982,169.20911513977907,-47.037005422544226,-111.82483888447098,-5.252491474151611,1.2600789070129395,4.42598819732666,3.1489203718233574,-0.6507013791404813,0.568231241202734,,
4.868796999999972,-171.61321095824792,-45.423599108397354,-112.36118630530761,-3.6370058059692383,2.640176296234131,6.753990173339844,3.7680459469392082,-0.3377411949469943,0.06261868308681946,,
4.878308000000004,-156.07905614248702,-45.46385631930674,-107.83210272410902,0.7305888533592224,2.530060291290283,6.174473762512207,3.7619173098711367,-0.18159418095177643,-0.6209908124843947,,
4.887923999999998,-143.70778705435526,-46.741312109658885,-100.81967678344395,6.135343551635742,0.2930033504962921,2.2078514099121094,3.4935895912820842,-0.27965237404092347,-0.978716693522927,,
4.897246999999993,-125.7601975801331,-47.8221981130966,-98.08613732966893,7.165643692016602,2.1345815658569336,3.1566848754882812,4.001467080488373,-0.1235053600457056,-0.4222098014938954,,
4.91644500000001,-99.96731921673825,-37.91185605025164,-94.32257113027461,0.6401073932647705,-1.0562191009521484,-1.060617208480835,2.5637687630631207,-0.8733307822002161,1.1539157749254114,,
4.9258669999999825,-83.33387002433462,-30.779170378123442,-87.60789611531571,-3.9329311847686768,5.088905334472656,4.045248031616211,4.089666161772362,-1.1692373675955905,1.395996939114243,,
4.935293999999999,-68.05386186055561,-29.795204035456997,-80.67329063361176,-7.384851932525635,4.717962265014648,6.368734836578369,3.763915778480291,-1.1296676891343451,0.48376263465583286,,
4.944800999999984,-50.30733163593844,-36.250940971080084,-80.65114860832126,-3.7731714248657227,1.8212841749191284,3.8683009147644043,3.558872899181109,-0.6796125583529065,-1.1180765712012528,,
4.95447999999999,-22.726400083012106,-41.68276134638259,-90.19659688429641,0.457050621509552,4.5507378578186035,7.057273864746094,4.315359883366132,0.0009326186842717791,-1.85564471921962,,
4.963995000000011,4.742348053172553,-41.80997417916711,-103.1108302954275,4.551665782928467,2.3754444122314453,6.382813453674316,3.6831776466704764,0.28125114892824654,-2.018586526485961,,
4.973515999999961,24.36987310832944,-39.10281951426792,-111.40026101732153,7.268691539764404,-0.6676843166351318,0.08207446336746216,2.7874640160477373,0.17506585016187395,-1.4430275670496626,,
4.982838999999956,40.68459163305887,-38.60085054505915,-112.74647648617594,6.028187274932861,0.1361357569694519,-3.1057071685791016,3.0767090394125995,-0.05862174586851183,-0.26619601873928783,,
4.99253699999997,56.2289495151311,-45.47134209967333,-112.8187295515292,4.3543853759765625,0.46335500478744507,-1.5757367610931396,3.1302679981379216,-0.9150321605112255,1.0385375205569312,,
5.002029999999991,71.89387881205063,-57.6670498555015,-115.26475754164234,0.39858686923980713,1.1331794261932373,0.8216935992240906,2.747361412624051,-1.3572266480966593,2.062819298368565,,
5.011282999999992,91.92976476909114,-69.77425867679537,-125.45161803051103,-5.414414405822754,1.9975073337554932,0.511978805065155,2.1699372158192096,-1.2474441058338097,2.2645313966524903,,
5.030474999999967,124.62268557098838,-65.94871707610588,-138.76350606237992,-4.279297828674316,0.8839656710624695,0,2.147421136156076,-0.3284150081042765,-1.4771347646458879,,
5.039895000000001,119.792193635362,-57.29238070204671,-116.94039422638787,-0.5260730981826782,1.9139597415924072,4.891315937042236,2.959732010156796,0.8618728955077343,-2.5757595747180435,,
5.049398999999994,115.14075128458097,-48.6897870560445,-98.7150573800603,3.230576515197754,0.9473389387130737,5.791506767272949,2.0729448726549444,1.1992143967328976,-2.5569739697919975,,
5.058920999999998,111.92653676929481,-42.8338601254639,-88.64929627461377,7.003338813781738,-2.2988381385803223,1.0020272731781006,0.8608070455828521,0.8558774896802727,-1.6583292518758337,,
5.068610999999976,112.86301745320502,-43.88384553389654,-82.40364876921252,6.707705020904541,-0.7186321020126343,0.20057564973831177,1.087166923379674,0.9423445648363276,-0.17120214418417656,,
5.078129999999987,118.63332213027425,-48.72219897230301,-85.41694336124553,5.047027111053467,0.28368502855300903,-0.903079092502594,0.6936018386169831,0.006794793271122961,1.0617197564231153,,
5.0876199999999585,131.67190167007968,-53.179091575528886,-97.82818655961063,3.8282909393310547,-1.5305891036987305,-1.2356274127960205,0.5780903530078928,-0.8468177653187755,1.669120982365264,,
5.096941999999956,149.14929790533188,-55.88083279672534,-113.2852603390822,-0.5181170701980591,2.9142887592315674,5.799900054931641,0.8553445647178317,-0.7945911189995557,1.7839663117713034,,
5.106548999999973,152.53132227032725,-56.855750172301654,-123.56704459346315,-4.106534004211426,2.4126787185668945,1.7074111700057983,-1.1203415022916272,-0.4255405825091518,1.136329251164858,,
5.116061999999999,147.0026308509357,-57.35882092569216,-124.89973019275301,-5.400355339050293,0.30325549840927124,-1.755948543548584,-1.353895867081403,-0.0073277182335639785,0.18772281801984808,,
5.125560000000007,140.33995443885237,-57.00940718132992,-118.64469321075539,-4.980297565460205,1.7271678447723389,0.9485732316970825,-0.2659295562580673,0.33667534502211227,-0.5970091891745489,,
5.1350799999999595,130.09885809980602,-55.1240249983241,-108.76154459084283,-2.5551106929779053,0.2650500237941742,0.13452447950839996,-0.3737136299117629,0.5102756515372735,-1.065716693641423,,
5.144499999999994,122.15179423510668,-53.02779888809969,-99.39209863961901,0.37752074003219604,-1.7968229055404663,-1.574579119682312,-0.016120980113840753,0.6569632474491632,-1.01162480995366,,
5.154194999999959,120.35512579331458,-52.8772443005909,-91.64447724789945,2.2483880519866943,-1.551485538482666,-0.5550720691680908,0.9411454836708354,0.8068483931356992,-0.537321593381155,,
5.163702999999998,123.49824671251072,-55.1741208075577,-86.81301704720683,3.4053094387054443,-2.1862080097198486,-0.7557213306427002,1.4710061275778161,0.7459617161768131,0.06461715169597326,,
5.173211999999978,136.08058698361657,-59.03220024382879,-87.07301715368381,3.6456785202026367,-0.7065918445587158,-0.02618315815925598,2.491557430652363,0.4673751920607716,0.6036707512050616,,
5.182721999999956,157.62447390577438,-60.426785412268785,-94.14671774349983,2.8716394901275635,0.9500356316566467,2.7915093898773193,3.033009192492436,-0.18812251174167885,0.7767381327577818,,
5.192047000000002,179.19828043918622,-56.23357204573207,-101.78978575813399,2.4994089603424072,0.8225597143173218,2.9235877990722656,2.9525375231638424,-1.0048300166825368,0.6545650851181787,,
5.201565999999957,-164.6282335750542,-48.97789251166048,-103.67238753710392,0.9461104869842529,2.0463690757751465,4.917639255523682,2.894715164738992,-1.4233093434393453,0.44192802510421303,,
5.211163999999997,-155.45194111088585,-42.49025833893625,-100.47713552619048,-0.9007782340049744,1.3527748584747314,2.9274392127990723,2.2698606462769004,-1.3772113341881975,0.046231240491758196,,
5.220649999999978,-148.50539551065629,-38.15480285457565,-94.43295101979182,-1.7649250030517578,1.0585157871246338,0.7661344408988953,2.1640750412323584,-1.2038774901542566,-0.3966294032967267,,
5.230177999999967,-140.81537648032545,-36.20635941497468,-87.46354947705163,-1.696103811264038,1.5798828601837158,0.647161066532135,2.3813751946676827,-0.9685911192365477,-0.6800122520747374,,
5.239598999999998,-133.1904303924986,-36.62744359357994,-81.67393190380807,-1.248666763305664,0.6484289169311523,0.08082735538482666,2.209640125521065,-0.5764915781205697,-0.7347702919655517,,
5.249300000000005,-123.44027586449988,-38.17280443619514,-78.81618799970053,-0.8369960784912109,-0.22056621313095093,-0.7447458505630493,2.2871807075562334,-0.1572128639200999,-0.5152052074398529,,
5.258795999999961,-109.36728010267566,-38.81635554198078,-79.146908431136,-0.6252122521400452,0.47411394119262695,0.3904989957809448,2.760418074203856,0.11790964794007493,-0.08500153150934217,,
5.268123000000003,-93.39810762125592,-37.342934066234406,-80.9439046768888,-0.6293671727180481,0.75669926404953,1.6918286085128784,2.962130172487781,0.2330214398273345,0.34600153186483,,
5.277647000000002,-76.85157767395401,-34.18931649114197,-81.64781725506917,-0.9004412889480591,1.2127134799957275,1.8654954433441162,3.226327722617915,0.17080245046234582,0.6152618691381537,,
5.287156999999979,-60.049817410472166,-31.64843777984031,-79.4854140108114,-0.5730963349342346,2.5432257652282715,3.203659772872925,3.605770295875918,-0.1636079634693921,0.6040704449268923,,
5.296664999999962,-45.044297319219886,-32.21127872119404,-75.85341174408535,0.4902132749557495,2.6022603511810303,3.6478981971740723,3.404724353795045,-0.583952527594744,0.2907105670115746,,
5.30633899999998,-31.770246708660537,-36.08164366412511,-73.87040078431725,1.5667144060134888,1.9773907661437988,1.7552058696746826,2.895248089701433,-0.8330949475359192,-0.21983154700691937,,
5.315858999999989,-18.865365359186736,-41.73514203077682,-75.66691096877241,2.013820171356201,1.7528871297836304,0.4980963468551636,2.362722820982247,-0.9167641666391588,-0.7438300163270489,,
5.325374000000011,-6.828384595263258,-47.19445861348331,-81.72533662181363,1.521274209022522,0.7220267653465271,-0.7724165916442871,1.5641347647643837,-0.8845222064114774,-1.0930290979665251,,
5.344292999999993,15.531268582999129,-51.36268889987806,-98.00007479739146,-1.5276267528533936,-0.21452434360980988,-0.8852090835571289,0.847617152762437,-0.3144257278401998,-0.9768514561543835,,
5.353805999999963,19.9055185032875,-49.6296422266734,-102.6622679445397,-2.103987216949463,-0.8544454574584961,-1.0749244689941406,0.15428177662667433,0.1360290966630695,-0.6824104144057218,,
5.363229999999987,18.252049303085567,-46.3292248914013,-103.13816572295276,-0.8732434511184692,-1.4011402130126953,-0.8972102999687195,-0.37677794844579876,0.5975421141369899,-0.26606278749867757,,
5.37291399999998,12.907852388845686,-41.62337895400406,-100.06746190053856,0.6276496052742004,-0.7501581907272339,0.40532374382019043,-0.591813170790749,1.026946402623839,0.21157121008908364,,
5.382438999999977,6.190828306655305,-37.523288377633705,-95.81299811720399,2.2702691555023193,-0.5771971940994263,0.5479785203933716,-0.7418315477178952,0.9171638603609895,0.5688973974057853,,
5.391935999999987,0.9601893505141701,-34.94315965416264,-91.89720423869802,3.3169989585876465,-0.1030421182513237,1.2432301044464111,-0.5301271063882013,0.5471807051863139,0.6569632474491632,,
5.401445999999964,-2.423207698527118,-33.75584514704457,-90.19295416186345,2.2341580390930176,0.17789636552333832,1.0716100931167603,-0.4364655442391926,0.22169678437546295,0.34027258851858916,,
5.410964999999976,-3.473610429626945,-35.38048679969023,-91.74175929671934,1.449038028717041,0.21239687502384186,0.5450706481933594,-0.34320367581201466,-0.3261500770139022,-0.22449464042827827,,
5.420472999999959,-2.0802010699655837,-39.14665321680875,-96.31832383686476,0.26456618309020996,0.15161721408367157,1.110443353652954,-0.2494088824223958,-0.7305068922660237,-0.7440964788082696,,
5.429982999999993,2.7005664616120075,-43.83952847399429,-103.46744535513105,-0.7791204452514648,-0.5310145616531372,1.274317979812622,0.01891883616665609,-0.9558009201379635,-1.0669157748069154,,
5.439311999999973,11.04003905136238,-47.809229560668584,-111.9830867950875,-1.3305275440216064,-0.5448769330978394,1.693356990814209,0.44379326247275663,-0.9422113335957175,-1.0968928039442225,,
5.448823000000004,19.027167909754112,-50.0988969926407,-119.92002485430056,-1.7579073905944824,-1.2278293371200562,0.037400126457214355,0.4064885151018855,-0.7242450239573417,-0.8935819307729745,,
5.458418999999992,25.029552698060748,-51.45354448843161,-125.40051772033985,-1.390268087387085,-1.5268285274505615,-1.0187970399856567,0.3774441046488501,-0.5173369072896169,-0.5319923437567449,,
5.467846000000009,28.08643226357501,-52.29051975541934,-127.64467426112485,-0.6272726058959961,-0.7186204195022583,-1.2285161018371582,0.3016355287416154,-0.27299081201041075,-0.1529494642205718,,
5.477356999999984,27.193703529363553,-52.857710941820834,-127.85093757380642,0.17923039197921753,-0.23419997096061707,-2.727761745452881,-0.1586784075668127,-0.10765084241308535,0.05649004601874777,,
5.486850000000004,24.708430480928822,-53.80087755312012,-128.64583362125893,0.8621140718460083,0.4236556589603424,-2.4217348098754883,-0.5779571217672825,-0.20997243520176057,0.0191852986478766,,
5.496548999999959,21.885522160688534,-54.88095996117011,-132.33484650904086,0.7208272218704224,1.849084734916687,-0.38943102955818176,-1.1272695268033603,-0.37184839254321933,-0.29444104174866165,,
5.505879999999991,18.426521119250143,-55.55559306518231,-140.4640799634794,-0.9975504875183105,2.986154317855835,0.7304257750511169,-2.0152557454707045,-0.4568499240525616,-0.8259004605429655,,
5.515393999999958,15.215948673324794,-56.20208000111199,-153.50180100212006,-2.731888771057129,3.032602548599243,2.0671486854553223,-2.81997243875664,-0.5639678415032059,-1.3856049023466435,,
5.524890999999968,13.188977197287112,-56.443245590498535,-168.8822065803349,-4.329007148742676,1.9352012872695923,2.1111159324645996,-3.0371393609513535,-0.4898912717239045,-1.6984318552995201,,
5.53441399999997,10.40909168810964,-57.00345794214778,177.21593001818198,-4.8799567222595215,1.5032306909561157,3.557424545288086,-2.969058196999514,-0.4460581935631309,-1.5377549791235539,,
5.543915999999967,-1.3822028358843574,-58.20931719066195,171.69693629950714,-2.591045379638672,1.2068424224853516,3.740612268447876,-3.28681470585497,-0.29977029137307193,-0.577690659286062,,
5.553427999999997,-20.95848577517209,-56.30680010828196,174.95608868429616,-1.130312204360962,1.692667007446289,3.9934654235839844,-3.364088825408918,0.2948407354704925,0.416214395666434,,
5.562932999999987,-39.379836684314334,-51.24486730567031,179.43650775020333,-0.6340329647064209,1.9748519659042358,1.4253623485565186,-3.058323128208384,0.6379111800418968,0.8998437990816566,,
5.572436999999979,-53.073829579877,-46.11920342128724,-178.82643967352533,0.9085407853126526,1.528881549835205,-0.8981777429580688,-2.471839207042046,0.5335911186440678,0.8967794805476207,,
5.581965999999966,-59.13620977399915,-41.830663332731156,178.02748007975708,1.3986728191375732,1.1700475215911865,-0.758825421333313,-1.6435405841680955,0.8440199092659602,0.4553843804058487,,
5.591456999999991,-61.01285759332907,-40.95060151071615,172.7453948861821,2.456713914871216,1.9370133876800537,-1.2896445989608765,-1.067848393491187,0.7638147024185871,-0.24807657001629327,,
5.601154000000008,-63.65763333683037,-44.60714741352429,168.44670830065,4.591233253479004,-0.037659645080566406,-0.29402920603752136,-1.1070183782306018,0.208107197833217,-0.9468744270170765,,
5.610658000000001,-65.00572142324681,-49.78823104607553,167.01025947384142,3.6728739738464355,1.5649914741516113,0.7751258611679077,-0.4740367540912843,-0.2848483924247234,-1.0250811652552954,,
5.620166999999981,-70.6479592538221,-54.261531762527156,169.16879292710288,1.9744231700897217,0.4326332211494446,0.23851944506168365,-0.7816676886603612,-0.5959433392496668,-0.7346370607249415,,
5.629685999999992,-76.47666183869094,-56.00862032492785,175.03220416251654,0.7567543983459473,-1.348552942276001,-0.3279450535774231,-0.19664931114073514,-0.7536891281322078,-0.1508177643708077,,
5.639016999999967,-77.15735387540724,-53.62079199224223,-179.27224984406777,-1.476473331451416,1.2652664184570312,3.602273464202881,0.8028514559173915,-0.5422511492837344,0.6097993882731333,,
5.648527000000001,-79.20582693451246,-48.32745514725337,-174.81526966989762,-2.404804229736328,1.251544713973999,3.0325212478637695,0.27245788704796975,-0.33014701423220977,1.1439234318796423,,
5.658101999999985,-80.11713425276103,-41.75804843165643,-171.5593801678304,-3.1065738201141357,0.9990839958190918,0.7378391027450562,0.25740275685901104,-0.20051301711843253,1.3662863724581564,,
5.667614999999955,-78.8174480693663,-36.02294510709897,-168.0928233769138,-3.3629651069641113,2.6824398040771484,2.092740535736084,0.6869402765864705,-0.31362634039653825,1.2189326203432154,,
5.677131999999972,-79.8852987163553,-33.121744619753436,-163.763564103621,-2.3516135215759277,1.884404182434082,2.0498030185699463,0.28524808614655417,-0.6058024510548257,0.6973323133540703,,
5.686558999999988,-80.63218918404641,-33.3773437737,-159.67365734205168,-1.3115129470825195,1.2867673635482788,2.348637342453003,0.31589127148691265,-0.7093231250089931,0.06261868308681946,,
5.696070999999961,-81.48724135395673,-36.327367728304885,-155.5664955086612,-0.2635746896266937,1.717094898223877,4.449552536010742,0.32281929599864584,-0.7940581940371148,-0.4798989286781355,,
5.705584999999985,-85.95768656988747,-40.775366772052685,-151.30774257119575,0.6768512725830078,0.7516584396362305,4.614004135131836,-0.337075038743943,-0.7952572752026071,-0.8147090363317042,,
5.715262999999993,-90.53576882856923,-44.96445106731828,-148.1675209141374,0.6459623575210571,-0.6311765909194946,-0.1957552582025528,-0.44672434976618225,-0.5350566622907806,-0.8282986228739502,,
5.724814999999978,-93.79031430097842,-47.731539830324614,-144.2929360485656,0.04654383659362793,0.08003473281860352,-0.09789250046014786,-0.05489127113142471,-0.552509954810724,-0.5799555903764363,,
5.734295999999972,-99.51411940538632,-48.539618499483964,-138.5605016816818,-0.03582584857940674,-0.43734681606292725,-1.748740315437317,-0.2665957124611186,-0.7686110270805562,-0.256336906934129,,
5.743794999999977,-103.90610049741944,-47.23863339745769,-133.58804953363995,0,-0.8543911576271057,-1.5215353965759277,-0.12656967857974144,-0.7239785614761212,0.11298009203749554,,
5.753146999999956,-104.78421126446659,-44.51385390623113,-130.88652961545884,-0.4523065984249115,0.07494485378265381,-1.7074588537216187,0.21969831576630913,-0.5117411951839862,0.43007044468990047,,
5.762633999999991,-104.84918863861637,-41.24047651553048,-129.09206348968556,-0.41385534405708313,0.1450204849243164,-2.6007320880889893,0.22516079663132954,-0.41994487040352113,0.5649004601874776,,
5.772151000000008,-103.31249090558993,-38.187291763726094,-127.84307303457504,0,-0.10972708463668823,-2.972834348678589,0.45511791792462825,-0.3245513021265791,0.5467810114644831,,
5.78166699999997,-98.60327213137525,-35.995947256481145,-127.25946653789167,0.10831588506698608,0.3850695490837097,-2.618466377258301,1.0028315480733831,-0.1641408884318331,0.41248392092934694,,
5.791172999999958,-92.05429563477291,-35.046676602470384,-126.59234282005019,0.08886229991912842,0.5116286277770996,-1.8153893947601318,1.3785436465942997,-0.1136462482405468,0.1763981625679765,,
5.800861999999995,-83.78175717006263,-35.42441729292922,-125.7214019651696,0.08518463373184204,0.3459532558917999,-0.9911537766456604,1.7499923454156883,-0.13722817782856178,-0.07634150086967564,,
5.810194999999965,-72.29478205033692,-36.80656299097828,-125.8868386973917,-0.35764509439468384,0.9976897239685059,0.833919107913971,2.273591121013987,-0.024514548272286767,-0.2857810111089952,,
5.819702000000007,-58.89322335119569,-38.764545090793604,-127.68679347243767,-0.9087672829627991,1.3063993453979492,1.7611075639724731,2.4518545209505076,0.10618529876637256,-0.4898912717239045,,
5.8292129999999815,-45.1794224611629,-40.98712922593736,-130.96002405332257,-1.0461437702178955,1.2301156520843506,2.302105188369751,2.3155589618062176,0.12683614106096194,-0.6784134771874142,,
5.8387239999999565,-32.07068365656624,-42.82037168187417,-135.94768440897107,-0.981876015663147,1.275925874710083,1.3901050090789795,1.9479739689625262,0.17679785628980726,-0.8292312415582218,,
5.848223999999959,-21.88605620394272,-43.97210299563621,-142.28761252331614,-1.21364426612854,1.401906967163086,2.0907254219055176,1.1633751930087393,0.20610872922406318,-0.9407457899490047,,
5.8577359999999885,-17.225819539007325,-45.37406415925221,-148.73532747028523,-1.1456469297409058,1.7440203428268433,2.8303065299987793,0.022116385941302188,0.03464012255866608,-0.9729877501766862,,
5.867253000000005,-19.087544287806512,-47.32626908376909,-154.3991768167384,-1.298243761062622,2.714367628097534,3.6488492488861084,-1.1989479342516771,-0.13522970921940797,-0.8821240440804928,,
5.876764999999978,-28.862376426916548,-50.069862254930975,-157.8709220713203,-2.2943825721740723,2.314284086227417,2.857936143875122,-2.493422668020907,-0.32015467118644075,-0.66575650932944,,
5.886271999999963,-45.24424197054514,-53.6940337738613,-155.95653985706252,-2.662583589553833,1.3778709173202515,3.3955600261688232,-3.0014333884678055,-0.7210474741826955,-0.273656968213462,,
5.895763999999986,-66.99822311690217,-55.18360065302221,-148.04123315245678,-0.7740169763565063,2.4301090240478516,7.361344337463379,-3.089366007270574,-0.9260903534818767,0.24887595745995475,,
5.905261999999993,-89.52456731567025,-52.07660962476092,-141.19801706158196,0.5747644305229187,2.702099323272705,5.482611179351807,-3.4513552880086342,-0.6436401233881379,0.7631485462155359,,
5.914792999999975,-107.63283053243991,-46.37020046471185,-138.4972194417647,1.3703300952911377,2.2397661209106445,3.3696446418762207,-3.268295563410145,-0.47949923495630475,1.0838361423644176,,
5.924298999999962,-120.90599872547153,-41.21738695874264,-138.95403309122634,0.802787184715271,2.8551762104034424,2.7339510917663574,-2.7728085795806097,-0.31842266505850747,0.9913736613809012,,
5.933880999999985,-133.84562730352144,-39.090951595755115,-139.7172127758753,-0.8768439292907715,3.3736846446990967,1.6054189205169678,-2.7285758076980056,-0.13349770309147466,0.4389969378107874,,
5.943403999999987,-149.59180549688583,-39.69747546740003,-136.9809549664339,-2.1238138675689697,3.044553279876709,0.22581997513771057,-2.8174410451850447,-0.1636079634693921,-0.3942312409657421,,
5.952830000000006,-168.2210017914689,-40.90643462781356,-129.21059720325408,-2.3443799018859863,3.1000473499298096,0.6024158000946045,-2.703128640741447,-0.21730015343532452,-1.2114716708690412,,
5.962337999999988,170.09054353596056,-40.18418963085883,-118.10012773657316,-2.0932397842407227,2.9673659801483154,0.7090681195259094,-2.85168147402188,-0.1842588057639815,-1.7292082718804886,,
5.971855000000005,147.65712843934318,-35.66798365938321,-108.55776281883306,-1.557955026626587,2.6510989665985107,2.2155115604400635,-3.2690949508538063,-0.29670597283903605,-1.7783705996656725,,
5.98136599999998,126.25266370324886,-29.136095199981924,-104.98811526423978,-0.6316509246826172,2.8617868423461914,5.4473466873168945,-3.8674364524344575,-0.5345237373283397,-1.3701500784358538,,
5.990865999999983,105.81050931658571,-24.583134956932565,-107.87664653696302,0.5350362658500671,3.7110910415649414,8.116403579711914,-4.327483926261665,-0.8506814712964728,-0.6157947941005948,,
6.0005669999999895,86.98266370749401,-25.13181051950434,-115.08484462044264,2.3287739753723145,3.6260476112365723,7.943496227264404,-4.365188367354367,-1.3083307827926958,0.25154058227215986,,
6.010072999999977,68.33716537107149,-31.148006391732128,-121.9208810476488,4.282639503479004,3.5487797260284424,7.675220966339111,-4.365188367354367,-1.456750384832519,0.9180964790452614,,
