timestamp,roll,pitch,yaw,acc_x,acc_y,acc_z,gyro_x,gyro_y,gyro_z,acc magnitude,gyro magnitude
0.0,-2.3788232237484217,-2.5649017304794963,169.79980712663755,0.0468944497611615,0.0246884562065114,0.0308411630702575,0.0,0.0,0.0,,
0.0095179999999999,-2.380281886784667,-2.5797517800375345,169.80013488914386,0.0541239641872088,0.0218338108973032,0.0314151271672764,0.0,0.0,0.0,,
0.0285440000000001,-2.3771319108669817,-2.585432456167159,169.79368277841525,0.0738707589587703,0.016886375416127,0.0353262349669571,0.0,0.0,0.0,,
0.0380439999999993,-2.376574074728328,-2.5744464102886373,169.7733104105821,0.0770897840993479,0.0180453595957618,0.0347805250741037,0.0,0.0,0.0,,
0.0665800000000018,-2.3994553118863533,-2.522264538962126,169.64788465897604,0.0602154033200185,0.024013290494492,0.0416086351117795,0.0,0.0,0.0,,
0.0760959999999997,-2.4171928918364,-2.519524000624116,169.6080963884345,0.0497738031332403,0.0261888516360976,0.0274487838410737,0.0,0.0,0.0,,
0.0951120000000003,-2.4407138445473016,-2.538015520199552,169.56960293167342,0.0468689240098629,0.0220713659443992,0.026893170951108,0.0,0.0,0.0,,
0.104616,-2.4423074085728294,-2.5520963080067305,169.56828835778998,0.0512819064835791,0.0165403792241265,0.0259709503603203,0.0,0.0,0.0,,
0.1141330000000024,-2.440745159183112,-2.557821791021836,169.56848078719366,0.0643116090704527,0.0133200796209098,0.0392705075170527,0.0,0.0,0.0,,
0.1331559999999996,-2.419713350974839,-2.548217263789863,169.54580664291117,0.0757611734098071,0.0150598458653693,-0.0019861876021307,0.0,0.0,0.0,,
0.1426680000000004,-2.4107731671631654,-2.529203077831659,169.51594565865065,0.078342341931555,0.0190472124120749,0.0241149470044265,0.0,0.0,0.0,,
0.1521810000000023,-2.4045752332947106,-2.5135158604902337,169.4759171200626,0.0701433136747851,0.0246966429151226,0.0398432227466807,0.0,0.0,0.0,,
0.1711920000000013,-2.426569136772415,-2.503896691070368,169.39120682152986,0.0516791700650778,0.0350436194851178,0.0364035677101354,0.0,0.0,0.0,,
0.180695,-2.448612486818743,-2.5175322138177414,169.36079917065115,0.0444207966387379,0.0338467114805842,0.0285687606659072,0.0,0.0,0.0,,
0.1902190000000025,-2.476626090432172,-2.533414209924118,169.3431570461907,0.0456663540318265,0.0311363453829108,0.027699026590217,0.0,0.0,0.0,,
0.1997169999999997,-2.498568595149011,-2.5469047518192345,169.33677459102253,0.0520508929905561,0.022818996889367,0.0385702915196663,0.0,0.0,0.0,,
0.2187480000000015,-2.5133266106929675,-2.5524388367909334,169.33098845393738,0.0651994386147246,-0.0136837221976877,0.0284208605860737,0.0,0.0,0.0,,
0.2377760000000002,-2.4859322977675733,-2.521605359863372,169.2909673621606,0.0690020334791763,-0.0141852392508792,0.022631176951873,0.0,0.0,0.0,,
0.2472829999999994,-2.4630934050853903,-2.501117217919988,169.25644886195184,0.070981785977083,0.013729604779536,0.0347201487308824,0.0,0.0,0.0,,
0.2567800000000027,-2.43966074289112,-2.4890516385966497,169.2174286358213,0.0628695298604664,0.0203696405430888,0.0296899356430355,0.0,0.0,0.0,,
0.2662970000000015,-2.422034616070832,-2.4883146277261923,169.18140959520878,0.0544050516576941,0.0292224707285942,0.0304035877254235,0.0,0.0,0.0,,
0.2853290000000008,-2.414422349814022,-2.5098156831288803,169.1365008667268,0.0526156958600922,0.035611287258386,0.0368861264711463,0.0,0.0,0.0,,
0.2948400000000006,-2.42342465058353,-2.526413126863613,169.1288865609288,0.0582654470396634,0.0332876488228757,0.0382964206083104,0.0,0.0,0.0,,
0.3042690000000014,-2.393259414038789,-2.599216462354508,169.1239497848756,0.0434578878179238,0.1514377984482144,-0.436451656972499,0.0,0.0,0.0,,
0.3136050000000026,-1.134186562397378,-2.4818401985770464,169.1523193742498,-0.0518743981435349,1.113106771893081,-0.4891918636689383,-0.2517570417482114,0.0243784822715533,0.0168537875019203,,
0.3232710000000018,3.7562849271988368,-1.84481297788458,169.11297277375382,0.22106864553268,0.8218603737737279,1.9206449253612057,-0.9849489596668708,0.0592951536549942,0.0290886101488646,,
0.3327780000000011,8.711663275031022,-0.8589288376654547,168.3639034627137,-0.3002447202327671,-0.0669982242574284,4.636506838200231,-1.011319958851249,0.0002344742674072,-0.1264708588252878,,
0.3423000000000016,9.442600537821518,0.3488188949269016,166.52445685726386,0.0025359319566123,1.1510589253845245,2.9751173196746388,-0.1954231975172433,-0.2042196900744306,-0.3676157031566194,,
0.3613169999999996,9.52367811672575,0.7345899204581892,161.0238030643184,0.1618800092342683,0.3937132189833751,1.841771188282702,0.0734529135549076,-0.0336948899838799,-0.577227655947927,,
0.3710120000000003,8.272392522941303,2.001491355897743,158.54215273164692,0.8039182329078647,0.5239743397428587,1.127890662767269,0.1473891677540028,-0.3245973111446394,-0.4908441849081526,,
0.399597,5.931483932069534,10.495241460616578,156.24418940557484,0.3890551835907538,0.0352002411466925,0.1468579491726512,-0.1082282405843221,-0.7537193694009731,0.0711224812906995,,
0.4091090000000008,6.019401833081032,15.127032476645208,157.31539144050114,-0.212658716932785,-0.3233541655619696,0.7034825860058889,-0.381412146024581,-0.8454881334199151,0.2104501834956858,,
0.4186060000000005,5.763476152609019,19.89642463341484,158.78922586062325,-0.4050353657799697,-0.1504559352333973,-0.3042732051405086,-0.3115802258043578,-0.9040043852754392,0.3103373342899517,,
0.4303890000000017,6.182821871013108,24.54437203588562,160.4090439184316,-0.4257156548593676,0.0094877865933896,-1.100409252832271,-0.3972731140815235,-0.8451479762699899,0.2923742599109624,,
0.4374520000000004,7.595597041490721,29.017013522640795,161.95921249006582,-0.4629496470083773,-0.4504629829232674,-1.0494892162117226,-0.5278998164584822,-0.7661420974651748,0.1827150899085629,,
0.4470780000000012,8.476499851897593,33.05650203821219,163.10534927950607,0.3118283674138052,-0.7407677339145088,-1.8661859815208048,-0.3869484948505479,-0.7260976930898801,0.1384217213340105,,
0.4660159999999997,9.407202974690152,40.13256424673207,164.00520516134176,1.6253514318419993,-1.2026731297580695,-2.120582945258072,-0.2321141121043763,-0.6395478814759841,0.0105713090388787,,
0.4756339999999994,9.543311178225885,43.221352426914926,164.02971099460163,1.271578281052299,-0.725378773357311,-1.8640604164083736,-0.189852064057507,-0.5889219487855146,-0.0132163151864,,
0.4851610000000015,10.30488226566687,46.36564492346706,164.24992474151102,1.313920685007032,-0.8432798848168112,-2.5557625408226308,-0.2761470462606283,-0.5759935825660591,-0.0633648386405532,,
0.4946820000000009,11.265734243738418,48.949114705817465,164.64665708076518,1.8112468839824407,-1.0452688286682967,-2.993384787973443,-0.2635231021018132,-0.463564717719809,-0.0627878314867326,,
0.5066260000000007,12.3117768400629,49.91076292144543,164.82356081450786,0.927303661641964,-0.5700116693818742,-3.1014414047817254,-0.1820980733464698,-0.1498771212281633,-0.1236751408012058,,
0.513695000000002,13.433358257643864,49.990253428083854,164.7796560777819,0.0180354536397814,-0.1877172786924137,-2.874665678939593,-0.1436120479688721,0.0225223188069367,-0.1806887704907562,,
0.542148000000001,12.981955744525248,40.96450048685911,160.247968593359,-1.9075433975030625,1.389225664724518,-1.2184904848371667,0.3955857734733757,0.8861529400809779,-0.3564148046371087,,
0.5516480000000001,11.58453680154876,35.58014914761237,158.11802278528793,-2.1970220287227766,1.8739422193352355,0.1584598719377617,0.5884973781219478,0.9295404844163656,-0.2527566249380859,,
0.5613419999999998,9.416248847946212,29.86544845808193,156.3023826060602,-2.553178876134079,2.130680603054168,2.0867569558309875,0.779996800360866,0.9131935741444168,-0.128410851322527,,
0.5707960000000014,6.153256420913988,24.26453302569425,154.98302233437303,-2.701500560321254,1.54978004035286,3.59224621823024,0.9925361184851772,0.7812598572898996,0.0334848388390588,,
0.5803510000000003,1.4434894868625483,19.450541446125143,154.2495140054032,-2.7047732046809863,0.7514474008797412,5.066515419394459,1.203844904769798,0.4950048402153984,0.204471710497671,,
0.5922250000000027,-3.779170886288896,15.8056326315635,154.10480123457506,-1.2753596117217207,0.1972617494467443,2.129125007295847,1.2148609858533723,0.2222794348891847,0.2877742909147639,,
0.599297,-7.373716141966106,13.566085513793857,154.51395540886776,-0.2121155278416407,-0.0086938337061808,2.3691849083971084,0.82173125866159,0.1021193473589867,0.2643501677559328,,
0.6088300000000011,-8.50962679078157,12.6583127334749,155.3441767641333,-0.5557145747063598,-1.1634890586791948,6.385255270735111,0.2776500632068365,0.0707649161512592,0.2178091081742477,,
0.6207799999999999,-9.336882316142349,13.96520325023724,156.2310901838782,1.1749142388456946,-1.31343404676387,1.0898526490741018,0.0396948502646433,-0.3047497603387275,0.2157015978392152,,
0.6278400000000026,-9.990671451736116,16.633779070143653,157.14063182214326,1.892476988324856,-0.7720573194884227,0.3138871808521496,-0.095496130695838,-0.5406474968450893,0.216613518543057,,
0.6373560000000005,-8.635444036170034,20.507476907781843,158.15337687463497,1.0330025062565116,-0.7258145519116294,0.5668621392532214,-0.5328801447052621,-0.6194324044323959,0.116251474710296,,
0.6657860000000007,-2.417118201798732,34.982065293449615,161.62203515182938,0.1861881291324014,-0.0820889229277536,-1.7436084749507312,-0.6853392854117727,-0.6430085665253065,-0.0109359287546696,,
0.6777630000000023,0.2802767837779576,38.61722829389984,163.12711805970204,0.206647039612805,-0.1746907433118289,-1.84235351071888,-0.6325361224964715,-0.5625476683116918,-0.0223587242189424,,
0.6848360000000007,2.693652947664126,41.36283139369645,164.65007585853294,1.241397876041916,-0.3989749563784948,-2.832951599974169,-0.5082125624467414,-0.4252951173631294,-0.0057248485961646,,
0.7133029999999998,7.385401036851454,43.4594611928549,167.0382887667569,2.175765850945224,-0.6594368122620206,-1.8746530602364224,-0.1052343275853417,0.0393857615329731,-0.0641416340627306,,
0.7252919999999996,7.619053590435692,42.78386126966932,166.59546906496277,2.038708963087923,-0.5530358902119247,-1.5621089715860812,-0.0023974846847046,0.1394897541908539,-0.1206354927046164,,
0.7514380000000003,6.395132210544278,37.50558337878221,163.66835643429928,-0.2630708669360839,0.3474895808131072,-1.2911710990211025,0.220239806549803,0.4394407799213669,-0.1113154501586889,,
0.7608740000000012,5.359460517718684,34.136730589640486,163.13184646449545,-1.3786631598961725,0.8988496350649827,-0.8577089364647374,0.3538432429328083,0.5983325854878895,0.0139911213514369,,
0.7800730000000016,2.791502904855265,25.61824547473861,163.54438180541612,-4.108800556031132,1.271367604014359,2.953623505453094,0.5091013515087084,0.7587335497420185,0.2259279975240388,,
0.7895220000000016,0.6253041138045651,21.762080765585058,164.12381430132527,-3.65282696621302,1.092643644058641,3.5785476079896545,0.5964759677051676,0.6308684127303688,0.2902493492835006,,
0.8014880000000026,-0.4122271568733869,18.72093594505711,164.59149732846078,-2.2360556342429576,0.4295286456466993,3.9530863144111694,0.3518807960856069,0.5337688229340387,0.1654922894651684,,
0.8085640000000005,-0.2239649892071412,16.792141126753883,164.652351707169,-0.5671805441245086,-0.1924305377105373,4.180820425757056,0.0677955193478076,0.3818721132128123,0.0006862874797548,,
0.8275620000000004,2.9941781012955344,18.70411946090969,164.02889661348527,1.6355946513784403,-0.3824087468746166,2.230982453270161,-0.4834679286537982,-0.2703990154712131,-0.1904784660001835,,
0.8370670000000011,5.437473123856552,22.377887293426827,164.05446174833546,1.269044583882185,0.2936395714636162,1.9400888519253967,-0.6427108756827573,-0.5811316590910717,-0.1665589125994974,,
0.8465860000000021,8.833435421988948,27.832570151042013,164.95037953753547,0.5695901525588472,0.6237749040096457,1.2845621383127876,-0.8852440507095316,-0.8875138916384818,-0.1093935753208931,,
0.856104000000002,12.5953597370679,34.01052865011665,167.0270460925163,-0.5070988015107157,0.9327485320613638,0.6110368044288839,-0.9265571862892524,-1.043139182547416,0.0280357722208867,,
0.8654600000000023,16.598978774016828,39.26784691571555,170.22206854285298,-0.6253629348643468,0.8880371544552603,-1.4726505767612486,-0.8382660985903403,-0.9045465582701206,0.1605363029429793,,
0.8774840000000026,21.920931386649222,43.40108191241361,174.4259104544504,-0.9222989366763616,0.3008192093680792,-2.2378077004706585,-0.903405420191476,-0.7125473314465758,0.1370676217444061,,
0.8845680000000016,27.14411849572032,46.669707638903645,179.10048246111015,-0.0331364932719523,-0.3840612035976097,-2.410106102490085,-0.7747344495168635,-0.6111138444428399,0.1953089881147237,,
0.906041000000002,34.5230020790795,50.82022568450535,-174.473410926528,1.8243675118862488,-0.9926874601563104,-1.4397694448634164,-0.3978854653039245,-0.4188057749520801,-0.0006566723585296,,
0.9131280000000004,36.838373555659714,53.72317877633576,-172.8651824016918,2.4258741183132635,-1.149861250760783,-0.6721383509118755,-0.2178788770797416,-0.6088623206914642,-0.0447922584774639,,
0.9225610000000016,38.28880886802881,57.65491122135153,-172.03563540197234,2.953490846653413,-1.2055521234365565,-0.4222008818928029,-0.0588848851430114,-0.8018450341769797,-0.0739085410528987,,
0.9415879999999994,39.98540204591928,66.64253988755229,-171.2908847750565,1.838256073365727,-1.081150097387266,-1.4458457772336717,0.0766284334360341,-0.9094638431578091,-0.0141652732428978,,
0.9511800000000008,40.6568098363178,70.17449203904538,-170.4073057936363,1.977190921304541,-1.2201595596919914,-2.5830143419933465,0.063622552898017,-0.7060430416741359,0.0518088970841527,,
0.9701500000000004,41.14642277627302,70.71792714626132,-170.5290596873075,0.4864588144446293,-0.8194509842000552,-4.436745606477655,-0.0423516884045345,0.1510627801920255,-0.0817351337316554,,
0.989181000000002,36.08207068399691,61.03946712445333,-177.03412204886962,-1.850239106762832,0.7477167701141061,-3.063929974911344,0.2190150837199057,1.3110339427506106,-0.2412666642344705,,
0.9984910000000012,31.254222592717404,52.58654708573,177.91914896985185,-3.804058162923309,2.432916280024351,-0.4019309944609771,0.51639709115808,1.6951509905907376,-0.1987121090155473,,
1.0273509999999997,14.598956299518443,29.76163952634395,167.99411957200394,-2.4617142575480027,1.8382932605601188,6.442056172903586,1.1806626593696352,1.0257376895968826,0.108602936082016,,
1.036716000000002,8.218864364173477,24.77453856420424,165.67560047455572,-0.4416087374671857,0.4099695259651927,5.872921443128443,1.3330025066042994,0.7124943348847842,0.1219041345691371,,
1.0556839999999994,-1.1791155037593657,20.116340851800192,162.93950123957063,1.6837594489402845,-0.5007984584952259,2.6693009353646526,0.7150667055293837,-0.008591291569284,0.0744970586170049,,
1.0651900000000012,-3.587978527981495,23.235129744414994,163.0455939892923,1.722608535000376,-0.8944156259197584,2.389627359733873,0.2460274854685112,-0.728152820951387,0.1993939835101584,,
1.0748490000000004,-5.343732921566388,29.009693509667294,164.26140547924004,0.7027476030319049,-0.366559114579166,1.982234323113057,-0.0223782814090429,-1.19826835935746,0.3980463468833138,,
1.0933550000000023,-1.8524731042727591,43.01652649002399,170.33439157065047,-1.3318115272250306,-0.0631294071514506,-0.5956976001345781,-0.7334193163042675,-1.2908632725786042,0.3400799950540941,,
1.1125080000000018,7.741569453459315,53.39652997143583,179.322393637657,-0.1968662192233272,-0.3833340323297312,-3.261046163801497,-0.6896045099438164,-0.840700156264363,0.1088043192326142,,
1.131533000000001,12.14301670061601,56.080762290660005,-176.31055254164693,1.4890031616179615,-0.7840198646598425,-2.602185016616951,-0.0768185329052467,-0.0874414719453651,0.0898530331348143,,
1.150455000000001,7.348710059962196,55.56841900595643,-179.1310811234973,2.6171920598889944,-1.1384878482423315,-0.7145662965849647,0.3778991200433154,0.0545348869573665,0.1623233156297507,,
1.159993,2.2293701401415205,55.35175132860228,178.5698643426727,3.233626648924402,-0.7745180545872273,-0.3143462980800033,0.5812448827529848,0.0404968522410587,0.3841090481666521,,
1.179007000000002,-7.9749378248717955,55.67896802822314,175.848299966031,2.085230256445465,-0.7392561161472366,-0.5020528770602622,0.5636760227604996,-0.134052163558091,0.6392608081947604,,
1.188523,-13.68255300779022,56.43573282107443,175.4895778466855,1.4247066448742434,-0.5286440243035608,-1.1020253792150367,0.6248032934400399,-0.1991419694324201,0.8762448686583671,,
1.207763,-25.466477934253867,55.7022103552044,175.02483622936708,-0.5215525298086804,-0.944629444729324,-1.85366177243992,0.693292236180551,0.1065415714238598,0.9161760288315296,,
1.2171489999999991,-33.14562365783044,53.85401085095986,172.88615604638673,-0.4261031951522048,-0.7011303311356696,-1.6888630397302151,0.9205001763977496,0.2739795831598342,0.8281326264106496,,
1.2265690000000014,-40.27368138730711,49.86331145861089,169.7608723084566,-0.3075035877161532,-0.4287071426226904,-1.2444441959733448,0.9915684971220712,0.6556467704975243,0.4975029499215458,,
1.245902000000001,-45.27342336343083,36.440222254505215,162.42045704565496,-2.0447844534131594,-1.0290584366372022,0.4957226864718158,0.4810044484007808,1.357401870327784,-0.7117630495189288,,
1.2552780000000006,-41.2254596895623,29.872032053867148,157.8948699063619,-2.440794206981511,-0.665595479212213,1.5976671811346472,-0.1924923235835203,1.4676716175217783,-1.3483540346598828,,
1.2837420000000002,-9.025752401085546,29.665675377365304,145.39430903356987,-1.5871902358586816,0.7725377810008894,4.363595276616854,-2.173880722858334,0.5151275073090021,-1.6784890177271918,,
1.2934100000000015,4.003703437876185,34.910233555345975,145.88082453609113,-0.6433844683152695,1.443296819341294,3.5760569405927427,-2.4110385725543764,0.3820955581764967,-1.2969598167995022,,
1.322172000000002,47.2721862568204,45.64732870630031,161.49124318675237,-0.3571907549410948,1.5425831465058857,0.3370986313422504,-2.036285031137324,0.3289094264143851,-0.8040411729373579,,
1.331353,60.41773760571834,47.23188750219282,166.45608671444197,-0.4469368745361644,1.3869660980042045,-0.5811675355662136,-1.8288778341819985,0.1969791222244576,-0.9154135885986602,,
1.3409720000000007,72.41024188549153,48.78819012072175,169.97490959360942,-0.3790289347899975,0.7164869622516141,-1.22004267991375,-1.6348889264288813,0.0241341496965089,-1.0813835356354848,,
1.3504269999999998,83.10978010680478,50.59735448770308,171.4236748225942,-0.4787136103418501,0.5080389733712966,-1.55464946092877,-1.4255950645915374,-0.1324210435618146,-1.3440187733094355,,
1.360089000000002,92.87050042554732,52.96055717863734,171.1391946205595,-0.4231906756654956,0.4906710270109437,-1.754469216094028,-1.266828053126717,-0.2832870330591648,-1.592334070282245,,
1.397705000000002,140.7998270991444,65.94875196605824,167.94539544053418,2.729708761882074,2.060915276376171,-1.8101453247829489,-1.3801057995090864,-0.330872981458656,-2.619704429418141,,
1.4073689999999992,158.17550917372682,68.02426238980638,169.76447516953337,4.471312259294459,1.837562985872211,-1.6438464818585568,-1.4131934144166736,-0.1415974916432242,-2.838419246042036,,
1.4454840000000004,-140.2243501742716,62.80940291358376,170.8927408512211,3.5685411287334268,-2.162831168147433,0.3178342965149905,-0.9623673168722464,0.7730594138676748,-2.6709776240226883,,
1.454848000000002,-129.50518428473725,58.51884901655056,167.16290420317566,2.527163112180148,-2.348144087118082,-0.1754665850331168,-0.8703729197527019,1.04217181908603,-2.6172717556782765,,
1.4645050000000026,-119.17928765088544,53.37921138659862,162.70021435180195,1.255770080914663,-2.3755355035720327,-1.1684736736166104,-0.8524178689509111,1.2936086693300668,-2.605655875416152,,
1.4834570000000014,-95.30464989558034,43.83040021440484,154.16961720727812,-2.1039725288369504,-1.176859212414083,-3.142916970425179,-1.2739501017557642,1.5157086289281836,-2.6869239949261465,,
1.5025270000000006,-60.27449820093656,40.71709650139896,148.49678885445533,-5.549044802496133,-2.74046801050534,-1.7046364012481765,-2.5363658257943453,1.597621436225534,-2.9484765979649605,,
1.5145110000000024,-37.63840155290152,42.35966428665271,149.75109889491074,-7.264045808170226,-3.692454616844636,1.43539224027894,-3.07684951635742,1.461704042701453,-2.7561778392575964,,
1.521758000000002,-12.780241079020517,44.917207232604376,154.16367482429234,-5.660305923441084,-2.3890094361976835,5.050740020157542,-3.410529786367192,1.246572273471254,-2.558911302307965,,
1.533699000000002,13.613668082011296,45.06003705849909,160.63878984482093,-3.5053785556272072,0.2320824333678241,7.229431703476686,-3.452492241244703,1.4066926423988004,-2.4510506233223466,,
1.5527300000000004,59.73074718740669,41.87756605852549,166.65478258452947,0.2792527271499081,4.025331465027218,5.988780894635569,-3.05789352753056,0.9391858512576264,-2.560615536536498,,
1.5622310000000006,79.58370770830545,44.2379273811538,167.20472993664603,0.6374377092705203,4.961263986806177,3.136512908113936,-2.934541949178899,0.2010766611777495,-2.60449670158962,,
1.5810790000000026,124.11232303242753,55.60878506738081,175.3690378793372,0.3218198791469485,6.2359168932109625,-4.327375746536697,-3.079602747920509,-0.7826562752578345,-2.5137286130507337,,
1.5906520000000022,152.75073892744692,59.54503960274853,-172.05065688767263,0.973277381264664,3.770457965192067,-7.097702533034266,-3.033759450137892,-0.8554386688797057,-2.338161637775444,,
1.6001590000000014,-177.7155405054634,60.49601734893375,-160.07598824581433,1.6748831727649642,1.347174602833598,-7.992034932005059,-2.8060378087816686,-0.8870131397612084,-2.7377473755547954,,
1.6096770000000014,-151.7870310782875,60.271868796700105,-154.97139204641684,5.132564667806203,0.0044791299698328,-7.812751342288677,-2.38122266405812,-0.9375656457575766,-3.49529976625123,,
1.6285820000000015,-116.40915552206783,64.78891218623642,-161.76520599045716,7.511866450134049,-3.836056613335733,0.988257107711762,-1.1162065089613933,-1.1795132771013803,-3.757235887660977,,
1.6356409999999997,-96.97220923803116,69.9274778699369,-160.89358285035425,6.550181936258845,-4.884042139777214,3.3348689012938864,-1.093148039274922,-1.444546504392121,-3.418671851942331,,
1.6548180000000023,-69.65180655239662,72.3818156032024,-165.82552755249932,2.441599356167448,-4.116421306993779,2.511375681775985,-0.5609735962134748,-0.0993611616751795,-3.1010741196816056,,
1.666767,-66.52734156784277,69.23574170379291,-177.66443718512477,0.1052105892921063,-5.115557128424888,-0.4960717170863058,-0.294779633521688,0.5952916323922842,-2.9605494431330874,,
1.6738350000000004,-67.22618810199877,64.13133443721371,169.5360609662363,-1.9665299718501148,-2.8590740073130445,-2.832190902104311,0.1278994996786402,1.0174099645754384,-2.432429371445978,,
1.7023560000000018,-48.08678018466407,48.4277750606243,153.0309891590613,-5.929459279571531,0.3274833695728059,-2.7564594650041467,-1.012836941157706,1.4397807987785554,-2.084884989993758,,
1.7238900000000008,-10.86981501302101,44.84231617730338,159.4108970619988,-5.678510065881188,-0.6743320414434573,4.429182477122633,-2.51968268550965,1.358146524987415,-2.0178727530803453,,
1.7429570000000003,24.67416019115001,38.06293961012148,168.51851964902397,0.4931101091300592,1.1316191277074683,5.925302504294389,-2.2422963066555,1.3346375089949032,-1.3476654822306815,,
1.752466999999999,38.686970732661536,36.33090256076093,169.43904125024804,1.81746008952687,0.9778559670531652,5.0614961344155445,-2.1273479421775607,0.7658031189925913,-1.5125099962641408,,
1.769019,63.33017738562877,44.692344252572354,169.80441553047834,0.3829082487148478,2.595129341840533,1.87136146589818,-1.945843071912587,-0.799743393412374,-1.4282987330106736,,
1.787777000000002,89.06898240549087,58.31503425913763,178.00938718012247,-0.9661806123946864,1.9811840932359688,-2.049256772740532,-1.6785155603189723,-1.1838342009990894,-1.1120639104565464,,
1.806871000000001,119.56598377587513,65.53343513451827,-165.92460857197972,-0.4259028731930163,-0.7077888088547185,-3.2629650887885684,-1.2381350671693876,-0.7078040204321878,-1.2647688155951784,,
1.8188190000000013,133.49635355016906,66.1352856985934,-162.2576549182551,-0.2774140998564832,0.3320092293483288,-2.9601784966014684,-1.0640916891154917,-0.4278595242983495,-1.8111033423068528,,
1.8258930000000009,144.09582040174914,65.96883169458481,-163.50614460411023,0.5549623786102691,0.8408342831400338,-2.3816142312672355,-0.833298735730677,-0.2218606497571974,-2.189326328963625,,
1.835324,152.8333948842712,65.77026147335003,-168.62704495188785,1.677987797340159,1.5679964384814755,-1.6547366375898236,-0.7046674946439723,-0.1338796425877486,-2.6214583720014546,,
1.847328000000001,161.07768098575272,65.96961690063769,-175.79726529625404,3.4543902118358645,2.202637299184013,-1.149897797455339,-0.6645297033336641,-0.1311762695920019,-2.9415454055838084,,
1.8544060000000009,169.67923986611842,66.35296229673179,177.25313071306212,4.78644433710901,1.3972676078350392,-0.4723666802344223,-0.6964148791672653,-0.0856156721734956,-2.966199877786767,,
1.863978,-179.42402598904476,66.1606287368037,175.4028109493176,5.085610100635406,0.6268369452871841,0.4533682850252925,-0.8774803024492775,0.0734453853972504,-2.923768036587247,,
1.8734819999999992,-165.41678632723395,64.92539717896112,177.10272897468735,5.131173014012584,0.0043494219640035,0.5149120446104324,-1.151220900829974,0.2910017134581218,-2.824047532317445,,
1.8854550000000003,-149.85789434472883,61.78352706171979,177.81388009382175,4.424191958665689,-0.8925534278834938,-0.1511777757730276,-1.367763732847567,0.6863814721851106,-2.642461728400064,,
1.892505,-135.17359710157857,56.30843050027658,177.84354820576277,3.1857632751334006,-1.4661799292361088,-1.1677414861539963,-1.4703583819940695,1.1467438768517002,-2.5163429255169527,,
1.923497000000001,-98.35033877447876,36.62152844791351,166.34949023267245,-2.865322504041197,-1.3528760255010026,-3.083822382604984,-1.6268320558155076,1.4810747043229802,-2.4771378565591697,,
1.930553,-83.02861988027607,33.98718791051909,158.86489442041494,-3.6969163049056015,-1.830207366233614,-3.001613227560036,-2.2074514319250493,1.2997390641988211,-2.759083184955169,,
1.9495220000000013,-41.56644873328693,39.761070751101165,156.42249306160377,-4.981556459754641,-4.225721068714325,2.05541994469408,-3.5768678625026444,0.6104092757439642,-2.5880778102209234,,
1.961679,-15.82435606757774,44.48303979697055,162.25500566681137,-3.332089743853342,-3.492040074560273,5.543982428410324,-3.8975744690126906,0.4785247879265413,-2.30153353438842,,
1.9807349999999992,36.14458888998288,42.521155333182925,177.0068299278956,-0.8118197991875682,1.1074236128383794,6.54802906846021,-3.4559449755024207,0.8337803524104495,-2.218503212688269,,
1.9902310000000007,57.667797888974135,41.25107361956655,178.57482912569174,-0.9195138719720308,2.700746544110625,5.306617364820348,-3.19443830467066,0.374575883181109,-2.5653127680467795,,
1.9997469999999995,76.70954778701983,42.94662136490329,177.86839785760816,-1.4169812833439486,4.736846278796261,2.4392916655542343,-2.838670234192398,-0.2484541475428058,-2.696739572398927,,
2.0090600000000016,96.05563380468108,47.13010702650087,178.56203990739257,-1.102591085109193,5.00136611133996,-0.8477634127226498,-2.761543459763207,-0.7437976969887689,-2.603202599689966,,
2.0185650000000024,119.39164065166835,51.66115324771542,-176.7892635100289,-0.5774103500799465,5.463756050036638,-2.863193712652937,-3.0219056785583907,-0.9398663172435108,-2.6233816512964307,,
2.035146000000001,170.74162079346854,55.42140171494498,-162.30240242698673,2.7105233282455234,2.9961040987993672,-6.02988062878358,-2.796597563957977,-0.8624744881423374,-2.806871389205861,,
2.047175,-165.6668949394076,54.28364446052959,-159.25685363402096,4.490584373272189,1.5233778691896538,-5.274415403516588,-2.637916472667834,-0.682168748266104,-3.2553365764044484,,
2.0756520000000016,-111.25114975449684,54.46859525766769,-168.0758933525279,5.7171286063684095,-2.665206705268811,0.5140026178537663,-1.8726555467192465,-0.6730792987631666,-3.5269568182249964,,
2.0851620000000004,-94.15644390816348,54.9821617853742,-171.93127774309428,4.95869657614938,-4.082685812534457,0.9831672169974182,-1.9318532991990736,-0.4443125744990898,-3.5642072708377825,,
2.092221000000002,-77.34415272183828,53.947991125661765,-176.37302430586212,2.2949836363667866,-5.443150609731791,0.8712106996820526,-1.9707084254026808,0.0051771961328466,-3.626357630921164,,
2.1041600000000003,-60.20999275699915,51.514807356806365,178.01364555969874,-1.0251263534388737,-6.6914123650764425,-0.0759506024735049,-2.0891512961894736,0.4548054244985414,-3.850884761159613,,
2.111203,-43.365984621545,48.60416064562241,171.533013712385,-5.6562297303083895,-6.752584164294311,-0.3845293892076002,-2.109235444178845,0.7754694188011261,-3.879364011071677,,
2.123189,-26.809393272566243,47.24022713836441,164.45195506304196,-8.190451224083978,-3.313529159589303,0.6046506828411122,-2.1225397875707115,0.7294881402696686,-3.873731532264698,,
2.1302330000000005,-8.800105729091603,48.54310691539059,159.33112075615855,-7.852870109246528,-0.8591894601004655,2.403586550432297,-2.383452633969904,0.5066664697512788,-3.696522706985645,,
2.1423750000000013,12.624473028981512,51.48621371008199,158.83214837092237,-6.116527017923157,1.4695319329157577,4.618298316455862,-2.783582822355813,0.4403608601598499,-3.386479180921308,,
2.1519070000000013,37.879948015860144,53.41932235630163,163.22489007030464,-3.166044647158256,4.359889916941437,5.663557380047097,-3.0320452509420286,0.640494671524047,-3.1352077600222787,,
2.161405000000002,62.94637579005133,52.70001613666813,168.54007560913462,-0.6121293523752878,5.529866267271534,4.726931037644355,-2.883737888028889,0.8710586766130384,-2.9532841464499326,,
2.17089,84.69417913658228,51.20713916900865,172.16843056694063,1.0659703846789417,4.79910452164186,2.683259895568434,-2.592524157494686,0.7397336775974075,-2.7060446360592003,,
2.187296,124.31928315069536,52.13936703810153,176.81864180016913,0.737039291964634,4.476995657700351,-1.7358916230668302,-2.426069151583122,-0.0971074657924382,-2.5891927602623674,,
2.2063880000000005,166.66106807112752,56.97480491710344,-172.69865088789197,1.3424441296965677,2.300863496849256,-6.067057400276073,-2.493286545176161,-0.6006266901874638,-2.451463568477408,,
2.215854,-169.6655836110502,58.85592802282961,-166.0193639493013,2.593766634586354,1.2014474719259454,-6.195272743090227,-2.399030934841756,-0.8274355468957736,-2.684184091966765,,
2.227896000000001,-146.7875044756249,61.56623212024909,-160.1853218591577,5.362704676529506,-1.4257650206462953,-5.955683610116333,-2.016859748920355,-1.1708642489882783,-2.8116003548063,,
2.237312,-126.23042066624126,64.19875546249307,-157.07899753044558,5.982019250813699,-2.786338765182588,-2.744149766194344,-1.55520974263098,-1.167641958082531,-3.0432659579866987,,
2.246770000000001,-107.82013437627177,67.10731675765234,-155.56139891516304,6.363222959332544,-3.477319260311405,0.8444124097753467,-1.159212699392608,-1.138405319468647,-3.055212414717599,,
2.253839,-89.23941502342133,69.72828161512543,-151.78456127298512,4.971418021849214,-4.084421231916279,2.602170970598205,-0.994405690961597,-1.0715643778735766,-2.7044774840993027,,
2.26595,-74.87483233383804,70.8537601467669,-151.2473509195582,3.406438271369122,-3.0810547852685244,2.76346193729844,-0.745479786749308,-0.6594919304792188,-2.60009582848355,,
2.2847640000000027,-70.1400952385684,67.72435063176829,-171.27120220303635,0.5391869515027052,-3.490636392570999,-0.1936758516680307,-0.0888592132653926,0.5096465586216742,-2.382106971153609,,
2.301597000000001,-73.04202970518075,57.47967249540024,167.7290292900736,-2.477695462780555,-0.4931875973549947,-3.245726144633542,0.2263143396189951,1.1116155459263215,-1.7063150190491745,,
2.3111180000000004,-69.38460879122664,51.82112513315438,161.9049162989659,-3.068789424225212,0.5833052245800506,-3.5401413553299736,-0.112533682926348,1.205090738003772,-1.762531611170737,,
2.320550000000001,-60.19886382425403,46.971803163100205,159.3420448590494,-4.195093472672931,0.3469649966605601,-2.8992929511770216,-0.8084932836310674,1.3119106556992288,-1.9091214590792176,,
2.332327,-45.346856967362186,43.69627081288393,158.95497226130774,-5.770601520483447,-1.1941183645220643,-0.7057724710893782,-1.7217926274892863,1.3537429331410993,-2.1924557253852592,,
2.339645000000001,-26.406870064616992,42.40110963018572,160.12376368189362,-5.939998553517891,-2.024246283595062,2.9919327994387355,-2.505672688160693,1.2090215918658909,-2.355775538722333,,
2.361134,13.0691439766872,41.57882374140283,166.50299969230474,-1.215302427689453,0.8550498726699858,6.74951185932845,-2.736700769902728,0.8633404938108464,-1.8671200515554216,,
2.370652,31.040320167043497,41.46414457502207,169.28746092075954,0.6019489367541703,1.2098660790326874,5.529447256845982,-2.627330832724602,0.5867493190457533,-1.8302939636364568,,
2.380148000000002,48.03754740548407,43.18965854255731,171.16503130986175,0.0755832051480019,2.3817331393497234,4.66452077032409,-2.5365171725281583,0.0891144175293805,-1.917249846250734,,
2.3895850000000003,63.92218061337683,47.30120354535428,173.23048149189353,-0.4993317182460839,3.0718675668845155,2.375978884056599,-2.32874152195696,-0.5060410827439054,-1.8469283658984308,,
2.396476,79.32040978078079,52.93678256892285,176.6740379898236,-1.0540363113515103,3.362080283634,-0.3930563218382795,-2.066768825150356,-0.9423745034694996,-1.6795870454697368,,
2.406042,95.89335022992444,58.64661286308629,-176.90056115133555,-0.9064001824535632,2.0144717339749683,-2.780988593492913,-1.8652824096983176,-1.1296227846287237,-1.4627075429859708,,
2.417981000000001,115.25308928617537,62.774165706276754,-167.58008792791688,-0.7658273061086903,0.645206811230388,-3.735198157004218,-1.7636699848536523,-1.064064811629162,-1.5202842899612727,,
2.437011000000002,152.54761995097,65.4251428708001,-155.23191804082649,0.4406343132093824,1.0110507010702747,-3.834335768165032,-1.3006014664248615,-0.6918617466584243,-2.3976224261094927,,
2.444154000000001,166.79047880570394,65.7683276271822,-156.90440773743595,1.9338116657703228,1.7902237050177092,-3.2552220354895223,-1.0497665822339437,-0.5407224634562107,-2.9314165845866382,,
2.4560580000000023,178.40576151887572,66.49135532207922,-162.89462082440227,4.46904316140643,2.2908041136940005,-2.464075093169253,-0.8359178782743086,-0.4598579280758295,-3.325268379192429,,
2.475003000000001,-160.99853653238458,69.21934190544359,-178.5460044787161,6.859811259645302,-0.4694870817954141,0.2766800611765417,-0.7489915299884474,-0.3392929561548082,-3.4988663900478723,,
2.482075000000002,-148.30166508869783,69.25807842230968,176.15110682000528,6.534687656189455,-1.7681875402684115,1.188827358784723,-0.9028535750279518,0.0111311591973048,-3.4381720897736097,,
2.513223,-108.59040677383616,54.26771670468307,165.3832416489738,1.0727754128114797,-4.182681604873669,-2.425017531298412,-0.8833510946770529,1.6944422052945298,-2.9070225765191813,,
2.520371000000001,-99.00577088751804,46.24983494377164,159.104938399462,-2.1027924229474264,-2.786577963350921,-3.1983192964915577,-0.6820951539241736,1.902930438478852,-2.7305856248199607,,
2.532252,-88.08931906238989,39.3665711613862,151.9158527027412,-4.3941714816408135,-1.4122588421382871,-3.473203932722533,-0.8884861144588934,1.9209025430771824,-2.8764437655828607,,
2.551127000000001,-55.078664191726375,36.02041394968065,139.93222245953717,-8.356430226889673,-1.546692850253504,-0.3647763312586352,-2.434014135125165,1.7493540562686354,-3.159571541586714,,
2.558193,-33.796778713355735,40.26417534197879,139.07363233070066,-7.339642990861069,-1.9703229695845224,2.4736376680594256,-3.095305047858616,1.5385643698732463,-2.802853508427785,,
2.570347999999999,-8.693783869665738,45.15709314673727,143.9040668651132,-4.8563311827012665,-1.159339540708866,6.381400381510954,-3.4845937606041946,1.543217267916303,-2.451989955922132,,
2.5798880000000004,18.956938722866816,45.85579913802657,152.26830329970895,-1.89555676485916,1.6034961279503357,7.672375864479662,-3.3548178776595634,1.9282451301801813,-2.2904722802443613,,
2.586953000000001,44.719079980660624,43.330279690465,158.08723680400584,-0.618966276682433,2.9277046308308647,6.86727117160682,-3.118303655083521,1.9887961329723367,-2.466682309081908,,
2.617706000000002,103.86246716699554,46.25836402111956,162.26070565565715,0.3660136784939662,4.718784514108558,-1.4487773007286733,-2.699275712746073,0.2078702190180944,-2.40388252622631,,
2.634355,143.0550656575373,54.43154317687215,170.149333991738,0.9263467045553532,2.7326224699815462,-5.260534770229971,-2.5036580139311795,-0.295246174862729,-2.2092060940715195,,
2.655864000000001,-176.66716983589885,61.26325155242178,176.79856477039274,4.686125211113356,0.4387645141602565,-5.596237340032726,-2.080347901218803,-0.4675279511230501,-2.98400033033603,,
2.6723740000000014,-140.12405313911526,69.31327149705902,178.95730583349248,6.525294494832008,-3.5672269431719714,-1.3449623229170369,-1.4306288551957231,-0.8276137180067223,-3.0895542683602417,,
2.684248,-121.98537213737806,73.05154921247485,-178.02486229732378,5.252553083916792,-4.34211698623764,1.3822261297143372,-1.1641255228784295,-0.7508491064287509,-2.83460625256544,,
2.691490999999999,-105.0282072967754,74.73142974204309,-175.2210200130753,3.574628912655216,-3.469142740141441,2.806135054328512,-0.9197318466085636,-0.3884032230282451,-2.7008616864796218,,
2.710472,-92.02533887405396,70.17992695581208,171.23029925972375,1.355279786572139,-4.807295523203512,0.966542410852154,-0.0661855751639914,0.7363682730683553,-2.452841098237992,,
2.719978000000001,-93.32642507809877,64.15816347940711,159.56869738149825,-0.6801596185251866,-2.583349866526618,-0.6357397449785963,0.4022932284296584,1.1427889381004497,-2.092499580206072,,
2.7415280000000024,-89.29959649242087,49.789593505371165,143.71899103897542,-2.9484539324646137,-0.4572926053098602,-3.4816673315812285,0.5238774461932073,1.3800294856999464,-1.7838979369660404,,
2.7485040000000005,-84.4155563055455,43.67515854220543,139.76147713769126,-3.405268483289983,2.6313007646976314,-3.053673174980319,0.2312104312623346,1.3766848400785558,-1.5037800975604434,,
2.7580290000000005,-72.92977442080975,39.80290814269074,138.50894909775798,-4.3675489358299,2.1442135906385467,-2.86982848889463,-0.7926055245217176,1.7077319960626711,-1.7814788546037177,,
2.7795640000000006,-35.23852844172366,39.05260428581544,142.52420934824258,-6.105378603168159,-1.4754217507498697,2.689182433409584,-2.5082762834186325,1.8938421092936448,-1.9129627299589644,,
2.786627,-13.676236323822264,39.424166759933286,147.80058412706722,-3.690639762002555,-1.1077922640028264,5.607447881374178,-2.782324480378323,1.8470416271998773,-1.6818919733110496,,
2.7986020000000025,7.29485352874553,38.05462134708854,153.38988989948447,-1.3037489173039216,-0.0790239478526814,7.0222593967287485,-2.716084663799708,1.8415087344636627,-1.51617172486921,,
2.815146000000002,42.65447287350285,37.3282768416454,158.40658634348026,0.9453126978011748,1.316085382201864,4.9613403101796,-2.554243907719433,0.9122341969996268,-1.7470685057696305,,
2.8246740000000017,57.963254041945945,40.68840216835783,158.92357239933412,0.1488852618081463,3.1996532896979257,3.380030940083603,-2.4618359911831007,0.2436924104642335,-1.8264401934463963,,
2.8340090000000018,71.58126699111904,46.28964383710453,160.20724718082084,-0.1564260961771334,3.598899326420806,0.439701279734812,-2.2434549364195524,-0.3549333307692573,-1.621043967651749,,
2.852988,102.23784812652282,58.09466792516368,170.85919406015336,-0.5929580903383853,1.486383764637383,-2.7499714130726267,-2.055443898786669,-0.6484262002534006,-1.3555672955245068,,
2.8624880000000026,118.8721108415231,61.720832223266974,177.7442951662037,-0.3466620534965672,0.7864171291508529,-3.306409797057919,-1.7301325222484818,-0.550495317176634,-1.5064437182268542,,
2.8815279999999994,148.48892698293233,64.30916808973232,-176.7552863440588,1.2612574209420762,1.0524346975935222,-2.481942011126877,-1.235600110715103,-0.2000802122228847,-2.347524917830902,,
2.8910110000000024,160.72650879761696,65.08642334643417,-179.42845894765796,3.042432703619656,1.5895007699984798,-2.0835947124137504,-1.0423195065954785,-0.1899716578312662,-2.749927521192058,,
2.9005720000000004,171.70038776790577,66.55024879575753,175.79343558676777,4.5171269533888285,0.913599002806882,-1.8077283992639104,-0.9102325268176238,-0.2639010438804569,-2.9604791885308344,,
2.9195220000000006,-163.6966024295072,69.03948621367405,167.22701176564516,5.863582530202775,-1.52001201447122,-0.3874011338361144,-0.9804747648186276,0.0030354033159362,-3.1775653385089955,,
2.929025,-149.00893677130463,68.88819512637757,165.71106993694931,5.287751784523177,-2.927157398645028,-0.0499559657346525,-1.0197988740587174,0.2764190950699946,-3.047982035640134,,
2.938732999999999,-134.29754723297404,66.98080020311826,164.85134727859432,3.861735709451259,-3.555561833071417,-0.0670655253008263,-0.9740359621378908,0.6486907849557272,-2.901807623819371,,
2.967244000000001,-102.1049583285186,53.38873689816911,153.31344387357714,-0.4427335137086557,-2.38761804691261,-1.6395845877491555,-0.5067225721875505,1.3262133923461,-2.493371991654282,,
2.976758,-93.53965233487136,49.03134421961432,148.01838804427692,-1.6878124273408366,-1.8112969034667727,-1.9338875210791968,-0.514255827103484,1.2859883310489797,-2.4557386937358583,,
2.995578000000002,-71.01604817049072,44.26374124043713,138.53919163211333,-3.725396601840834,-1.161741560720854,-1.6780609936618398,-1.22421974898882,1.4297765075574644,-2.665569254459271,,
3.0051520000000025,-53.783349911650255,43.826374525411616,136.8199899982181,-6.12826163017551,-1.189452565181254,-0.3504789759251944,-1.7762111804989584,1.7349891888700908,-2.7415919051545687,,
3.014648000000001,-32.84711097018892,44.20828941982808,137.38056935676715,-7.295940351277887,-0.1900220830495078,2.022503253400436,-2.259241068712189,1.9961964578035023,-2.801199530727644,,
3.024350000000002,-9.40075372591394,44.82854296834519,139.95872537047762,-6.348532805535242,0.6484739265004034,4.25518799175611,-2.591767456274888,2.1164531481774715,-2.7789177927081963,,
3.0434020000000004,34.75961704237322,42.99962268468455,146.24458004231423,-0.6167347757409475,3.138871902745699,5.345372972029246,-2.2535054906298506,1.9489879837017847,-2.31482928759584,,
3.052916,53.79899910055602,41.889296598069706,147.38109018548442,0.6081160006408232,3.370345352478642,4.877038691865887,-2.2328513718880374,1.723516786874994,-2.3462798697358047,,
3.062431,70.68507062783003,42.91821183117612,148.086834969774,1.660619064595881,3.87655569595096,3.5463115609691327,-2.219742307163554,1.159603389030712,-2.1391937856893204,,
3.0812380000000026,101.225622821175,50.58622477124214,151.9958297803921,1.212925341877671,3.132148561328666,-0.9667846708218124,-2.2641186935110023,0.2614222985579842,-1.8092838920858685,,
3.0907410000000013,118.0975251408063,54.96916043995815,157.40243954980275,1.146486418795567,2.887765016136923,-2.4209635974172854,-2.2168812317351265,0.0857327991425359,-1.6114590893299043,,
3.100329000000002,135.22141015112004,58.33271941519425,164.42919883856854,0.5691257116791975,1.294092754085099,-3.175130089292534,-1.996108320621794,-0.0153550234105083,-1.46103568528913,,
3.1193729999999995,168.01261094572675,61.6396060631884,174.45732387196367,1.9216399737642624,0.4086133112028053,-3.306059984169909,-1.526654991910918,-0.0560975864398425,-1.9871209763750417,,
3.1288920000000005,-178.7608720305957,63.079051910837016,174.88859204381387,3.060003821727733,-0.3260245533501222,-2.877663317554839,-1.2497420010518032,-0.1716066007698273,-2.259715085415841,,
3.147845,-155.14000920004383,67.77554375923407,171.26730040905565,4.755672367092422,-1.8740598483503728,-1.4743464366106835,-0.9941374208774408,-0.3941572753204791,-2.5031605912024584,,
3.157368999999999,-142.80638021097184,70.36674075169928,171.5188154387425,3.8470703951538505,-2.822528915932047,-0.8551607551444078,-0.9494948121154068,-0.3789582350800842,-2.2562916974109632,,
3.166802000000001,-128.72621896034542,71.82988914549226,173.7466719454073,2.951352047069536,-2.898103449467398,-0.4820079368034793,-0.9424200408090836,-0.1718602903145537,-2.221297922122892,,
3.18581,-104.86703422837026,69.50665553111935,174.8877016768313,1.536473704989199,-2.1372942408699864,0.3993017548775124,-0.6570971897753748,0.4502372110236708,-2.08609294590813,,
3.195648000000002,-98.32295032360086,66.2978800816311,170.54331488579464,1.0555099105811063,-1.93343065451652,0.27785408788299,-0.407984657458272,0.6997359999405742,-2.083614361324603,,
3.2239970000000007,-84.57425336649554,52.71154321433607,148.96175248557515,-1.4046676655224772,-1.202420971465095,-1.4103709013422912,-0.2408260260604816,1.179411310124117,-2.346210113258332,,
3.2335069999999995,-74.99624499305578,48.94987977441991,143.4756430642534,-3.150143969178478,-0.6872639803566092,-1.942031302510652,-0.5899622819896623,1.2999766682419778,-2.584011106753615,,
3.242826000000001,-61.21919357864742,46.968604020611295,138.6278567698999,-5.425324079604615,-0.9980216958449678,-1.6861093529213722,-1.1903559527386192,1.4705496610423612,-3.01708973050221,,
3.2619320000000016,-21.22728588475696,49.22614097333555,136.5443704990042,-6.96763274674317,0.8998285506770453,2.6605213888611896,-2.365800538812995,1.720339897176974,-3.0759481376914937,,
3.271631,3.9227207227511136,51.46821298396475,142.333155680019,-4.204005318997454,1.589944901001248,4.8757248735868535,-2.721929604223775,1.7498171870222206,-2.725917867391831,,
3.290671,52.06891690457768,48.9085182996066,156.96676359608358,0.8722568140083614,2.412978469806439,5.249355921075458,-2.3657835052637144,1.662176715663436,-2.1872975683643707,,
3.300203,72.54015565524418,47.625505209084,160.33960816682747,1.380017306859492,2.874543387823393,4.410306024576383,-2.445844021813321,1.2284397784849774,-2.386656517225925,,
3.309668000000002,91.95453219494416,48.96693278856624,162.10889235626567,1.469380585790437,4.601571941595666,2.397745273085106,-2.5325047869807884,0.5801515362943954,-2.549423445230089,,
3.328569999999999,135.8934678907713,56.91544712200697,174.1115272748173,1.6414139872721811,4.140805635756793,-3.741629280754599,-2.8675835891528605,-0.2916824161988964,-2.194137746204224,,
3.3380870000000016,164.1374814733143,58.81010755472151,-172.81640529254466,1.6999404011540404,2.573313951690237,-5.360199785732994,-2.986448164158685,-0.403277931582398,-2.186574847865383,,
3.3475920000000023,-167.6443523570567,58.561601965028586,-160.92350308607766,2.6466615644729585,0.9047463523261984,-6.870060788172108,-2.854820252179402,-0.6161399107213233,-2.458527150087072,,
3.366574,-121.62639100626006,56.37441372674805,-152.36399977731332,5.514492043868794,-3.472848220438036,-4.729561827007185,-2.1422007706895685,-0.9136942589427364,-3.218544801799792,,
3.3760949999999994,-101.61882989858825,57.912824627956255,-152.5613546399884,5.937195894153614,-5.3554017251950174,-2.286235120744218,-1.7863391620357565,-1.2752596358414894,-3.4045135531767654,,
3.385618000000001,-82.75519678554029,61.28582479600765,-152.80938390506256,4.971576525292466,-5.702683110025867,1.1232090223926927,-1.3914227001624375,-1.4719152387445944,-3.3075110393985585,,
3.395211,-64.96919802718166,65.14411896941277,-152.54314651690785,3.5499050597800923,-4.48509285911573,3.5649931387707188,-1.074133977933138,-1.4174139042204237,-3.126360978138682,,
3.4046930000000017,-49.17071051217077,68.0443001259782,-153.5599782712084,2.3520588800395466,-3.983249016836925,3.860290396734004,-0.8590559865434779,-1.084280755891057,-3.106499587534397,,
3.4141910000000024,-40.07984573734701,69.6778497462217,-160.96517148010776,0.3344762156643507,-4.846726968406813,2.574274857339571,-0.4803881564024309,-0.5560297844536912,-3.1798467762051748,,
3.442640000000001,-48.77222482305912,63.3599861532312,147.94988215059004,-4.87194464907577,0.223861666844785,-4.370040563777232,0.5354531962332126,0.7279455499197568,-2.645770621936455,,
3.4521580000000007,-42.68752289051485,58.32472281991265,140.0131009340487,-4.916307708053612,2.521023091489257,-4.7455944757579385,0.1122456741219425,1.166007904216312,-2.6519473871628985,,
3.461641,-26.94731758977632,54.72663108375311,138.23992993926174,-7.283910811681791,2.5179011449186506,-1.6114709949791968,-0.8466729085756489,1.680050611268494,-2.9834194500039333,,
3.480875000000001,14.977744822985883,52.09703574787006,147.51545125268763,-2.506761479189582,3.2931697116973337,6.551086343781984,-1.94109800580752,1.618854561837502,-2.057277381465417,,
3.509414,58.682983737821885,55.71387190065113,160.8120362847252,1.2007074509704942,2.461499266983455,2.6606366520326152,-1.5222671284798457,-0.2145196109361372,-0.9112718764346436,,
3.5187510000000017,69.48597898007128,59.71435356433585,165.52558445766627,0.9298867497827052,1.1539521756580993,-0.1771238282316379,-1.3362057317964842,-0.4294628057197062,-0.8863869863697196,,
3.528276999999999,84.18943728953317,63.42559894140933,173.5620564174182,-0.4592194224278167,3.140799366893844,-0.9745467588950556,-1.5098515221133486,-0.4714802481843566,-0.9828616792911782,,
3.556749,125.76277170596856,67.46185359388106,-155.8373033116332,0.0471154103951221,-0.2466700771812664,-1.8102147694859947,-0.7779573864860344,-0.4003515186352992,-0.736891186949553,,
3.566172999999999,136.4797460403048,67.28750189235502,-149.80261553532287,0.2965984830976276,-0.1000347401422713,-1.1021164987121754,-0.7493925360616096,-0.3457254574362485,-0.7728532867610229,,
3.5758730000000014,147.4040494235316,66.85532013227754,-144.1059677628049,0.4915504589425591,-1.320265362912536,0.0095304065846893,-0.7604898276100271,-0.3919225297454014,-0.8743691786158599,,
3.594804,176.64431303681857,66.1830254568385,-132.03581569906586,0.4087181031965928,0.4114465740993585,-0.9385777410768296,-0.9981525747654716,-0.8253313622848263,-1.623563080261589,,
3.604409,-164.98467117414862,64.47574406862003,-124.83588047862118,0.8804040927482081,0.2841660153229409,-2.010995426845844,-1.21693771794914,-0.9895404912601992,-1.9032265138937248,,
3.61394,-145.46791814775426,61.95103713360692,-117.02198877626164,2.0636234966429616,0.9662282142586176,-3.948766288322774,-1.3040361371458795,-1.2799782935935946,-2.4322410235079484,,
3.623452,-128.0073536577956,59.200831084243234,-112.91730556463642,3.923121467520279,0.2481608006471227,-5.030692167902493,-1.189672003477246,-1.3526187982614744,-2.738026478773532,,
3.6329680000000018,-114.32386155101264,57.43011060637826,-116.31353236434342,4.176618100155173,-1.2994240155680532,-3.852754712775744,-0.9212381939564231,-1.1626339695911947,-3.0104289069618577,,
3.651817000000001,-92.30933381713658,61.61678675936357,-132.07827149331033,4.7962945369650285,-1.4760340355174606,0.6247543503668056,-0.0813391185763533,-1.2437765086635613,-3.4699457238215423,,
3.6615059999999993,-83.10989544042559,66.72006157288796,-140.00680716780442,3.484439237253743,-1.0986575693859455,2.650423321989664,0.1301159748603761,-1.294441039187882,-3.2440764568975937,,
3.670987,-73.56865782777693,71.54964483959081,-147.79613427620362,3.02040304492653,-0.7178457586706242,3.185314029601341,0.0185166418065554,-1.1835678814902044,-3.3436916872514786,,
3.69941,-39.78481373366408,72.13920884561281,-175.01065842878774,-3.585450786775281,-6.499057673900336,-1.4629132924303174,-0.8250000686068454,0.3327743149077897,-4.296278049756582,,
3.7089260000000017,-26.71572416686154,69.62651411008123,175.7418420224659,-7.086806950615001,-5.750422259339551,-2.2417328557505543,-0.863691437846468,0.4974353807577531,-4.322902896891454,,
3.718422,-12.393484907363582,69.20076210663562,167.7485740642244,-8.24532545258308,-2.938795587556329,-0.3898618636677812,-0.9892072142926512,0.2295104969383335,-4.283805898991169,,
3.737687000000001,32.271955242893625,71.79300576250446,171.8133270504146,-6.649716602350018,2.616043463694532,4.784853190408692,-1.6541741042350036,0.0549831975118135,-4.054135555333064,,
3.7471850000000018,60.97387536592798,71.82600910488027,-177.9526346439424,-3.5101949801741097,4.532302507789755,4.170944196541705,-1.7854628534914982,0.0448303459510643,-3.983771655512784,,
3.756705,89.78208289580415,71.10561393565963,-168.0355467017367,-2.24675433564622,6.066921889737163,3.20005036611543,-1.8265388017931887,-0.1224608054809525,-3.9801428517600166,,
3.7659470000000006,117.90828474409652,70.58786560254316,-159.01838497626076,-0.916533887769399,6.685571619821206,1.3420301802089831,-1.7847569693809318,-0.4595533283286055,-3.9627322363456727,,
3.775425000000002,146.0278492999999,70.69280561541093,-152.16530751339363,0.8634288813332337,6.767340412597187,-1.5833644659657795,-1.6841550573278383,-0.7867872222547873,-3.942534535923504,,
3.785057000000002,176.25563193765814,70.78746395180106,-140.81547105095467,2.7441942528666887,6.446320445527065,-4.481486459538001,-1.6224326227375794,-1.1441487577894016,-3.9061080625923617,,
3.804084,-122.44888327870696,69.86568837785777,-118.37677895868696,6.829719760403468,1.1547387502695807,-6.759639005184213,-1.2213937202802163,-1.6638504801435847,-3.806689998223893,,
3.8135080000000015,-92.09780503393654,69.90794649914704,-109.12473695566408,7.950944983049294,-1.1656481246261228,-4.810135225481453,-0.8293704429051262,-1.9051971802102308,-3.858874756746298,,
3.8230140000000006,-61.12472812061716,70.6333366089811,-97.76808138121876,7.547971943787405,-3.2399506602510804,-0.6561874381086528,-0.346622686250822,-2.054951983779231,-3.5698927940595016,,
3.832708,-27.66026885239077,70.4249648273016,-81.59180686522106,5.750520970806285,-3.695175101040781,3.382235766296398,-0.027787618734412,-2.2119776276383303,-3.0884691643252484,,
3.851866000000001,17.55642951643827,67.67539434331538,-60.6976231444228,0.076377884517486,-0.6955179304612337,4.53347996660526,0.4734888302255639,-1.1769093445699343,-1.817063505395818,,
3.861366,29.560479166222407,70.3012188038605,-57.93969511559871,0.3310406798797202,-1.8766815039965847,2.54796651396345,0.8896692938184244,-0.4735783771758172,-1.692040251871501,,
3.870750000000001,39.40685756685594,75.43291152869763,-55.38858756372301,0.4220287591980465,-3.1236425103983607,0.0167516928755369,1.1749961832946751,0.0778883873168639,-1.3743731618928978,,
3.889851,59.08283260421192,86.82500625281561,-42.73441458240764,-0.48370041701354,-0.1684021188874978,-4.249635677025975,0.9263705203633216,0.5480449842880765,-0.5896197857722646,,
3.8993610000000025,-8.816002443818125,89.57177392053282,-113.84449770501018,-0.674538151952608,0.8254932074341294,-4.737161032724764,0.3729300260446458,0.4823218441311305,-0.7386818871305811,,
3.9088720000000015,-36.9548991325942,87.75031402317566,-147.0047938080964,-1.2028803486391522,0.8284355756498235,-3.7974940062642615,-0.1962781344796354,0.3313641364080205,-1.1159608080303696,,
3.927627000000001,12.946895394945695,80.6719850479626,-117.73041663704574,-2.548549437916352,-3.4930385089651046,0.5542414848334514,-0.9836553268351186,-0.0159386126490393,-2.678999839956145,,
3.9373220000000018,26.6236693297342,75.90417418814263,-117.49384912023008,-3.739837475375376,-4.074978844819229,3.969425126671253,-1.0993815943661434,-0.0691052701420791,-2.984881352682444,,
3.966032000000002,39.74045060085973,73.23483159048305,-145.33654122263326,-3.001190020458268,-0.4914407578629259,3.491301703647556,0.0576162125749456,-0.5089398081024868,-2.9660149538649865,,
3.975546000000002,44.83567261148872,78.1866592929686,-153.2933085088602,-3.4333827036461404,0.6459955053529962,2.16230851316898,0.2982730001151978,-0.9802406582555904,-2.782921243432273,,
3.984871000000002,56.63007458667749,84.87682581847996,-153.55814181283225,-3.175930180807606,1.5952111277258685,0.843640301801285,0.2984086264649759,-1.3478239264822536,-2.5973034933463195,,
4.013487000000001,-141.20439481793792,74.94861503396203,-22.57639301292837,-0.0078538771599439,1.321118406334692,-2.0034843587929307,-0.2018829301402381,-1.1194220510140056,-2.198693233050591,,
4.022994000000001,-137.3094403992115,70.79553859858247,-30.11550247016772,0.0588386571395108,1.3004116049801715,-2.3267808623040955,-0.1551610723193479,-0.8499026080546467,-2.474236544295796,,
4.042011000000002,-119.02723147836625,67.47676505186999,-39.90751415284773,0.8351244361715158,2.6206318180095223,-3.4332712942826547,0.584031710718115,-0.6549204568561056,-3.0461814770496924,,
4.051335000000002,-102.1031711198957,67.9770373910539,-39.86262411563816,2.1715884238430494,4.360842227644056,-4.035503996231541,1.0579092519240298,-0.7360877705959261,-3.3777530488100687,,
4.060782,-80.34435425267036,69.12598563275414,-36.085250400264165,4.540721483122772,5.307003652621145,-3.3917621875458344,1.4017535185320085,-0.7860706937045159,-3.528271822362808,,
4.079976000000002,-27.527703136949743,70.80273479435483,-20.356416225115748,7.093424428959854,3.187483125308696,1.3390054384752792,1.7054569108569562,-0.648900762514709,-3.5868081299362427,,
4.099135,19.872931393471355,70.36439984863637,-7.621932954932693,4.571219476705996,-0.961157829900909,4.439431803287543,1.4020798506447854,-0.2933466859268036,-3.157715550218963,,
4.11815,53.08191860550314,75.51079329241264,-6.537882824885274,3.394134463536523,-3.121581108694502,2.0852065890626443,0.9680567313210392,0.6584674703880892,-3.01755974803876,,
4.127519,69.63711445370988,81.46000732300324,-3.314599794465184,1.9692854545027263,-3.3036971611077965,-0.748641601953943,0.7564852891164162,1.1232265563004136,-2.682727515729601,,
4.137112999999999,124.14504591457984,87.44302784281075,38.205952200967815,0.6174275160278586,-2.710000098108995,-3.002495837144227,0.6489187918720207,1.3257413071915505,-2.5974896165805283,,
4.156136,-101.19299061733344,80.81071734156139,142.0574666185052,-2.7755104561570234,-3.931478187260433,-4.543851942827749,-0.0133453871329624,1.0016967719643342,-3.3569599330651063,,
4.165566000000002,-77.86682333332155,79.98027259437528,145.3169662512609,-4.916170601928228,-5.928267997805176,-2.7304463754072827,-0.53260443555716,0.5903083037166815,-4.055514092725602,,
4.175088000000002,-52.31853997213289,81.61073374552817,151.0053041842486,-6.295709964752061,-5.122154761150074,1.2574910750169774,-0.8633569805711094,0.1515208139723662,-4.0942567657585744,,
4.203787000000002,27.266796733255987,83.25724346957544,-177.70135523796233,-4.01971349046168,0.4172373733511645,4.5259358150662266,-0.089056361458317,-0.353037577358829,-3.0685024900551534,,
4.213311000000001,-2.0629869069270503,87.61411619134572,140.32089428352575,-3.254940380571858,2.1277558692538845,1.97356072807995,0.1725127255147031,-0.9493466199704,-2.686656379751205,,
4.231909999999999,-117.55025083065848,76.67204996871324,-2.200520770351416,-2.277139577822621,3.334581122252313,-1.4934294430777022,0.0941193698499423,-1.496742095891288,-2.676194495371392,,
4.2415020000000005,-114.73558255957968,69.66412624673252,-11.170317785686224,0.0578831141518806,3.0919928459906263,-3.179669271636657,-0.0011166093387801,-1.4147160201671278,-2.33349657917738,,
4.251068,-110.21173279678624,64.04738585044089,-17.964255459014822,1.312777978329913,1.987703914533352,-3.590405649527968,0.075596018963597,-1.1786745164125974,-2.45445077005018,,
4.260571000000002,-101.43394881411672,61.00116889981935,-22.49163474207782,2.39993208787905,2.9939917714830795,-4.998007446399129,0.5602536187621003,-0.847049584804909,-2.7063296781234825,,
4.270258999999999,-89.59454101070372,60.91220610919893,-25.19709287649858,3.7411950361032815,3.073089354915818,-4.97630810247888,1.0506234515566406,-0.4731142084833564,-2.807580528769765,,
4.279674,-71.8910651369512,63.42234880580658,-24.001251660668217,4.281567442852411,3.668912047870981,-3.92457737331624,1.7134651990892331,-0.2250500688858693,-3.036382495914828,,
4.289200000000001,-45.45309896279814,66.5979191027864,-15.16389949829261,5.974981781415753,5.184294137290301,-1.4001652579551505,2.3074436709531883,-0.1500032354176984,-3.1394738879802664,,
4.3083620000000025,14.85899529520272,66.26316456149368,13.32255960522715,4.387654195224166,1.1826555390923386,3.7971488670538007,2.258891675979576,-0.0499067925844727,-2.6317995144618425,,
4.317874,36.79759275196481,63.57329471770613,20.14227199472537,3.79913970983474,-0.2214847221882459,4.644976834793121,1.9309783844942845,0.0266041171380736,-2.6164903588936834,,
4.327384000000002,53.65479153904729,63.29253079850811,22.83460679670124,2.799824825711116,-1.2601234984346137,3.872334184368046,1.4236845776893772,0.5005519152937362,-2.480473427995704,,
4.346275000000002,87.58652833777516,72.36558696917473,30.75433744200993,2.7614972219711023,-2.1174447103959464,-0.3773184858352209,0.5647435988041666,1.6093903162122123,-2.329383565436722,,
4.35585,113.89270700932391,78.83239025454691,45.87948262515464,1.528735201055738,-1.7991548694512451,-2.6769128098808204,0.2407862970344529,1.797683192073998,-2.044954944711328,,
4.374872,-145.12472020455573,80.89111391017487,120.85701153848676,-0.6379435089348797,-2.166143562053126,-3.47764390824169,-0.0723225310228932,1.449079515955157,-2.8396337065328754,,
4.384306000000002,-114.88696391955048,79.25523288268927,133.13651783289947,-1.7252048352436755,-5.49395055746606,-2.0992088890729868,-0.3708217515434127,1.0181046524174795,-3.5314693655274767,,
4.393816000000001,-93.2434668195242,79.54377460425387,136.2334030138793,-4.251557748462471,-6.503993419008833,1.073385260504373,-0.6021958947997109,0.523757221216008,-3.721272269930783,,
4.403522000000002,-83.15571971489331,79.92236155100187,129.1220876629368,-5.980422071088877,-3.4353878584222395,5.836159711495042,-0.3012940938731198,0.2128098207672427,-3.5017147420656864,,
4.412850000000002,-94.1395385649283,71.28887993903224,106.18380459735046,-6.997097070602011,-1.915121522890244,1.8996962032079667,1.780519973913696,0.3211078201673084,-2.5237378753714528,,
4.422351000000003,-100.2800060241142,61.94976398728993,90.71704639907593,-3.1788842867457907,1.109752237328208,-1.956266402931292,1.922013980089892,-0.2025286425401465,-2.0335888490310463,,
4.431863,-105.5779777175187,57.78406959056512,78.07375087815946,-1.9364433844085245,3.079287728514516,-2.980358529020029,0.7803242832516473,-0.6088235082175052,-1.7009404524202376,,
4.441367,-111.6825909154496,59.71602888533127,64.34915163447971,0.6082908345003404,2.5264962346437687,-2.435901713584645,-0.567840589245831,-0.4793111980445562,-1.829645197302788,,
4.460578000000002,-136.52774105772156,72.78884854812898,21.290918860021087,-0.5441434437314815,-1.1533297987518998,-0.142929165829366,-1.7019640918076768,0.4860995066311204,-2.180989025393737,,
4.470097000000003,-160.21200751271073,77.10673009504926,-11.632846646521989,-0.022058638851335,-0.8583311083322008,1.0071159213109466,-1.2928928022276411,0.7400279736543405,-2.029488914378572,,
4.489114000000001,179.85602769373375,79.15181176168917,-54.16057473041735,-1.5110272648063825,0.472204537425052,0.4194050387499425,0.0852901217041354,0.1155432993453672,-2.381536925192901,,
4.498433000000002,-152.96829061956296,80.46350183079542,-38.81131530102651,-1.1157726282037266,1.1285172588544168,-1.1421738118392946,0.8460337133888269,-0.5128870981220224,-2.392925567707333,,
4.508020000000002,-107.6901994460348,77.48400040733338,-6.992242121306706,-0.9732588208657744,2.8689377126174325,-3.559932935005095,1.3529239305747456,-1.160030926890342,-2.681043651156948,,
4.526971,-67.17713465375,62.555180656461474,2.975372614056625,2.834180426000819,5.297935746397771,-3.376413826484833,1.2991001277072778,-1.386415037996724,-3.0846595780901853,,
4.536476,-53.1996465697696,58.02043005090774,-1.2273350137648262,3.990775587611918,5.156629637042138,-1.531165030669371,1.409340515936189,-0.8746837183392201,-3.4196058028511067,,
4.565141000000001,-5.795405642872145,63.34250877304881,-8.120610482941892,3.101754887540156,0.4439715273316922,2.996980887940836,1.7915090354890963,0.5177219344555638,-2.9254761165962693,,
4.574657000000002,15.95172081824754,67.9757571081551,-2.7294719590560046,2.5882981915920533,-0.118434613994429,3.20027427419012,1.8693325693761853,0.7409602994890976,-2.8915956590705387,,
4.584158000000002,40.27385223394326,71.79329693129333,6.0529257221115005,2.186156721895226,-1.0286339305536538,2.270305513040141,1.6457200017047466,0.7978407916186117,-2.8189120689182543,,
4.603049000000002,89.44318472515856,76.92310847315557,20.84633307984433,2.520494409111837,-2.9252112695791097,-0.2307476682433289,0.99523499778422,0.8174931761100462,-3.572299562959359,,
4.612558,111.64941697370254,79.61809692888511,23.092235752108227,2.139225596772208,-5.987014629379959,-1.2145599409075218,0.6353153625531939,0.8338361433373164,-3.986279883898129,,
4.622069,132.99663890565373,82.50884191498537,23.76741026344862,-0.9691512038278224,-7.924677007766171,-1.5924784458596792,0.3785227585004501,0.7905200466133726,-4.179462670450888,,
4.631589000000002,160.370129620475,84.19271666318123,29.8220280774339,-3.54202892673602,-7.64080889860791,-0.1116895727920464,0.4137144584482716,0.5808943014652997,-4.31445573918364,,
4.641090000000002,-171.40972302201027,83.8475459346111,37.19694558632318,-5.990453183721921,-5.647585870690698,2.058425776416975,0.5246666538407704,0.2694595347555196,-4.239155381378282,,
4.650589,-150.53055606002593,82.51493449264396,38.40773770266724,-6.194227132925814,-2.671970189437639,2.5852253799121274,0.5533029649905302,0.0979671386933452,-4.007310578201574,,
4.6601060000000025,-136.36632664796562,79.72102871756078,33.010633097664524,-6.432706701388611,-1.1237904943201995,1.860031129132718,0.6831755592486772,-0.1937615487887036,-3.989431942295251,,
4.669612000000001,-126.61960771259956,75.07910164826387,24.34697594665833,-6.563599460235855,1.3835443472449562,0.4197650521857317,0.8246839985194545,-0.6066952792138839,-3.7641757430662537,,
4.688635000000001,-105.43509918931454,64.01889880415241,9.64805230243745,-2.865595454221956,4.823008068320621,-3.461574959384109,1.1165872817689753,-0.8668397438709122,-3.6597654903789016,,
4.717168000000001,-66.94772318824667,56.119023846261314,-6.187204018344669,3.797274232984423,4.638215265885832,-3.9702136265968377,1.8235023637554508,-0.207149930478348,-3.273191755060989,,
4.726686000000001,-44.58734332056838,57.50493118917398,-3.2038870546805165,5.116846010387057,6.122233853769614,-1.806541977798941,2.461757958081931,0.0784276750542422,-3.2083169758554013,,
4.736160000000002,-18.55024772622836,57.802373461986456,5.331361599922441,5.909598856118777,4.427545054342367,0.944803568279424,2.776890935554059,0.1098667447818738,-2.703685613662901,,
4.745838000000003,7.763842663520736,55.353955638791575,15.11178494834844,5.150766713055157,2.539032548270053,3.0271835816955783,2.929026360483571,0.0408917615248165,-2.4501737705567668,,
4.75535,29.32857386909013,50.90256011981661,21.427834848843933,4.293456280115757,0.426948594227754,4.668973730244202,2.730611709110633,-0.0238933358545269,-2.196311632775637,,
4.764860000000002,44.81788488437646,46.815525696250745,23.754573229465688,2.5966922379872304,-1.4485193066921611,3.930972828738023,2.195257860078096,0.0330434105295362,-1.871582496212508,,
4.774412999999999,58.08366378442718,45.48873926338255,24.83078157305702,1.1125257821029768,-1.8017178460153027,2.6474685412002223,1.7854387784443682,0.5158029306385767,-1.7005262944049675,,
4.7932520000000025,83.8842641451693,51.87256862084844,29.10878062785482,2.4039329017531528,-2.274090524014925,-0.1559177925866365,1.0198416009324816,1.5417314783649891,-1.3734347996614271,,
4.8028520000000015,95.70228846087142,57.7461245133514,33.75857817868712,1.626376836105905,-1.2196162765912553,-2.277272328113851,0.5523923414911349,1.7098343262443354,-1.0055080452674312,,
4.8218640000000015,121.7192755880552,69.63610063482548,44.70785072287181,-0.2098763526726968,0.4664539070242157,-2.8657875954863736,0.0126814163826225,1.5655660167081376,-1.3398214290729633,,
4.831375000000001,133.8206833742168,75.34591629749916,46.18228765031862,-0.1426294932925828,-1.6268595616866135,-2.419021608612092,-0.2939393186460414,1.3194051322447509,-1.9137312067510697,,
4.840813000000001,143.19957694206065,80.63463797759701,43.10235371880243,-1.0205219431237624,-3.6323562849561335,-0.7540076766454321,-0.4612679573473516,1.0288176820879882,-2.376373555604377,,
4.860015000000001,160.20934535907756,88.58179988010644,32.05931618561319,-3.344634431214893,-4.419507583531618,5.728775545565239,-0.2064845333356126,0.653003429731762,-2.7896667937701207,,
4.869521000000002,-105.2880661684752,85.30602743929546,114.32765935617478,-2.564992264855976,-2.529577834472442,2.573240251837035,0.6878668104791207,0.7293673665665897,-2.435219638861479,,
4.879034000000001,-107.01545113245028,79.51258341580706,101.27283827939594,-2.407654801974428,-1.2415015306974662,0.751607567781598,1.1205628174918485,0.311869253748486,-2.2695916051949414,,
4.897881000000002,-113.34869615785595,70.89731608237493,74.09394107989795,-2.198067185938901,0.4284242067792574,-0.5990829501900637,0.6701398468603214,-0.256905818715004,-2.090503898927928,,
4.9073910000000005,-116.75272990150135,68.96907661552721,60.43952187139418,-1.2787457322588374,0.5197053652122061,-0.7344049595388427,0.2668515517335431,-0.3646443021661119,-2.14790902620784,,
4.935987000000001,-121.20696719923284,68.01203839564589,25.3518259671844,0.0535237433777568,0.2067482001706623,-1.2841822606111557,0.0611772595248247,0.0236061315933792,-2.1427675213863995,,
4.945520000000002,-116.87412598954174,67.55176725094609,18.11197612480539,-0.3500951976870056,0.5055442396670377,-1.86641435824902,0.3392654213092122,0.036700245870726,-2.3028872612356093,,
4.955015,-108.31287694069174,66.94953781597413,14.758729813814009,0.21131306719649,1.0260623496226349,-2.6874640161296,0.6702518923047442,0.0736871221231263,-2.303641009450243,,
4.974031,-75.95931882108043,65.64189873721341,19.44371899120249,0.6376515673793942,3.6597533707658094,-4.221709684434635,1.477145847100408,0.3181559192283495,-2.695554352679056,,
4.983458000000002,-55.08876041195181,64.80902906351876,24.555461738063293,1.3710254417768826,5.141466128463926,-3.19018343630472,1.680517150976974,0.506776013022219,-2.837340896460818,,
5.012169,16.13937245562729,63.78722698843151,44.304658230317365,2.835297512744952,2.8284428230750094,4.301346822274988,1.6217535352844017,1.3674021022676723,-2.910787114384089,,
5.0216410000000025,38.02513340147046,63.23187487085079,50.1542623948798,2.6403953280879944,0.717675550283776,4.733201991160353,1.4044067137386642,1.3568438820060602,-2.753539954301558,,
5.031155999999999,58.60526168914028,63.70617246012989,54.78263160425399,2.822124144890018,-0.0471013933040294,3.847896381400936,1.0447772926039778,1.5139554269704134,-2.761920148916688,,
5.050031000000001,103.02390216597024,69.69508312930716,68.72462143534362,2.270718615839494,-0.98505253922314,0.0779514309672043,0.1048030835581621,1.8812681687106685,-2.6064852188946253,,
5.059502999999999,131.34343235015527,73.46998231145395,81.26757223916772,1.8628966023947129,-0.9066915472166748,-1.838700018275368,-0.2496974793871278,1.909630831007213,-2.8751387820952363,,
5.069098,166.78229868171286,76.04785678620082,98.6464727774528,2.292016414648278,-2.6553252214901244,-3.196029072937577,-0.492642777209841,1.8446893425301305,-3.3748620041068964,,
5.088082,-125.68066474439192,76.90590478153517,123.81532819407764,-0.7901691556045557,-8.220646950106634,-1.428455348868649,-0.6772145727212479,1.1850267552777205,-4.162720487084691,,
5.097545,-103.1896585010941,77.34344229804377,124.6283771791792,-3.700069848916866,-7.334720315866813,3.3944384029087287,-0.6355444743280646,0.7806938054915735,-4.227101997201014,,
5.1072440000000014,-93.42046088368086,74.08855207014915,115.38703992899366,-5.19885394834776,-3.0753791648554727,4.537860900077028,0.3226841773597161,0.7456202702380726,-3.7453455160768128,,
5.126082,-97.23268688328854,65.75483065249746,76.96600794305344,-5.226748974534987,0.2400193374868529,-1.251102111593594,0.7037214384776496,-0.2991382471529626,-3.447845335271188,,
5.135592000000003,-100.57129404204706,63.653517588542485,58.51884737812329,-3.189492901606206,2.0147680334949887,-1.6925086603735475,0.2819066139318325,-0.4248424337176512,-3.0884889372342186,,
5.145094,-100.3179740553569,63.56171125317118,43.130114031257655,-0.8655377696388746,1.4326073310674907,-1.84461089459568,0.0285967949659498,0.0059316811922177,-3.1265396250412283,,
5.164149999999999,-87.08171374460842,67.5593122232087,22.30662944383147,-1.3236225763440044,2.7298388940646823,-2.6092363764157955,0.4358453354147747,0.7634914099058944,-3.3286923889114903,,
5.173673000000001,-70.78198798787724,70.08956499662983,20.7653565275726,-0.5751123708216463,4.333071145918512,-3.137709650805139,0.9105454763976748,0.9036102686412286,-3.4042126867577926,,
5.183167000000001,-46.77912278749484,71.71235500291618,26.117438226359404,0.8828524893981369,6.070697555748152,-2.858178251116442,1.3102032376316894,0.9193118376624462,-3.514009940845951,,
5.192686000000002,-17.027883561253297,70.91334235761708,36.859888389781005,3.009749867424047,6.667630522931305,-1.677665145226746,1.6976112396630456,0.8602241525315624,-3.5240960086028856,,
5.202211999999999,11.154113328912256,67.46426352001427,45.85278895033266,5.056927792680914,5.9677368687117545,0.5178072675079921,1.941695330029678,0.8145676943470563,-3.499724095181717,,
5.211857000000002,33.947312672094824,63.0927007961746,49.92446097917984,5.727145783553098,3.5012101153944624,2.959716638001465,1.917150430862642,0.8353733996419082,-3.3334445303738125,,
5.221363,51.52321449968164,59.42976255581383,50.20814680417049,4.54620864529972,0.3968428938696769,4.2028254022116505,1.6440489679943315,0.8304609848713375,-3.029401419631696,,
5.240382000000004,80.753653604331,59.108043786675246,47.75538755548028,3.005707945278606,-1.947228206859047,2.5331093674887053,0.8174082285547127,1.304667987149979,-2.6214090008067754,,
5.249929000000002,98.79052051651333,63.078968449981176,51.50252692308163,2.454053748491064,-2.2461392178443496,1.0717422840880542,0.5326699602699861,1.8374509874543328,-2.373487494988056,,
5.259266000000004,121.858983115849,68.19830543548343,60.6508046529321,2.298522952115138,-2.0658506593409363,-0.9556166407710208,0.2304203440890657,2.1365197890364125,-2.310099701421628,,
5.278354999999998,-171.7559059995177,74.07758280811224,98.72066892423923,-0.0496244554664879,-3.0888557434494723,-3.749800084727553,-0.2036311137750339,2.067698234287874,-2.542202843622228,,
5.287798000000002,-138.25325530577538,73.30780729646145,114.55832284477522,-1.198978846156166,-4.562871493927002,-2.929053681214614,-0.3858212879355489,1.8303820175751773,-3.197620251102478,,
5.316476999999999,-95.42532881529816,59.90337257107021,111.0839376845222,-1.9803964488405603,2.6246278784313444,1.902581270290044,2.101769595393257,0.9155910093279996,-1.9184879011135625,,
5.325844000000004,-95.2973448739474,52.1436982548328,99.43056817745403,-4.000618547287829,1.2806733332722708,-2.241665989779092,1.4978254546731449,0.4230172226492336,-2.344563172147323,,
5.354365000000001,-120.76101099595168,65.40034893310238,49.28430724091291,0.7916808653417123,-1.4131740356233702,-1.2985144807449445,-1.9864074884286067,0.1128579334607328,-2.699712730175281,,
5.363874000000003,-140.07406413400503,72.425334647368,19.058075108273208,-1.5552779030265769,-1.5025957646777544,-0.5629309247029609,-1.9312204142014355,0.3638594285921673,-2.501275226628588,,
5.382908999999998,-170.1191438635366,77.1547962176832,-33.04084722827583,-1.3116527890126597,-0.537212487248488,-0.2204253587528857,-0.129408230977899,0.4746829387946216,-2.5088981153526686,,
5.392488,-149.2571503852482,78.92765268430743,-22.705415586531107,-1.7285917446713994,1.0017669947387409,-2.332766095626745,0.9256073070513428,-0.0926705663814172,-2.0481324670678447,,
5.401999000000004,-111.25524004216636,74.87298586950453,6.951694901818701,0.2533819100923201,1.1330985017472697,-3.438447073577363,1.5771720816746737,-0.9899818330126106,-1.5478481940653102,,
5.421015000000004,-73.1950430778386,53.67358829798126,23.03251328930528,1.8593080007840024,4.092724771572521,-4.346653901471836,2.19519498895638,-1.473901108285835,-2.1333792988621227,,
5.4304520000000025,-60.91089646532257,45.68179530678785,20.85891974271782,2.560623801502086,4.696797149000438,-2.0879784417025653,2.078338371168887,-0.8750130992580731,-2.4076851565664947,,
5.4398589999999984,-48.23308260113823,42.479986435634686,16.664829575624672,2.3351056234601333,4.4690110455745184,0.5262682422353416,1.9346029231165425,-0.0127582575290201,-2.665657433774314,,
5.459127000000002,-21.629039668795286,50.0142379819941,12.016339182357008,1.7508368100139218,0.9822538902697971,3.283033144118372,1.57837021113921,1.5187574683851697,-2.158781826230981,,
5.478138000000001,19.6215678960786,63.40054718027587,28.441723136182954,1.6689551173915071,0.38368830706407,2.7426508798038216,1.657495575404938,2.010145671307064,-1.7867663223975452,,
5.497168000000002,71.1515090682927,68.59345994932502,56.309441869988056,0.7011824325532853,0.2030848081912285,0.4203516167989022,0.9789088070858704,1.621503545580281,-2.082647188715124,,
5.506678000000001,90.87038389894288,69.6558859234672,63.20512900270328,0.2577962496082523,0.3149448074979449,-0.5396175674823633,0.5252222527086425,1.3179836766221744,-2.3100737252108265,,
5.516026000000004,105.90534224736918,71.31491461955822,64.09214319073006,0.7479283897014699,-0.1048959056604881,-0.9499902669695786,0.1503536089487488,1.0473802478403342,-2.659949496519219,,
5.525508000000002,117.14209374790128,73.84331432197575,59.204731319229246,1.782236944317028,-1.7532129744245415,-0.7233424241199269,-0.1244120205571389,0.8338378157358207,-3.1248576616108585,,
5.535056000000004,125.23067202255253,76.81705512855616,49.40993478785337,2.097476710484369,-4.6449724945267015,0.2589431212567403,-0.2442162049110607,0.6821492873185765,-3.5272939197421302,,
5.544747999999999,134.36298923754438,79.65645504181145,41.30546214661249,-0.1009225754327749,-7.75627802266584,4.121287817116802,-0.1431082594084847,0.6655757952307121,-3.447942220390337,,
5.554262999999999,172.74202658645905,81.34085360593876,66.5834760986659,-4.203809469713203,-5.95349949780053,5.218010629720999,0.4761811576286265,1.196755256898896,-2.5228668106278342,,
5.573112999999999,-137.89770327316893,62.90984628787997,94.6504203472277,-2.086374433081969,-3.1240450941865223,-2.8468652591304413,1.8455630299576784,1.062951984545675,-1.935438193511796,,
5.582692999999999,-141.1683706434262,56.879693194226334,87.44886169127925,-2.028481914968479,2.6694681497647035,-5.369520307199794,1.2126911993708192,-0.3077259085746918,-0.8498549391355691,,
5.592131000000002,-150.99816119075857,52.77836307384275,71.53313641478904,1.6941504013202435,4.705826058549711,-2.2235769904412948,0.600414355580473,-1.2633755909561173,-1.6063950815597166,,
5.611229999999999,-168.43859685854213,52.95807285803673,32.29684663246983,2.374647578634174,-0.0455027715482754,-2.4292220572302745,-0.9999797416960432,-0.6960523919651812,-2.563394420881084,,
5.620842000000003,-176.71077695523533,52.01250670681765,13.900608698353787,3.508204208695847,-0.1020838487666995,1.1715678790723134,-0.8524719415338357,-0.5736486938112628,-2.4571382419431056,,
5.639654,-175.0753199969349,54.46713117271779,-3.6883970195752993,0.43363475573621,-0.7681127292796307,-0.7117443581111808,0.4233458250384411,0.4967949212817055,-1.5028626234230216,,
5.649180999999999,-164.18915546747306,55.82485763800447,0.6691494944329203,1.2617409818816048,-0.227996333879847,-1.0461955507789218,1.2513869306524852,0.237937290955716,-0.917050026763563,,
5.658782000000002,-146.25122370749463,54.38501341139604,11.38063706117909,0.8411016356504121,-0.4695629534691397,-2.269672001012023,2.0679825589189544,-0.0685301674978959,-0.8069701442719371,,
5.677799999999998,-115.83244795099522,45.42869387594835,29.72627405326563,1.7837396455313492,2.29954329660129,-3.2904507801302385,2.003227427736179,-0.1375950566955931,-0.5475998859668871,,
5.687324000000004,-105.45494769381672,41.8246484022737,32.52202165499735,1.2459399402254785,2.079175390554609,-2.9193873788037887,1.658976254110226,0.1614183533598632,-0.8750257850979669,,
5.696762,-96.3961138168485,41.41007966579708,35.46027266206336,1.5327229925783483,1.4916636407907728,-1.769402018249627,1.170150115353857,0.6891402253352454,-0.6169909524241178,,
5.715964,-71.61912976055487,48.13904567705426,49.03329139279556,-3.149164516721953,1.2231456204221338,1.1197700725114608,0.7702566545629248,1.9224784649722368,-0.3412549474944412,,
5.725462,-61.25931713296124,51.015492359237896,58.75434006744768,-4.486396072884647,-1.1914975455093824,5.694691074087101,0.3283727406641515,1.424116048289904,0.3644777659937158,,
5.734962000000003,-59.188212132846765,51.32534696880593,61.65016098222833,-0.7153221578196647,-3.93712022526596,4.52603552708033,0.0753732875614319,0.2564419582037838,0.2567345483886891,,
5.744464000000001,-56.674761871287785,53.02852625915885,63.3734456567507,-2.1047951943676035,0.348317406695146,1.9744662710353,-0.1600120403299423,0.4311176176276312,-0.05253104426094,,
5.763455,-59.70663949985762,62.84937418741514,60.804577658655845,-1.4457080409763303,-0.6532966947834401,1.8514371753974947,-0.942850737129106,0.2830827927990837,-0.0696002366674957,,
5.773004,-59.685503565502415,65.03048951735926,61.73237334038399,-1.0617228501633056,-0.4957961822204609,0.5553512727087053,-0.3820529917260421,0.2115590178548047,0.181959110850527,,
5.792037999999998,-68.96163761584744,65.06104684615528,53.2020550702671,-0.8750787641063866,-1.0660394576453407,0.5174073175215279,-0.1794807335613872,-0.5310552564082206,-0.1265171670565588,,
5.801535000000001,-73.36054103244992,61.62658249082259,48.640525653237646,-1.0570466079668852,-0.7604076589287136,0.0887431362614113,0.284525241909439,-0.7398479217577485,-0.1300897980999929,,
5.810879999999997,-77.24378582588777,56.53365504269911,44.37539871512181,-0.6849386515976561,0.0212827121595001,-0.6937131983095912,0.4657533931965958,-0.9906980148854152,-0.2178138313765587,,
5.839390000000002,-85.1113179713168,40.40947550699687,31.00311922556113,1.3330625088298602,1.0574254530627167,-1.5347318408173964,0.4134883719426858,-0.9010620271400052,-0.5664255621494897,,
5.848917999999998,-85.3161715325358,36.77415998602567,27.3070980114966,2.1105113862773184,0.6504635199760133,-1.5352000695170105,0.3276877069338283,-0.6508516276355992,-0.7505604005787648,,
5.867935000000003,-79.42540875826481,32.640940427707584,22.303044568518,2.672386120978709,0.6846548770536038,-2.131218389126251,0.7594288468953827,-0.0353694790578274,-0.8346679726765164,,
5.8774370000000005,-73.70860523709679,31.46457616529224,21.290516222443944,2.605513950345552,0.9985517083867496,-2.2378087790768686,0.988274085571152,0.1415563290779299,-0.8059907176079827,,
5.886951000000003,-66.86459421463643,30.294081759236946,21.382151287127822,2.495574632576131,1.6080704707706723,-2.128506151796936,1.1806193374257343,0.2098693317965104,-0.684959257525607,,
5.915492,-46.26170129928909,27.58262772154216,22.721437418637247,1.551178918968989,1.488725506647227,-0.3838476281037772,1.0753863798508576,0.4222656155650737,-0.6013642867484958,,
5.925142999999999,-38.988668291708805,28.74804228313022,22.92359025917439,0.3522744688892215,0.1623954114832515,0.3033561603255265,1.0928733517562803,0.7127186890526842,-0.6469261864780924,,
5.934640000000002,-29.642643297417003,30.441470252972923,24.870500204611268,-0.6775989584081811,0.2216854760321061,1.2972850190202512,1.350398327380205,0.9682857875459908,-0.535041982747281,,
5.944146000000004,-19.98795718588683,32.90843221861074,28.43783872631657,-1.3410164934961817,-0.4791697382013207,2.059125683125416,1.2489572950833585,1.178096073174102,-0.302203392577853,,
5.953665000000001,-10.2111414541573,36.52695744660674,33.3435922085873,-2.3527013615720613,-1.9462288799555325,1.906132921247586,1.0095373516129988,1.4458486610537191,-0.134755622796028,,
5.963177999999999,0.5553777710923649,40.224241404128286,39.4582786434125,-2.950937251549125,-2.271969622527272,2.6515439137774144,0.9219134724759132,1.596206401893772,-0.1168546860610902,,
5.982204000000003,20.33732010682859,45.95251324640468,50.63262783860949,-2.008301457795494,-2.1533126564361447,2.785393908515659,0.4698045071740724,1.3478865880133135,-0.3034644718248497,,
5.991709,28.265457213856088,48.707506269472425,53.489355842094994,-0.9459149573293192,-1.441523857075143,2.582100982243604,0.2271206628741727,1.1867994572520846,-0.5958083693456678,,
6.001226000000003,33.26966906660222,50.98588450130951,53.21100326805048,-0.3757533132183406,-0.5869554709912236,1.1695448605592702,0.019930168458621,0.7905371487567886,-0.8215577686316513,,
6.020132000000004,32.721543083130214,52.63518500893248,43.72939518974595,0.6023948898767427,0.4495262705231634,-1.9831529894004325,-0.1698746781371715,-0.1165649387106552,-0.9072532942614896,,
6.029648999999999,29.92013536419692,51.14148657213545,37.41701155555696,1.165107836825709,0.307131939643796,-2.2022252308728327,-0.0684769008520623,-0.4523545561235434,-0.822357100288533,,
6.039082999999998,27.65791164405665,47.72991745755429,32.312221084288225,1.749596260810002,-0.0326487058271793,-1.631426591658951,0.1487264689097734,-0.7288600980605258,-0.6775751044095636,,
6.058281999999998,26.20026066724516,37.83318179917924,28.78961079816726,1.4802751729767667,-0.4597998267660569,-0.006900688218396,0.4470199177503748,-0.927510268138302,-0.0807077494763786,,
6.067785000000001,25.85875435662255,33.05915748476431,29.59266430272675,0.9476188102595722,-0.2536160684947554,0.002451659227587,0.4175503298163725,-0.8616359114588281,0.2003587377402924,,
6.077303999999998,25.345214246533423,29.142800320558408,31.10549893138204,0.9450634248778784,0.243284425450292,-0.2637853849009756,0.3202114544602462,-0.7211885875247349,0.3558996735375376,,
6.0866240000000005,24.41940443894359,26.41695296114583,32.77298649298647,1.5525354755108072,0.772328533143606,-0.6496281346545884,0.1495353684995458,-0.5499266657900433,0.4201941357638828,,
6.096170999999998,23.476618252218216,24.982041216689275,34.20051618901841,2.4121313150290176,1.1588808438644624,-0.7318166672387276,0.0166482402069501,-0.3334656974318639,0.3676554692349294,,
6.105674999999998,22.92155881475721,24.74253737474468,35.21484041000045,2.903393788260596,1.5460479320667018,-0.5298713859462552,-0.0555893514078171,-0.0968366832310306,0.2498082865336488,,
6.115203999999999,22.214822978740944,24.823781665150896,35.13860719792281,2.9647338445076024,1.6666609690771252,-0.8521996904711265,-0.1144924716126401,-0.0605015699337564,0.0869434155208888,,
6.134222000000001,21.79129709512696,26.43859897138758,33.5507664575199,2.1172649323683568,1.0887348817215845,-0.5498419276202804,-0.1361423572327559,0.2188754198907796,-0.1234498087115224,,
6.143748000000002,22.2371284917106,28.32348499179655,32.983537341719774,0.8581601106285642,0.412005461987699,-0.5653355510176513,-0.1399925034739776,0.3593136107491998,-0.1071158557225255,,
6.153424000000001,23.216105282535064,30.91667953277165,32.92413415525454,-0.0228652560686147,-0.1649530487032096,-0.2424054488509065,-0.1380815948556034,0.5287084743009788,-0.0502792413115296,,
6.162934999999997,24.81397490294731,34.64672708706148,33.71783959905955,-0.9719476562906696,-0.7077642030123099,-0.0066141488073475,-0.1831423066993415,0.7723288642619905,0.0535803354543747,,
6.172234000000003,26.98048425297666,39.05142073961678,35.62696736127386,-1.9451405054931707,-1.2313984228022947,0.3225899329641105,-0.2160945917256024,0.9227048620460928,0.1218209261443073,,
6.191426,32.08894873964484,46.87065493746119,39.41780949116,-2.877827081619808,-1.8074626509793583,1.1866167923875883,-0.15596649257102,0.8034498249826778,-0.0369591160996607,,
6.20093,34.32308956676172,50.2214646832299,40.481684112333504,-2.8319498871264863,-1.9882925316619613,1.8465952570735145,-0.2036857513319797,0.7044053093801995,-0.1223716262001804,,
6.219973000000003,33.815642374937575,53.99197863373293,36.52453368871908,-1.4733662023310532,-1.5179807498964082,2.224869620374618,-0.285100719387534,0.0722679674393326,-0.4216591353614093,,
6.229467,30.653189243806604,54.25622704523063,32.25194329443471,-0.973646374322906,-1.170494204773146,0.9309862487400516,-0.3360649806500047,-0.1659161987176982,-0.3423147777237982,,
6.248297000000001,25.449870134134425,52.19954353224553,26.96276197053891,-0.1093991948850155,-0.6770049922177451,-0.7829191874188876,-0.0692444054494401,-0.4259657667547895,-0.0410458878473935,,
6.257822000000004,24.38426071951155,48.91357200193279,26.69314045229056,1.1377547737748412,-0.1865687101504409,-1.0346015901131462,0.1759424948058797,-0.6482645705700371,0.1108190570483501,,
6.267330000000001,24.236954998151976,45.075300704659405,28.19854803625621,1.4089878069811268,0.2153147768024695,-0.9768038140861898,0.3363603260107372,-0.6912945241916642,0.322870008100355,,
6.276850000000003,24.117477813229364,40.823601438651416,30.402817029567288,1.2714700678170745,0.4781414006807851,-0.912495301733306,0.401356562149221,-0.7509826544858239,0.4574347960738228,,
6.286351000000003,23.61225178091341,36.074453579987775,32.21748136494264,1.3256358678695268,0.7179389996724987,-1.0165956780103609,0.4264532248212491,-0.8536122585754978,0.4260377762749027,,
6.295859999999998,22.98699683310205,31.51489404912016,33.383478120552994,1.5574156296389,1.1063687386523906,-0.8751078969741299,0.4070700515475811,-0.8237428303833435,0.3029788629970398,,
6.324414000000004,21.291364152086818,22.168815247851025,32.85761639612994,2.9531657762214434,1.4348051266827309,-0.2280025747088915,0.2580309743736014,-0.3875498282592365,-0.1330849321926155,,
6.333928999999998,21.84483157803572,21.379092900906976,32.49835569530468,3.0615767063243995,1.2638397145949631,-0.1447105178704579,0.1719903296178511,-0.0775266993311718,-0.1130348610054443,,
6.343446,23.18350930170492,22.03607284613317,32.77130558308407,2.6057136841649884,0.9232930826482432,-0.192895563541725,0.1387721506097349,0.2450595663122538,-0.0444892086305824,,
6.352958999999999,25.167893734030024,23.6732145535476,33.55971636555624,2.1297768111281505,0.6394270298735265,-0.1478224159874552,0.1280112877242797,0.4744281140812707,0.0435158056839227,,
6.372194999999998,30.32862304425608,30.184407855198728,37.61773025909729,0.56682389454752,-0.044861911873206,-0.3571891611099274,-0.0487572648529401,0.9074287084674189,0.2801088983753375,,
6.381675000000001,33.367236817274446,34.77528967466693,40.38109770496155,0.0353567180374693,-0.2390015932305773,-0.2481848222505474,-0.1759889633445583,1.0378104865075954,0.3005740285641194,,
6.410032000000001,44.46432658275871,53.89332808412976,48.80457794314645,-2.1286748444488373,-0.649765481962162,-0.1597686745807915,-0.6881759943521448,1.364792747971867,-0.0261287804005332,,
6.419487000000004,48.77195694279147,61.0661347262696,51.07650084447202,-2.6597606839248407,-0.9566346521173598,0.4564239180037871,-0.7999669187506135,1.2787635649549354,-0.2734848489677115,,
6.429183000000002,51.57822033955229,67.4266507094062,50.64887782029081,-2.529201399596111,-0.91824714745103,1.5425385898010138,-0.8334447129928181,0.993147710195041,-0.5918452213600955,,
6.457712000000001,29.57526499243616,75.26490267019628,19.23335545226108,-2.1633560507617333,-1.4853859452168232,1.2993520221318606,-0.4465032794618608,-0.2082320570708866,-0.6787243084302312,,
6.467222,28.242562432587,72.89236878726152,14.56745965951334,-0.9687650731734804,-1.394540102981798,0.9008569914415072,0.068086409860209,-0.4758642609283659,-0.6774475279763154,,
6.476734,33.90075174154954,69.28894795647946,18.154068532205724,-0.4020691887765181,-1.1249075378593123,0.3572993480777295,0.5552042318975174,-0.5881059918442909,-0.3540954907850931,,
6.495775999999999,47.96772922551724,58.740770302976905,30.7782791498214,-0.1054655417866396,-0.3251403976157614,-0.1560026569377144,1.0810242023249432,-0.7445081884429525,0.0217475303758178,,
6.505291,51.41792046879464,52.9045272462033,34.238522610459505,0.5259573738861781,-0.1703035859069818,-0.1321665186848115,0.9551006883241112,-0.7764279859149926,0.1204063115664137,,
6.514789,52.12162269256892,48.10285963306138,35.61942432694569,0.4649230498411858,-0.1609266739424028,-0.4444240948696667,0.62393808213672,-0.7368774298924519,0.1675689779840949,,
6.533633999999999,47.39742219095093,42.393550064008174,32.16055456608482,1.4225710954560282,0.250990906285836,-0.9115256751407416,-0.1614246604306017,-0.6462176076775544,-0.062693039519795,,
6.543154000000001,42.59044325384883,40.63987707098065,28.35709835214868,1.5344718630346028,0.4979918472815052,-1.7140484542821055,-0.4455959713351262,-0.6661719447388585,-0.1232399062591001,,
6.562176000000001,34.66166317857671,35.755236592719264,21.283684590183583,3.0855042745501087,0.6227398265460791,-1.2710273612931575,-0.2815018415662963,-0.7340075218027855,-0.2137743698637072,,
6.5717010000000045,31.811081038573285,32.316755449089314,20.09339637801839,3.486750402811788,0.453822408545467,-0.8665135567503527,-0.197938081545933,-0.8113585960831636,0.0413099383937613,,
6.581211000000003,30.058147980267684,28.799897488380267,20.94209504351184,3.197437942188773,0.311868632566835,-0.6990914457153738,-0.0352511720235193,-0.7654299426454115,0.3163813644152606,,
6.600410000000004,29.23315795247965,24.220878689549224,26.80055376603196,2.21178151577582,0.5660432426979791,0.621661988747719,0.053718666370898,-0.3155058850363992,0.7152509962682787,,
6.609932999999998,29.076586722451392,25.10954515448209,30.56420546445112,0.9298646884668086,0.4472005646170284,-0.017201703102151,-0.1103278808953207,0.142516045685454,0.7804808921150044,,
6.619430999999999,29.824974890629694,28.073589764203977,33.5428434081058,-0.0514999945886146,0.2649300516891078,0.3569367404028015,-0.2004845162406933,0.5744725186816277,0.565532462748759,,
6.628943,30.199657493757933,32.354661606252094,34.81982148264361,-0.3775674433134456,0.2548709699311793,0.3968621459809606,-0.4260948805642766,0.7465795206951394,0.2741001301767864,,
6.638472,30.104390843824245,38.18632108483785,34.956630684098684,-0.7412904178482368,0.0355857811243111,-0.1168851920016425,-0.6779417035547822,0.9507640591969712,0.1031810234001485,,
6.647793,30.45928646689681,45.13831335803809,34.73966708501487,-1.618952024148438,-0.2552501599620828,-0.159920566626786,-0.7479561714283511,1.175078788495494,-0.0165190703751574,,
6.657476000000003,30.54974114518747,51.32396005955773,33.960542688886925,-2.024429608137304,-0.6265746989634361,0.2342709414272194,-0.6854539624147393,1.0315778698111209,-0.093817136921668,,
6.666775999999999,30.38097294565356,55.536098874421256,33.209637934073264,-2.055542244118804,-1.01574483984623,0.2515814968780229,-0.4832979641775279,0.6914321926416822,-0.123133765339691,,
6.676451,31.197657801712243,57.87739174665063,33.302884001619944,-2.154710071931905,-1.1728135864808538,0.8332606831715834,-0.1820025001411769,0.4412213414657104,-0.1180211464915254,,
6.6859699999999975,32.148021305444296,58.010587156155694,33.719943070865625,-2.421271488801241,-1.252887569367195,1.0898557797359456,0.0694796915954832,0.0779897001821307,-0.0777663932471835,,
6.695474000000004,32.60488400526778,56.07117805938052,33.52921973979638,-2.1173141917485943,-1.154723716022976,0.9295135651924934,0.2564665388402982,-0.2957808423984587,-0.1149365192713537,,
6.704984000000003,32.84377409326421,53.29625349952645,33.025227701408326,-1.3562641671285287,-0.9450449619394288,1.0500121759027177,0.327971418310571,-0.4493232214800016,-0.1399199727855471,,
6.714492999999997,32.4894585277544,50.53191090743043,32.21000816649233,-1.1948168968231625,-0.8479299856641361,0.8720722513933822,0.2614798558724118,-0.4897746853961864,-0.1073471108003455,,
6.724017000000004,31.378784676552595,47.90429049454948,30.72692234610347,-0.6968167338262978,-0.6442683826924519,0.6076078814976883,0.1507323101038012,-0.524542474909562,-0.1284845805341682,,
6.733533999999999,29.642657913689,45.64604962162563,28.779567075533965,-0.183606724023719,-0.3655303057679853,0.0215762051917365,0.0176770824253863,-0.5106497506484039,-0.1365248253714366,,
6.743037000000001,27.70013940153815,43.87760280815,26.805730302396555,0.4232760456335644,-0.1479943129042382,-0.4646007731420925,-0.0792219203456804,-0.4419611887442121,-0.121268245390668,,
6.752416000000004,25.76768693834818,42.11738646661381,24.91315168655426,1.070453196003836,0.1406986989401955,-0.8702671643535029,-0.1009487514582016,-0.4405318321169431,-0.1150074316878728,,
6.761870999999999,23.919760130697306,39.8910998582817,23.244321595052227,1.6026845865151391,0.4112113307797782,-1.3907647041576423,-0.0730888421454837,-0.5208389471401301,-0.0913004889904349,,
6.771380000000001,22.613215828598207,37.21235242280981,22.105099660173725,1.955455247441116,0.6920039767311837,-1.770096318009426,0.0179652382492597,-0.5737264425550541,-0.0649987412821995,,
6.780891000000004,21.92714295174285,34.18121854348924,21.53293285393371,2.3568631376354547,0.881388670958591,-1.5729094848204337,0.1219875507759272,-0.6048721531934135,-0.0343688460150209,,
6.7904180000000025,21.59543951704551,30.825366332884723,21.30468823720628,2.607478202550264,0.9036704278712274,-1.241354235171151,0.1932174506392253,-0.6459538148433779,-0.0099926987165233,,
6.799925999999999,21.68282893227987,27.38043396303976,21.21205849789961,2.742161670999816,0.7416379974719237,-0.7438609430920228,0.2643308619528788,-0.6372602700653301,-0.0270508336240521,,
6.809448000000003,22.3808705684068,24.21170274851316,21.133676432151464,2.48666709217648,0.6665696289500579,-0.2402624357197921,0.346498876138172,-0.5461477230902119,-0.0765151880924263,,
6.818933000000001,23.31193604559657,21.840982931115583,21.050300955174965,2.126990813347044,0.5234099416898236,0.0852229998849186,0.3308912923377051,-0.3811068784872901,-0.0896124583864436,,
6.828659999999999,24.48530691191546,20.90864922658678,21.08733046378616,1.5396935281240725,0.378701457645183,0.0170669475078861,0.2712507189803521,-0.0955384541509274,-0.0782114715801381,,
6.838152000000001,25.91921762748653,21.5727396877514,21.30191944375196,1.2447696302077491,0.2649950720355201,0.1858375944568477,0.2014228450743487,0.220706752391747,-0.0610493073889074,,
6.847700000000003,27.3599747515313,23.85963992542567,21.840968789380582,1.1835051263338898,-0.0848964092164844,0.2885384316812364,0.079132088343716,0.523621190656652,-0.0034956413341455,,
6.857199000000001,29.24973937431926,27.35424010058545,22.752916488790977,0.4998107212691408,-0.2674451386862621,0.014385455066964,0.0506996801702257,0.7767496703732021,0.0308479498341424,,
6.876224999999998,33.23882710090903,35.92267278628475,25.86805566625764,-0.6338517716654672,-0.5770710695959077,-0.0773593788559478,-0.0940917408750224,0.9624362193582866,0.1988633635227503,,
6.885556999999999,35.46888322432647,40.54746297702956,28.31052358184554,-2.003300168499185,-0.8842966989855138,0.1457103102159347,-0.1076397055181751,0.9842110989460464,0.2507806551739843,,
6.904716999999998,39.18108984869339,46.96702195614783,32.12487486785577,-2.5136828173194727,-1.2471047796177883,0.9745903353192829,-0.0901105130068032,0.5975565539999658,0.1118592637563144,,
6.914227000000004,40.65677172607844,49.63368785479085,34.02938807435499,-2.539750111269349,-1.630663163893021,1.6451188649883337,-0.1266728562259115,0.5546392953991837,0.1606170119832707,,
6.923738999999998,41.11839206503876,51.265775906841576,34.59262137961345,-2.6104968931642154,-1.7982568498375948,1.917493533265584,-0.1355850404587187,0.3030855897043379,0.0414928290785571,,
6.933241000000002,39.98830686792813,51.56455852228491,33.11376500823042,-1.415505886397339,-1.29669796627218,1.4087242362150445,-0.1505117481328754,-0.0289307830585209,-0.1192225308732066,,
6.942757999999998,37.91019604068698,51.60369186592185,31.279451272795864,-1.296055045125365,-0.9115777381951338,0.4874287469854604,-0.2229421172479886,-0.1311208227723893,-0.0412436053806294,,
6.952278,35.25026087934235,50.93125110087534,29.093935581084818,-1.1101950212502334,-0.5414807570662336,-0.1856843237958433,-0.2203332426384923,-0.2838911164335787,-0.0220987534606679,,
6.961772000000003,31.815486823874856,48.74523107718543,26.286315985460902,0.1379490411112559,-0.0992953901711509,-0.6298708155852188,-0.1894141611795561,-0.5935062045770153,-0.0364036292133098,,
6.971113000000003,28.2488890077978,45.86054857685089,24.08604897704041,0.6468784080648791,0.0329634070492065,-0.9847326050857572,-0.1925239524818433,-0.7285245272994375,0.0845066150151964,,
6.980609999999999,25.607945224371,42.743053039376846,22.806958022318472,0.5412207713742412,0.1195205766283317,-0.9679809588582712,-0.0988999582121229,-0.7231014692826571,0.1133453456895279,,
6.990292000000004,23.65406820429309,39.00160053306194,21.83581907425544,1.081105354616653,0.4570650622618191,-0.2836469770722173,0.0107882363749263,-0.8052630983179868,0.0616797619394275,,
6.999631000000001,21.37585696614845,35.146722702731246,21.077270702278213,1.0991769179891178,0.4131378528617193,-0.5893077535300351,-0.0564824664483488,-0.8513661417954744,0.1232302743462208,,
7.009163000000001,19.785921241078903,31.785057321440704,20.615604331004207,0.905878725525311,0.3879540291822899,-1.159998225443628,-0.0087041766818147,-0.7234759208686545,0.0831649224302674,,
7.018646000000004,19.170727540180582,28.58899938176606,20.158749112134167,1.345785621102729,0.7402935044606153,-0.962550607841406,0.123105285196232,-0.6369132426896492,-0.0295031140780219,,
7.028159000000002,18.61900029485376,25.52333165413692,19.60447661498113,2.1072444884342647,0.7809597767141762,-1.167196655726641,0.1162152335993839,-0.6106729653281191,-0.0606943189506623,,
7.0377069999999975,18.85191147501093,23.033207243218406,19.18365745364498,2.618364179391574,0.7605683903873965,-1.1673038518086374,0.2056563388939441,-0.4561617256460933,-0.1034168970364793,,
7.047203000000003,20.083352173583915,21.01937766880313,18.89160295243321,3.061329617557985,0.8715136485725629,-0.5243464338743128,0.3475877282970392,-0.3065802909643289,-0.1509373170226888,,
7.056719000000001,21.35787503396754,19.357252339978523,18.68181139252461,3.209171988735472,0.7485209426525049,-0.4522221644515418,0.3339219418622993,-0.2379112513077385,-0.1300672061836623,,
7.066245000000002,22.89602589728357,18.547938063625253,18.998363815984263,3.0349153827309783,0.3797012843563019,-0.0027909097823777,0.3280741843149368,-0.0588188883733057,-0.069478622345745,,
7.075934000000004,24.816950353161715,18.91899409832718,19.86087136983293,2.25035195533224,0.0237432598143727,0.3875938655908153,0.3185598261398956,0.1915693111440743,0.0236009267523399,,
7.085453999999999,26.78998267953908,20.32244250471327,21.18827093583061,1.0395698087620333,-0.2754669483547184,0.1905381885763122,0.2497105626155862,0.3937657156541754,0.117580639695128,,
7.094970000000004,28.8238713276638,22.819597895714168,22.94248187212324,0.1753938162149496,-0.5833601977208538,0.4615748230383899,0.1630573234380478,0.6056195194623312,0.1965229899653669,,
7.104478,30.754124047802712,26.71365989987499,25.16391855379848,-0.7911492763557981,-0.7639483837263077,0.4401904582688413,0.0031020760182718,0.854967898208239,0.2917016905191069,,
7.113982,32.56140440220068,31.587681344213937,27.53627881773085,-1.7841273527437336,-0.9512293318369316,0.3903242882313551,-0.1489988611548784,1.0148564973623908,0.3174458139331783,,
7.1235050000000015,34.05223882278088,36.53062413083169,29.39890206635328,-2.389331858902298,-0.9910454779723956,0.5033997850536812,-0.2533399340665432,0.9881064461639936,0.2267853319755096,,
7.132826000000001,34.72101085521798,41.18709315622547,30.43243801696284,-2.585351159440388,-0.8497220633470458,0.476613144340816,-0.3739378279445767,0.8603704956077378,0.1394823387972386,,
7.142521000000002,34.375482060113725,45.61691823333388,30.721165987802348,-2.679532189822093,-1.1895838480861298,0.924775022503635,-0.494015129799986,0.7383304405756322,0.1192374373627726,,
7.151988000000003,32.86789989178032,48.57497497807348,29.354108395543275,-3.027385772727314,-1.501039884598102,1.5087657241299657,-0.4743499979937692,0.4098093975656329,-0.0525184467440978,,
7.161490999999998,29.89283589612632,49.052149970293854,25.886030809847284,-1.7107048614340412,-1.3016684604693474,1.577518969842748,-0.3918108225842303,-0.0972130628555765,-0.2460215311238082,,
7.170998000000004,26.76309521213949,48.61339584302126,22.77383955233494,-1.5048116767557669,-1.009555364713464,0.983366013949134,-0.3396432126540369,-0.2499488782988916,-0.1513233849695128,,
7.180516000000004,24.12179314632593,47.63374593841584,20.77197304839381,-1.5313825487658024,-0.742699635398318,0.5911554620203858,-0.2550746357035029,-0.3130479886787103,-0.0069990220563329,,
7.190027000000001,21.672165385590155,45.49736862333324,19.40505833750277,-0.7622846396766294,-0.3428887122761109,0.0455904194503569,-0.1698033640628098,-0.5174669037198107,0.0825446324427657,,
7.199534,19.6639820147882,42.92390459832263,18.822652442561505,-0.1002711692470386,-0.0954871840345115,-0.5791251686392318,-0.1036302471083054,-0.5811670741463263,0.1638077500261598,,
7.209049,18.543083898934565,40.43635450491187,18.818441790831333,0.3283274476685837,0.2921652045460474,-0.6214008834828616,0.0020035184863206,-0.5254878012745402,0.1484046776507199,,
7.218387,17.41048029839179,37.31292458746764,18.582417695566964,0.6577810495208879,0.5589418932962538,-1.078943248272764,0.0332552456530914,-0.6489435189550844,0.0950979498881804,,
7.227868999999998,16.280436239677545,33.5347236481966,17.932069360089418,1.265556534219073,0.647427698084864,-1.5086672726761898,0.0618580966550107,-0.7761271738732162,0.001005169301218,,
7.237385000000003,15.723356312864643,29.66285594860711,17.065039837157283,1.6766751271824452,0.7407203494387432,-1.5594350530551992,0.1424715779282932,-0.7679109434349145,-0.1150738575352191,,
7.246893999999997,15.629243099051198,25.537528510251764,15.988968007404562,2.016267115271912,0.7965116636236961,-1.3243308250933736,0.2189511737950141,-0.7966017099268672,-0.2066226366531245,,
7.256416999999999,15.806688649503672,21.23092567710682,14.87518009544503,2.5649295384226933,0.6976280593120282,-0.988329342255643,0.2608894254487823,-0.8225065505244004,-0.2369980311521119,,
7.265923999999998,16.481865077328443,17.463018521045797,14.12462258552512,2.8598833308814857,0.5612626133923849,-0.4787559612293468,0.3123955367775926,-0.6984310145439594,-0.1950104672335297,,
7.275452000000001,17.52698668457336,14.606424059919432,13.983132355096686,2.809365753757709,0.3592615483851242,-0.1342237843880803,0.3339944268813309,-0.5059654367044086,-0.0861270821034105,,
7.284972000000003,18.911632761979465,12.658233876265294,14.484545159742073,2.7358031722912064,0.1063614634921555,0.2754142669698947,0.3570648101492762,-0.311820390998242,0.0350341450991336,,
7.294668999999999,20.521466549890384,11.821252623800724,15.82431065035075,2.646596589292177,-0.1071526036169421,0.8879563327570328,0.3480102433334239,-0.0786724791570459,0.1523003345535425,,
7.304002000000004,22.021512105802085,12.428671430007055,17.57314089367808,2.051267360617281,-0.1191341667383107,0.1492545663638193,0.2460091241538613,0.2012314870253049,0.2521906292831719,,
7.313698000000002,23.803497414264964,14.563282241063067,19.466727341899283,1.5183447374567085,-0.2152509182150638,0.0217534847246283,0.1927887961843687,0.5156085568166923,0.2753943341909201,,
7.3232050000000015,25.758014362372307,18.18762726178155,21.236579977074182,1.055952248732393,-0.3110017459727429,0.3192703907407241,0.0994309458255686,0.8109387018466728,0.2353816401595147,,
7.332743999999998,27.22791708186698,23.093190974841225,22.64911786329136,0.3292802158659137,-0.2960361962187959,-0.1633823082530345,-0.1114680877633127,1.0139320939674004,0.178853363325388,,
7.342237000000004,28.246195974620427,28.96500570579656,23.675083241145263,-0.4750084769461438,-0.358307160201009,-0.5575297690426618,-0.2939035208522608,1.1529436757140548,0.1157240452213059,,
7.351570000000002,28.86003656644605,35.22550053423849,24.15000179152228,-1.386754938596573,-0.4752124881523891,-0.4717655815282349,-0.4113140445127605,1.1886183294063806,0.0592393262332839,,
7.361035999999999,28.584351627256176,40.84659450804694,24.136019838289343,-2.19396837162756,-0.8530647143364155,-0.0216983536783806,-0.500011430513324,1.009209255355792,0.0312244093457856,,
7.370542,27.428981825697377,44.94642393770258,23.43668703694314,-2.767350206372009,-1.0067056376454455,0.1026854272657493,-0.4861636962414852,0.6827387398120047,0.0175332230100333,,
7.380164000000001,25.97611843846687,47.9110808674966,23.015311438655413,-2.6306234264533743,-1.1756350495541523,0.2316781473907131,-0.4183357913045079,0.4663637807503143,0.1264308533296876,,
7.389761999999997,25.322480611167222,50.115035536387865,23.78470619011813,-3.131122882741598,-1.649048928517611,1.1391588997329358,-0.2540355511850997,0.3708903978290984,0.2528207736322393,,
7.399265,24.983853636039115,49.88272177309193,24.49103627877729,-2.4288537864368225,-1.687998155872344,2.121140229894326,-0.020751002970942,-0.0602691645117461,0.1933562734001339,,
7.408760999999998,24.33594456766239,47.98785401277228,25.07828911998851,-1.287793686239602,-1.4008897953462445,1.999535962481349,0.0816708490145993,-0.3801680396182506,0.2153794483159166,,
7.418277000000003,23.93195423877169,46.56604222170574,26.222201667669864,-1.9341102549986684,-0.894542251290093,1.081042807740904,0.0737576673040667,-0.2803825452126379,0.2884434778733177,,
7.427784000000003,22.942409365018225,45.5061084779545,26.94142627368533,-1.211932463042845,-0.4043196665314459,0.9157462191228414,-0.0280439262431977,-0.2513313137439332,0.2866037876537589,,
7.437303999999997,20.5742440296679,44.28729958167013,26.47316668540559,-0.5847596665923747,-0.0687653719740123,-0.0172397215354013,-0.1903876138126058,-0.3689143196190887,0.2409318345556714,,
7.446618000000001,17.616378889736552,42.71115322327656,24.900761227592344,0.3891956742431563,0.2224596007891996,-0.8736930063944505,-0.2503728779620955,-0.4705131401824298,0.0928956987075851,,
7.456138000000003,14.933162529762567,40.79150279379103,22.74573244850065,1.0065975614788494,0.70391177657275,-1.1247930885291098,-0.2114355886588325,-0.513410592571043,-0.0736343292428227,,
7.465657999999998,12.11754832087892,37.98859927589946,20.35933544555608,1.370225795423384,0.8106866834752974,-1.4541352292521237,-0.1991340141900543,-0.6818896874834601,-0.119865663408681,,
7.475161,9.825797584147296,34.25679552878864,18.30359165328522,1.7892776902407284,0.6969363981169648,-1.530680990425828,-0.1024939881281608,-0.8276544308110584,-0.1408679931425366,,
7.484665,8.843825981301077,30.23502450561778,17.094035146817166,1.9246565067436885,0.6696408320942285,-1.3363768752111411,0.0863496903294301,-0.8176647435392054,-0.137148454167712,,
7.494185000000002,9.023506002290896,26.278406202494377,16.835339020522532,1.9574493683805785,0.6372914411533466,-0.9392550954337566,0.261461366925072,-0.7484663699627754,-0.068809829235186,,
7.503675999999999,10.134497365961352,22.58285872730297,17.38064558177592,2.16108295302276,0.5456949587181632,-0.7355234999033942,0.4112507379299738,-0.6475626934041391,0.0171245208593445,,
7.513204999999999,12.121684489622645,19.59438840192127,18.498562508959303,2.342181117512355,0.5684660980259355,-0.4838895276641653,0.5374916534384543,-0.4548396938110337,0.0805825973446067,,
7.522694999999999,14.387469030493882,17.503902076957647,19.86327928623728,2.4949590782379136,0.4693843128039325,-0.2820720917495971,0.5437271789400877,-0.2539520163437402,0.1288558850323935,,
7.532212999999999,16.75171919163368,16.36597554741674,21.201235164834035,2.592891274641044,0.2486471265204412,-0.0729877811764023,0.5039746583582047,-0.0545011237097982,0.1299525213439404,,
7.541722999999997,19.365247647482807,16.33399722763723,22.336925078815003,2.408183927175876,0.1504272314834722,0.2418984073854239,0.4686766043251075,0.1802708565748041,0.0800445088345813,,
7.551453000000002,21.572668591172985,17.53984349657783,23.154878657826124,1.9904874314176648,-0.050166169957309,0.2588087871473632,0.2965820683324655,0.3861001178254903,0.0349891489515106,,
7.560780999999999,23.24948253993673,20.07154202804764,23.71106706349536,1.364636504061872,-0.3194883001761438,-0.2619472212797001,0.0900539278341965,0.5914448308154096,0.0030991465326404,,
7.570444000000002,24.927126806843656,23.99239334482094,24.262882482785265,0.8592672629055456,-0.4573988354705572,-0.1800757347389571,-0.0345818976366297,0.8437763525387769,-0.0155939931573683,,
7.579984000000003,26.27537797248834,29.12149293098788,25.052574969740853,0.1221536478778056,-0.5214247492918417,-0.3909957349620697,-0.2088970838834001,1.034020500546136,0.0372684391337744,,
7.589306999999998,27.330017639082293,34.94313383151247,26.264606626849496,-0.7376867121434466,-0.702862906477342,-0.6158835102739093,-0.3432734673297146,1.1281745592456731,0.130408652202687,,
7.598793999999998,28.559446062943497,40.85334244459792,28.039178466970988,-1.888932715072654,-0.793190990458573,-0.6926904849564806,-0.3670859642078314,1.1415757599398264,0.203705815958031,,
7.608305999999999,29.79257312450669,46.10307084373429,30.26337668698692,-2.7565996656529905,-0.9978386631915156,-0.19065027895783,-0.3554763298384982,1.005237467461377,0.275059967709139,,
7.617811000000003,30.52545609153564,49.98220377595428,32.55984391670249,-3.0732305400898783,-1.3324824315906725,0.6991130096145403,-0.3210556872560913,0.7140051392748759,0.3504737903720714,,
7.63702,30.40094803281851,53.28685783888346,36.56443899502103,-2.8141017547230764,-1.7259358913165948,2.336329457584588,-0.1416637288779612,0.1288010449415181,0.4182797933779279,,
7.646521,28.74798778882164,52.17091653103388,36.87302173041254,-2.2700970982756568,-1.433642626150375,2.079663672526184,-0.0270771190531431,-0.2989228143087211,0.3251490000846059,,
7.656039,27.065217291952354,50.81211362991514,36.91322332932123,-1.9858395980323105,-0.984815651177843,1.5321679234654353,-0.0044632185296047,-0.3435024499235879,0.2717005846445096,,
7.665545999999999,25.265935224188304,49.89479321473744,36.74135634009454,-1.6293528609333674,-0.5989617947053739,1.0390791962842243,-0.0739080067863969,-0.2847800451994418,0.2429833804313022,,
7.675052000000001,22.69240506712297,48.44705163269019,35.471336360367935,-0.8416293419152183,-0.1066422346680316,0.3167427390823989,-0.101392962851082,-0.4326584058596019,0.1356446501465538,,
7.6845830000000035,19.63700232856064,46.54299867001922,33.45319652704788,0.0395657093476584,0.4344108969427638,-0.4144178714188744,-0.125123308257788,-0.5481102291019052,0.0470245585494401,,
7.693911999999997,16.576486626345954,44.50902814568093,31.22499218434892,0.4223672877659247,0.5471826320052178,-0.9969828616784566,-0.1449287062725679,-0.5736129903196662,-0.0087508958119984,,
7.7034340000000014,14.14470481979492,41.96960335959448,28.964243365162275,0.7059447753301616,0.5959478998587269,-1.2665626342706835,-0.0519954390152993,-0.617685408730324,-0.1189650094216545,,
7.712916999999997,12.599893096744324,38.71250500380382,26.942794998668344,1.3699511499608463,0.7849726881301546,-1.3008447877235825,0.0974011263536365,-0.6865344801736566,-0.2043598869689046,,
7.722425000000001,11.974236728612846,35.10945060026605,25.512746622451072,1.798651892674842,0.7114632637708562,-1.3522654949431263,0.228952398907026,-0.6913981436494374,-0.2109801629224425,,
7.731949,12.471477115165666,31.309486943942048,24.810591604844458,2.024484738243483,0.6526087691654063,-1.3876645631492066,0.3988900162259606,-0.6532085587239018,-0.1950687466536831,,
7.741450999999998,13.80228839190349,27.34984403829652,24.763222565922632,2.3204576650985898,0.6060274021079739,-1.295114381994511,0.5432968825190317,-0.6223125447576414,-0.1400227580017319,,
7.750951999999998,15.80197215352004,23.47241849616477,25.26699465270353,2.723124756463878,0.4731230810674736,-1.1055915770683322,0.6560140165912022,-0.5504809559101456,-0.071019070554291,,
7.7604669999999984,18.653304565177034,20.0544959547688,26.25674103289661,3.1266444357785,0.4702300046991774,-0.2450177850742574,0.7749270356864313,-0.3857053176623291,-0.0136312829851219,,
7.779490000000003,24.420408507313457,16.190581122808307,29.439007393171423,2.5131404599503244,0.0236356725134394,-0.2335977423455873,0.615867531333007,0.0317002686068564,0.1884154151871357,,
7.789178,27.78139571338321,16.11929713233381,31.48463244766268,1.7649807420784591,-0.0816592033459419,0.1646178082684158,0.5643733024769915,0.3153829680895956,0.2222290852522956,,
7.798718999999998,30.633603281086824,17.46362279334261,33.65342967309697,1.0583660419302194,-0.3362590572674895,0.2534801115332705,0.3158912087106467,0.5211029854014553,0.2691510434049244,,
7.808229000000004,32.86601319283123,20.3943213194942,35.9622920066254,0.234817681138387,-0.5686775756350396,-0.2254374006275609,0.0122763279248491,0.7231136261147075,0.317110236628257,,
7.817757,34.80239252065437,24.42688974416452,38.218058736083,-0.3678353469217817,-0.6898540741436948,-0.0954342081666936,-0.2013722354108611,0.8600888701501836,0.2912884050816299,,
7.827272999999998,36.04910407835721,29.245904135576748,40.25063022891769,-1.0172971497798304,-0.7597187504167278,-0.2223047938703978,-0.4380578219310692,0.888062283715118,0.2842327611764424,,
7.836593999999998,36.83281837245445,34.39330132442413,41.988439892785856,-2.3632498760856104,-1.0651765093217034,-0.2148529968250385,-0.5776275625056554,0.8638757866597688,0.2557273718266502,,
7.846060999999999,36.603813466488674,38.60373733559885,42.47164717440519,-2.9770813139125325,-1.270127643626699,0.4360501048965212,-0.5938917964921273,0.5994292506430386,0.1239802139643043,,
7.855581000000001,34.96454493628264,41.63008373396512,41.771684010790366,-3.335625464353999,-1.6943020517633565,0.6857944877656499,-0.5925544709886553,0.2810361534155834,0.0713992429150935,,
7.865268999999998,33.041164605962365,43.42489723864083,40.46723284374384,-2.905189897092694,-1.8661394417774229,2.252203322917844,-0.4500937567407249,0.084048085740167,-0.0008266117443475,,
7.874772,30.23007518328712,43.84623701354326,38.69846708892963,-2.121318333511611,-1.438316723464846,2.709538229936465,-0.3676664372808554,-0.194544648779701,0.0342932269004637,,
7.884289000000002,26.71768103611156,43.89999521415451,37.37805558731751,-1.798324044806899,-1.1141541271180484,1.81811905649992,-0.4058797525311877,-0.3038839711219448,0.2230662244634269,,
7.893796000000002,23.62616468398173,43.947383747427615,36.786331920645495,-1.4990151482916108,-0.775456937275004,0.8993903528167686,-0.3613764211340245,-0.2612425606563621,0.3109251137168708,,
7.903306999999998,21.04947721901764,43.52563828568958,36.45986422223027,-0.6166341330110813,-0.0705341113908365,0.1389711898502504,-0.2487937371522028,-0.2901184586841406,0.2913054995295154,,
7.912638000000001,18.79117433298852,43.00689099475517,36.376642028914944,0.001239347287587,0.3383829241134088,-0.8206175887985447,-0.2032938031876104,-0.2790335275065512,0.2932404700796305,,
7.922152000000004,17.202335046877362,42.57417597254665,36.47491780308168,0.4563718936596215,0.54621731223269,-1.3720082448510993,-0.1363968552267557,-0.208323000560974,0.2357776324617193,,
7.9316710000000015,16.266975319474803,41.78660090779124,36.454479679113376,0.9671619343821064,0.8644380136433052,-1.248337073124897,-0.0178936866379461,-0.2092929416505509,0.1216585490460127,,
7.941164999999998,15.44260196713218,40.26375348078107,36.171870009017205,1.3844734536559071,0.8981467538790381,-1.1732928211539708,0.0802189208019601,-0.3194253958920461,0.0517633747203503,,
7.950685999999997,15.02868962400666,38.23558620091947,35.863781091439336,1.549106004974693,0.771529667660951,-1.2726486109406148,0.1868763588891649,-0.3661862740380429,-0.0092424228245741,,
7.960191000000002,15.244873142532503,36.06431820019492,35.779864085900925,1.6474090463191926,0.6586926690994382,-1.0615168944867228,0.2824065572160644,-0.3323021426840606,-0.0429406970721039,,
7.969701000000001,15.841206078812082,33.61309029481788,35.89170594695307,1.7555108940738264,0.450181227562885,-0.9145671058045338,0.366782459231975,-0.3404930131109523,-0.0458236734097176,,
7.979213000000001,17.031717201603445,30.83843104473303,36.184586429393605,1.9131644013035884,0.5009711777787758,-0.9588194588407106,0.4898912598207277,-0.3305611482932726,-0.068493536310658,,
