timestamp,roll,pitch,yaw,acc_x,acc_y,acc_z,gyro_x,gyro_y,gyro_z,markers,motor_input
215.51606999999998,-16.477574676067324,-11.25176182404816,-146.03121900777765,-0.24632681630717343,-0.3307919139154264,-1.2891303818641664,0.25545534876135284,-0.07965783647751444,-0.08606409656804828,nm,0.0
215.52557700000003,-17.276798731495127,-10.060738770282509,-145.75604427713807,-0.10783071428582432,-0.23142342816390127,-1.2364104236312707,0.2520569661222973,-0.10112016483153707,-0.09354536468520741,nm,0.0
215.54464800000002,-18.73626748907799,-6.999032615863786,-146.20006417678243,0.10608217504192556,-0.14983925105686852,-0.7808552036580125,0.2939868190391742,-0.1964164613964645,-0.051418730533247685,nm,0.0
215.554155,-19.42768475573549,-4.84372906907571,-146.19907840851974,0.19494692104856923,-0.1664253714576615,-0.4931299281189059,0.3421571356090496,-0.27507065857078133,-0.01422509991544278,nm,0.0
215.56366599999998,-20.051577203352753,-2.219099975556041,-146.0410694506813,0.24173787187174495,-0.15719041888747726,-0.24687257632052267,0.3841229758846124,-0.359874646451631,0.023638659796680672,nm,0.0
215.573182,-20.42056364724813,0.7634602614895304,-145.75037518721288,0.3507051620120202,-0.12361855797513917,0.11939472395132757,0.38365263049855186,-0.44620790386489584,0.056704337385872855,nm,0.0
215.582506,-20.329466110804418,3.9364958669311654,-145.36460505379284,0.5101004633589719,-0.02419972519711444,0.706577711279766,0.33191398095431557,-0.5274786783883029,0.07554799088284055,nm,0.0
215.611052,-15.324129798270711,12.496702792636453,-143.54030360309247,0.9523328536523267,0.0787811944347977,3.0085144014629166,-0.1245468285931966,-0.6844482753239478,0.0446919603529914,nm,0.0
215.63007000000002,-9.913643464665345,15.892724529734021,-142.31342022491262,-0.007173155877075881,0.485960558212215,3.1185410091246055,-0.2773714018033042,-0.5697160719919072,-0.04922931086061242,nm,0.0
215.639644,-7.141870865840073,16.906979603989235,-142.0570024076587,-0.28494144194547555,0.3878241925929705,3.0321906601296655,-0.307701601632198,-0.4803835727865816,-0.11048731677245179,nm,0.0
215.65866400000002,-4.663974999965412,16.566339547775794,-142.3345255112629,-1.0473215322426437,0.3250284754670045,2.468709982530223,-0.19041014760487077,-0.0013512845942746435,-0.09705290539252086,nm,0.0
215.66817799999998,-4.806613036836443,15.584175326770024,-142.62886456490932,-0.9120218637174462,0.24492498233635265,2.0657005599310114,-0.10940122702223513,0.1792124640644832,-0.056464182590962045,nm,0.0
215.67768700000002,-5.882506481652421,13.953769727670728,-142.86398131801533,-0.6722328152671911,0.2271241219303719,1.6049756309225387,-0.04337615158665406,0.39245706218706744,0.0027782335345967607,nm,0.0
215.68720800000003,-7.486716148963634,11.723534725365706,-142.9596211972177,-0.4010035705948261,0.0748643336850375,1.325129998905451,-0.03126737625984665,0.5515424827496683,0.04770477112295227,nm,0.0
215.69671100000002,-9.437594258280708,9.300919785745796,-142.96269655551484,-0.028023577514452676,-0.01350261848818853,1.0415386918982024,0.002337902669945101,0.6249360773756854,0.06677379609936292,nm,0.0
215.71564600000002,-13.438031016326258,4.322851466978447,-143.05324369645,0.5818857251121239,0.08398895718977785,0.17558797446103355,-0.01535928498336447,0.6393995032760247,0.018431123594827365,nm,0.0
215.73471700000002,-16.40621490717457,-0.5054306822162994,-143.6581757575492,0.42835532158075124,0.23833040592388227,-0.6724858443002871,-0.09475272834681815,0.5204726199255985,-0.0741589890366559,nm,0.0
215.74436699999998,-16.731917596444756,-2.6360542226202544,-144.0811908484439,0.5514334979379248,-0.0955715143259835,-0.6300258944316834,-0.21151647996769002,0.389484311737961,-0.08748758651832034,nm,0.0
215.763134,-16.788670055600306,-6.521638188143817,-144.7775488666952,0.022629034923923555,-0.12218699082841661,-1.0767988344430124,-0.25667573405407884,0.287941269643394,-0.05539728765923168,nm,0.0
215.77257899999998,-16.113975516378716,-8.153042955396764,-144.90196585191134,0.05732901469788288,-0.31552763094106867,-0.9389289590665317,-0.310261356536994,0.19647311768449766,-0.008185744654538238,nm,0.0
215.78208600000002,-15.465423106491953,-9.682468000876518,-144.87447763862627,-0.08968691766073641,-0.20671094173349486,-1.1270165190888788,-0.29371734263477356,0.18325882160395662,0.025132983925722517,nm,0.0
215.791574,-14.64593614156351,-11.174355107346901,-144.72927334361475,-0.12257053745344121,-0.20969393025802785,-1.1195510509313524,-0.31673006722475383,0.15754048914779076,0.05826354268483052,nm,0.0
215.801255,-13.8204672668194,-12.556894759600082,-144.58849149955506,-0.017163296457781693,-0.17385762343470745,-1.0820319048927678,-0.30478790236822145,0.1386217416172744,0.06164634890594765,nm,0.0
215.82039,-12.510733982323856,-14.855919968868742,-143.01864233620984,-0.025920135063141145,0.00697412020443927,-1.2622503621196164,-0.24281806342655438,0.10086487513500657,0.01453169274620948,nm,0.0
215.839399,-11.762797306863897,-16.163226601348143,-142.2214092909332,-0.16072740330275517,0.045608232901400335,-1.308757260302263,-0.11303309863214084,0.050150436377412205,-0.03138315670884658,nm,0.0
215.85843400000002,-11.903656612944552,-16.108834482486284,-141.43511383295316,-0.2768501740726616,-0.0811392996398011,-1.2661747495183187,0.0,0.0,0.0,nm,0.0
215.86795099999998,-12.341081832303646,-15.62230830413347,-140.8087562062346,-0.3214176839586988,-0.15926993382566312,-1.2508058909747413,0.11371418468079587,-0.017009027824608596,0.002659146959627921,nm,0.0
215.877448,-12.926342992423027,-14.858979280580252,-140.183561676068,-0.27082439224000104,-0.23405970822223338,-1.2082788460722114,0.1714802674831104,-0.04002908391209423,0.010182910180105607,nm,0.0
215.886964,-13.661855823626432,-13.912424701305332,-139.66005517783273,-0.2400486520509817,-0.25594726738796736,-1.223386072237273,0.21815987397114123,-0.04724598754929138,-0.0012942288154018375,nm,0.0
215.896468,-14.455460550016216,-12.856707977586401,-139.2057531156655,-0.1743403522855578,-0.27103927472146316,-1.2040243405787303,0.24190860583731147,-0.054000385742313736,-0.023970215300343028,nm,0.0
215.924886,-17.02760878062611,-9.160299983291942,-139.80025616083964,0.03058779334356071,-0.1606792961990587,-1.0738713161553377,0.2851512646996436,-0.08887186859093493,-0.08299396052958657,nm,0.0
215.94409,-18.8234894644403,-5.779009114027377,-140.20717039929622,0.17341425291655335,-0.10228510285737992,-0.7520619232389788,0.36365569889028315,-0.16476605661241694,-0.05541613505836356,nm,0.0
215.95359499999998,-19.584976178488652,-3.6134409309170965,-140.2766091041086,0.3080161770417893,-0.05745802820039184,-0.5556806802696637,0.381143043630987,-0.23051751202223794,-0.026626593480086856,nm,0.0
215.96311699999998,-20.152800495261257,-1.2348263302065567,-140.23880671791665,0.4421327093717392,0.026856379014122068,-0.25301058132478543,0.3788564155472326,-0.2879544934820552,0.0023757520416748537,nm,0.0
215.97262400000002,-20.374887045650294,1.3406967504469818,-140.1226585631952,0.6184575037054643,0.17790738187283678,0.17863552500256571,0.3514070993949091,-0.36199606458941164,0.022670035958313836,nm,0.0
215.98196099999998,-20.092804664163758,4.078954763885566,-139.92878960565548,0.8584879232314856,0.38930446729354873,0.6563198521437139,0.29602514787038775,-0.45082395230976907,0.03514753624885779,nm,0.0
215.991458,-19.278417172371363,6.8488066882472385,-139.59575404463422,0.9946939304997598,0.7107513952381468,1.124213001853323,0.22137522733103845,-0.522676080723122,0.049656834684381514,nm,0.0
216.000959,-17.40940941098344,9.591521836990182,-139.04461872227984,1.0861361945395673,0.9179947306587302,1.5707739354967438,0.06414070351821433,-0.6523964609060366,0.054606983408919,nm,0.0
216.01047300000002,-14.8562539637485,12.328282234682023,-138.34294142726546,1.1016644373058553,0.7176709758496583,2.3179984127410145,-0.02814057518450039,-0.7374591462513845,0.04018695883103247,nm,0.0
216.01996899999997,-12.451966792047951,15.047283433717334,-137.67140409075617,0.379621407596564,1.0779256055602657,2.1177101044878186,0.003988254274333517,-0.7121187727038606,0.016643294661261594,nm,0.0
216.03899900000002,-6.678366178683321,19.554299796351568,-136.7527739598473,-0.7350670299127049,0.26794495264190665,2.235791663605148,-0.11466737707875539,-0.6406331022887232,-0.11136619695262084,nm,0.0
216.04852100000002,-5.091247992010353,20.655744083304615,-136.69797288783224,-1.3161136883262634,0.2247888703504749,1.304494020862406,-0.07777495968379874,-0.3595345841281018,-0.10411154814451629,nm,0.0
216.058035,-4.43836643306453,20.87197288399616,-136.78394356945967,-1.616147396895012,-0.09386263980932263,1.2211386592331404,-0.07092885707092612,-0.10964247546494203,-0.06953270702159642,nm,0.0
216.07713700000002,-6.654685560083906,19.078491441028433,-136.7851222503288,-1.121673271317253,-0.053526232827835224,0.8415873867764389,0.04097001629148607,0.40117171010020464,0.12050673587950009,nm,0.0
216.08663900000002,-8.93919119199179,17.334918295300533,-136.49866490316867,-0.5462836292256369,-0.17420225879323936,1.0613356066288233,0.06403894074105282,0.5575631000190815,0.19551500051824097,nm,0.0
216.09607400000002,-11.95146391579072,15.623271383565175,-136.11685593563956,0.06472204609182393,-0.07585621295429985,0.8947064024086056,0.1689194279125952,0.6525347453145294,0.24354677449792192,nm,0.0
216.105576,-15.362768423662198,14.190959369187116,-135.77032987573043,0.4706959591832309,0.018599047825332577,0.6225202381339044,0.26209166368885156,0.6700848402331969,0.24196464782939286,nm,0.0
216.115268,-18.78915369035488,13.070735436117442,-135.5410244190817,0.7733384383284607,-0.1130959651021654,0.3934316958492537,0.30695423044917747,0.6312788729237062,0.205316648230974,nm,0.0
216.124806,-22.239078146471975,12.275007624190598,-135.50836472050952,0.5272993096095491,-0.015365110271458707,-0.19131420061796306,0.3560109998024753,0.5905722797115974,0.15665140232672056,nm,0.0
216.143635,-26.650684010681385,11.423022928922128,-135.8796406493223,0.5409718424532995,-0.7250783268788845,-0.5163509551197099,0.2004413301700787,0.31855547951507324,0.028124809693181714,nm,0.0
216.162474,-28.68611113709362,10.37322784618742,-136.25752690809165,0.054962997849271895,-0.7313903407872736,-0.9343313211896316,-0.028889392362554157,0.147303007411081,-0.009513026359622557,nm,0.0
216.18150999999997,-27.69861649096706,9.028168976181385,-136.14244597290883,0.029867892006226002,-0.4404466327247909,-0.8057315556253439,-0.21889842064789658,0.008392773781074434,0.0016332239731130772,nm,0.0
216.191183,-26.20716538344825,8.241145935813144,-135.90090125868815,0.23885611694897063,-0.35857239667066104,-0.4888503466497689,-0.3353389633393559,-0.08700736977775612,0.003377111439166478,nm,0.0
216.20069700000002,-24.466739664041718,7.496669794524907,-135.71763988356872,0.35480853317950034,-0.1432921294043962,-0.24199686114149907,-0.3648707471094571,-0.1291318568405633,-0.011463499112629687,nm,0.0
216.21024200000002,-22.5806968869894,6.853103883381791,-135.70391166117278,0.3380457175492384,0.17606013002324772,-0.1552991624373443,-0.3716069272401857,-0.16475708043824064,-0.045199778242590596,nm,0.0
216.21975999999998,-20.290105762508528,6.288945213654645,-135.87478074819683,0.3478426208279324,0.2941249982141606,-0.08547514056827522,-0.4187187730169853,-0.23205095555986027,-0.0879087671471128,nm,0.0
216.22923799999998,-17.984758190961234,5.832497173557862,-136.26680798442624,0.5099010780176653,0.06318603360702713,0.3654285335314812,-0.4072707451914211,-0.24784369700299927,-0.1288826444882432,nm,0.0
216.25774199999998,-13.85090277129848,5.4065779926068425,-138.26433808039812,-0.1277673370731161,0.23423591393812473,0.3744088678421743,-0.18939379257956268,-0.14871313713751422,-0.15863085819369288,nm,0.0
216.27676499999998,-13.334320832115578,5.626200823504838,-139.45856340565638,-0.35941752715107883,0.324451845247646,0.16426710562675167,-0.009550596015614319,-0.03174428608007515,-0.11777086583713081,nm,0.0
216.286283,-13.569857292532241,5.7736541360536515,-140.00867767940295,-0.2592888164961928,0.2942889542353021,0.09416165222814857,0.04213382918584449,0.013448019481938626,-0.10807034537692006,nm,0.0
216.295965,-14.170911264267549,5.824058001826001,-140.63744952305026,-0.15282129538514252,0.3796200497602662,0.07489711520794191,0.08588426582078582,0.07447482848155111,-0.11621483233296549,nm,0.0
216.305487,-14.89130789580665,5.808807649794471,-141.437447148033,0.034189022281753974,0.27968287353294696,0.13809758954587548,0.09700579072856608,0.09859335238020524,-0.14787546659690654,nm,0.0
216.31499699999998,-15.930595229067121,5.826161548959471,-142.46881206005153,0.12131595720764408,0.22151443688221173,0.1261004534496743,0.15259986320622967,0.13107416980240486,-0.18748938030154802,nm,0.0
216.33405000000002,-18.293754645335387,5.957263139404162,-144.7258218281085,0.0015352843290774778,0.02177326962591216,-0.13250812109508178,0.18196013438920508,0.1290827022306071,-0.19699427230145017,nm,0.0
216.35306,-20.067150077999045,6.27098986559432,-146.13660424619283,-0.15124412572009333,-0.0676690066919219,-0.41437332527084886,0.1277612784108761,0.05627552574746834,-0.09448636160039002,nm,0.0
216.409998,-18.707321205855223,7.182981846760959,-147.85295309998926,0.16364018759601795,0.03820680031334139,-0.03819843437116862,-0.06743773408779058,-0.06672299959397186,-0.126170247553194,nm,0.0
216.419455,-18.31735548517033,7.529609189759659,-148.4401849300298,-0.05740713728415845,-0.02272131971894014,0.13395495750410039,-0.041057520247405874,-0.09230135018626487,-0.12933316367312386,nm,0.0
216.42900899999998,-18.09501588491854,7.824649387210261,-148.97301476046016,-0.28015205185252934,0.031244799508746764,-0.05861316275523391,-0.02632293327332792,-0.1300107883125084,-0.11447078393534232,nm,0.0
216.43853600000003,-17.81901285598795,7.92556110112108,-149.29739605501797,-0.33432314820029596,0.03932403878579897,-0.08818209044567402,-0.057824736713304556,-0.11577749200328966,-0.07433043090736938,nm,0.0
216.44804000000002,-17.547560212182677,7.670001233510395,-149.4029924632927,-0.3378536197052175,0.03224436938437537,-0.0028276292151735364,-0.0911878661078275,-0.04829046679344746,-0.03024055895995553,nm,0.0
216.46699099999998,-17.16487521598624,7.406099137254359,-149.63763941731224,-0.005214771266721081,0.16263266563728707,0.14731707293040344,-0.034502454032169796,0.025632139689698387,-0.0411891378962111,nm,0.0
216.495781,-18.81936527262043,6.964044475598983,-151.20357286622337,-0.029842785611144635,0.04934892162990647,0.019492819550644955,0.11416410930231093,0.08399762420555297,-0.10860485442093322,nm,0.0
