timestamp,roll,pitch,yaw,acc_x,acc_y,acc_z,gyro_x,gyro_y,gyro_z,markers,motor_input
223.50467,15.701050156676157,-53.789127509760434,138.9318864179707,0.12050603163133503,-0.038980170769368154,-0.6929120766697108,-0.3154185245278789,0.10629053712290808,0.0057688144998231175,nm,0.0
223.523698,20.176120414789715,-52.11767663517673,135.31531655094588,0.19950996883895644,0.06147803172893554,-0.6303603426426018,-0.31002014281320894,0.05550888416799952,0.002061922104367971,nm,0.0
223.53320699999998,21.60581501521078,-51.16707034159294,134.1481107323032,0.09497812728774198,0.12898641826518467,-0.769565451707775,-0.2613246539783023,0.00635834368067005,-0.009771595147193913,nm,0.0
223.54252699999998,22.607921818757262,-50.45587095688823,133.34890818910628,-0.014095952282315968,0.19522364906289463,-0.8978477501966121,-0.19161481236788674,0.007229956170580531,-0.005299998828805598,nm,0.0
223.552221,23.35425212195297,-50.001138302198804,132.82293760455838,0.04353951902635991,0.024917061679118734,-0.8575158231570682,-0.13288342003336584,0.021733646238131493,0.008577640566185412,nm,0.0
223.561634,23.677475743352232,-49.62896433635226,132.45050546690268,-0.12357237810271866,0.035116554619654544,-1.0780405928774819,-0.08415490033336462,-0.005648934036400718,-0.02621115084846563,nm,0.0
223.580654,24.312699782821397,-49.16916827320689,131.55523641039463,0.020942336109261855,-0.18368127775548013,-1.2989133667607893,-0.05705020371497545,0.037699409698726045,-0.04281645879076548,nm,0.0
223.590178,24.739791909291327,-49.201005600614934,130.96273658251985,0.20137041526070001,-0.2975613188453455,-1.2215114567386536,-0.03292799965387037,0.06033837468431336,-0.05514450697873817,nm,0.0
223.609184,24.275952869563984,-49.31731339438046,130.71512396687504,0.29831093164252864,-0.30773459817110005,-1.3749977895310528,0.05458363465802551,-0.025040804365112482,-0.056384074399927035,nm,0.0
223.61869099999998,23.22651362651406,-49.54179836167716,131.42593204501085,0.3375265933946958,-0.2418698999831784,-1.3377627638085412,0.12297677755532674,-0.0593459769640565,-0.018381901462645824,nm,0.0
223.62813000000003,21.673044552852527,-49.8493500099398,132.88131792914618,0.3647194377040914,-0.39277523138488635,-1.1098265187329217,0.17991297431613568,-0.09365661748659881,0.053277265183300934,nm,0.0
223.637647,19.29222973556126,-50.19059721102002,135.0049558419685,0.3384876990281486,-0.43121731085750875,-0.9458092892830918,0.26089530443441233,-0.1589338083562689,0.05924542101864762,nm,0.0
223.647148,16.266666469877652,-50.63576504633422,137.6250655558263,0.14900085922567216,-0.27542415283144583,-0.9172609872665152,0.3397953101551075,-0.18798098228964205,0.05740805292141321,nm,0.0
223.65684100000001,13.102202320592237,-51.252509076995096,140.67753249783263,0.1766237279447918,-0.4391110228481779,-0.5370483396137556,0.38166066427412465,-0.1535143815427358,0.11924017859353406,nm,0.0
223.666369,9.426657556187735,-51.96722612081029,144.16867809193474,0.0975871622007156,-0.4383221474663815,-0.22208411954952348,0.4481991854374301,-0.1511337933105038,0.12272071614337919,nm,0.0
223.67588500000002,5.2075412278514195,-52.72256249625749,148.23759096877265,-0.1362704998867212,-0.26050062044457206,0.016186082498762553,0.5114808739326054,-0.14729872355757942,0.14692159475460798,nm,0.0
223.6949,-4.644116152658878,-54.1087646808244,158.7874421626825,-0.6420597591978667,-0.10357702029518759,0.8262128289589828,0.611886692728178,-0.12600516574381274,0.300894708152229,nm,0.0
223.70439100000002,-9.888544805168584,-54.22975417816231,165.1445149786508,-0.9257564978093114,0.11688467144851906,1.1760743886287852,0.5891525549465557,-0.15366512265877907,0.4241912381142619,nm,0.0
223.71390899999997,-14.222906698979774,-53.86879804484686,171.492720009618,-0.929427457208928,0.0319005816958805,1.9744558032696105,0.48080485360605363,-0.16064770028995412,0.571849783327045,nm,0.0
223.732921,-17.10308049736134,-52.81742432169531,-179.38665403058496,-0.9132212441493288,0.012017107290866665,3.6750340553315377,0.03802398428118453,-0.07023399906542252,0.679282345166591,nm,0.0
223.74243199999998,-15.787030473137644,-53.77535519877146,-177.3769305487956,-0.9494221792622689,0.6945302297417345,3.539219197240563,-0.1685439235318462,0.1997292013464937,0.6178009912605982,nm,0.0
223.751942,-12.911695128904103,-56.09999280583729,-177.03223014309233,0.06717681442532444,0.4265078022430333,3.1812473522283358,-0.3591364316084184,0.46108559020947076,0.5443944456159612,nm,0.0
223.76146100000003,-8.936531848076227,-58.64662885564595,-179.58498199073384,0.5862768479408694,0.530439280327429,2.2269028479513713,-0.44992184787903433,0.5092643351129289,0.16355623868471567,nm,0.0
223.770973,-1.974687922487588,-60.51740532223854,173.95155499470687,-0.176030864975871,1.4462705261159687,0.8617286050568863,-0.6918037354456913,0.4209117435298172,-0.08741420100515694,nm,0.0
223.780559,8.54945802445931,-61.28650361461312,164.78246027160498,0.4015500385973331,0.817030453925201,0.9641975662004137,-0.9831743682381286,0.352547597163472,0.010224612450866269,nm,0.0
223.80900799999998,29.361288251313397,-59.60483980576731,142.54654521608728,0.140990019493786,0.8056640106261491,0.03975604992922057,-0.4592772564203251,0.19473705666192231,-0.20594582088633906,nm,0.0
223.818527,31.18274844738129,-59.301888955470545,139.42747070267865,0.005079422012338981,0.5097689986353862,-0.5048821338625856,-0.1863886345075374,0.0830248455852363,-0.30995140863382886,nm,0.0
223.837438,33.054803766301134,-59.32075595250289,134.64665334195146,0.259430833370705,-0.4862616508509864,-1.3636805979512399,-0.08724821339097709,0.10842785528112514,-0.30335617728803815,nm,0.0
223.856461,37.53672208267127,-58.2566797506356,126.27013044865643,-0.08546541070807999,-0.5959916151005411,-2.152115966929235,-0.3008753447141372,0.13967016879295382,-0.4671099162316097,nm,0.0
223.86597200000003,41.05512324871911,-57.14136223524262,121.48096605784536,0.33992463065595263,-1.0678812110873175,-1.8297980126700468,-0.39707425628397086,0.20199575884019957,-0.36399675450078856,nm,0.0
223.87546899999998,43.54685171361685,-55.98546947867459,117.40911290870508,0.3183570052702675,-0.9204736895527955,-1.8410416485057426,-0.33812558919803154,0.13957429470441163,-0.4000325742697009,nm,0.0
223.89443100000003,45.02314280830555,-55.209735938259676,114.03852408334143,0.4537069105796102,-1.017201196367137,-1.6031279637212288,-0.016118140339654405,0.028174082151259952,-0.12886165531953303,nm,0.0
223.913446,41.204854052442016,-56.86272658056896,117.04957220839152,0.22715634286481806,-1.1144681335532367,-1.6167004887910843,0.3056879649429402,-0.12350042782269839,0.030814538871199445,nm,0.0
223.92295099999998,38.6921811162214,-58.28074142765171,119.5850412808613,0.23909865132852434,-1.3051459817849946,-1.4622694825157858,0.376869479275232,-0.08857646627342587,0.08257677097907078,nm,0.0
223.941987,32.97842950723744,-61.05452812200667,124.92257171050625,0.05636085930131853,-0.9289612537674315,-1.1047702597361397,0.3778197550041248,-0.08412051146913763,0.03916605345212532,nm,0.0
223.961178,25.03461176749024,-63.576395661145284,132.58159446890843,-0.07800311255823868,-0.26600439052700614,-0.34516014048907834,0.4617823144374668,-0.13235788827608072,0.08229570629853969,nm,0.0
223.970698,18.705221450576754,-64.67790801877723,139.39890589839163,-0.14944506316774267,0.038929494238246085,0.24929885728580098,0.54885730259552,-0.21147423147700678,0.2260428092845109,nm,0.0
223.980196,10.283394426389812,-65.05857808952652,149.17648641222468,-0.36132125185580805,0.34360401766750204,0.7536744633459442,0.6229216773899271,-0.3420274624085583,0.4322546262569442,nm,0.0
223.98970599999998,1.249605466536416,-64.32818945173081,160.90279216580768,-0.553821284919319,0.5905127074167233,1.4717647821394502,0.6352595325961425,-0.4447857353434683,0.7138527477394238,nm,0.0
223.99921500000002,-5.6691671538500366,-62.374885694000334,172.6454628616418,-1.056899158239909,0.7082662604337413,2.4281711819327025,0.5102890822205588,-0.5096763429210691,1.1147829328097403,nm,0.0
224.018409,-10.970427398646155,-57.946643947001014,-169.09546813581272,-1.2151020724854624,1.3584569147208587,5.465153217468163,0.2004979338307528,-0.34795802115469365,1.3699592005322325,nm,0.0
224.027931,-12.671224986815337,-57.445041401414386,-161.76602818554133,-0.5810080623699683,0.9830913519952443,4.02860750081932,0.19226270843512086,-0.04131159368765927,1.1833454537434323,nm,0.0
224.04675899999998,-6.2555579060660795,-60.54287456317293,-161.64308380995718,0.9429996659609399,0.8170042580150269,1.9224559422625862,-0.6969751939467931,0.23295835457897404,0.349188910726547,nm,0.0
224.056279,3.1470031949350115,-61.71304516582089,-172.2284663232242,-0.1721629817382294,0.8909698159383062,0.6670035693302867,-0.9466726056462965,0.03272401792620509,-0.465475254887753,nm,0.0
224.06578499999998,16.387486315902585,-60.94476581395951,172.46250009693696,-0.8006857214688301,1.0816410980544313,0.14502400648062952,-1.2778665234059703,-0.14434048080995426,-0.7326129694340378,nm,0.0
224.07531200000003,29.49466639841243,-58.86597599033956,157.19641525150988,-0.00827212574154689,0.8806972539263238,0.7727906481905126,-1.3840856737815934,-0.04382131610705585,-0.7805281285223589,nm,0.0
224.08481400000002,37.83726415300878,-56.51982188059482,145.28888279610393,-0.5365443709779001,1.5591753956788623,0.39979912782288257,-1.0145381224147618,0.03062582644613892,-0.9707654132485246,nm,0.0
224.103845,42.50052076164423,-55.61377458927543,134.96469124851873,0.39714882959884446,0.5654700295671257,-0.2744232740370084,0.007066131057618212,0.11895351552299196,-0.5401270372466294,nm,0.0
224.11316200000002,39.881289182650725,-57.322987693357994,134.38545592650016,0.4048286527404004,-0.17795948143495238,-1.0268256823916806,0.44234645248017407,0.04794833642473285,-0.5536745552856656,nm,0.0
224.12274699999998,36.38140532126291,-58.884236601670715,135.05887380702194,0.2605094935318171,-0.7374448489759258,-2.056157405321535,0.4783982018269199,-0.029591432695555336,-0.4602471333405077,nm,0.0
224.13225000000003,34.72686435121556,-59.30234913017016,134.6204435634072,0.7506632640697454,-1.977751111321353,-2.329733235887719,0.1755540565939324,-0.04797056703101392,-0.37196742919918363,nm,0.0
224.151281,38.63537282924085,-56.16560113069694,124.66017762672394,-0.007914199341579786,-1.713226782108282,-2.4708089444348533,-0.5689351044660794,0.022051369880264012,-0.7074977518627178,nm,0.0
224.160791,42.73156161712459,-53.01596529368016,118.23747677848014,0.15604318886899637,-1.5724683758557878,-1.726336786189202,-0.7872456658250734,0.09033015485383798,-0.6188149898289245,nm,0.0
224.17040899999998,45.191001524573664,-50.036424845569606,113.42322128853326,-0.044108501265721856,-0.7851751807864057,-1.5364451269322588,-0.6712860803645866,0.02965203720679819,-0.5808713195439072,nm,0.0
224.17982199999997,45.865591375046634,-48.5356375268628,111.13574266931116,-0.08150732214882972,-0.16216012002800828,-1.3287881747720942,-0.3118626601000235,-0.018609853762720553,-0.3587138095009819,nm,0.0
224.189247,44.58457240892977,-49.024498598198775,111.93294914368288,0.0005648788392002632,-0.27773926742703703,-1.0118028533104035,0.15279088241229732,-0.10736865668347804,-0.036160362742711324,nm,0.0
224.19875699999997,40.833010766056354,-51.21891666219526,115.71489044535834,-0.1197865140261051,-0.49861331071934434,-1.0935030337466796,0.5958511025154875,-0.24903255785476117,0.1784688638847281,nm,0.0
224.20829,35.27759295152874,-54.34081802261926,121.77095730138208,-0.15880012333358534,-0.9218560708381762,-1.3768283112804833,0.8702494235313096,-0.27526246606145816,0.32498274115254655,nm,0.0
224.22727899999998,22.936513125621637,-59.75726002110278,135.16576425908173,0.22574125938945772,-1.1886027337218266,-1.6609743303456141,0.7667874856621026,-0.146381778389931,0.24610695032947347,nm,0.0
224.23689099999999,18.356825591467206,-61.08237521392583,139.96591145301022,0.14832494332930454,-0.6713613118164709,-1.508636047831544,0.51110264371965,-0.09550778400278549,0.16473287358291672,nm,0.0
224.24650599999998,15.494287288544404,-61.652150629459335,143.35547750234653,0.1782311824495414,-0.1776888756076148,-0.7365834648054324,0.2840865561930528,-0.06686263766905932,0.1772074481759706,nm,0.0
224.26550799999998,10.091568117509398,-61.123870979666336,152.31490667963962,-0.5977711150459333,1.2206495681067042,1.417348050078583,0.18522312677546107,-0.2238579616038721,0.5753492670038717,nm,0.0
224.28451900000002,2.289113006505209,-58.57873212780039,170.8346459999624,-1.6599287023747067,1.808520160498508,5.57285655299566,0.3407563634523379,-0.3532546949121377,1.3699289475193,nm,0.0
224.29422200000002,-4.847341075571938,-58.88688387673002,-176.37053490951925,-0.8177407832130031,0.8655026220455018,5.258595556628298,0.7359970905334833,0.037451665234514285,1.3418831550913255,nm,0.0
224.303732,-10.090816644849154,-60.51122461628098,-166.23601753835985,-0.5641850841569307,0.8115607918603126,2.017715141589767,0.4657834987091071,0.4122925969996869,1.1254417896620283,nm,0.0
224.31305,-9.539426633835953,-63.27935119583928,-162.9757621715592,1.1852425952709924,0.8483224558648675,1.406532102876801,-0.20643690692801214,0.5311652712371463,0.7541036591598347,nm,0.0
224.32256199999998,-1.5224383213818449,-65.34098982890445,-169.05437091463793,0.7029754350421419,0.922527599973324,0.39726852523783673,-0.7831959953204213,0.24226873840822313,0.2347177720450442,nm,0.0
224.33235699999997,12.991541243216483,-65.26270856784953,176.8908021366371,0.3295651032283226,0.7535729618804928,0.4506444998778145,-1.2159699018738017,-0.08732950869797478,-0.16659412486808528,nm,0.0
224.36061800000002,43.693206973241644,-56.95329994373556,140.04038631214743,-0.22803960944832624,1.4861536627655372,0.689094463904931,-0.7770276125147769,-0.08776376287160625,-0.6807692600315841,nm,0.0
224.379644,42.784345253356626,-57.36647502299496,134.09552852614144,0.4191448550464377,0.2877081832868623,-0.2329400906104887,0.30464623040110217,0.026482562848806387,-0.6499006191932973,nm,0.0
224.388973,38.587491407795035,-59.076881641479204,134.39567398431336,0.6044999420343075,-0.7056615583976968,-1.07051514433276,0.5495543866381882,-0.06468234783607221,-0.6544291683150444,nm,0.0
224.39854699999998,34.14645392841067,-60.04191430224741,134.99890954361533,0.5187422749341944,-1.591715081180211,-2.2068767516280623,0.4504053217216784,-0.1706986257003607,-0.645693930244459,nm,0.0
224.40806,31.769406503280294,-59.87783322378603,133.45164285486482,0.696002040162302,-2.4982116795286595,-2.7038389520753894,0.13977949981664536,-0.1798799757251914,-0.7214895890760299,nm,0.0
224.417563,31.785247005465195,-58.59578573705584,128.97195660441201,0.23656000709554997,-2.364637655692835,-2.8158448569138907,-0.19602286512591457,-0.15409038609225317,-0.8940713373536163,nm,0.0
224.427091,33.42193631929015,-56.172714014574495,123.37092366944437,0.09273276447451678,-2.159567813277984,-2.367092760109356,-0.49680887019459585,-0.12985765498463525,-0.8457996092305515,nm,0.0
224.43651100000002,34.613118111455975,-53.32726553179408,118.64243134860227,-0.001786402964224681,-1.7405423724688,-1.6530270149629522,-0.5592631439299205,-0.16160474501219524,-0.7531397077205461,nm,0.0
224.474567,22.282065703577864,-52.989502884538595,124.87875980582483,-0.6743417756893093,-0.5775322467525431,-0.7570709378317609,0.6598845493894484,-0.38106121096692963,0.24015054979544,nm,0.0
224.49358900000001,10.473778379893783,-57.792419823291965,138.5903682728052,-0.07332365893144036,-1.0684127277966995,-1.2180045549361598,0.7912241047830416,-0.085769544002687,0.41017079384127714,nm,0.0
