timestamp,roll,pitch,yaw,acc_x,acc_y,acc_z,gyro_x,gyro_y,gyro_z,markers,motor_input
218.01735799999997,-6.986394069310013,-0.5665928289782011,-132.7483805714137,-0.39098856128436793,0.16254852176734394,2.319789732655956,0.03215808685114334,0.5243857188421921,-0.7815905501331709,nm,0.0
218.02686200000002,-8.993445051621322,-2.7276637854788723,-136.30444702602566,-0.45923449067679556,0.2778933862816361,2.2794191059567037,-0.03997272609267325,0.5943593382351015,-0.7259956065671967,nm,0.0
218.036377,-10.985123729729006,-5.075022822348809,-138.76169522276612,-0.23789202221642067,0.44797874322377024,2.280141294142371,-0.036919404164987756,0.6204275876057216,-0.5209453013234702,nm,0.0
218.04588399999997,-13.145296822555057,-7.327246555525432,-139.72654505802566,-0.08564027756855734,0.704320032688287,1.9865808620371221,0.018261145807376925,0.6276478523180042,-0.24111403504298554,nm,0.0
218.055399,-15.104578958715456,-9.19541243626959,-139.30216827870004,0.32641588761404683,0.7281025590834953,1.5711221434049452,0.039271929789713285,0.5418520409424128,0.02792736361581663,nm,0.0
218.093446,-19.886806380273494,-15.194079605868371,-135.94018004539257,0.4283445582111391,0.3083829549452038,0.07663326484271393,-0.19472730330763524,0.30702275209895685,-0.030544392064859816,nm,0.0
218.10293900000002,-19.830218549720986,-16.98351539541566,-136.8522737879385,-0.012180848785973284,0.09636950084155917,-0.2454305312672654,-0.2682573480569755,0.2569200652364921,-0.17819763053265442,nm,0.0
218.12179999999998,-18.98501959988767,-21.393288133666577,-138.86752268960913,-0.5134535372598491,-0.2757724659685073,-0.18338894133558986,-0.3857031218446118,0.3023602010081543,-0.133045055721482,nm,0.0
218.13130700000002,-18.586507200561698,-23.564132594280444,-138.95221546877977,-0.5148511255659526,-0.27047038517376115,-0.18830564316039441,-0.35428399457406956,0.2846370288057965,0.015248382509795969,nm,0.0
218.140798,-18.32851894655701,-25.34915061046063,-138.21050125831735,-0.16056157895274167,-0.22851912574851213,-0.40539685827613553,-0.2847937016168395,0.24226145025709692,0.1716980010492024,nm,0.0
218.15051200000002,-18.468427385243885,-26.950723875280875,-136.8434159447105,-0.004504426122181561,-0.023349393235401774,-0.8129897571455301,-0.21115419627272952,0.2586007298496848,0.26335042468184416,nm,0.0
218.159935,-18.37029799494101,-28.401648826427078,-135.34959502605219,0.16593857571143553,0.09258572775242796,-1.1868015484441223,-0.2272617800207188,0.20201956485277298,0.3103352957063016,nm,0.0
218.17892099999997,-16.675930802884587,-30.592871097750923,-134.29405998724837,0.43903814181158385,0.09727260820845597,-1.532671920715409,-0.2765763860668624,0.019870792760405324,0.11649115123511238,nm,0.0
218.188257,-14.96268942241603,-31.444890220918047,-135.03756054079813,0.21644040576865495,-0.048970245094514996,-1.4760675934671423,-0.34137443388608724,-0.0847440748020111,0.029829691279925755,nm,0.0
218.245418,-7.782381905988434,-30.80464595010748,-133.97605362696078,-0.2240472366760325,-0.5900676110724856,-1.291931914092296,0.04823802779683902,-0.11752777323734906,0.3615400231395176,nm,0.0
218.255012,-7.425403626063269,-30.10324379789236,-132.5233624584836,-0.01778052055153062,-0.4640317486825898,-1.4662868584370823,0.04618182318833854,-0.13816724101113723,0.32738437426530437,nm,0.0
218.26452600000002,-6.776609178772155,-29.351370351895728,-131.66467821408187,0.09122778682166392,-0.2913484890461707,-1.4466050754232371,0.022138682114626898,-0.18197480493928267,0.23644857341860062,nm,0.0
218.274034,-5.803830786320007,-28.32840187758483,-131.45368180260752,0.1361789105122834,-0.1463141102846896,-1.3155512742426712,0.026103274261956057,-0.2610604741499026,0.13601904656756234,nm,0.0
218.283536,-4.797578760962528,-26.89393219279454,-131.61639911859498,0.01868488998959371,-0.05895938978067242,-1.2066165108708082,0.08264892218480331,-0.32167562797531507,0.06026864974468168,nm,0.0
218.30266500000002,-3.679417158790568,-22.984404344781744,-131.2686251130514,-0.21171009128068982,-0.07235791212215391,-0.7964862107452639,0.2597843721823925,-0.3232503133876162,0.11060637080030761,nm,0.0
218.340701,-5.884463696798776,-12.894993636149648,-124.6641274530626,-0.041848953277916455,-0.19860554359594787,-0.44656844023324865,0.4848046330523412,-0.20916007521732374,0.3526866395852409,nm,0.0
218.350221,-6.099872934862195,-10.361032185407065,-122.99464151707483,0.08421592807195034,0.03049669215349224,-0.08844918331371643,0.43106797420535425,-0.24659060680234082,0.3231005347543787,nm,0.0
218.35973900000002,-5.843417697657061,-8.189171854660128,-121.70795641541632,0.1819532210514301,0.3050485460203256,1.1216937343605682,0.3263536050544425,-0.27498412749208395,0.26314111228217996,nm,0.0
218.407273,-3.688561524824033,-6.4202663183649715,-123.72577396409085,-0.30879669004576704,0.21890717547901267,2.790619544333274,-0.1309869979602853,0.13971289560282021,-0.36548009307584345,nm,0.0
218.41676900000002,-5.107235243240436,-7.4856697031869714,-126.04515845298425,-0.6589679979887814,0.2847460003927877,2.2192581368829307,-0.02750001437856338,0.35497096808565287,-0.50165163006339,nm,0.0
218.43581200000003,-9.191763047347301,-11.613425266472676,-130.66203545657575,-0.2638217654609107,0.09194435026677483,1.9789924642271222,-0.07138564009771806,0.6679738226629929,-0.5272516985688888,nm,0.0
218.445322,-12.09922721663371,-14.023209684168524,-132.2750017880733,-0.07985493002573434,0.4937183233827288,1.470889902536917,0.0006972700441722127,0.7483479632674102,-0.4527026463480751,nm,0.0
218.454827,-14.811245061287273,-16.34506441518423,-133.0250791881122,0.5360652781519558,0.6475966263064085,1.0653870249839053,-0.00047854900241552756,0.7042303982670008,-0.2922592325120844,nm,0.0
218.46433599999997,-17.879903877802843,-18.36047156748659,-132.938288961219,0.7793091999066408,0.78360017973186,0.34253054246423026,0.09109940020265099,0.708126314509595,-0.1649313812251551,nm,0.0
218.47384200000002,-20.97718727229064,-19.7511607563252,-132.31033404853724,0.9112680177953099,0.8572348254540296,0.014546802619186368,0.17861903446063565,0.6239071684650184,-0.07503301512317541,nm,0.0
218.48336200000003,-23.401194191063805,-20.44051774505372,-131.62992120885113,0.9432271613308779,0.6551974587232033,-0.2867746908940188,0.1887973468183313,0.43522495498909697,-0.028209163009637904,nm,0.0
218.49288700000002,-25.036614306048573,-20.725780865563458,-131.38549131453223,0.7778609818857012,0.30731941664296497,-0.39200188429670824,0.14706492513963537,0.2714880748051703,-0.06345086773220966,nm,0.0
218.511896,-25.840777051448537,-21.315386289335898,-132.8855828915596,-0.21082147447079672,-0.3748321877634466,-0.627187531972511,-0.07141557026001626,0.05521346167561298,-0.20560189270898568,nm,0.0
218.52123400000002,-25.401648675191428,-22.19441324048084,-134.0521787771192,-0.5086970743158091,-0.5832328689890789,-0.5233532214818624,-0.1969745579118038,0.06656034465758644,-0.19799037715983714,nm,0.0
218.540271,-24.202492300703423,-25.189675654102242,-135.07339354334178,-0.7604611594133902,-0.5371406003211514,-0.4375106045947682,-0.31822273710496146,0.14111999214256182,0.01114753838987174,nm,0.0
218.54958100000002,-23.283557178995995,-26.54816171306032,-134.73158736225764,-0.5171362208035523,-0.2729699114536514,-0.7295351904705079,-0.3225626755271706,0.07967104458820565,0.1516592001702553,nm,0.0
218.55910100000003,-22.150053838634168,-27.837573076567836,-133.88613266838018,-0.1375410576501163,-0.0820218574667594,-1.0711016332045373,-0.3389109809117689,0.04057615381130712,0.2758255571775985,nm,0.0
218.568679,-20.959234738386755,-29.03054855582659,-132.89043593686748,0.14401252513763219,0.12483769034148762,-1.2927942931935088,-0.3308949687393146,0.016121183178670416,0.3156041218250285,nm,0.0
218.57818899999998,-19.452686831536116,-29.845806645275076,-132.1933572344336,0.27943014077323247,0.2651768825326335,-1.560288493037675,-0.31128219935490253,-0.07905609146832665,0.2903606565461515,nm,0.0
218.58769500000002,-17.545948401013952,-30.224618349290417,-131.98958967794724,0.38308943947803226,0.29654460072404987,-1.6539861571252739,-0.2913296154062946,-0.1905152122678596,0.23413788768651403,nm,0.0
218.60682899999998,-13.45931260101173,-29.751890750931054,-132.5008523399563,0.2126106988864887,0.06579607842455168,-1.0416067091856382,-0.17509500326058974,-0.3196693292266525,0.13782752138112137,nm,0.0
218.61651400000002,-11.811563309616846,-28.66176123777982,-132.5602152943342,0.009389450407728473,-0.10136016524126791,-0.8911077433097321,-0.047571570646211675,-0.35633922136256635,0.15012779827470232,nm,0.0
218.644868,-10.524298451670736,-23.71250961072334,-128.95795519684563,-0.32654245533685194,-0.5956203934678906,-1.1138238688420476,0.27731675677558054,-0.2455764320080542,0.354466746198946,nm,0.0
218.654373,-10.46054652598887,-21.537804244755318,-127.0983537264369,-0.06643134337949723,-0.5834342564613294,-1.153520997712902,0.32170670782181415,-0.27562536714119057,0.37704592082065763,nm,0.0
218.663893,-10.29755269617545,-19.326631566504286,-125.5182046891922,0.0057800237154320405,-0.47545074545000204,-1.2188537392180876,0.32459259371474725,-0.2852857051043165,0.3272878729809418,nm,0.0
218.673392,-9.752253344382408,-17.116061052140974,-124.44459134538728,0.18268033520821889,-0.3638253791631038,-0.9400366676588582,0.2890986061128652,-0.3375019056401254,0.2482638690251321,nm,0.0
218.68308599999997,-9.030763687047338,-14.807398605930805,-123.8741139307604,0.2473021209499149,-0.21709424095165236,-0.6049213150953366,0.2904384406204765,-0.3734174869379102,0.152705273501551,nm,0.0
218.692602,-8.3190645470078,-12.343051882473194,-123.48993439877863,0.12777360168016744,-0.08126925077558371,-0.37930110122155675,0.3197347280097319,-0.38793753602343234,0.10868241160848587,nm,0.0
218.702122,-7.6918576998338155,-9.647499142834157,-122.81825890494872,0.10296685392135434,0.03499701065009256,0.11411413884083708,0.3704560308656305,-0.3975359158413002,0.15627434112589525,nm,0.0
218.71160899999998,-7.278103114805506,-6.650658693326395,-121.48825289299475,0.002630906633663259,0.1578328108891153,0.34711800410614674,0.4504708659489033,-0.38817113090787164,0.2753800461389625,nm,0.0
218.72113399999998,-6.863662822664219,-3.421894508165585,-119.42375317683096,-0.026896199855462714,0.24376491417388696,0.6332385239254944,0.5015812606088559,-0.3987431950010152,0.41745228988408756,nm,0.0
218.74966500000002,-4.332003822564031,4.277204846734977,-114.33717316491426,-0.14004450946900832,0.17118322663513214,1.9849051879326038,0.2596437571681424,-0.24439850143770336,0.11404922346164116,nm,0.0
218.75898299999997,-3.662065416179754,5.019725718774221,-115.57882432467869,-0.3931639903835547,-0.15156319016144018,2.1681562429873926,0.06496963724412841,-0.18420091912188225,-0.2641129583623494,nm,0.0
218.768497,-3.5052723223823046,5.168139123147365,-118.6175774921482,-0.5873756009367371,-0.39712293468724846,2.6247413021747845,-0.001175712727418553,-0.04090175419421619,-0.6158656461154115,nm,0.0
218.78750899999997,-4.922373974972546,3.1468859450146636,-126.8491033543995,-1.2057035297510976,-0.01808983389100854,2.0142006286802308,-0.17547156833860847,0.2862370727070477,-0.8153682169131409,nm,0.0
218.79701300000002,-5.8265427030072106,1.0825467987326776,-129.94308321751652,-1.1223267442312181,0.26003147261623744,2.1729290590093204,-0.22497281923025098,0.4015537246998766,-0.6164348868695639,nm,0.0
218.806542,-6.959003382814625,-1.0883072685128345,-131.47452676584552,-0.9083811817834737,0.780795242602707,1.710313288675124,-0.19502263300746708,0.4586968774698648,-0.3098643078486826,nm,0.0
218.82555499999998,-9.094076992406206,-5.097477772833332,-130.3662543063896,0.23657781675705422,1.1348224374730524,1.33161735483861,-0.14951442648446858,0.42667083752117474,0.19258385533252448,nm,0.0
218.835073,-10.202484082809692,-6.573274446742807,-129.12352618015692,0.45968092497060964,1.145998796775769,0.7064079320992079,-0.09986228926670235,0.3613899165887988,0.22421015659872,nm,0.0
218.84476500000002,-10.984735001093503,-7.757760221302077,-128.41524438639522,0.6395687997327143,0.9038877465560828,0.5105803935506218,-0.10149141600128732,0.2722005213493782,0.12056545040749618,nm,0.0
218.882823,-12.476214357378261,-14.785557355626509,-132.370658046493,-0.5037463106369158,-0.3360714758346356,-0.1943047826033,-0.3239606480732053,0.3305317024134572,-0.2705535902851733,nm,0.0
218.89236300000002,-12.707125204417624,-17.377521006329044,-133.05960123269895,-0.40710708043086236,-0.2939704421517469,-0.2953314490349781,-0.3649455405510888,0.3883503719480338,-0.1509228874059712,nm,0.0
218.90185599999998,-13.128380108829795,-20.04365909277252,-132.99274262028808,0.0058217617051037045,-0.10668317366273232,-0.3666522308201498,-0.34950958960403034,0.42632964633508863,-0.013499487780490461,nm,0.0
218.91133900000003,-14.06387767743106,-22.517580528479243,-132.40050188929985,0.4442124847192137,0.17584686121901622,-0.6850062606931001,-0.25945086877816786,0.4678084345776659,0.051204780696823826,nm,0.0
218.930234,-15.941189463447154,-26.598785555781323,-131.45739636418298,0.9608312172029995,0.3805832198523126,-1.4189997956175908,-0.21405360379459046,0.3482695315558701,-0.004874331964080993,nm,0.0
218.958836,-15.96673260056367,-30.466545272885654,-135.21551757884095,0.33116869587537595,-0.3002157341787998,-1.4422826809147933,-0.21546046539311547,0.09021287806952111,-0.311168571889934,nm,0.0
218.97775800000002,-15.492706648386633,-31.596431628456898,-137.69265238346998,-0.33427594734805816,-0.6795720175983886,-1.1455308802301545,-0.07775512157600564,0.052477077729306654,-0.16218739929113501,nm,0.0
218.98725499999998,-15.731653524711962,-31.652158407793735,-137.51720503830975,-0.2933080457243919,-0.7953349966774844,-1.0817986499366021,0.0,0.0,0.0,nm,0.0
218.996747,-16.384432196535,-31.425834410618037,-136.40511575863846,-0.21291091982774754,-0.7809108813902412,-1.2413617919250082,0.09917861778075433,0.04778767303907509,0.1564082219434427,nm,0.0
