timestamp,roll,pitch,yaw,acc_x,acc_y,acc_z,gyro_x,gyro_y,gyro_z,markers,motor_input
210.50403300000002,-43.00697780350882,-11.945648895450836,-118.97728990281617,0.14164445966594638,0.4054224656891471,-1.4619888274320465,0.03421462542730236,0.31407472522850993,-0.010098878788794608,nm,0.0
210.51355099999998,-44.72476128505695,-12.343666782760007,-119.01576864896978,0.20753173585044932,0.3503524794752441,-1.6146290279320896,0.08049420057615937,0.3338941350972522,-0.07404798410545042,nm,0.0
210.54207,-50.072925813543954,-13.108623503488435,-120.87999227632925,0.03893364427197651,-0.20274106555325624,-1.7895835298656986,0.1316737456215955,0.31264029942245425,-0.2376220422413042,nm,0.0
210.55160099999998,-51.65631687375375,-13.12197155104579,-121.67236429947955,-0.062059298824015785,-0.38460464185481696,-1.7799198265257399,0.14607508964413615,0.267020617111606,-0.22312107024853242,nm,0.0
210.56110600000002,-53.03307092097792,-12.92433709455199,-122.29476185554967,-0.10232625735000182,-0.5134193230584415,-1.7768939117747462,0.16404125042781026,0.208652136514397,-0.1790259435336535,nm,0.0
210.580117,-54.96047510959262,-11.963344925887078,-122.86370212634505,-0.06739016725834397,-0.4236961907720359,-1.8521966106589842,0.16439666511530426,0.07203615402736777,-0.059565317423178415,nm,0.0
210.58963200000002,-55.387229229040194,-11.38924246064587,-122.86224312480742,0.03720616041945199,-0.31561599639557,-1.83914408416665,0.13035289658672441,0.009583168291408569,-0.008991627189306324,nm,0.0
210.59913300000002,-55.39003955422701,-10.856742469535547,-122.79912776246148,0.1864926955386937,-0.1785002785303038,-1.7842877023736528,0.07823589628386095,-0.05574882793555207,0.020490699201575226,nm,0.0
210.608642,-55.01304817760219,-10.369991849278197,-122.77562412666113,0.3436715853139329,-0.06313412633381385,-1.656181826556917,0.030018950791323377,-0.1136057667608667,0.026459258846088872,nm,0.0
210.61815499999997,-54.28541808211011,-9.85159155034359,-122.83048456971368,0.4462617092415431,0.045289092390330736,-1.4884261973058874,-0.002316591861406085,-0.1752708874101291,0.022265534113168523,nm,0.0
210.627582,-53.26692008519731,-9.170407832914691,-122.94172136916113,0.5390365958774328,0.06935981736202201,-1.2734857826047485,-0.006692171460889366,-0.24145454939387823,0.018852256065098393,nm,0.0
210.63709100000003,-51.995074288721874,-8.170593761991524,-123.07129229037648,0.49567560994336113,0.1132305052927351,-1.0890697340518558,0.018521018578193382,-0.3187055092423519,0.019550450511393806,nm,0.0
210.64659300000002,-50.39871293190245,-6.756607396519839,-123.1482087046859,0.5118075236342994,0.06992732662501018,-0.8751325366848821,0.0515419627273801,-0.4187276585102891,0.03278734595570006,nm,0.0
210.67534300000003,-42.753218511927905,-0.42481761808369933,-122.66257996570447,0.614053356179571,-0.029728194130657748,-0.09227791817895699,0.037104085557404444,-0.7908441946582491,0.07612413108231601,nm,0.0
210.69434399999997,-34.456986074396745,4.458276565946259,-122.20616957608357,0.8120767919685152,-0.18940036239931818,1.003636174604486,-0.06624159449103866,-0.9890457809592927,-0.006012624117423424,nm,0.0
210.713173,-23.357499799322817,9.08375250869035,-121.5200746612149,0.30445572407457155,-0.13934235059098313,2.3111710947724817,-0.25871638242440975,-1.268101769363398,-0.08401791989070846,nm,0.0
210.732201,-9.892069704004168,13.775176860609198,-120.04158697296936,-0.9298535646038958,-0.08934642864822029,3.698031813041961,-0.2935615151508741,-1.391469335012559,-0.13187753187244738,nm,0.0
210.74174000000002,-3.2809069901316357,15.768168464340285,-118.97876480494672,-1.639776521889951,-0.2488391287368372,4.229197078723396,-0.29653778034558204,-1.3089912715219232,-0.130810219667697,nm,0.0
210.75124100000002,2.060942947594201,17.31814102313257,-117.91766097782488,-2.3185334252067182,-0.2742152196342917,3.873897663983906,-0.22807128383338998,-1.0479256798962289,-0.09928117857917794,nm,0.0
210.76094700000002,5.661094167834933,18.384221252040184,-117.04562724043005,-2.5521260945721944,-0.26390982694833615,3.253669731449919,-0.13917278989831586,-0.7058813753375074,-0.0542038483503988,nm,0.0
210.77046600000003,7.094264001906732,18.743167740287035,-116.57334807558334,-2.49935175671189,-0.380836918558672,3.0951411391300856,-0.07020741141812234,-0.2738959744067791,-0.004830419382193574,nm,0.0
210.78948599999998,3.243738149385667,17.12085412724234,-117.1735010129146,-1.4964368062204756,-0.4792269753447835,2.8262216760761847,0.030751569573616785,0.5956847564274524,0.06062010735123799,nm,0.0
210.79880999999997,-1.1776933679006685,15.440265115426557,-118.05877245220685,-0.5878782521335422,-0.3965140857082167,2.8359890855059136,0.08318516589094424,0.9101992441593282,0.06492392527731895,nm,0.0
210.808509,-6.736492926750208,13.207126089138942,-119.1177412499224,0.1654577934205529,-0.07578836842049978,2.285905419665723,0.11046733596996713,1.1620834003503062,0.05875659220295462,nm,0.0
210.81802100000002,-12.512842352098513,10.56679696392425,-120.09720412531334,0.8645698939737045,0.1486258894335687,1.9087250014724553,0.08622299999329995,1.2463451671310568,0.03902520555577574,nm,0.0
210.82753499999998,-18.368886986518262,7.839484049747158,-120.85812063683937,1.3398624395535044,0.29691422022072245,1.3378235549091484,0.1028675356172011,1.2756208202268124,0.033575385008164156,nm,0.0
210.837033,-23.863257908396555,5.327853636348195,-122.28088430020512,1.2834730327215187,0.6064251712649888,0.3655471186145072,0.13951568969803607,1.1945704594953646,0.02520492764730423,nm,0.0
210.85588600000003,-32.66097218738615,1.1662148974726456,-123.88608527672561,1.3228388526349328,0.3729832452111212,-0.6620415233715083,0.13518452554119015,0.9236852617488647,-0.005100349242070861,nm,0.0
210.86540799999997,-36.16943110826645,-0.5866960336543322,-124.416435721838,0.8664881606041615,0.3987671070571458,-1.1865953390425434,0.09227407073921207,0.7798551203762412,-0.03974917207625283,nm,0.0
210.87486199999998,-38.7215627051199,-2.3835746242615956,-124.65956981441646,0.7843653492342328,0.21100869570875863,-1.4033284446818235,-0.020269303831696193,0.6266196753954997,-0.05816197230233552,nm,0.0
210.90345699999997,-44.11932838737819,-8.781747027243716,-125.0597385978548,0.2225468067229964,0.04268882530860039,-1.4679260122524402,-0.20070639433546394,0.4849300226733484,-0.04258020691131166,nm,0.0
210.92248800000002,-47.14993248024197,-12.368291806926406,-124.50459551147634,0.1201541762388914,0.20538076303173988,-1.5275478116903813,-0.10854503923284757,0.4313145826601274,0.02432682064985723,nm,0.0
210.932022,-48.74781241519129,-13.467810808002222,-124.03264273768781,0.24743810300211108,0.1947661623717148,-1.5960054556679144,-0.018539598905647128,0.3840060299092717,0.029835715678343606,nm,0.0
210.941538,-50.51898074157522,-14.084071541795637,-123.63855461783407,0.14861290672230457,0.2601428203980696,-1.7690144402732708,0.07732397103438476,0.3570871203831432,0.0017301222787953039,nm,0.0
210.951066,-52.238856895634534,-14.40349433638884,-123.37364832415781,0.1393493368218419,0.19486058382353982,-1.8699782153447422,0.11917215382386283,0.31584518005591206,-0.024053672506775807,nm,0.0
210.96058200000002,-53.87865078854117,-14.596467234120928,-123.31361782610566,0.14224319330301904,0.02302307343717303,-1.9014168021496531,0.1309041779703234,0.2889811830320595,-0.062220164310322554,nm,0.0
210.979594,-56.860453499890895,-14.9002533872827,-123.9254670670542,-0.0978424252885527,-0.2079814477206818,-1.8966535882068636,0.11486750402036137,0.24725373686762514,-0.14345832644967643,nm,0.0
210.998596,-59.10546226999936,-15.11656425370596,-124.6482247773424,-0.14718376190951932,-0.46757260400405376,-1.733721542274878,0.09289720921406029,0.16978577174128012,-0.11045615903675916,nm,0.0
211.00810900000002,-59.964033151548016,-14.899599809749233,-124.92207616786149,-0.21525937333544506,-0.37808157879597987,-1.737326009911119,0.11975220348544016,0.11392899363087113,-0.0902557894041051,nm,0.0
211.02708399999997,-60.91385985839682,-13.611091680822895,-125.02197262557179,0.07238309042694185,-0.24907065195701267,-1.7114339655235637,0.15632611181010217,-0.03045215686102586,-0.0025269655702177827,nm,0.0
211.03660900000003,-61.06648529752213,-12.602423551878127,-124.99143741174784,0.11594106568952106,-0.12146044008140533,-1.6913404152025346,0.17179073435134198,-0.08948709683054905,0.008310103502278364,nm,0.0
211.04612699999998,-60.86479019599078,-11.420372503258626,-125.06839045396231,0.23275602164006523,-0.057002644855487096,-1.6473448092910035,0.1602966749765237,-0.16633723980851675,0.0020008077640067583,nm,0.0
211.05563700000002,-60.37942672889783,-10.162486764267415,-125.24383724302652,0.2972698191694559,-0.049019151979199205,-1.5443110892777745,0.13994717827526518,-0.2213163371293886,-0.008111634671138186,nm,0.0
211.065143,-59.63120590843841,-8.862139044382376,-125.46283257054233,0.25917859644046976,-0.06741440213260384,-1.418977836654273,0.11565244943957531,-0.26948017202750213,-0.010509336743940277,nm,0.0
211.08409400000002,-57.31029481800036,-5.847427740473072,-125.90253481127839,0.16335412957689677,-0.19225974579673097,-1.1232123140743455,0.09822317234032389,-0.3960456158976149,-0.002962718687936528,nm,0.0
211.09359199999997,-55.74052273311641,-4.018664285991228,-125.95628171850507,0.13994060708429057,-0.21561892335991242,-0.9570639451211366,0.10069282657727778,-0.4669781661547845,0.02368667986638005,nm,0.0
211.103284,-53.75064011714138,-1.9861358446622444,-125.76849166075874,0.09391857108230345,-0.1635378393543392,-0.8005131077121744,0.08428884177589051,-0.5595406507479965,0.06529074986562718,nm,0.0
211.12229599999998,-47.335129123002964,2.612300231515183,-124.74929035994143,0.2772318253619481,-0.0627877530705753,-0.33486764292829646,-0.048976726493998736,-0.8795794301559746,0.10568583211264042,nm,0.0
211.13182300000003,-42.47080857884901,5.07309637985458,-124.01048023742644,0.7248941000281989,-0.10686044098703874,0.1984485727149213,-0.15604642999207607,-1.079114402363213,0.08629280363483723,nm,0.0
211.141155,-36.83555968348655,7.514249828831171,-123.18541506741487,0.8881820996279869,-0.0039649774157397705,1.0675412924076852,-0.22784722964238757,-1.2034700560861404,0.04360688073364279,nm,0.0
211.15066499999998,-30.246123477235763,9.945972039963747,-122.34418904273342,0.8402002946660344,0.11660603750125456,2.1201398639804485,-0.31100026498831307,-1.3588203528790852,-0.031491511400124406,nm,0.0
211.160157,-22.727708453127793,12.375331826206226,-121.5808808734972,0.6852287322701616,-0.0164262362899147,3.4496899220210784,-0.3838990031002421,-1.508994784989803,-0.14017389701071317,nm,0.0
211.169684,-15.076582541792543,14.68310339387143,-121.00678932405226,-0.18709674794928594,-0.009498141103996775,4.10310536320437,-0.3932165696502312,-1.5110611103063294,-0.24690993117416715,nm,0.0
211.179185,-7.7298896044525565,16.66789898776449,-120.65981376786468,-1.2801351662674458,-0.10813929163467582,4.288786254839071,-0.39839288357228625,-1.4179133892949245,-0.3330950534260225,nm,0.0
211.188724,-1.2717353698356448,18.19368360903655,-120.53978082910314,-2.236705548120075,-0.36468322439759,4.298278125688017,-0.37790617838820334,-1.2153918458965156,-0.3697893587739272,nm,0.0
211.21742600000002,5.757010405675702,18.73025375319153,-121.18216866046355,-2.472588172919271,-0.24840979294297383,2.8430181175164986,-0.12709698100506533,0.08609449075042228,-0.07460028532620949,nm,0.0
211.22698,3.363185260478405,17.116282810058127,-121.65531632571935,-1.839048997611063,-0.13910114857102826,3.0573186697319734,-0.0500586236890651,0.5598713306244316,0.04564736723992551,nm,0.0
211.23630699999998,-0.7737652524599296,14.988071288257375,-122.19255158560792,-0.8125304695393374,-0.024092155654111522,3.28841502119772,0.04684505655062511,0.9030798829637281,0.11538929733518676,nm,0.0
211.24598699999999,-6.253114728739426,12.64551026252919,-122.8010452193402,0.25965910016207866,0.24949559781210762,2.9229744045233272,0.16394273850347216,1.1525370356064497,0.13546495558551977,nm,0.0
211.25549600000002,-12.36307481683776,10.15389561175401,-123.4435119789097,1.0652548089021874,0.42126775696905244,2.304355798796238,0.22428498718459133,1.2788800009120873,0.11001373908632642,nm,0.0
211.28398,-30.19846764932656,3.68914822633134,-125.06172606134548,1.4883101970954453,0.05404234627722507,0.07438470424180743,0.28772114586101644,1.0792873247492827,-0.002262531471273047,nm,0.0
211.312244,-42.09910905238937,-1.6159140071654543,-125.86712593541412,0.7412514436403727,-0.18411439798838508,-1.294445156911173,0.04587637566103889,0.7142449968653641,-0.031509336337871875,nm,0.0
211.321922,-44.43973064558458,-3.701038711853855,-125.93104661848103,0.6915191450473729,-0.1439021556936314,-1.4610805247717455,-0.07674213683227483,0.6260654100373989,-0.029461506586237973,nm,0.0
211.331441,-46.351223368954145,-6.03779481328005,-125.90290464238153,0.4010666725212555,0.08036566653910902,-1.5711276638272886,-0.16800924628466707,0.5854556435123192,-0.021165566093513444,nm,0.0
211.350451,-48.865273368827374,-10.563508597433753,-125.74092228021826,0.3762402597486962,0.27900388991190533,-1.4689064888597179,-0.22937687765701795,0.4396833436595453,-0.0155372437662072,nm,0.0
211.35996100000003,-49.996198782710714,-12.328728639007084,-125.64454996610755,0.26073931904526204,0.382878626984077,-1.4490785503338706,-0.16964239218774538,0.3890061227068888,-0.018638428976639705,nm,0.0
211.369478,-51.14918899504878,-13.594788934281423,-125.52012574023136,0.24263932411415898,0.3495023711067913,-1.4405661589857244,-0.0871183007698485,0.3330847714571394,-0.01952610633976082,nm,0.0
211.37900399999998,-52.44695145090324,-14.349615640770642,-125.41665383810556,0.1295885090406169,0.3020795117398371,-1.5065396712036805,0.011574258023567907,0.295697356741955,-0.03435695841169886,nm,0.0
211.38851200000002,-53.82374005765124,-14.689817774553857,-125.37336797475034,0.058682847494421965,0.20409001035006866,-1.598245318025096,0.08758798689696584,0.25961767537112723,-0.05248429525363586,nm,0.0
211.407526,-56.641102121897454,-14.826858829362104,-125.4920317687943,-0.06330458475541213,-0.03417708190666896,-1.7494737105457752,0.1417967808973657,0.22874565168243008,-0.08241937362340622,nm,0.0
211.417024,-57.96424933328982,-14.876195439544972,-125.65642657874045,-0.15536460507595856,-0.10547882613522196,-1.7834850553716375,0.13004465010398686,0.21659206591925487,-0.09208773494540738,nm,0.0
211.42653800000002,-59.11043657921486,-14.93260393177146,-125.88742939886143,-0.21642580084643176,-0.13252790265580633,-1.8008255521661267,0.109748146612572,0.189104380496855,-0.0963426009845434,nm,0.0
211.46458199999998,-61.87723981943305,-13.963687729424363,-126.44923318679422,-0.1039397715985572,-0.06133666139343988,-1.6370139510839319,0.1313764524426005,-0.005262549488943265,-0.028327584851649275,nm,0.0
211.47408199999998,-62.03076767503669,-13.087486421182824,-126.55230318806156,-0.04270098593646636,-0.03436475422259307,-1.5957350371490548,0.1483330412438184,-0.0780342254837234,-0.018500720208956132,nm,0.0
211.4836,-61.9891027991329,-11.987351400754534,-126.67669370328011,0.02473733260841292,-0.05188965431080269,-1.5224719793378279,0.16137622707931484,-0.135739488269473,-0.013854460615890789,nm,0.0
