timestamp,roll,pitch,yaw,acc_x,acc_y,acc_z,gyro_x,gyro_y,gyro_z,markers,motor_input
205.00721000000001,-20.87325669966959,-0.2786628281776612,-136.9887440579341,0.09820115249476341,-0.4956263739151552,-0.16244873298577767,0.3342965984622594,0.30260749160647,-0.16319115720355415,nm,0.0
205.016715,-22.89562172581983,0.04359758418386388,-137.57751066156519,-0.080990795888898,-0.7438143246692708,-0.2092428913181815,0.32768507121517476,0.23290857749084526,-0.15494407081126677,nm,0.0
205.02616700000002,-24.719579457717224,0.5921367994421345,-138.14196621424225,0.009688874128243423,-1.3036354567468473,0.0008526486041574657,0.33118083722459385,0.16904509541601032,-0.12777633049329817,nm,0.0
205.035511,-26.89147519055827,1.2817936196687072,-138.59197926608076,-0.23036122664672418,-1.5151824241677514,-0.1588124801634764,0.4035029115635242,0.1911326923496403,-0.09265997858682948,nm,0.0
205.04501000000002,-28.929268003254606,1.9951451214271065,-138.83176776287266,-0.3356259893422566,-1.6835100711935567,-0.29988636457369233,0.38751591808322516,0.16728319157613825,-0.04677099005638166,nm,0.0
205.05453000000003,-30.740536623078683,2.57613378643128,-138.75927650035078,-0.12314121144791376,-1.9612540531922547,-0.2860316475193766,0.335967914160148,0.15684287408009948,0.0013950988294205672,nm,0.0
205.064025,-32.56214736808404,2.896361733565212,-138.47532259686756,-0.1502841015655035,-1.8127599521623967,-0.42808731554055673,0.3023326952538284,0.19828692666440736,0.04184903950499138,nm,0.0
205.073538,-33.91622413125981,3.0168066299664553,-138.0048142779398,0.17049783529887128,-1.8303120559576498,-0.3357253087980549,0.20460166682669967,0.16763830513546066,0.0697882915916384,nm,0.0
205.08305800000002,-35.117182506879715,2.975815525442128,-137.38590092474251,0.4781614072050972,-1.7540912695605597,-0.2693431829649854,0.15849633992437887,0.17283529817118462,0.08355987245979282,nm,0.0
205.10207899999997,-36.953155696599495,2.443160391793215,-136.03665679731256,0.8338757110951335,-1.3210231642156751,-0.1739091234961172,0.04594891025741432,0.15354025782560365,0.08968533369202372,nm,0.0
205.11176300000002,-37.63735668703473,2.054610751805166,-135.22467926698528,0.882386153409942,-1.0792551959036434,-0.15709967466247685,0.029640680229845843,0.1556408936277691,0.08511272745815286,nm,0.0
205.14028199999998,-38.959125727395346,1.5803273303915546,-133.95311391023367,0.5201820037530824,-0.6117178217101361,-0.24782423503827036,0.04860442237170023,0.05648511155243581,0.09561912888337597,nm,0.0
205.14978399999998,-39.309616541796956,1.8088900597390083,-133.50004970353186,0.39795879650097615,-0.48411917677310873,-0.26302785751368324,0.06827247629746443,0.022720693655147214,0.09622145714305312,nm,0.0
205.15929000000003,-39.59019431056688,2.094622496860706,-133.0466626912536,0.37852492542617155,-0.39310760669730493,-0.32337071369790565,0.06682905948308593,0.00519204419546353,0.09615297239465817,nm,0.0
205.16878599999998,-39.935262880065785,2.2974133157844214,-132.64232625136293,0.20160564514120788,-0.11948639752490883,-0.4483119595859098,0.06338743916743403,0.02641976209138572,0.08711580276547176,nm,0.0
205.18784200000002,-40.20198162661933,2.129467899985059,-132.21111206623357,0.512198222029559,-0.009213070961858643,-0.3135311042386315,-0.014694945337491274,0.06437168457934668,0.03025447083270391,nm,0.0
205.19733399999998,-40.56041342488363,1.6523169097304813,-132.3078759255314,0.012809862864152118,0.6281160091469614,-0.46945657613811687,-0.035771255352251785,0.12066825975163101,-0.013290290616086747,nm,0.0
205.206851,-39.70962509556263,0.8963083911753381,-132.4705658371588,-0.036614874730961894,0.989012598431923,-0.3163105558075033,-0.23992509940948348,-0.020299346628341614,-0.0327447000637645,nm,0.0
205.216146,-37.46676781322225,-0.13413496645953346,-132.600158184759,0.04779546081498412,0.9926864859580082,0.17767636208241064,-0.46898204170729774,-0.18784062439793134,-0.025680747502959515,nm,0.0
205.225498,-33.71283641257838,-1.0540997754251333,-132.84190222597388,-0.7208597353266879,1.546441645076886,-0.02125729096640776,-0.6586734285212863,-0.4234641084876293,-0.03804235002241935,nm,0.0
205.24468800000002,-21.765370796612455,-1.8123107019495237,-133.8211691116021,0.12179738040424067,1.2298831805271901,1.309690682086801,-0.8854999347783659,-0.82119518451544,-0.07830909672195303,nm,0.0
205.263717,-12.067754354717444,-3.104830294071789,-134.81876066923576,-1.02824214208102,1.8908046487669306,0.8591456297023811,-0.7820054825287533,-0.6096159702572813,-0.03953951290992557,nm,0.0
205.273227,-7.294320814065609,-3.056791935469096,-134.9840280574319,-0.7748195344329858,1.9428407626801636,0.7627407114936254,-0.6802329285062925,-0.6788489083889714,0.015296618027862433,nm,0.0
205.292065,-1.141125981003803,-2.7483728692639944,-134.413701935093,-0.8585652515439518,2.3776413246502326,0.2710586527879848,-0.36532149067355457,-0.36628036290243005,0.10763994089501841,nm,0.0
205.30175999999997,0.40339434470210717,-2.731916919013733,-133.7078289946477,-0.6555581124873112,2.2241863709854814,0.49218344488873317,-0.22548131503826527,-0.2210027596298569,0.15143914269574363,nm,0.0
205.31145,0.4113990732660722,-2.630717740632676,-132.88187121175778,-0.5620490347870502,2.1196814880763433,0.2814596604029093,0.0006009752664955922,-0.011955215978042893,0.16076239718448748,nm,0.0
205.32094300000003,-0.646731786020815,-2.6823705136536167,-132.08589629457978,-0.5610562849030515,1.7923026291115265,0.3760105805961817,0.12216895939532942,0.16606873168617958,0.14508368587283096,nm,0.0
205.33996900000002,-5.330886292146526,-3.0645267826461438,-130.80682963456272,-0.3512798700636681,0.5880652768450833,0.5157945211279236,0.338068366519881,0.4578016913681206,0.08234079145831469,nm,0.0
205.35901199999998,-12.304204137566053,-4.1115150726890315,-129.88332566272987,-0.02210228243038954,0.02152583453661928,0.032626980343178416,0.3208989190831731,0.6322300153656979,0.04173976396148475,nm,0.0
205.368524,-15.802680306847899,-5.237030641940437,-129.48241217466708,0.32866258577280233,-0.06778372993135047,-0.004726366329497336,0.2585964944754749,0.6842256063324047,0.022217286785504362,nm,0.0
205.37802000000002,-19.316855001289785,-6.536881096372813,-129.1538827008496,0.4207743638356879,0.1528640963532616,-0.3583854996156114,0.22834727053839096,0.7094410796854733,-0.006443640895239923,nm,0.0
205.38753599999998,-22.073201705353338,-7.8613342682524925,-128.8317392939291,0.5073787523452897,0.33648272258439244,-0.6045241503891513,0.12460911148555674,0.5954795262928064,-0.003957215647592062,nm,0.0
205.39684400000002,-23.945195615970416,-8.991782531384459,-128.5474906133995,1.0524198000889349,0.1288350722876529,-0.3886807155660477,0.04129778069622191,0.43394072231294145,0.003235791523833791,nm,0.0
205.406391,-25.732736751764545,-9.77954523861292,-128.41808488451338,0.854487766761807,0.19574534103739355,-0.6569445572311662,0.0825235600654774,0.3776413205393483,-0.03071901371347307,nm,0.0
205.444405,-29.195063501577003,-8.608791228834942,-128.91706308888055,-0.08252870223966038,-1.3770756098715764,-0.28253667217712636,0.21833687333249954,-0.07889977358025906,-0.06648756223374343,nm,0.0
205.463424,-29.32010865718173,-6.680181135000354,-128.61603988116116,-0.44249521119693835,-1.8221431953671914,-0.480889002404531,0.12981409677645286,-0.07232021599851651,0.0557933613533749,nm,0.0
205.472945,-28.793956208528606,-6.172949397962327,-128.19212236622448,-0.2133958383609958,-1.9692566005448477,-0.39872726119731333,0.000805827133609909,-0.14221080464151598,0.09871115188040563,nm,0.0
205.48245,-28.13329950840191,-5.788040717667509,-127.93570993837845,0.152787106903588,-1.9142858761164507,-0.12226947882250495,-0.034228157153051594,-0.14825515717534635,0.06697859134069398,nm,0.0
205.49195799999998,-27.714111577868852,-5.6375831516051065,-127.8216354340999,0.1408142678355859,-1.7801243259567532,-0.1206559877305935,-0.04131279406149233,-0.08160326920762011,0.03294585365293653,nm,0.0
205.501677,-27.47530894661937,-5.686286980476006,-127.80688621528421,0.3117564738336716,-1.7696774559817727,0.04224184008581427,-0.05069620047479128,-0.028795945434458424,0.00937041776516847,nm,0.0
205.520674,-28.058360739642506,-6.140964614161307,-127.82397945259008,0.26925253302223956,-1.5730042909128754,-0.04268587506650142,-0.004630130393514634,0.1023862738636242,-0.003296833867387793,nm,0.0
205.530182,-28.507620327693473,-6.420330036423273,-127.66384817615743,0.34847378174147153,-1.5712756098679344,0.011142772296523822,-0.0032782701969509844,0.10776239899099216,0.024218694303544067,nm,0.0
205.55871399999998,-29.393805907038825,-6.54800725406746,-126.48262693544291,0.3932415983212896,-1.1727533383822557,-0.14917300223526592,-0.002557095674298765,0.014487604519088997,0.10108811667824687,nm,0.0
205.56822000000003,-29.380836807556303,-6.609926334426568,-125.96801857203317,0.3305576491849853,-0.9410908300822222,-0.19770434740643997,-0.02535452631383671,0.007658327693267105,0.10553907623103209,nm,0.0
205.57775999999998,-29.11189962574468,-6.706149378517153,-125.55541847249484,0.36278439188696143,-0.7198288402873436,-0.18317878852764108,-0.06074615667251616,-0.02983088832672226,0.09101578792563819,nm,0.0
205.58723899999998,-28.703576275855475,-6.825488623571076,-125.29332649724813,0.4671489967584061,-0.508024283842761,-0.05169984576307739,-0.0804062354005546,-0.050062819033913,0.06419524762167722,nm,0.0
205.59677200000002,-28.295107022890736,-6.981478557782432,-125.13732902823325,0.34981156221880166,-0.22395160018612975,-0.08679349705387006,-0.0862294597745346,-0.04611565717051507,0.04308214992226248,nm,0.0
205.60629400000002,-27.69492832841074,-7.10787361631629,-125.00684015386624,0.29764579682922765,-0.0726833109131522,-0.06485542085076926,-0.10315750192770713,-0.08089649545831507,0.04276339746905759,nm,0.0
205.625286,-25.923381052773816,-6.97980318461278,-124.54965878793394,0.40510157778758454,-0.006193629197465487,0.218315640836722,-0.09667060385644878,-0.16543916787828175,0.08046402674404471,nm,0.0
205.64441100000002,-24.583738567612446,-6.490138441924956,-123.76725935033508,0.05725762269708786,0.4291629678455332,0.1512280791582451,-0.057432366360083906,-0.1518531687423471,0.10315283643603228,nm,0.0
205.67284700000002,-21.35841231660619,-5.90624482289278,-123.65394949928925,-0.1043566331757577,1.1735502926194634,0.2270162053083373,-0.1214768890840278,-0.23661890233676372,-0.03378899160661978,nm,0.0
205.682175,-19.247455274182762,-5.794029981607972,-124.2259262815619,-0.42825660135610144,1.5753087834363757,0.016710107118255522,-0.23022029092771445,-0.3595963779051807,-0.0715074943295321,nm,0.0
205.691679,-15.966375072342121,-5.867507165081334,-124.86308334191375,-0.279181708198662,1.5986572682801223,0.702054743508202,-0.39680034739989006,-0.5281669699410985,-0.06158770791198444,nm,0.0
205.701196,-12.530659178936277,-5.832936552167692,-125.51398548199958,-0.2396379802025955,1.6593605596768295,0.9597926245848641,-0.4027283110057937,-0.5614198286073091,-0.061706687038202535,nm,0.0
205.710701,-9.76211793969853,-5.539253782643843,-126.10473668763497,-0.621237672449147,1.9005787980700417,0.48007114992457345,-0.28898438420519856,-0.47984554153301695,-0.06550764119705328,nm,0.0
205.72021199999998,-7.265559007755609,-5.063894275819825,-126.48057077646101,-0.759706100371867,1.936896096579556,0.47835702023094323,-0.23172812038361157,-0.45562952005528895,-0.031817639130367045,nm,0.0
205.73923900000003,-3.4953898819243054,-3.8907809073618203,-126.39741487973792,-0.9162438974405895,1.7578264402303865,0.3532629005997907,-0.11158188678734376,-0.32635397851219183,0.05507775628106285,nm,0.0
205.748909,-2.449523481096972,-3.5634650603390137,-126.00668440353434,-0.9465473540199779,1.585083874723922,0.28285291733529205,-0.0840876546216119,-0.20572389923158543,0.08786698124679782,nm,0.0
205.767936,-2.0802059328073854,-3.9552701621134774,-124.82397815858988,-0.8013484367023932,1.2057029086553284,0.12042605196743877,-0.06390369077459862,0.05788441093944441,0.12275849009858372,nm,0.0
205.777455,-2.6716014492103386,-4.70178575758935,-124.16325699283016,-0.644386976604744,1.0712004698377933,0.009989507673926683,-0.06997200880727535,0.1831243451919363,0.1195416193329532,nm,0.0
205.786976,-3.6261729090535364,-5.790440080503267,-123.53912306770764,-0.4870135433653861,0.8518785935942961,0.10517165569149685,-0.08874941848220515,0.28050536937136794,0.10399863490650753,nm,0.0
205.796482,-4.893678448358993,-6.822898215884704,-122.97520853038799,-0.4249681197751443,0.6761668483899433,0.32059427343297675,-0.048368216610965534,0.3252137826404717,0.08192366503893377,nm,0.0
205.805983,-6.206571624949712,-7.500515257763203,-122.46633289021264,-0.17278552996722496,0.6530198516451075,0.25938051243341226,0.012929576767037768,0.29360322167124137,0.06637035923865567,nm,0.0
205.82503599999998,-9.324407386787781,-8.664884002499234,-121.74198489477473,0.11229053540043528,0.575884572518156,-0.09220387280054845,0.06492336350923521,0.3396471119063876,0.00856900664675405,nm,0.0
205.844033,-12.509965071290605,-9.611515049061932,-121.79752082511878,0.355274655124568,0.5245512822394173,-0.5735074013592178,0.0755701007986146,0.3124796332675474,-0.08531512379022207,nm,0.0
205.863073,-15.425876912454019,-10.491810884336811,-122.97550159841009,0.32273511166543606,0.26498136714881204,-0.5758062155011673,0.05055638255225576,0.2702229074957813,-0.19087576481834498,nm,0.0
205.88209400000002,-18.172511120528878,-10.682702210689362,-124.95444633261064,0.08307943403163161,-0.2639849752624872,-0.26523517822452175,0.1608073057442506,0.21941567480816315,-0.26239113170191797,nm,0.0
205.91068600000003,-21.463438252273477,-8.474797530071239,-127.1082595386752,0.177644359283575,-0.7722071241942609,-0.30791132612437355,0.24680889952954574,0.07251962528818871,-0.12494469074007435,nm,0.0
205.92015999999998,-22.597212243757394,-7.77827213882861,-127.45137505934733,0.5345686132623899,-0.8868100808442624,-0.04782381833389566,0.2331982322224203,0.09704776587701638,-0.09991203265024019,nm,0.0
205.929654,-23.969331254177437,-7.051907978497483,-128.011742086067,0.9468641440351202,-1.1220231662424525,0.3633294037960915,0.2679041729253316,0.12932855649663733,-0.1465461331173934,nm,0.0
205.939152,-25.791774312598815,-6.0708572291587535,-129.07714427796435,1.0803744715846406,-1.5722989457176573,0.629083133894489,0.36578045768511935,0.1642679615259489,-0.2535813146275184,nm,0.0
205.94869200000002,-28.14623724062559,-4.882845458591733,-130.34963582921065,0.6992429480307054,-1.9984566552082148,0.32245264206199437,0.4687892214490231,0.21342014694728542,-0.3439898817982042,nm,0.0
205.95800999999997,-30.903808053092064,-3.8864005354432405,-131.61275942422827,0.43655415026320193,-2.453055040333654,0.02300831337536722,0.4976496130303075,0.28943103179370855,-0.33555508870824413,nm,0.0
205.967526,-33.898725363281166,-3.462783346971469,-132.4473130159856,0.1646673784716546,-2.7086814018123597,-0.0303031534881678,0.4496830820746681,0.3923409152944329,-0.240845620193134,nm,0.0
205.97703099999998,-36.37864314048595,-3.4122428429218448,-132.87340025795493,0.17785096637346723,-2.9865567844550873,-0.02542124832202723,0.3297529882922306,0.36185077678242067,-0.13459154146165273,nm,0.0
205.98654000000002,-38.422755113860795,-3.398016589184353,-133.07529112106607,0.32140507354848225,-2.950172247929773,-0.14923064590635055,0.26731919860772474,0.3009954114236476,-0.07362980763041346,nm,0.0
205.99605599999998,-40.10377929918211,-3.6208649391189986,-132.78658054863322,0.07524530034194155,-2.4182164782434414,-0.5975449132426255,0.18283201766828977,0.2803149615907676,0.01749921582146829,nm,0.0
