timestamp,roll,pitch,yaw,acc_x,acc_y,acc_z,gyro_x,gyro_y,gyro_z,markers,motor_input
201.516869,-0.26329606460267485,5.007016393204045,-113.89660592276832,0.0028328449781108004,0.00742525043141543,-0.09058447581967093,-0.03263611427628748,-0.08582440332220734,0.02069905365701981,nm,0.0
201.526312,0.19440600429420535,5.129468680707619,-113.74726930341906,-0.052426591161737084,0.03428547400777148,-0.11441068075172545,-0.027530197457943575,-0.09412599098178541,0.016328734346358856,nm,0.0
201.53589100000002,0.5655983576891361,5.29315686890749,-113.61664046437858,-0.0896245551081826,0.04868977456646178,-0.09397931332386614,-0.01926264937642209,-0.10600384119546435,0.013815372962232501,nm,0.0
201.545397,0.9189308118111195,5.515794866627801,-113.48083838931336,-0.13757238828291507,0.024974590971124994,-0.057949965971240386,-0.006102018774614151,-0.11536698055736941,0.01482935687386722,nm,0.0
201.55491199999997,1.257412793615355,5.800557339492164,-113.32802556306302,-0.1710585612541715,0.01699177832592171,-0.008910162432804118,0.008806435503055668,-0.12334624070378826,0.018099728515378225,nm,0.0
201.564429,1.6001979473274073,6.123093872016176,-113.1559531588222,-0.1801731146541348,-0.005418649486496933,0.05444224659415859,0.020665152099684926,-0.12661452041962434,0.021415069880980152,nm,0.0
201.583445,2.099425924098499,6.761500784482769,-112.8322753505637,-0.1449144667406761,-0.043796764398658164,0.050848100237245196,0.038020872593074725,-0.09331230707439041,0.019288609232284877,nm,0.0
201.59295699999998,2.27173835208301,7.05333564410102,-112.72660647780685,-0.10803291865228942,-0.06054904260266964,0.019045268187940712,0.04097168584249852,-0.07844480285348966,0.010909984906972755,nm,0.0
201.602541,2.4616322968640456,7.3445042606959365,-112.6776516218229,-0.06463023905210225,-0.07588538980358865,-0.013553287467346272,0.04354306074159092,-0.07263687812305533,-0.0010990941714392173,nm,0.0
201.61199000000002,2.697590525406527,7.654451262617261,-112.68455377310207,-0.033851885228983455,-0.08098685614802668,-0.011796882221774165,0.04474953275235035,-0.07498441436493751,-0.013734362484401496,nm,0.0
201.62148499999998,3.018936661138052,7.969992340406461,-112.7283976038388,0.0023280221618528964,-0.08097373141399768,-0.008550195094171112,0.039211994310958974,-0.08384808196879649,-0.023781128871304385,nm,0.0
201.630934,3.334581813712398,8.34236427593804,-112.78788572913982,0.02587579811985835,-0.08457167147827016,0.10228079427749781,0.031904779052298056,-0.0872019703032828,-0.02729790383797222,nm,0.0
201.659438,4.341057160693494,9.217008984463215,-112.78408490063033,0.15355625697817546,0.08096624360268485,0.27099707133173573,0.001072664143622648,-0.082335619494575,-0.010534641011426253,nm,0.0
201.697483,5.763347255308977,9.43551976250828,-112.78192518112238,0.35996044332726956,0.28753707193514394,0.4014201432604593,-0.03007439424375236,-0.04608102749687782,-0.029418711012671944,nm,0.0
201.70700200000002,5.837866723522347,9.458529417524733,-112.91203288717708,0.40152409889845075,0.29304966929037757,0.40419733853673717,0.0,0.0,0.0,nm,0.0
201.716507,5.771671265146698,9.401466309552752,-113.0971790623915,0.42523708406214034,0.29725375083061123,0.3799819751521543,0.0,0.0,0.0,nm,0.0
201.726011,5.608712447381579,9.223733793714791,-113.32344522300444,0.4519111692498957,0.2545139348332014,0.3603212273320477,-0.03239927365930794,0.04314642034062642,-0.046963929354171034,nm,0.0
201.73552299999997,5.32339667934752,8.992967859158354,-113.56272707765646,0.4426112057947537,0.20587938846695564,0.3046014673330926,-0.032376535954985054,0.06969492558771447,-0.04573023748080441,nm,0.0
201.74502500000003,4.992495372919595,8.719082817657263,-113.7807453964274,0.43115232093630745,0.1851463505032162,0.2011940097272154,-0.03641723154328259,0.08155938114280809,-0.040225063288378944,nm,0.0
201.75454800000003,4.673124340936251,8.329656813607864,-113.94734273160317,0.40423948818994854,0.13101929844482893,0.1739193368965192,-0.058253952327199064,0.0889639654342882,-0.030552859765846256,nm,0.0
201.764055,4.346680269787422,7.864957241901514,-114.03116302903584,0.3535988202345731,0.07619880691528692,0.12474891157326094,-0.0712875719020997,0.09651053033678762,-0.014143363102349484,nm,0.0
201.80211699999998,3.472596590302342,6.021684669098831,-113.64724340855108,0.11777812325306009,0.05433130108338564,-0.18466110778763986,-0.0957072932323924,0.0536546489892991,0.021181461546286424,nm,0.0
201.821133,3.658193973075867,5.204159954248743,-113.51431638386333,-0.13759432689869575,-0.0763419955977233,-0.23409547746273002,-0.09560764918101797,0.00426400634073853,-0.00014199443613666085,nm,0.0
201.83069300000002,3.8765561331127603,4.835162857607862,-113.49076709792007,-0.3008918909637928,-0.1812892968390768,-0.21340535465477392,-0.09789067998667059,-0.011346397422112315,-0.005288142555193644,nm,0.0
201.840207,4.157828624514383,4.534507912568782,-113.43657792411445,-0.4602877441137654,-0.2662348674718375,-0.18869683218007371,-0.0903222208771799,-0.028439173150851656,4.734633735444812e-05,nm,0.0
201.849729,4.608226593435027,4.327837522648322,-113.30009537742373,-0.614809733376683,-0.3278245125954807,-0.1488845048309576,-0.08636259879910432,-0.06710977332743327,0.014086957837988804,nm,0.0
201.859207,5.3890687280943945,4.206928093808501,-113.06310470463218,-0.5852994820504479,-0.49689744115712664,0.16340224135436843,-0.09626536820787858,-0.13487251700558484,0.02940130263613765,nm,0.0
201.868663,5.972529359088493,4.19670341749686,-112.79212791491078,-0.6489134832338953,-0.583319315638261,0.22204986271724284,-0.05984271065068451,-0.10766066284573833,0.039167119175175555,nm,0.0
201.878207,6.3762214986865375,4.260010765066997,-112.56065853920619,-0.8735897541120612,-0.5631895574375976,0.019610890867659395,-0.03189775945452086,-0.08047043428508308,0.03377245861742241,nm,0.0
201.887713,7.101635585539372,4.332566885972404,-112.44344366877749,-0.918070009979478,-0.6543687458153984,0.25937823562951595,-0.05444740165152415,-0.14062094249113496,0.005829162484195008,nm,0.0
201.906752,8.221759424343501,4.703001363725356,-113.23915771873537,-1.2465892969531467,-0.8716525538701024,0.045942417518112524,-0.00487622135428896,-0.10516876890546525,-0.08567454333846246,nm,0.0
201.916278,8.850641145717189,4.868489410741475,-114.03283787679197,-1.316848371447874,-0.9277636517738986,-0.047978389790660735,-0.03251170649802399,-0.12908973193071685,-0.12126743240982069,nm,0.0
201.95431499999998,10.050654686176635,3.493456941535348,-117.65602024197662,-1.1337613997971114,-0.3399780664560671,-0.20080863550124503,-0.10243780004836081,0.0514886826546508,-0.11468775318333975,nm,0.0
201.96381899999997,9.771627708296073,3.0782378174894687,-118.44947239402842,-1.035079850758141,-0.12757113487642582,-0.22317714520839904,-0.059206616767934185,0.08827253903446483,-0.10496062702761684,nm,0.0
201.97333799999998,9.36436202973274,2.8558912706629735,-119.26060142462481,-0.8720605136425773,-0.04146918718623758,-0.20271037141914433,-0.011775931170767442,0.092811053088064,-0.10115519526111043,nm,0.0
201.992316,7.961520433248533,2.814286311970806,-120.27230232314743,-0.7028933220256696,-0.05022652945155725,-0.5926122871699612,0.06650726929422456,0.1285800820606049,-0.09992775560351275,nm,0.0
202.001861,7.1561615890113375,2.9276445470513113,-120.77177910084687,-0.6067085097803152,-0.11868707878788833,-0.5468700069046825,0.08885446440327174,0.12760849763882023,-0.08775252686736595,nm,0.0
202.011399,6.171381342200607,3.1864684811838697,-121.10087709893413,-0.42477730753925863,-0.0946114054162483,-0.6693351300171524,0.13300426448762048,0.1428845786174442,-0.06890805790994202,nm,0.0
202.020857,4.997593258697543,3.5468288553222678,-121.41009619314427,-0.1475503623961087,0.005247868802785962,-0.5772277293635122,0.17070428422124767,0.163880163186628,-0.05436695090251708,nm,0.0
202.03041499999998,3.4872721264907667,4.038922220093926,-121.63912114516332,0.3202670310737309,0.21411237927306134,-0.23126538851300923,0.22879489629547467,0.20678608737352347,-0.048621732712874774,nm,0.0
202.03991399999998,1.1587133555997176,4.7773577519633905,-121.90597589602629,0.7170018161211835,0.5481929360839431,0.07703733965735766,0.35713600365502735,0.3189109447543916,-0.04926318430744146,nm,0.0
202.04942100000002,-1.4306250614049876,5.903865785741071,-122.16682321831195,1.3755081835911296,1.0896370154721655,0.36737828968625574,0.4513453898414366,0.3201441044683133,-0.049579541184580266,nm,0.0
202.058931,-4.263261353987118,7.2074305739438635,-122.36795562394305,2.7997624115542976,1.2125307801137408,1.7664067379539459,0.507362388967081,0.3400381537122425,-0.03955847043581238,nm,0.0
202.06842400000002,-9.151233336869183,8.741413194703597,-122.38523920570621,3.6576579322749563,1.574599527339548,1.9507922430601115,0.7634210873460855,0.6575602132542198,0.0807854579647901,nm,0.0
202.077758,-14.419340917588567,11.181125864389106,-121.4406229556361,3.5213607428651374,2.1467474533841306,1.243550739677038,0.948981242600243,0.6269574964547919,0.3335581007812935,nm,0.0
202.087274,-17.77049768673918,15.05280107722917,-119.17501952643988,3.7020988094939216,1.3869819774291026,1.2214162605760461,0.9847477356929505,0.17677172198839533,0.5452274695282361,nm,0.0
202.09678,-19.00062138583144,19.8992903115735,-116.5472413848161,3.521004703922013,1.6440487472607759,0.30529529849275977,0.9550095920682199,-0.24115462670743396,0.5010924651009221,nm,0.0
202.11581299999997,-22.338638321023854,24.99544932724053,-115.95603863845518,2.0782419748124403,0.7258219191459946,-1.573486271714012,0.4668670852994842,0.32719600136512095,-0.06381472118616502,nm,0.0
202.12539,-24.551777146468098,24.299757573882474,-118.66431124125347,1.2366753744840013,-0.047833867855715535,-2.167645370078878,0.04523707396982477,0.4228616689520777,-0.458325241462634,nm,0.0
202.144334,-28.054075009431966,17.658935795615342,-124.46680174767245,-0.41785054555231654,-1.1462218922596532,-1.5656326200399866,-0.512406296879562,0.6910492551739233,-0.5036799218285454,nm,0.0
202.15381499999998,-27.50727324060201,13.821837691085921,-126.08918951523741,-0.7250605934114818,-0.8258396494538467,-1.078195267121757,-0.7021774552569144,0.3599380530712755,-0.3548894066328723,nm,0.0
202.17283799999998,-23.033113899936396,9.151975432368966,-124.72336274573372,0.05875994779229601,0.41078402899731575,-0.08973205203910077,-0.5730677674010193,-0.1577845137541069,0.19256408358043622,nm,0.0
202.191855,-16.73158790600135,7.883504833809605,-120.81702824502096,0.8575008086941974,0.8845445569709736,0.3815831627504097,-0.40092699830281725,-0.5121029077956845,0.26797952806775527,nm,0.0
202.20136499999998,-14.037194494447855,8.017997280307677,-120.09786284254731,0.18615044702371386,0.950750818035439,-0.1430630475138153,-0.2615464517744546,-0.47320748762027803,0.06655637562494957,nm,0.0
202.21106799999998,-10.958157037123408,8.385410753865852,-120.58462732988109,-0.28008439646822664,0.21826867591248092,0.07561730737892013,-0.2585120019029578,-0.5626289082042978,-0.18885343183679557,nm,0.0
202.22055400000002,-8.04813965790927,9.026105997007845,-121.95882404442868,-1.0006718048528769,-0.7225442731064222,0.43253863304781043,-0.202867876285007,-0.5573616566989733,-0.36740752002848653,nm,0.0
202.229911,-5.655768434286131,9.911239388504224,-123.4741149825017,-2.0867776757029355,-1.2102205990014203,-0.004652978241702051,-0.11954131147888725,-0.49140934406194886,-0.3868683968540886,nm,0.0
202.258449,2.649452152949409,11.084685762103783,-120.022861459139,-2.263732159749959,-1.3242475122273984,0.11639832761176028,-0.2562593739987766,-0.4184447342217274,0.2557232666781307,nm,0.0
202.277661,7.632661764304429,10.118944897421025,-116.34570255004853,-1.1778533383775955,-0.35860177254452036,0.8031876335519734,-0.34786234687521783,-0.34505194367801656,0.2187425340431917,nm,0.0
202.287163,8.868881099705877,9.640383902401593,-115.85741476006437,-1.099314346755849,-0.043374137139268805,0.5383401142228739,-0.2053454798843622,-0.17678918367251897,0.047678677357042586,nm,0.0
202.32503999999997,9.119308851104382,10.625073870342346,-120.92829741980609,-1.7154818476155438,-1.2026370034985265,-0.2946962062466946,0.017530510969376068,0.07318384419254066,-0.17528765791337347,nm,0.0
202.33453899999998,8.914301857497927,10.28918916859057,-121.44615380059872,-1.6447122791598603,-1.2961444381008524,-0.34304515925352824,-0.048200522925749445,0.07082855343138779,0.0010860001659085575,nm,0.0
202.344058,8.859066901609767,9.467789705396006,-121.19026886718981,-1.4075194084962648,-1.1030060346819444,-0.5134229692362442,-0.14635104735659535,0.09659693450105404,0.15417297536441632,nm,0.0
202.353557,9.093686580374351,8.19011865964286,-120.79292043435257,-1.0589499155705815,-0.794434828087457,-0.35533002875168196,-0.2546585010503123,0.09440309302713742,0.21049278703002586,nm,0.0
202.363254,9.402899475512095,6.912149360746166,-120.64962192469164,-0.6934573993613263,-0.3888587102664881,-0.14986093140307552,-0.26291341574967203,0.08032069090398543,0.1614137898553967,nm,0.0
202.37277099999997,9.621317667519975,6.055414931847732,-120.97748890239453,-0.35944318643411477,0.09407468907603483,-0.3125515363243333,-0.18147652725837135,0.051999384880726994,0.023254063629768496,nm,0.0
202.42027399999998,7.884782437490451,10.095912973426662,-126.83301243323844,0.16576058329328286,0.3467875860563544,0.6188085121019716,0.4143712241896121,-0.027521552552829155,-0.06372977124784993,nm,0.0
202.42979,5.587708358918865,11.92689240631324,-126.42988739161176,0.5816709721933355,0.648328372660554,0.7592930014283241,0.5516436641536905,0.146228943078417,0.1613490958931232,nm,0.0
202.43930600000002,2.9467414295868974,13.49260010618222,-125.26580388313583,1.5384124179052532,0.9627171213870165,1.6222365938207783,0.5440591993393292,0.23719691413314908,0.3425253437456865,nm,0.0
202.44884900000002,-0.6505899658655111,14.413828135121973,-123.37782928467045,2.997182154043157,0.955929698222876,3.1033078923873756,0.5328527820887337,0.4770156176787821,0.4919935531191799,nm,0.0
202.458358,-6.331076174422083,14.986126520354327,-121.17733741116506,3.4765183711949033,1.67023698000361,2.403827075854265,0.670319518664168,0.8718493424354682,0.6969262282181062,nm,0.0
202.486707,-18.73768390501514,17.777282890969598,-113.38727237064847,3.915071510956073,1.3513354158505124,0.052735387799339804,0.36794910157191524,0.5351121515996989,0.48248400055870444,nm,0.0
