timestamp,roll,pitch,yaw,acc_x,acc_y,acc_z,gyro_x,gyro_y,gyro_z,markers,motor_input
223.000638,-24.707928668721905,-33.26405863542211,-159.8687510511562,-0.1203322498919961,0.16083140286753067,-0.21698313215510856,0.05159397585339547,0.2463035732580324,-0.2691266461475494,nm,0.0
223.01014899999998,-25.746402671449882,-34.428071397779796,-160.99780384270693,-0.22820196322556477,0.02804564193679201,-0.2429642970893168,0.07597447381243297,0.28787741800653593,-0.3376815970469437,nm,0.0
223.019666,-26.9322822971595,-35.94687166853051,-162.30205943248686,-0.22079279624422124,-0.12218636403049575,-0.23167412459445486,0.08026579736387095,0.3604436933234127,-0.39343871910718853,nm,0.0
223.03865800000003,-29.60487034142706,-39.85532727667415,-165.12654334354949,-0.039932679104866024,-0.12588864077958917,-0.6030708588707651,0.08555897168473599,0.4651484352983193,-0.44606098096766195,nm,0.0
223.048173,-30.93356178932956,-41.89748791501146,-166.4237140722735,0.125393708536943,-0.12704995447315004,-0.7480936321049576,0.08820145829525994,0.4572520843176818,-0.4282109133978943,nm,0.0
223.05750300000003,-32.21237973977274,-43.61800333156224,-167.61329401626213,0.227135020965005,-0.1345890194939746,-0.855286830099415,0.10009803756131316,0.38953837172147604,-0.4060975714852758,nm,0.0
223.08602599999998,-34.9599812883752,-46.171159593733975,-170.3964866710509,0.44928996311207553,-0.5610320764881822,-0.6268734864372347,0.06574348503719309,0.13140689971643846,-0.23659898137378646,nm,0.0
223.10523400000002,-36.67142928650499,-46.917452689182376,-171.2320264884382,-0.20830856989670823,-0.26571042062387107,-0.3586261443213987,0.08268232363911776,0.08307284531891965,-0.15526081453499577,nm,0.0
223.114764,-37.02762854089391,-46.89915252321731,-171.2416116838807,-0.27991258633206484,-0.59880038855089,-0.11125588675651177,0.04481760095766249,0.015634969590733246,-0.047190672643125736,nm,0.0
223.12427399999999,-37.6647466421982,-46.65435046619941,-170.84011041283782,-0.49937559178712493,-0.3733671747368149,-0.10232462622264583,0.09001926426656263,-0.023038140738251632,-0.005685859091446453,nm,0.0
223.13375599999998,-38.20277028667886,-46.28838314841661,-169.9032856839711,-0.602701620946484,-0.337049070800591,-0.07921538606042317,0.08132504957580629,-0.0481489195150123,0.1163968447886409,nm,0.0
223.15277899999998,-38.9560788296897,-45.69787288767087,-167.1446654888114,-0.4087015859421651,-0.0995051971338712,-0.41047330295969325,0.05223364499011785,-0.013962350414653902,0.2490270527253121,nm,0.0
223.162295,-38.76917753173366,-45.87833314218807,-165.76663239998888,-0.31768124395105934,0.10846329591693003,-0.5149477818239456,-0.0387337453841537,0.040385181271405474,0.30970114864856324,nm,0.0
223.17180599999998,-37.45258092761146,-46.24343624263497,-164.98447619065936,0.07593718667099156,-0.20901370176347187,-0.4034323139928681,-0.20068730097077614,0.03587909106062395,0.35324945450345857,nm,0.0
223.190848,-33.4767875016758,-47.18745730774157,-165.77447657450827,0.04524904404293317,0.4713170257995937,-0.13144344107907446,-0.3250428776683906,0.03434999282280714,0.19503575116881633,nm,0.0
223.209866,-28.93118185599363,-47.99449689415997,-167.37483667918755,0.22970124090926025,0.3797724427232313,0.4631675212340752,-0.2672269088415194,0.014069751232343625,0.12939013631846924,nm,0.0
223.21935900000003,-27.769306858073467,-48.16665852528542,-167.82938898726067,0.04036408001834842,0.5839565193954115,0.35409261366445594,-0.16520129623290683,0.011934340053958036,0.08764908717313374,nm,0.0
223.228872,-27.259683431279292,-48.43943327996564,-167.86310779317807,0.2276555304327383,0.31311670401350566,0.42295511934893515,-0.0839127686752243,0.05075127077199562,0.07489680314446318,nm,0.0
223.23837,-27.51254369045144,-48.819341091537076,-167.84336604942925,0.14377961825356125,0.3611577672566108,0.29322425432417654,0.01073356866905281,0.09307432293529708,-0.02854952605468568,nm,0.0
223.257421,-27.68661587490744,-49.70742220328936,-169.18925113594884,0.14132037445233822,0.08593549689128993,0.014111779442313087,-0.029728590239031558,0.11100794699176326,-0.18422178257443247,nm,0.0
223.266937,-27.42300056300404,-50.4809681248093,-170.7160494147023,-0.05419510323660132,0.1465474766577157,-0.02461738865652956,-0.06555844396767276,0.1585953279180415,-0.2595519957916582,nm,0.0
223.295442,-25.294205247888957,-53.05092899488891,-176.54570184130768,-0.11656240964757006,-0.002473247210485844,0.3691924147923501,-0.09221810877621964,0.1747088075240281,-0.2563721865834396,nm,0.0
223.31446400000002,-24.65574767148454,-54.627835854137,-178.50043595039003,0.046487697860831005,-0.1845964849565574,0.34066332479658595,-0.03224545116465564,0.15856536708794983,-0.10555569182979906,nm,0.0
223.323972,-24.425816619674112,-55.05869810998416,-179.05753992466683,0.06946897972341726,-0.07813104899433905,0.2071461272523879,-0.03185769054099753,0.0983418480175965,-0.06842110644905951,nm,0.0
223.33347999999998,-23.59094717944844,-55.18984786297331,-179.7728628344327,-0.10032083309346274,-0.14021166378460048,0.25068062259052354,-0.09935049529662301,0.03795494489916715,-0.0006557938767302529,nm,0.0
223.342998,-22.359429928432593,-55.087458698094984,178.9764335771926,0.04529182683728342,-0.3102175112739489,0.5293261919958843,-0.14452750033103662,-0.006790341816805652,-0.04276761341860461,nm,0.0
223.352502,-20.76947032322187,-54.939705522465594,177.08961294666298,-0.5553254560122488,0.08892151985032133,0.5185145580377286,-0.18674960419501638,-0.010464742741614895,-0.11179663929483524,nm,0.0
223.36202,-18.54122790268393,-54.8548477389432,174.67434129193225,-0.4748585910948838,-0.0033038366037090277,0.6990118692711021,-0.2602724731611672,0.014456352136356694,-0.11364667448160909,nm,0.0
223.38103800000002,-13.481881465104806,-55.593042990107435,169.16644041000558,-0.4757500456162888,0.21476236794237316,0.792747545073515,-0.28377106507379307,0.1597788369503629,-0.12377157311981626,nm,0.0
223.409576,-5.572519575965514,-56.889564779163095,160.52965040742086,-0.18878905632292692,0.04300423750006102,0.7148660828979375,-0.23713774775323404,0.1776760742092497,-0.15388874868944752,nm,0.0
223.41907799999998,-3.1617004664704607,-57.055202640978194,157.62394043890708,-0.22420141872633947,0.013917508969377955,0.7810447641976456,-0.2357564003099176,0.13864127005043023,-0.17373192526947245,nm,0.0
223.42858199999998,-0.9557525166134737,-56.773002691403896,154.80608479583418,-0.31602828881396355,0.14867063281620474,0.5331642561980944,-0.24504609015710557,0.05931656109258283,-0.19109490594200956,nm,0.0
223.438099,1.1989349966334757,-56.49871403303454,152.29802340837804,-0.4377510366015754,0.22253291170118888,0.18148040893378783,-0.23834321996126398,0.07036013776176366,-0.1391221436977634,nm,0.0
223.447603,3.2392558699217506,-56.489333372673734,150.11215918198906,-0.294146492365,0.12539143629249047,0.16853756954254034,-0.1998499458990067,0.12090889215142737,-0.09454437367207676,nm,0.0
223.45713199999997,5.036839557390904,-56.3598963249389,148.1912326790609,-0.16847458040806865,0.08652498378933536,-0.029056612989204304,-0.18538600358003668,0.09378777389982636,-0.08251370780983501,nm,0.0
223.46663199999998,6.79367138170384,-55.98792402880208,146.45884677229344,-0.12249301360709355,0.10520833163785821,-0.3553062451725463,-0.2061878492739251,0.05702708299877684,-0.0526903599235819,nm,0.0
223.47613700000002,8.73353572625423,-55.55549259548233,144.74876688460873,0.01118186690727253,-0.051747899210058776,-0.46893942389198634,-0.2303111243292477,0.06601614884110658,-0.0195818263967373,nm,0.0
223.485666,10.801045851335722,-55.057597456448484,142.92407822867642,0.09872766042174115,-0.04093462384238074,-0.5429990089815628,-0.2501375868415829,0.07262913520672538,-0.023594425744816887,nm,0.0
223.49517,13.145145130931196,-54.446873042815334,140.97730123312073,0.05843134755720221,0.004317491351069197,-0.7105294257515647,-0.28973659742931024,0.0847523610433982,-0.005447677674835365,nm,0.0
223.50467,15.701050156676157,-53.789127509760434,138.9318864179707,0.12050603163133503,-0.038980170769368154,-0.6929120766697108,-0.3154185245278789,0.10629053712290808,0.0057688144998231175,nm,0.0
223.523698,20.176120414789715,-52.11767663517673,135.31531655094588,0.19950996883895644,0.06147803172893554,-0.6303603426426018,-0.31002014281320894,0.05550888416799952,0.002061922104367971,nm,0.0
223.53320699999998,21.60581501521078,-51.16707034159294,134.1481107323032,0.09497812728774198,0.12898641826518467,-0.769565451707775,-0.2613246539783023,0.00635834368067005,-0.009771595147193913,nm,0.0
223.54252699999998,22.607921818757262,-50.45587095688823,133.34890818910628,-0.014095952282315968,0.19522364906289463,-0.8978477501966121,-0.19161481236788674,0.007229956170580531,-0.005299998828805598,nm,0.0
223.552221,23.35425212195297,-50.001138302198804,132.82293760455838,0.04353951902635991,0.024917061679118734,-0.8575158231570682,-0.13288342003336584,0.021733646238131493,0.008577640566185412,nm,0.0
223.561634,23.677475743352232,-49.62896433635226,132.45050546690268,-0.12357237810271866,0.035116554619654544,-1.0780405928774819,-0.08415490033336462,-0.005648934036400718,-0.02621115084846563,nm,0.0
223.580654,24.312699782821397,-49.16916827320689,131.55523641039463,0.020942336109261855,-0.18368127775548013,-1.2989133667607893,-0.05705020371497545,0.037699409698726045,-0.04281645879076548,nm,0.0
223.590178,24.739791909291327,-49.201005600614934,130.96273658251985,0.20137041526070001,-0.2975613188453455,-1.2215114567386536,-0.03292799965387037,0.06033837468431336,-0.05514450697873817,nm,0.0
223.609184,24.275952869563984,-49.31731339438046,130.71512396687504,0.29831093164252864,-0.30773459817110005,-1.3749977895310528,0.05458363465802551,-0.025040804365112482,-0.056384074399927035,nm,0.0
223.61869099999998,23.22651362651406,-49.54179836167716,131.42593204501085,0.3375265933946958,-0.2418698999831784,-1.3377627638085412,0.12297677755532674,-0.0593459769640565,-0.018381901462645824,nm,0.0
223.62813000000003,21.673044552852527,-49.8493500099398,132.88131792914618,0.3647194377040914,-0.39277523138488635,-1.1098265187329217,0.17991297431613568,-0.09365661748659881,0.053277265183300934,nm,0.0
223.637647,19.29222973556126,-50.19059721102002,135.0049558419685,0.3384876990281486,-0.43121731085750875,-0.9458092892830918,0.26089530443441233,-0.1589338083562689,0.05924542101864762,nm,0.0
223.647148,16.266666469877652,-50.63576504633422,137.6250655558263,0.14900085922567216,-0.27542415283144583,-0.9172609872665152,0.3397953101551075,-0.18798098228964205,0.05740805292141321,nm,0.0
223.65684100000001,13.102202320592237,-51.252509076995096,140.67753249783263,0.1766237279447918,-0.4391110228481779,-0.5370483396137556,0.38166066427412465,-0.1535143815427358,0.11924017859353406,nm,0.0
223.666369,9.426657556187735,-51.96722612081029,144.16867809193474,0.0975871622007156,-0.4383221474663815,-0.22208411954952348,0.4481991854374301,-0.1511337933105038,0.12272071614337919,nm,0.0
223.67588500000002,5.2075412278514195,-52.72256249625749,148.23759096877265,-0.1362704998867212,-0.26050062044457206,0.016186082498762553,0.5114808739326054,-0.14729872355757942,0.14692159475460798,nm,0.0
223.6949,-4.644116152658878,-54.1087646808244,158.7874421626825,-0.6420597591978667,-0.10357702029518759,0.8262128289589828,0.611886692728178,-0.12600516574381274,0.300894708152229,nm,0.0
223.70439100000002,-9.888544805168584,-54.22975417816231,165.1445149786508,-0.9257564978093114,0.11688467144851906,1.1760743886287852,0.5891525549465557,-0.15366512265877907,0.4241912381142619,nm,0.0
223.71390899999997,-14.222906698979774,-53.86879804484686,171.492720009618,-0.929427457208928,0.0319005816958805,1.9744558032696105,0.48080485360605363,-0.16064770028995412,0.571849783327045,nm,0.0
223.732921,-17.10308049736134,-52.81742432169531,-179.38665403058496,-0.9132212441493288,0.012017107290866665,3.6750340553315377,0.03802398428118453,-0.07023399906542252,0.679282345166591,nm,0.0
223.74243199999998,-15.787030473137644,-53.77535519877146,-177.3769305487956,-0.9494221792622689,0.6945302297417345,3.539219197240563,-0.1685439235318462,0.1997292013464937,0.6178009912605982,nm,0.0
223.751942,-12.911695128904103,-56.09999280583729,-177.03223014309233,0.06717681442532444,0.4265078022430333,3.1812473522283358,-0.3591364316084184,0.46108559020947076,0.5443944456159612,nm,0.0
223.76146100000003,-8.936531848076227,-58.64662885564595,-179.58498199073384,0.5862768479408694,0.530439280327429,2.2269028479513713,-0.44992184787903433,0.5092643351129289,0.16355623868471567,nm,0.0
223.770973,-1.974687922487588,-60.51740532223854,173.95155499470687,-0.176030864975871,1.4462705261159687,0.8617286050568863,-0.6918037354456913,0.4209117435298172,-0.08741420100515694,nm,0.0
223.780559,8.54945802445931,-61.28650361461312,164.78246027160498,0.4015500385973331,0.817030453925201,0.9641975662004137,-0.9831743682381286,0.352547597163472,0.010224612450866269,nm,0.0
223.80900799999998,29.361288251313397,-59.60483980576731,142.54654521608728,0.140990019493786,0.8056640106261491,0.03975604992922057,-0.4592772564203251,0.19473705666192231,-0.20594582088633906,nm,0.0
223.818527,31.18274844738129,-59.301888955470545,139.42747070267865,0.005079422012338981,0.5097689986353862,-0.5048821338625856,-0.1863886345075374,0.0830248455852363,-0.30995140863382886,nm,0.0
223.837438,33.054803766301134,-59.32075595250289,134.64665334195146,0.259430833370705,-0.4862616508509864,-1.3636805979512399,-0.08724821339097709,0.10842785528112514,-0.30335617728803815,nm,0.0
223.856461,37.53672208267127,-58.2566797506356,126.27013044865643,-0.08546541070807999,-0.5959916151005411,-2.152115966929235,-0.3008753447141372,0.13967016879295382,-0.4671099162316097,nm,0.0
223.86597200000003,41.05512324871911,-57.14136223524262,121.48096605784536,0.33992463065595263,-1.0678812110873175,-1.8297980126700468,-0.39707425628397086,0.20199575884019957,-0.36399675450078856,nm,0.0
223.87546899999998,43.54685171361685,-55.98546947867459,117.40911290870508,0.3183570052702675,-0.9204736895527955,-1.8410416485057426,-0.33812558919803154,0.13957429470441163,-0.4000325742697009,nm,0.0
223.89443100000003,45.02314280830555,-55.209735938259676,114.03852408334143,0.4537069105796102,-1.017201196367137,-1.6031279637212288,-0.016118140339654405,0.028174082151259952,-0.12886165531953303,nm,0.0
223.913446,41.204854052442016,-56.86272658056896,117.04957220839152,0.22715634286481806,-1.1144681335532367,-1.6167004887910843,0.3056879649429402,-0.12350042782269839,0.030814538871199445,nm,0.0
223.92295099999998,38.6921811162214,-58.28074142765171,119.5850412808613,0.23909865132852434,-1.3051459817849946,-1.4622694825157858,0.376869479275232,-0.08857646627342587,0.08257677097907078,nm,0.0
223.941987,32.97842950723744,-61.05452812200667,124.92257171050625,0.05636085930131853,-0.9289612537674315,-1.1047702597361397,0.3778197550041248,-0.08412051146913763,0.03916605345212532,nm,0.0
223.961178,25.03461176749024,-63.576395661145284,132.58159446890843,-0.07800311255823868,-0.26600439052700614,-0.34516014048907834,0.4617823144374668,-0.13235788827608072,0.08229570629853969,nm,0.0
223.970698,18.705221450576754,-64.67790801877723,139.39890589839163,-0.14944506316774267,0.038929494238246085,0.24929885728580098,0.54885730259552,-0.21147423147700678,0.2260428092845109,nm,0.0
223.980196,10.283394426389812,-65.05857808952652,149.17648641222468,-0.36132125185580805,0.34360401766750204,0.7536744633459442,0.6229216773899271,-0.3420274624085583,0.4322546262569442,nm,0.0
223.98970599999998,1.249605466536416,-64.32818945173081,160.90279216580768,-0.553821284919319,0.5905127074167233,1.4717647821394502,0.6352595325961425,-0.4447857353434683,0.7138527477394238,nm,0.0
223.99921500000002,-5.6691671538500366,-62.374885694000334,172.6454628616418,-1.056899158239909,0.7082662604337413,2.4281711819327025,0.5102890822205588,-0.5096763429210691,1.1147829328097403,nm,0.0
