timestamp,roll,pitch,yaw,acc_x,acc_y,acc_z,gyro_x,gyro_y,gyro_z,markers,motor_input
203.00022900000002,-7.686177644863676,6.329273726944961,-122.48567679526026,-1.893861779163383,-1.1200602618442446,0.03757471328331111,-0.23714636759402788,-0.6016620675793234,-0.5097001806749335,nm,0.0
203.009762,-4.472743481999976,6.9644064444593585,-123.81114649539137,-2.415292128136947,-1.2500134697077063,-0.0005033833957604651,-0.256325729762679,-0.6028474689369497,-0.3444654726481505,nm,0.0
203.019281,-1.3486305645378363,7.467139116125452,-123.57591645309262,-2.3154578864515436,-1.1636701877260007,0.3016524455949139,-0.27358072221444385,-0.5704486333086843,-0.03689140412516727,nm,0.0
203.02879099999998,1.3562899673565931,7.70648620152001,-121.84683308983209,-2.1218740299124956,-0.7049267506362307,-0.00470687991194477,-0.2626511916972071,-0.47632698391077866,0.26861976359623485,nm,0.0
203.048017,6.178990944899211,7.285443829429233,-116.69959222243871,-1.1397241520898023,-0.11207436550341436,0.5522696072418262,-0.26246253787863655,-0.34456638769285913,0.44525820309477404,nm,0.0
203.06702499999997,8.624729465956559,7.761575962135872,-114.66599769755874,-0.8895204133309127,-0.11677158857088005,0.3158373044867454,-0.016662514568407956,-0.22488918587629614,0.04104609833653037,nm,0.0
203.08587000000003,8.979512224484875,8.853647456187115,-117.03008318622653,-1.3935515199433,-0.9447862400339202,-0.1335538795379349,0.0806847783662106,-0.03131733533122484,-0.3090771243587631,nm,0.0
203.12392000000003,9.157098010241503,6.866102621669245,-119.34687587492526,-1.0568192375478085,-0.741843702709446,-0.2783355702998488,-0.23935176039089756,0.06204877833317204,0.20517489194398858,nm,0.0
203.13362099999998,9.498468462425254,5.753207871006184,-118.64124754660735,-0.6329732394008604,-0.28980484486922137,-0.2107379632819887,-0.2397365849714735,0.050008391936986515,0.25171221099802665,nm,0.0
203.143109,9.819146099835317,4.916991007140637,-118.07948309029152,-0.29316626228565196,0.13725863764503093,-0.2771807797306138,-0.18980724211052785,0.02381547927579746,0.1756073442375882,nm,0.0
203.152639,10.163258482843482,4.548243654043575,-118.22789569512538,-0.11826503422388573,0.35326043687389247,-0.19417354671332465,-0.10971796805513703,-0.025549412056767185,0.012951398051738016,nm,0.0
203.16209999999998,10.402201360968578,4.866706160016322,-118.95737261952719,-0.1271398939972062,0.39622341027195246,-0.10960144910284982,0.021064430773181785,-0.07228965110273433,-0.15740263037757182,nm,0.0
203.171599,10.460512661002506,5.954024152870817,-120.20965540852282,-0.20878257587742713,0.3499162806173643,0.0997275020259813,0.17158399800271654,-0.11711911337899637,-0.2593611261976249,nm,0.0
203.190618,8.930791610464508,9.734014268854969,-122.40783246280823,0.19924108575076563,0.34864096688355106,0.8538934693432261,0.4640673613315196,-0.016858494167366244,-0.15571983718362775,nm,0.0
203.200123,6.329319368920908,11.849874615833276,-122.8684384829904,0.6578239545259439,0.6766332724729531,1.1642038349925217,0.6206976674113224,0.20430710955435413,-0.0019800141157520624,nm,0.0
203.22866100000002,-7.935139144098608,16.866049827988828,-122.78020646791073,3.2460269225082654,1.512689585283142,2.114899103902865,0.9128019628376136,0.8683270110333646,0.3743882040907126,nm,0.0
203.238172,-13.73329407565244,18.5687936850876,-122.41306755371923,3.510733064552759,1.327571716564512,1.589711347974183,0.8693881200867193,0.75044175470561,0.4228962634951548,nm,0.0
203.24750500000002,-18.526869169139058,20.155441288140107,-122.05859099222906,3.440530368417196,1.1449099141367935,0.8741224160048913,0.7379376883889026,0.5985837258842649,0.38612790080276976,nm,0.0
203.257016,-22.792152373285912,21.044112608334952,-122.5780080197347,3.4030583213538126,0.5346551815678974,0.16714514651585455,0.5638398248485806,0.5823418312376699,0.1943135941150764,nm,0.0
203.266517,-27.558316045383624,20.634561470859996,-124.29335951877417,2.3405140602916568,0.5938933258613887,-1.0920467450697318,0.40904349543311747,0.7913272276292038,-0.004937262554793871,nm,0.0
203.27602900000002,-31.293323443543354,18.71873478317134,-126.5511092159077,1.3623511088477638,0.16776753091565896,-1.4885600496318219,0.08164605972433084,0.798271433916395,-0.20022052936710322,nm,0.0
203.285559,-33.590863578802335,15.681082188799152,-128.59413382943092,0.898809529557261,-0.5827380871664097,-1.2539794291458848,-0.22799681637621194,0.7216736793287055,-0.2722317012771159,nm,0.0
203.29506,-35.039820441492495,12.424165076305034,-129.98078107168757,0.004118968282179101,-0.5625059282919984,-1.0777922245001927,-0.3403779741825278,0.6335472846830921,-0.20580010447864,nm,0.0
203.304559,-34.92458801334689,9.936393602272528,-130.40589671107,-0.22345688859400867,-0.48682450428373186,-0.7241199315804763,-0.40896237275225,0.30709828400827033,-0.08803771564277757,nm,0.0
203.31407700000003,-33.77374124056851,8.61682374865164,-129.76816692522473,0.10712132328364836,-0.3557449980545948,-0.462171761558427,-0.3624599975001717,-0.0010143668710173536,0.0919659256547661,nm,0.0
203.34262600000002,-28.235620579256448,8.766731862955538,-124.6444039579712,0.6924738645682781,0.2273321248628256,-0.40628336748634536,-0.23579092867861376,-0.4109632358148664,0.26431409794318916,nm,0.0
203.35232299999998,-26.469013608497782,8.756589558191882,-123.82743513933157,0.16922809775466147,0.35759227127344245,-0.6360979307624394,-0.2124850802549144,-0.28619221903916536,0.10952885130009786,nm,0.0
203.36182799999997,-24.440590598175266,8.41815248029896,-124.00313130611184,-0.25278285445007564,0.10956445179531321,-0.7253359933304272,-0.29440529906734386,-0.29367764911983446,-0.09635858935858677,nm,0.0
203.37136999999998,-22.203059871905598,7.893495617373696,-124.9234535802344,-0.4625946914381622,-0.4832060426711982,-0.34558267165232054,-0.35160521336445544,-0.30415875446956386,-0.24875878925668915,nm,0.0
203.380485,-20.35104039567933,7.3396225751262465,-126.05123342408876,-1.142503730565574,-0.5633704723035147,-0.5026495078090514,-0.3176313413061986,-0.23254358503514916,-0.27623099122749695,nm,0.0
203.39969699999997,-15.726441969961607,6.51060839843105,-126.4208752511872,-1.4494190149989101,-0.7304414712610464,-0.13635414830804699,-0.36192962873765944,-0.35291495217661284,-0.005634453403742851,nm,0.0
203.409386,-13.31013275876746,6.345138357351096,-125.22345480230086,-1.395056326052761,-0.47814299522823506,-0.146964785765644,-0.3220332323093942,-0.3682420752107142,0.18277194834349172,nm,0.0
203.41890199999997,-10.739975365689304,6.325583540173557,-123.42939591564155,-1.130130374488939,-0.2209676193924635,-0.06938645475011762,-0.3053946813448365,-0.41844015093854964,0.2990201001398637,nm,0.0
203.43794,-5.731163381054742,6.709188601971055,-120.33618074892242,-0.8259011679782668,0.04972169201827132,0.15106034940415522,-0.20984805669280784,-0.4369627037382071,0.19654645547983432,nm,0.0
203.45695800000001,-1.5858838530953232,8.062939570331185,-120.140212304991,-1.170961609821713,-0.38648416496116034,0.22647728978014206,-0.06383429718741754,-0.407893571435869,-0.11052037012932667,nm,0.0
203.46647399999998,-0.0951881404131782,8.944057643440614,-120.7685846990005,-1.513365023615508,-0.6976152284853185,0.024870611162320345,-0.010458604690417962,-0.34269827567757033,-0.1757277155363108,nm,0.0
203.475789,1.1756659675211123,9.664360538759434,-121.0301959288021,-1.7151834047840653,-1.0040142851980036,-0.12065982016174631,-0.017410042621203915,-0.28824477162699075,-0.14286649640399168,nm,0.0
203.485306,2.225451917101626,10.072764050332308,-120.97690438929003,-1.726602661262462,-1.1461497895783366,-0.17390333525594048,-0.04920855871168969,-0.21830325572593384,-0.03172733702392443,nm,0.0
203.49481999999998,3.082660622901625,10.060064719657882,-120.30586986400748,-1.5612490024449606,-1.0313983194035965,-0.34299789216090804,-0.10088064731055867,-0.14294008216201,0.09780242812647492,nm,0.0
203.504314,3.893281073613097,9.622610239478131,-119.59643412010888,-1.2183836813401792,-0.8247526199624043,-0.22033634027332796,-0.16855432706241547,-0.09339309583025021,0.17932375126852182,nm,0.0
203.51403100000002,4.477347320727425,8.950445247920443,-119.0386350205017,-0.8745966263633824,-0.5169549675858705,-0.14781927846774112,-0.18651490089174877,-0.03325934217837097,0.18056148608387668,nm,0.0
203.52354799999998,4.840352629454511,8.335091936548702,-118.96735302407725,-0.6198820878212995,-0.18569383245415652,-0.18683804494495398,-0.1551220951621206,-0.0018058426248620846,0.09803230233783661,nm,0.0
203.55207399999998,5.575920156669243,8.176210286045766,-121.65434246164271,-0.6132437317523993,-0.06420891476482597,-0.407762125823334,0.01835565273218318,-0.05881383863578345,-0.23478209304128153,nm,0.0
203.561585,5.786799713853409,8.779394440755938,-122.68860296024141,-0.7138788474118312,-0.19580717011708715,-0.32701109971477,0.06769493384426067,-0.09817544544434023,-0.22022511853466684,nm,0.0
203.57109799999998,5.899250212203472,9.607502736816842,-123.1952940194972,-0.7012848115446303,-0.269169759366076,-0.27840894144831146,0.11494620573892876,-0.10703891053245106,-0.1316050411096227,nm,0.0
203.59005800000003,5.442466975195054,11.803392429125951,-122.67557854029589,-0.0017921012534461533,-0.057273458765994795,0.23532712453571542,0.22971678143969826,-0.059847271431931186,0.08397856198294415,nm,0.0
203.59956300000002,4.141441108631643,13.066823683550414,-122.2876052430339,0.6054308931715875,0.3941287698815929,0.5342262337098599,0.3378378593716054,0.08064827214795911,0.12674864202302052,nm,0.0
203.609075,2.0896841900110887,14.28439526141668,-122.28132019796506,1.247957024841265,1.0263671004517099,0.8259441124220609,0.40698421080989433,0.2093218485678562,0.09167307256869227,nm,0.0
203.618599,-0.4821350509535202,15.313021672147258,-122.87372237161289,2.2842770154018734,1.0868536232248418,2.286878265750904,0.4291138924643475,0.3109570299133479,0.006663390612486735,nm,0.0
203.62810299999998,-4.938459989504447,16.12559033818888,-124.01001647890615,3.08497247269932,1.1375960605588424,2.61724468453847,0.5962309527567399,0.6297088201851943,0.008912355042452885,nm,0.0
203.637618,-10.370400238669685,17.09533615960399,-124.97356772557497,2.954855700687744,1.5474627704565154,1.7049813028577603,0.7369828583176545,0.751957299348902,0.11372871670137573,nm,0.0
203.647118,-14.440530429070412,18.463712847996007,-125.1941300577806,3.1704618364182573,1.269687671057128,1.416753194781134,0.6568054811602095,0.48043209541172294,0.2010079572502254,nm,0.0
203.665961,-20.27568494077865,20.412054005958396,-125.48217933773162,3.070273115429923,0.418346274286748,0.3307038490707023,0.40168971951964294,0.3733550525874372,0.10971835673076212,nm,0.0
203.70400500000002,-26.618848074301084,13.318241130829783,-132.83135244634346,-0.14208566864523348,-0.4058108320321701,-1.0010746944734934,-0.41223553618891656,0.42369441917930845,-0.335165550469377,nm,0.0
203.713516,-25.50546209268511,10.759200769935994,-133.78829651900213,-0.2830446679935105,-0.4267305803422442,-0.584573283318914,-0.5360219693522544,0.19696783999871767,-0.23862989073508964,nm,0.0
203.72302900000003,-23.730486460974188,8.87013102876054,-133.79830083551218,-0.15378694845104843,-0.17333147775158592,-0.2712721476091069,-0.5289724819428129,0.01315358410266321,-0.0633493671400623,nm,0.0
203.73253300000002,-21.579270604585915,7.635435187479664,-132.91770269106246,-0.07515634650319442,0.25668404395571764,-0.3384740862277768,-0.486016871256638,-0.13620142855709233,0.11334468665328565,nm,0.0
203.742063,-19.20230022148437,7.019134286330119,-131.57026384816803,0.40196411094700213,0.270993900145025,-0.040925789330601,-0.42235834751384865,-0.2627836469808536,0.2074717742838911,nm,0.0
203.751564,-17.447624025271004,6.86592475012285,-130.37532001183496,0.2306657682095391,0.6115339060498498,-0.317702673302754,-0.2655146707776879,-0.23975790214844991,0.19483598527600443,nm,0.0
203.76124000000002,-15.720636556517139,6.925618232032236,-129.71294714317239,0.09799349113114016,0.5373730436589021,-0.35371151475493295,-0.22535723075703265,-0.2671968668247663,0.08879275684073769,nm,0.0
203.770767,-14.226751948760576,7.062305657871045,-129.75560762084294,-0.14170966412754538,0.08476440556765862,-0.098055941037894,-0.1823050518118271,-0.24249708577369905,-0.04758598877158638,nm,0.0
203.79910600000002,-12.23934569042469,7.744619284633471,-131.55521953538275,-1.3080190792483273,-0.59095815572851,-0.362032246790908,-0.05567582547960765,-0.08602399148530807,-0.09942458676702451,nm,0.0
203.808611,-11.95143786759438,7.742612902851182,-131.3496673158642,-1.3935704140791874,-0.5960303873056544,-0.40455353744631384,-0.05144843266253726,-0.03882108675550879,0.030196279732621404,nm,0.0
203.81815400000002,-11.634126571490718,7.698704451257822,-130.50365068297538,-1.15257105795775,-0.539905956271018,-0.3159326759326382,-0.06126082798245564,-0.03827944404825184,0.15758113077757585,nm,0.0
203.827823,-11.382288523846766,7.650944148017536,-129.26603688447918,-0.8180069351732054,-0.372518653671462,-0.2753977900513428,-0.05282026999245318,-0.028974338212913328,0.23773146577967433,nm,0.0
203.837347,-11.198383001369407,7.660758894557996,-128.01588369331714,-0.5311476176549332,-0.19999761999962085,-0.2630609819311123,-0.03474640654414766,-0.02678653837256198,0.24203193021709113,nm,0.0
203.84686100000002,-11.023645542196316,7.850505980247789,-127.09617168301456,-0.3329296475763076,-0.0913208812769118,-0.2748840060203686,-0.004530191930999789,-0.04790749739302561,0.17600391163187432,nm,0.0
203.86590900000002,-10.493454998073013,8.87093837321657,-126.616381771815,-0.3600224466910099,-0.16223811069814026,-0.28995436166599614,0.046232293483605,-0.12093104266482295,-0.004033368446047632,nm,0.0
203.87544799999998,-10.072371545086472,9.68107931350057,-126.34835774996952,-0.5186507053861572,-0.2992016777368881,-0.2884817977899472,0.06801129148355294,-0.16048056109681838,-0.03161389467376913,nm,0.0
203.88497700000002,-9.438321702901616,10.700753116786817,-125.76842195899009,-0.638750304491274,-0.4160196534324778,-0.27622203050829464,0.07895752342318846,-0.2182969912482834,0.004265917598247931,nm,0.0
203.903964,-7.330208557564817,13.085785156966633,-122.89746348242967,-0.5675212259183686,-0.5143753855469188,-0.1460051688009595,0.0629185323645558,-0.3257154879825087,0.18157795764259804,nm,0.0
203.913486,-5.925590542732278,14.26674424820172,-120.61581803969254,-0.4132992446078293,-0.4225380899490852,-0.03341335339987031,0.04630468358372402,-0.3548336748844058,0.2420958928508821,nm,0.0
203.93247899999997,-2.999674528386086,16.096288584959755,-117.11344188701673,-0.057755293190797835,-0.15288303703177722,0.3159858141653904,0.005001188379215194,-0.3106302276685932,0.1765978973009236,nm,0.0
203.94197799999998,-1.9808351920743343,16.736572634139385,-116.50857957009563,-0.02929896029727612,-0.025663151202986668,0.400832952934021,0.013198194073497684,-0.23152732613989843,0.07535283892159395,nm,0.0
203.951497,-1.3633998552929625,17.269031725549095,-116.69545709195464,0.015190609702150231,0.005273539142833732,0.49648272676541977,0.029354168420377563,-0.15247132224624807,-0.027908031735772647,nm,0.0
203.96100700000002,-1.2135996845280628,17.680252789412098,-117.49400765986829,-0.025103612437506063,0.020197615150191778,0.5683468818713037,0.047404407017979856,-0.06189827703155025,-0.08986316013638332,nm,0.0
203.970519,-1.4188482353807255,17.96200721362367,-118.6586862353474,-0.0502195172716812,0.024856904164718828,0.5489418003828078,0.05562647216995856,0.009160076651196865,-0.09455716156997408,nm,0.0
203.99904999999998,-3.152962378903169,18.689486382109603,-119.65015130538401,0.29173654723671527,0.06960591678838296,0.6033669464509971,0.10743171581653589,0.09532802921259022,0.0927584498088377,nm,0.0
