timestamp,roll,pitch,yaw,acc_x,acc_y,acc_z,gyro_x,gyro_y,gyro_z,markers,motor_input
233.00565300000002,-36.33229887099602,24.82571275239217,-113.3473716757668,-0.06595136211461557,0.2240940344704675,-0.1406801296817961,-0.22338922569398093,0.30245450129746165,0.09025416244394217,nm,0.0
233.024684,-39.811036393949344,21.916992934622122,-115.04866500410593,-0.3509125846994448,0.19184524507782816,-0.6660671286545696,-0.11368014884336118,0.43105866350941774,-0.07892886844229975,nm,0.0
233.03397700000002,-41.69959660058312,20.713975220308594,-116.30853684217554,-0.5333116058513433,-0.1949500209399188,-0.9891049381968334,-0.07846170746968217,0.42051503619832964,-0.11312338211542813,nm,0.0
233.052923,-45.128285483155054,18.92318749188585,-117.74233100737226,-1.2930451476171834,-0.9488372772490368,-1.7065120961924953,-0.008954022139761087,0.32641312311619136,0.010449030633242876,nm,0.0
233.081541,-46.25323855559086,17.855880088577692,-115.63660468289325,-1.139729077656364,-0.9805154469031822,-1.8786590262660456,-0.10443171864794833,-0.023567027561037814,0.23228657461767116,nm,0.0
233.09105200000002,-45.30967137331938,17.53665523461911,-114.16351536439272,-0.643081877915376,-0.7633071209299577,-1.682578284046668,-0.14756831238848864,-0.13843498451847,0.24021790813780786,nm,0.0
233.110066,-42.85093590815769,17.2178109960146,-111.1025923940336,-0.4196254013246695,-0.01720920284177362,-1.3304623679589946,-0.13077269743408115,-0.24850046131562953,0.22940394022850488,nm,0.0
233.119583,-40.920955113842666,17.578905391739422,-109.56409482937086,-0.06747271009034712,0.06752643157404352,-1.058578474002363,-0.07416258312967593,-0.3737343356337349,0.1943062792191355,nm,0.0
233.12918599999998,-38.81284474586644,18.607160907681077,-108.05360684735786,0.016661333302289274,0.045172232571514676,-0.8960550852245311,0.05168695066333435,-0.44924113817041794,0.17259986209397785,nm,0.0
233.138704,-36.406090356042775,20.373250539329348,-106.5168167934335,0.20686666518131003,0.05974160918965482,-0.6104697115784516,0.18880668073689832,-0.5421010770975716,0.14744139156047972,nm,0.0
233.167221,-27.713894805668257,26.57500717491321,-100.95450728444624,1.2504289157197492,0.497046121996097,1.3289610433221162,0.24007119109065875,-0.5884774591576105,0.13076482520185517,nm,0.0
233.186255,-23.90991448001107,28.72660211243788,-98.7252336025075,1.8036630955057666,1.9715436008892955,3.2241596314245697,0.1061042736684016,-0.2855815942512035,0.0013842025612602902,nm,0.0
233.195755,-23.482602732248125,29.303093654664067,-99.22022416337336,1.8041058524685654,2.4591649317889814,3.7157858499126766,0.08893754098583344,-0.09548186717143259,-0.14356414282770216,nm,0.0
233.205275,-24.00187842305244,30.061032244099795,-101.04287304069818,1.662576883758456,2.301023304381264,3.3684526615516015,0.15179094102811663,0.059056660800442605,-0.3163500873374368,nm,0.0
233.21478699999997,-25.31589102042103,30.821222954000515,-103.58766762264817,1.0246001313978168,1.8267284777757442,2.259849350293089,0.18346170503257062,0.1864771858804141,-0.3789096232078509,nm,0.0
233.224299,-26.912066955065576,31.422191659426364,-106.26121988912442,0.5709916889994708,0.5763799628977019,1.4750747580244281,0.17297209225909238,0.23119482502723193,-0.37254751240644474,nm,0.0
233.23380799999998,-28.604736784561933,31.943655046059735,-108.69470178956678,0.03188552701873329,0.06039693942612219,0.6197163818417636,0.17233814200842673,0.24196286110357418,-0.3113965307353941,nm,0.0
233.24333299999998,-29.87460391115156,31.986868541661206,-110.38592417387402,-0.409243325337931,-0.36573518203609684,-0.045641065089119616,0.06634485050495666,0.1988887605624113,-0.20598149855707962,nm,0.0
233.25283199999998,-30.506477941155083,31.3658825298096,-111.22193799929755,-0.5720415259512766,-0.7369977854755511,-0.31958217371823966,-0.09201331597340248,0.1434356839513391,-0.10276048396968267,nm,0.0
233.27197900000002,-31.429096750636226,28.952768647081346,-111.82235100438456,-0.5326807926958828,-0.3830378938616704,-0.24293293974847552,-0.24113090837261114,0.18377690659574666,0.004734442053452342,nm,0.0
233.28147900000002,-32.08381332879362,27.151410288734876,-112.04169520202208,-0.4170710961534017,-0.01138901096886655,-0.1268622710598341,-0.30549074645234464,0.2406130895268116,0.016686802543253932,nm,0.0
233.300493,-34.3226091766366,23.478632430473063,-110.36596383118665,-0.4606672842547931,0.20964003597425004,-0.32655455252154186,-0.24936025404653261,0.33797829466715235,-0.024036557310250273,nm,0.0
233.309944,-35.85450589631418,22.21943206599719,-108.99255063130607,-0.5760049813338096,0.029914839644454995,-0.626623184059327,-0.16280396602383632,0.3457042505970199,-0.040928249367717516,nm,0.0
233.319267,-37.498404658586324,21.34039870114408,-107.8374395044575,-0.704078789049656,-0.2958343035188321,-1.0053063604139802,-0.08991153869858547,0.3413943634137478,-0.01993490270421845,nm,0.0
233.32872999999998,-39.124554550586154,20.792673173576624,-108.33186276080295,-0.9064605939275432,-0.6945139795414597,-1.3889933194440789,-0.02375206730396123,0.31983439714717593,0.01916569840205142,nm,0.0
233.338248,-40.575919590558314,20.499231454913208,-108.57988248226005,-1.0086685030215081,-0.9818780011742494,-1.674208651183237,0.01657984831234107,0.273449572018478,0.0542452438207715,nm,0.0
233.35752499999998,-42.558312704526166,19.968765658288202,-108.24110732383028,-0.9875457445905941,-1.145113221105909,-1.941845774811164,-0.022126949393694598,0.16425177721291406,0.12030524173376647,nm,0.0
233.366858,-42.86989938635187,19.552692801394983,-107.68491595083574,-0.8722442922698109,-0.9963207823843692,-1.8507545079716214,-0.07477357983963434,0.07804764783925852,0.13444541017342776,nm,0.0
233.385864,-42.178854259763845,19.020816520224482,-106.01580341268233,-0.36644435901093214,-0.46074211515936,-1.3777597147166893,-0.06423131067612131,-0.08041188899292387,0.15215425220920584,nm,0.0
233.404818,-39.95725039424708,20.447842285473826,-103.65339347146539,-0.10203462548231225,-0.0007125611378904262,-0.9525557475893087,0.13133332101960501,-0.3160014136340574,0.15885878749220037,nm,0.0
233.414497,-38.023945809254116,22.25644034548974,-102.14921059874601,0.2763112723803231,0.004697158452842472,-0.6915647763612294,0.2589998553545139,-0.4367490233021724,0.16086211979403675,nm,0.0
233.42403299999998,-35.7729978732245,24.60815209137318,-100.40210161780462,0.5510674027823057,0.0969814636497211,-0.32639781454507255,0.36747390398017227,-0.5023101204626137,0.17043286651342562,nm,0.0
233.43353800000003,-33.07350396528063,27.081740724955765,-98.33239755625621,0.8753445516094001,0.19204561695284122,0.2420542437727356,0.396109428934503,-0.5654587259108275,0.1777395907336594,nm,0.0
233.44303399999998,-29.95774027646983,29.167574377777512,-95.94177518367344,1.4094976727770063,0.44554252523524707,1.1731491048543312,0.3327804307837097,-0.6028710972471168,0.18267010400040684,nm,0.0
233.45254200000002,-27.017255370910213,30.455972760329004,-93.47562573381663,1.7130835142173015,1.0664164554333386,2.343282678263916,0.20211760079678193,-0.5355262002570808,0.198516723841498,nm,0.0
233.471558,-22.931168346181742,30.508844849708613,-90.36336545771373,1.6862952015622539,2.959306204054521,3.963413509836182,-0.07059424637886222,-0.2878037469587592,0.029645903630187452,nm,0.0
233.51910999999998,-28.00832968925906,30.156147122344674,-104.24571184844555,-0.3084137160025759,-0.7505274909505901,0.02022273675218696,-0.007713739200402866,0.1801920938182528,-0.4670777916759999,nm,0.0
233.52847599999998,-28.87029225374117,29.508927785274132,-105.7779014303312,-0.7975362017919554,-0.8800527944650058,-0.41506701261029033,-0.10022029539701852,0.17559509264944412,-0.22282324957331828,nm,0.0
233.53798099999997,-29.08305349819837,28.464484372729743,-106.0578057951838,-0.9998051904980662,-1.0036204518549248,-0.5525693996695739,-0.20476894584600228,0.09063789413524657,-0.03717660769164176,nm,0.0
233.55727900000002,-29.52653510178778,25.944363824871967,-105.35528905140744,-0.5222819219861039,-0.062139986685154185,-0.17890437339236617,-0.26006395108321523,0.16772347298889967,0.1224787597858793,nm,0.0
233.56679,-30.624876757983,24.130231743662403,-105.39418622391135,-0.4132762089922334,0.27089858802867517,-0.12549173779686965,-0.3112908526160368,0.28548602861776257,0.08429447118546479,nm,0.0
233.57627599999998,-32.35639600941925,22.292623474735834,-106.23700356914335,-0.2708435364878592,0.2803057368542644,-0.18348560061823163,-0.2810499576386563,0.40392568123083605,-0.03249675426018811,nm,0.0
233.58577599999998,-34.78787065815038,20.679448470928904,-107.85203129220807,-0.5138470444240937,0.20900290056802476,-0.6068649495808276,-0.1899089141368167,0.5250342265367972,-0.144699276610193,nm,0.0
233.62378099999998,-45.48034710421439,16.715898516421362,-116.01274105452006,-1.2261612140463047,-1.469380721387182,-1.8653591075681777,0.11737925229940392,0.4488271222961985,0.07011109241174074,nm,0.0
233.633233,-47.62124644259872,16.52502496799376,-115.72598653183674,-1.2238906657600686,-1.4148733916016893,-2.0300299978860092,0.13116302883111253,0.3844050437167343,0.18334431381423827,nm,0.0
233.642753,-49.26062366346118,16.445675853818884,-114.99896386723519,-1.2611694158437299,-1.174310262729942,-1.9771944138262556,0.10691585147075768,0.28904072149370225,0.24234441562143777,nm,0.0
233.652348,-50.00693036677957,16.586363530546496,-114.04338383354148,-0.858703722432678,-0.8379797344593085,-1.891617690606503,0.07161837751056471,0.11616047798359189,0.23756521010993908,nm,0.0
233.671189,-50.1237014248293,17.47298324289665,-111.6100029689422,-0.33232760248740617,-0.16762482829383576,-1.6301996447585947,0.08103031984658887,-0.06982040371831777,0.2547358068636813,nm,0.0
233.680689,-49.22560905082568,18.61255440076974,-110.33926085391734,-0.01305675984109399,-0.029126857569452883,-1.4873607332693113,0.13847653285062828,-0.24475353825209806,0.20206377405246778,nm,0.0
233.69965800000003,-45.50010591467054,22.94724042520465,-107.60692964464513,0.44489032750922575,0.08693196055522359,-1.1087947408572691,0.325423172362068,-0.5498965976628772,0.1347561598880722,nm,0.0
233.70919999999998,-42.25198433845187,25.642682852468905,-105.55933783901422,0.9564193552017102,-0.010048058436317887,-0.5824147448906764,0.3343869557556232,-0.7262770615954595,0.14326372758688097,nm,0.0
233.718834,-38.18198904391085,28.179190781486312,-102.89131460698559,1.478822772542278,0.1987440472799932,0.26431310786936985,0.29998871540231686,-0.8335166023498238,0.16500496413085886,nm,0.0
233.728335,-33.65799285685381,30.009284806393822,-99.69299408441374,1.9331207042011855,0.7564762135917774,1.532112172137476,0.19073318350184557,-0.8524764945862745,0.1984319109769653,nm,0.0
233.737858,-29.097551957979547,30.704465189196554,-96.38624111172071,2.278967123624822,1.6690050336641127,3.015764814628265,0.014301616560610046,-0.8043943823773355,0.19822736112556558,nm,0.0
233.74736900000002,-25.145593999779198,30.384150687863908,-93.94842022301334,2.0677040628910404,2.9441884771802167,4.190204691797359,-0.13831055617267493,-0.6778371457805205,0.08301318316788663,nm,0.0
233.75688399999999,-22.417755484175085,30.04550021252354,-93.76084696895681,2.0742068945430434,3.6055304233735104,4.661985921905571,-0.11240747192085496,-0.47106290729376393,-0.2405789325290759,nm,0.0
233.76639400000002,-21.54900499569062,30.212657845169204,-96.04799845748036,1.4614014629688428,2.8395332184545845,3.8443457390147597,0.007326920293032639,-0.15686094189114197,-0.5486508506731177,nm,0.0
233.77589200000003,-22.24195600923207,30.64566898185182,-99.84367030701496,0.8876762769436017,1.3418213975605622,2.615057267818022,0.08903495493629565,0.1032556272268209,-0.6929758040951565,nm,0.0
233.813794,-24.24351894285469,30.710342303220052,-107.9719413016825,-1.2715491237195995,-0.9728751508744061,-0.5858182464470715,-0.1810072802900893,0.059572889822940886,-0.0071134094358174475,nm,0.0
233.82354999999998,-23.837461484962308,29.489927985915102,-107.43041749518278,-0.7406872241786032,-0.7638395100832478,-0.07312311024523357,-0.2680246890776489,0.005675447885434228,0.06472717750305224,nm,0.0
233.83308200000002,-24.248883894119256,27.879583472624475,-107.0941891750437,-0.49932854284055606,-0.12860700417309215,0.1300766130436866,-0.30034058079581405,0.16289907873313345,0.10419407189651879,nm,0.0
233.84257799999997,-25.58731484707125,25.819084539559128,-107.44413135412883,-0.4368973021636295,0.5855482646728616,0.11712824747093305,-0.33690815497460064,0.34888136574481726,0.048817280739256244,nm,0.0
233.85210300000003,-27.53910541514018,23.58107345591431,-105.44911136537687,-0.25497726872120835,0.49524233528458944,0.19173497643520426,-0.35591495111178084,0.4554403759819319,-0.07412472694227676,nm,0.0
233.880393,-36.25087264011145,19.269583620629803,-118.4027569338995,-0.8657989259864539,-0.4473353826669929,-1.0743979374348935,0.06717295375038149,0.6008337564889729,-0.09245182283821347,nm,0.0
233.899574,-41.881045359726464,18.753953747838956,-117.8141724089688,-1.2085786641080545,-1.306559917737373,-1.8493012488049851,0.22283425824742334,0.4463058481603518,0.1460701659113054,nm,0.0
233.918664,-46.11350196525998,18.527641832682612,-116.60933117432543,-1.1850312256923883,-1.084593485977143,-2.1420961599174273,0.09047808743185543,0.34664310737518594,0.2439888415873887,nm,0.0
233.928144,-47.181075503944385,17.900552612730436,-116.05916412981516,-0.9162042001516552,-0.9175515286130829,-1.9112248868202233,-0.03621715524442587,0.23586081780283508,0.18000775248858691,nm,0.0
233.937492,-47.761610216714566,17.194454790357632,-115.62565995450888,-0.5051561735169376,-0.6424142787953484,-1.7866315266288346,-0.09263123260677138,0.15942903802494277,0.12508720063221523,nm,0.0
233.947009,-48.130603526505745,16.581712369284222,-115.09346153088207,-0.6208920865847064,-0.12000783135051464,-1.6489355200423506,-0.09423186681292678,0.11435504229541081,0.13141726792494457,nm,0.0
233.96602800000002,-46.42681197267761,17.57243371985999,-113.23835484014032,0.038172517239513704,-0.18343494664292934,-1.2088989958008443,0.09454962011819458,-0.28877923975086583,0.1380281097417936,nm,0.0
