timestamp,roll,pitch,yaw,acc_x,acc_y,acc_z,gyro_x,gyro_y,gyro_z,markers,motor_input
196.50479299999998,0.9684701816282005,-6.9489224354040156,-101.12933065225032,-0.0471381631625627,-0.0391224342700389,-0.3896094944031383,-0.02877968205001603,0.39071802177299253,0.11998216720295095,nm,0.0
196.51432300000002,-0.33527025143310774,-7.661372160377889,-100.55589561915757,0.3216864903266405,0.3836856051628228,-0.1757589530830813,-0.10422037515996872,0.27646659216238484,0.07768496321812851,nm,0.0
196.52384300000003,-1.4924035687432302,-8.384145140365462,-100.39259155062724,0.395059352067108,0.7157602831628896,-0.3283842099879933,-0.11350615780219579,0.2472021368128655,-0.0032424299456229864,nm,0.0
196.533375,-2.255857988082924,-8.766962301048473,-100.57744235312808,0.37319413202606905,0.8987973499603689,-0.39633883754030363,-0.060841791397953024,0.15791931492359665,-0.06319908298238915,nm,0.0
196.54286499999998,-2.5509257249159347,-8.644325118475663,-100.92654597113226,0.5081799381520951,0.9202656649015386,-0.16663762387674952,0.022001479778914042,0.04822196099138369,-0.08218172206825393,nm,0.0
196.56189700000002,-2.793660018663015,-7.166266948022533,-101.19899948814205,0.26151756776140167,0.19061812933558758,-0.09867620128543363,0.17081933737706761,-0.042939488568929186,0.00040540280291662855,nm,0.0
196.580924,-2.381265121203938,-4.466391491840719,-99.85829775735843,0.21409575503619957,-0.594596020616078,-0.08782073228162704,0.25231597927264615,-0.09279065515909393,0.15939056869429064,nm,0.0
196.590427,-1.953530857800025,-3.348043829021076,-98.75724150440371,0.2694545143927909,-0.8139559370202349,-0.020514013454612828,0.1945204008206647,-0.12515043315350602,0.20553267577922268,nm,0.0
196.609451,-1.0279631871148287,-1.9312036784007738,-97.06869273325228,0.4077585881575547,-0.7230730377641769,0.0809433868389932,0.09431348979791723,-0.10234076055532029,0.1509878683544935,nm,0.0
196.62846900000002,-0.5374827592197122,-0.9952288786893727,-96.49504629781227,0.4672774581009476,-0.8282131171642897,0.35650451948180406,0.08239691600809085,-0.04142334265310652,0.023594010354890626,nm,0.0
196.637985,-0.7315690243277805,-0.26616463148800135,-96.50669751878003,0.4030723067964177,-1.181904497052551,0.3432271950458592,0.13703011506871238,0.01705581278146831,-0.007460890148720187,nm,0.0
196.65682,-2.2932184710635988,1.5213546834691918,-96.32267943242904,0.46615068354780476,-2.1299209676700066,0.12759840356145577,0.1793723918857434,0.1832525281183912,0.03104098360673939,nm,0.0
196.66633900000002,-3.725640942428418,1.9105385266123827,-96.0787506810489,0.4934494719351902,-2.4812175468135638,0.03245473869019278,0.09584221928639336,0.27168093726949094,0.053106922733525956,nm,0.0
196.675851,-5.316033484143567,1.9329782833909754,-95.92916547951035,0.698035665450335,-2.4643116003142795,-0.005187670689079737,0.025065347118749515,0.311110204175016,0.03663973638917075,nm,0.0
196.68535899999998,-6.998640967115902,1.5670496302883499,-96.0827561687212,0.6604473498786717,-2.072487399998068,-0.24970424194054966,-0.05044731483580727,0.3376419143671874,-0.02404873945418184,nm,0.0
196.704559,-9.360929449831454,-0.33902169365503876,-97.35387987563112,0.9081137285044888,-1.3172097449323867,0.2562025096195281,-0.1937240069653916,0.24142215654184868,-0.0673971431983497,nm,0.0
196.73308699999998,-13.081021582810564,-2.8277759793768182,-98.06905637788392,0.8977743767738307,-0.4709544647215166,0.07375384994936247,-0.10967942492216683,0.19329375730010248,0.05479149422801665,nm,0.0
196.74262000000002,-14.143134415832874,-3.1152905401440423,-98.01877177590696,0.5763448568194154,-0.4198879994260379,-0.2839933901939803,-0.03992027955570065,0.21379088564034987,0.07081690965554542,nm,0.0
196.752129,-14.60078777772421,-3.237181947240071,-97.6645861790973,0.41873352543311826,-0.3733741362940912,-0.24230727688834341,-0.024892491378062348,0.08925404008378231,0.09436069706457469,nm,0.0
196.761608,-14.366906452761013,-3.428527454455397,-97.07377715119866,0.5706084920246637,-0.3998746537473741,-0.0657157559150803,-0.05724795430908721,-0.046351622001283746,0.11259898343177857,nm,0.0
196.77113899999998,-14.160569620378963,-3.6766844232130818,-96.44739431036979,0.33094866018264135,-0.35135251194822836,-0.15896198519141944,-0.0673478810186061,-0.04022945608682417,0.08919177749109829,nm,0.0
196.79016900000002,-12.687616993827024,-4.288494285079484,-95.60806236194094,0.2448847586093614,0.013035269318194195,-0.10015403067960364,-0.09893585641516026,-0.18193565673714862,0.01320830713933939,nm,0.0
196.79968,-11.88957502396392,-4.711260966679059,-95.45821642460217,0.13357902934252358,0.24418853510409583,-0.04426479194732949,-0.11210880556120162,-0.15610627241270367,-0.04251521027597404,nm,0.0
196.818637,-9.719050264310795,-5.294918741283603,-96.52537081436756,-0.08889141653519901,0.8987468667148569,0.03813564124398369,-0.08709372512492929,-0.263576311067769,-0.09255150903998902,nm,0.0
196.82815000000002,-8.08453575931564,-5.367480663096653,-97.03778958720456,-0.03807590214645737,1.1773249404162804,0.20158464046282923,-0.06591315862461947,-0.3269900099027453,-0.07474901755338996,nm,0.0
196.83766899999998,-6.563777862950055,-5.152457626321422,-97.44849728965617,-0.372467132433912,1.3485520207355928,0.007795832468439169,-0.008475667267405111,-0.31128639048693707,-0.05722595233288981,nm,0.0
196.85666799999998,-2.7031499887006163,-3.9442318583856153,-97.89456475019749,-0.5691864074992127,1.610785223204093,0.32255810437292126,0.06487691807748706,-0.4215159498582106,-0.009026688620659404,nm,0.0
196.866182,-0.7032319086231612,-3.293331792980907,-98.02895363632963,-0.8955954962626592,1.5417374772533186,0.19974231849267746,0.06112642253231896,-0.41881391104310534,-0.0059846217556776765,nm,0.0
196.875706,1.5315506430970462,-2.687612474433578,-98.0767937666335,-1.0312796943228748,1.459010250759728,0.5013315580376712,0.04508408044281154,-0.46440909425416005,0.008884076376539693,nm,0.0
196.885215,3.5566092522635624,-2.2139447101429255,-97.99197314534463,-1.1536213671917739,1.4089535944068623,0.47272011160544714,0.0250907093819332,-0.4193667896229818,0.02897424242252097,nm,0.0
196.93276999999998,6.459499426530378,-2.8804814445425198,-94.71260739709233,-0.9811047062443988,1.413510506475083,0.30724930366030906,-0.007985521324142632,0.10010933274737678,0.1855615414097549,nm,0.0
196.942267,5.280254312859731,-2.651533280423561,-93.68604850717256,-0.735046609406637,1.0815381467257,0.2665659877723048,0.051378277623103846,0.2259608697959198,0.1884936845458969,nm,0.0
196.96129699999997,1.643863389250502,-2.0010653696188716,-91.81592742390296,-0.3020096770911435,0.22373281071225568,0.12991215494955025,0.06889742715580724,0.3799721684833208,0.15712926544432293,nm,0.0
196.97082300000002,-0.40949357124342134,-1.747145836825373,-91.1190029258726,-0.12434385885469196,0.0024558857065927818,0.0008884621405742471,0.04947650781143662,0.40322872025043566,0.12147221314794297,nm,0.0
196.98036,-2.4236729157281234,-1.6893122087765289,-90.68850843472553,-0.00364083250782008,-0.04629230306403607,-0.07153477418486588,0.0059507988545856715,0.39655457815011386,0.06989913045687592,nm,0.0
196.98986399999998,-4.305379013148804,-1.8759775203163978,-90.57507372405749,0.10933588503393434,0.06828099639661245,-0.08209110752556777,-0.045331472345796944,0.37062480446981483,0.007211363100062565,nm,0.0
196.999361,-6.076399354271039,-2.1781833864129028,-90.78317970728072,0.07463296343327927,0.25577995221910854,-0.2259147649179826,-0.06855652312832679,0.34876467456783905,-0.05757532526136319,nm,0.0
197.008877,-7.426315671423285,-2.3942855655212805,-91.2332697465747,0.06344264888151206,0.40000935428288265,-0.33336104344741063,-0.05089336926212546,0.2645722518934098,-0.10395209726635055,nm,0.0
197.02793499999999,-9.328903140460437,-2.0878241406525024,-92.59244866752805,0.13617410167869157,0.4002198508935037,-0.36586081848334123,0.05022667890959553,0.1790402865638467,-0.12944142994700245,nm,0.0
197.046971,-10.407162299403172,-0.6610677115801098,-93.40003237459733,0.3032032682344731,-0.1818603112066537,-0.16004912343113334,0.16762083863545768,0.07451605588784803,-0.0705872896082365,nm,0.0
197.056481,-10.885013528342181,0.42482563014560054,-93.81305145708615,0.26749676924273597,-0.517397543175241,-0.21606581793366347,0.21034697152454376,0.07594298781028941,-0.04889988956682069,nm,0.0
197.06596599999997,-11.206908185386204,1.4834497972238032,-94.21699708440087,0.3461009886326352,-0.8350987539264416,-0.16266199755724273,0.20320053320896145,0.043672789925418176,-0.04073066913613576,nm,0.0
197.075455,-11.523949789916035,2.3638152516669164,-94.68657358390035,0.4416447921299856,-1.0940270097404134,-0.046730573899783766,0.16784042028716045,0.044053966668451204,-0.058511961331049356,nm,0.0
197.084962,-11.946932153880423,3.002409151079455,-95.26285630927926,0.4620011813115565,-1.2666756601868798,-0.022458992042098988,0.12179663448355559,0.0680242924574492,-0.09783007881668805,nm,0.0
197.094486,-12.439342003345967,3.374032758306411,-96.06086111696706,0.5647010839018999,-1.4315271511854608,0.11123037937592907,0.07074567914180241,0.08569381047780657,-0.1436590950737101,nm,0.0
197.12284300000002,-14.877648718832797,3.678758391326933,-99.23700368244009,0.6193600971359247,-2.216748513420248,-0.03751412747414802,0.022740955303477067,0.18131401784732423,-0.18236498112148333,nm,0.0
197.132328,-15.921562062539211,3.511727116290212,-100.20356530533323,0.7020604282378374,-2.3096126673682345,-0.14495249168945526,-0.010995644146471958,0.2073283963580633,-0.15459542815133107,nm,0.0
197.141847,-16.92892122423786,2.9583031653279686,-101.27082511895043,0.626631885147699,-2.193119963237673,-0.2775698199668304,-0.08423826922577483,0.215034615953829,-0.1273947682444248,nm,0.0
197.160876,-17.874817923895353,1.1666628548482385,-102.47273366936057,0.8790831330796849,-1.6138454088643683,-0.15255505202534334,-0.18216256015117208,0.11295511916523346,-0.04840645878468825,nm,0.0
197.170396,-18.310599516732086,0.18692410862495004,-102.50880301821363,0.7587872262729064,-1.0644081167071342,-0.46070202392523296,-0.18637010509103913,0.12418762571958156,-0.0006528599307845201,nm,0.0
197.179896,-18.296206301294895,-0.8802913692977399,-102.23284768910709,0.8043762885376825,-0.7296890572876363,-0.3944110255707063,-0.22312674749819175,0.0391903395971011,0.03148706011388777,nm,0.0
197.189586,-17.86190320674351,-1.7687340391824444,-101.88321237612114,0.8624206631270281,-0.5619057685008239,-0.15424886266727106,-0.20572153959758774,-0.05200333169999675,0.014756501873566728,nm,0.0
197.19911199999999,-17.167459743640496,-2.319737194291246,-101.70526444632077,0.604127665842902,-0.34402060777969246,-0.19579940588152847,-0.14970832875906429,-0.11766199465377875,-0.03570646268762205,nm,0.0
197.218106,-14.465264436091147,-3.7828693397974784,-101.33000941739942,0.2886054756802277,-0.291727253711082,0.19115192039714324,-0.23895963357333308,-0.27089560055877737,-0.05634577898574572,nm,0.0
197.256117,-6.25029367702812,-6.439379594667293,-101.96324778800069,-0.07943535797517323,0.5245693617134909,0.30925593323439265,-0.26125356010138606,-0.40536154094017274,0.07058675605619416,nm,0.0
197.26544600000003,-4.34869874817775,-7.1701948661246,-101.7215599207923,-0.5308387922457181,0.8542359273009319,-0.21697881414606093,-0.23399762189389825,-0.34427107368215243,0.09034871151779135,nm,0.0
197.27514299999999,-1.9428701624009492,-7.925109290899659,-101.36599293578783,-0.42822846791670166,1.1934567196874664,0.24378717909690242,-0.2566714619875956,-0.44214873131361493,0.13089449951186777,nm,0.0
197.284456,0.3171178581674243,-8.70004920334906,-100.96840423406485,-0.5780281934965229,1.4298689108020222,0.5247415731452538,-0.2517658522235295,-0.41398481387207425,0.14109287899530465,nm,0.0
197.29397500000002,2.4227854844342915,-9.241456055629026,-100.47637165158454,-0.9115463288642747,1.5448627892894655,0.19189457469295132,-0.19660804337907517,-0.39401508550114167,0.1599698941032965,nm,0.0
197.31317600000003,6.090187909324089,-9.57217429611764,-98.93134115650574,-0.9922487737506501,1.9952287467178993,0.4099348545809336,-0.08000245693910346,-0.29251527993978993,0.214998853710403,nm,0.0
197.322512,6.980543079414163,-9.67117837852992,-97.97229641948068,-1.0888196113933748,2.100658755204923,0.10626966621278722,-0.0573886650576408,-0.1767114575050063,0.21670132246736673,nm,0.0
197.332013,7.565731949319487,-9.59070179933751,-96.9598491553993,-1.1233689467383483,2.1860770740389412,0.12302262019179887,-0.010808629418067869,-0.12262520040798616,0.217080991124759,nm,0.0
197.35104399999997,7.850693331675933,-8.57204271180727,-94.9389101000008,-1.1164176822856213,1.68917149475558,0.1646812340270648,0.11758403722963816,-0.010013844167652016,0.19583209474107965,nm,0.0
197.360734,7.25280726624291,-7.675005476885962,-93.85277770912062,-1.1011593076848798,1.213464464333133,0.25315794039466827,0.1767308268833324,0.09799157289192682,0.19512399936368366,nm,0.0
197.370237,6.188493467083227,-6.650666527410999,-92.63264571622311,-0.9638694755830994,0.7575798094603553,0.2564746608491432,0.20532562168090568,0.19299379049674614,0.21236716307665646,nm,0.0
197.37974699999998,4.677030659220205,-5.731585826949596,-91.32668057647236,-0.7422836739576516,0.37989083350686775,0.24502991678638134,0.1828906698290905,0.2876995660960926,0.22366002226219336,nm,0.0
197.389267,2.750189795634613,-4.98749694567474,-90.0588391750075,-0.5497003674921023,0.13065705787268903,0.21270582287725287,0.14215379385624038,0.37551452063157026,0.21291556361176114,nm,0.0
197.398785,0.622148514902478,-4.3198118429763515,-88.99746968571255,-0.3359923763190763,0.10443238392449286,0.21378110866551325,0.11864689196357354,0.418876104371867,0.17339346495914343,nm,0.0
197.40829699999998,-1.5838964577251495,-3.7109533038268383,-88.34446644903588,-0.16237602908792403,0.24930969553426974,-0.05624807390471314,0.10000773382270646,0.43637816102040233,0.09566089653730304,nm,0.0
197.42731,-5.555567357459615,-3.0453882486604957,-88.55558473743076,-0.008034352891369365,0.5284627924865767,-0.30244675105387037,0.02588206949492344,0.3661052251097176,-0.0921593484325932,nm,0.0
197.43682199999998,-7.193524884729892,-2.84423465128691,-89.15224465716932,0.005333022845712466,0.5468497823459562,-0.39602067397361357,0.0215870514992124,0.3215842137040699,-0.13935559755373106,nm,0.0
197.44634599999998,-8.689885815946422,-2.4978137676130583,-89.69322915832005,0.06181094525231735,0.5120349807058344,-0.19883215944763663,0.05406918602763912,0.29342744608809695,-0.12504253195078105,nm,0.0
197.45584399999998,-10.184576345918533,-1.871528773908343,-89.90974517845581,-0.0381856917515531,0.3413099426927664,-0.22082887029818132,0.11198823868088208,0.29303673263910596,-0.057275495177912625,nm,0.0
197.46536899999998,-11.313931463292063,-0.9424616123064092,-89.65286596808657,-0.0019102352167698915,0.10716198909460121,-0.3004399140498425,0.17276794727970296,0.2202951335103543,0.043497751810042576,nm,0.0
197.47489900000002,-12.020245788182754,0.1689683923458496,-88.99801071384205,0.28003391886018186,-0.06283424941686289,-0.12755316805640682,0.20851558481136245,0.13745488617087046,0.12780741330976267,nm,0.0
197.48439599999998,-12.58945967733927,1.2247811244927669,-88.20968426650889,0.29744768886384265,-0.1786169441103431,-0.21719199622587756,0.1962875918501925,0.11237432537755208,0.15687845997133068,nm,0.0
197.493912,-12.69909800306637,1.9914564688673126,-87.56676792911257,0.39064764217244746,-0.2161828525965802,-0.19554558004520145,0.14038802827610222,0.02076208132611162,0.12693524744495263,nm,0.0
