timestamp,roll,pitch,yaw,acc_x,acc_y,acc_z,gyro_x,gyro_y,gyro_z,markers,motor_input
239.006786,16.617157697847134,-33.31770931695329,-69.4735748865567,-0.05584070800193785,0.028573367639256504,0.4132116033740941,-0.2519153857246176,-0.19357543268800786,-0.08999186290961787,nm,0.0
239.01629699999998,17.25408335345399,-34.8922894287895,-70.16302187183679,-0.1972923261824817,0.01063967188278397,0.37362751609922706,-0.26534435038019205,-0.22050982431427402,-0.0695585814636673,nm,0.0
239.02579799999998,17.864357619906404,-36.57364495935914,-70.60730781928982,-0.3397599683000209,-0.03189245106563814,0.40576555470926756,-0.28964583541142164,-0.2191419500008629,-0.020410190084828833,nm,0.0
239.035315,18.2282833794151,-38.40501683723245,-70.64965979993033,-0.4189663456976503,-0.024018258767174394,0.47435967892535497,-0.3325062725900953,-0.1889687173492553,0.033313641630034974,nm,0.0
239.04482399999998,18.086366692219585,-40.46827507944572,-70.27941622590531,-0.4517821738967989,-0.09153655899012808,0.45500702460055203,-0.4023571417849368,-0.1303658547493557,0.05388784540281904,nm,0.0
239.054337,17.51353824583941,-42.76911497529495,-69.57209874994514,-0.43590191752895585,-0.09223912271851946,0.4427904261272012,-0.46773682006292544,-0.09060605673263249,0.0637030960832066,nm,0.0
239.063841,16.589769480278576,-45.257972669117095,-68.70216511921609,-0.38497097556283605,-0.01971145260081287,0.377864477016959,-0.5185913749929223,-0.06627276434902152,0.044446678930832643,nm,0.0
239.10190200000002,12.96131563000221,-56.41853395832541,-67.68828270427744,-0.23729816921190847,0.16925927279931863,-0.02392269254641149,-0.5544745261643884,-0.1587261734410339,-0.15619689060030395,nm,0.0
239.11141899999998,12.427112074995101,-59.229143723601254,-67.96802125102539,-0.1918745467106988,0.1624730532130448,-0.044082179266411246,-0.5489672859231318,-0.17243418072678032,-0.14498481209770087,nm,0.0
239.120917,11.644709125538075,-62.07597377741872,-67.89061914366948,-0.1601478149177843,0.11606821696550917,-0.07419443340375402,-0.5636165453010633,-0.15569842689161562,-0.11903132551893335,nm,0.0
239.13044,10.289000739880413,-64.95178976104289,-67.02735037372436,-0.11888384552850174,0.07706287537288489,-0.12116227983162767,-0.5848920665571388,-0.12147639526996334,-0.06764715745672975,nm,0.0
239.139938,8.057817198652044,-67.82236125924656,-65.05485475930297,-0.0953277548228364,0.16985667714758568,-0.19953794169343864,-0.6046034887795533,-0.08234050465674715,-0.011520089871937443,nm,0.0
239.16845099999998,-5.139432593427413,-75.94062381761653,-52.28609336477295,0.0460142410163861,0.2007169874896342,-0.5805784411470237,-0.5869224767451302,-0.06987212897716627,0.008907763617539408,nm,0.0
239.18748300000001,-18.287890874571563,-79.80678800069539,-39.847011596292035,0.18893053710676289,-0.006191164567412183,-0.7887038638565329,-0.4323214344043323,-0.0795978696342142,-0.05236899326516152,nm,0.0
239.196809,-25.59834387437401,-81.00828076966913,-32.86354295867627,0.29713286724375265,-0.30695727971339326,-0.9412502854330017,-0.3451883742235705,-0.06148702775137492,-0.04019803463151161,nm,0.0
239.21591700000002,-39.11636713153136,-82.3355755240666,-19.616005521220806,0.29789929808749294,-0.29435184525255775,-1.2949519801651848,-0.2128365993598489,-0.04489571373502016,-0.013496124024233188,nm,0.0
239.225431,-44.539056304808774,-82.75809760132505,-14.217972014381594,0.21711403238785118,-0.23334400846193576,-1.3428627972242129,-0.16510475762092788,-0.0515266289870157,0.010671281105202437,nm,0.0
239.234931,-48.329716635952366,-82.97075755255914,-10.342668615909597,0.21095100507992443,-0.25965655214287997,-1.3447000197256533,-0.10706550545503672,-0.03263460050642342,0.029715751089363394,nm,0.0
239.244446,-49.965671828278424,-82.889809058827,-8.559945124300478,0.22587530722479207,-0.4189246687760689,-1.3173377096054013,-0.043290408074118505,0.012269182869770882,0.039267765879552316,nm,0.0
239.253955,-49.71134432647451,-82.52045125389682,-8.511252275423608,0.20813622751309926,-0.3898313177792105,-1.2872460458131105,0.010976821592165672,0.06242754373697768,0.06805006766362841,nm,0.0
239.282404,-44.09312512641168,-80.71431518716842,-12.81409677126545,0.21708995493378247,-0.41025240644305727,-1.1099668768558324,0.10135079401173343,0.09917334631712522,0.10380836695972201,nm,0.0
239.29191799999998,-40.522321488927545,-80.09368140815626,-15.86897259664969,0.2470571754061286,-0.4461257959322908,-1.0961507391408172,0.13999595353746924,0.08079571187353626,0.10084668013910335,nm,0.0
239.30142700000002,-36.064935531468485,-79.4878766729219,-19.831209713781597,0.2638212159958553,-0.4570574269648921,-1.0764656174161786,0.1815217460743589,0.05668117041553061,0.09234724572206895,nm,0.0
239.320454,-24.905015015195527,-77.89785116921595,-30.13132507436716,0.09056753011397178,-0.1456987418740892,-0.982972088604374,0.2875220350353504,0.04166250627196624,0.06303322267450288,nm,0.0
239.33012,-19.08087519516221,-76.62155195068733,-35.543211374806255,-0.038399918031843484,0.06837411446206523,-0.8801880783061827,0.3488268772194835,0.06446545088993462,0.060825540342238825,nm,0.0
239.339659,-13.865400992107716,-74.80748304585848,-40.29257085552736,-0.21738127280117747,0.35197867786150494,-0.6682921534288895,0.4210378036978405,0.1170935105158005,0.06782088180592322,nm,0.0
239.349169,-9.674567225457853,-72.3142072708007,-43.913890287925724,-0.4803803039933434,0.6146258309410826,-0.306206844139089,0.5058841798644591,0.1996984628598701,0.0861197713023138,nm,0.0
239.377688,-2.5139175130616933,-61.84307986420886,-47.681165659162104,-1.3015473871161702,0.9721428130021663,2.1904667009173466,0.6557948968490802,0.38326080108735955,0.24978005832239206,nm,0.0
239.38718500000002,-0.9025449323979239,-58.11883225631538,-47.41565046854066,-0.9968729896618979,0.7789186460678887,3.4791783279614257,0.6557980083207418,0.37101447973059687,0.3358827960772124,nm,0.0
239.406219,-0.7808658436469644,-53.104280215295994,-45.085581293964864,0.12234305349299626,-0.9368330795493186,4.127134336769449,0.22788166747900415,0.2866394895276108,0.2375101177095752,nm,0.0
239.41572699999998,-2.258180217204587,-53.0160019849573,-43.09258433159772,0.3502890256843202,-1.123492770114311,3.2328358826974637,-0.11809694325290782,0.12263304192578814,0.16507242012923867,nm,0.0
239.425239,-4.053229901484621,-54.62452459071363,-41.19337877035528,-0.0492419067330177,-0.6623015260359975,2.5555095993022023,-0.376121391035337,-0.11019002604831403,0.092892228995105,nm,0.0
239.434746,-5.6912542776933925,-57.26501809555498,-39.925004746290206,-0.5656161393386857,0.11482965288562132,2.063442560185692,-0.48618944320913726,-0.2959126016197732,-0.014649509601737349,nm,0.0
239.44425900000002,-6.9609139958384185,-60.231367122605896,-39.715959727904895,-0.6947460224185201,0.048699143684749625,0.8881677603965112,-0.48493980097817785,-0.3852427772697584,-0.17193968136928175,nm,0.0
239.45377,-7.256098812940628,-63.58363091850855,-40.380251908749344,-0.7866991451827111,0.1666423416892394,0.3513277271571527,-0.45696698947934217,-0.5093230639056648,-0.1812629672967915,nm,0.0
239.463294,-7.400506970445494,-66.95948067219862,-41.26322308862087,-0.8891351757982777,0.4992355983237713,-0.18980094407057757,-0.4553244039328453,-0.5168703488355721,-0.19892260380963245,nm,0.0
239.501222,-26.514967689528394,-73.49160930981408,-28.027522399088642,-0.02133784137759706,0.1415782715044676,-1.1876089918190442,-0.436725406390138,0.15556897191043423,-0.24191160444029758,nm,0.0
239.510729,-33.65197907821906,-73.17371041537977,-22.589392358428764,0.2244029792407611,-0.1272770561598742,-1.2134654581102637,-0.34801557300676345,0.22108867752679245,-0.27342009588056054,nm,0.0
239.53923799999998,-42.20169164302326,-73.78318834783141,-17.76658186914719,0.7617748844319664,-0.6017443103337506,-1.0193329238557063,-0.11754178967826025,-0.14806241063411793,-0.2283952459675656,nm,0.0
239.54874700000002,-41.99529839107462,-75.04443368688324,-18.874136167689745,0.7481362071211914,-0.7349130022952723,-1.057276067275118,-0.07526947062481697,-0.2542130511730776,-0.17531994796744313,nm,0.0
239.558236,-41.711657988561434,-76.50336481969418,-19.74045882778712,0.6202358033609358,-0.6212360693194949,-1.146471101995877,-0.0901826879102302,-0.29137117881317776,-0.11203757549632078,nm,0.0
239.57735599999998,-44.22683112780977,-78.47778042202516,-17.71481367518775,0.35187158211453073,-0.5702611418038199,-1.616834801808673,-0.11886401076964102,-0.11897011103279824,-0.0030614905096195293,nm,0.0
239.59634200000002,-47.110863437787984,-77.84181995005447,-14.554678778110931,0.2977804118706412,-0.4912559614464823,-2.161123143882092,-0.012933644172190444,0.11517518985549749,0.05090961273746705,nm,0.0
239.624874,-34.78027563390418,-74.53382028853036,-25.757905304972848,0.15856786247436874,-0.0030748151417735376,-1.5992857310272,0.4074334785835933,0.09950520427721492,0.045352880575730364,nm,0.0
239.64398300000002,-20.251839157487638,-70.69360413963877,-39.353224875507564,-0.14948528782659032,0.4895339907013777,-0.33900890943677725,0.6027468738521427,0.08547673604492372,0.034574582617729874,nm,0.0
239.653513,-14.92502278073198,-67.94849337947883,-44.02109117288666,-0.410649964800922,0.8425522115930865,0.35678803385452723,0.6407797792299739,0.1484726147140245,0.06961738030457204,nm,0.0
239.662994,-11.369910843926139,-64.76884751667791,-46.61699904701686,-0.7011846355647618,1.251997172537821,1.1342645058615468,0.6479208192440973,0.23281808402691148,0.13792755069923207,nm,0.0
239.67250700000002,-9.108494879706019,-61.35176066196104,-47.57587605385654,-0.9473402306332603,1.4487888999998702,2.1266781664454237,0.635827893546378,0.3032339129260363,0.2164834302067447,nm,0.0
239.68202799999997,-7.156004521223439,-57.78930685889182,-47.60299493501737,-0.8283124039550108,1.0490872333200902,3.0976567408256166,0.65567854871153,0.3221646681423777,0.33573289550301827,nm,0.0
239.69152699999998,-5.010246503261037,-54.76759525417517,-47.08319216117936,-0.37230646653348815,0.2056262082313305,4.072239922196137,0.6025919547910709,0.22139290636688594,0.464753659582417,nm,0.0
239.70103400000002,-2.914362193786105,-53.092459649561775,-46.15630512445343,0.08301959873653325,-0.42539538495412477,4.767297941874454,0.41004559673638985,0.037276691684508194,0.5275094836759924,nm,0.0
239.71054999999998,-1.6465837295148231,-53.1610988521597,-44.708170810885896,0.14921855987143112,-1.3570558800020718,4.2396104476447904,0.09413190805514929,-0.13190428146141445,0.4954770313382519,nm,0.0
239.720067,-1.395423230303974,-55.251138405075906,-42.42325285607917,-0.25267385087646776,-0.9494300118174345,3.4538184852054266,-0.26966365636947576,-0.3374471086400417,0.5008340996801111,nm,0.0
239.739087,-4.910556694315583,-62.08244894552683,-37.796972918477294,-1.2269379606063435,-0.3751676517403767,0.7461733161530631,-0.6001740950237433,-0.4215724548549998,0.005375921284912022,nm,0.0
239.74858600000002,-4.83964642603981,-65.60067370947307,-37.49472165653082,-1.3939547917740525,0.2451549549225925,0.23314061013503373,-0.4280618530901775,-0.5753791494717402,0.07711902958047888,nm,0.0
239.75792600000003,-4.213502352013019,-68.89373937577827,-38.736469922733505,-1.3877303178687912,0.6717467845992704,-0.28668950483923367,-0.3721067057037973,-0.562326233965348,-0.128892297985411,nm,0.0
239.76744,-4.567128331252881,-71.56693985335043,-40.47058336216738,-1.06069184937126,-0.4916873589480715,-0.8118600611685218,-0.3636980048483584,-0.4104876355074117,-0.4096077461269979,nm,0.0
239.77695200000002,-6.445881786243452,-73.5076709911915,-40.21400057813865,-0.9429185222160985,0.023310362272301027,-0.8845570294122747,-0.3419067062132532,-0.2362111824625845,-0.30299383386694534,nm,0.0
239.78645100000003,-12.536800444416746,-74.88408017657103,-36.40510224486897,-0.620097174454838,0.19408504705204058,-0.8473715061902678,-0.4356763621506002,-0.02307156820640721,-0.4060798913758976,nm,0.0
239.79597700000002,-22.598744824474473,-75.49642606182044,-29.15257468807884,-0.15992840271496012,-0.33927945133184756,-0.8001117729034717,-0.5031208754401765,0.16330334039889288,-0.4902636883316861,nm,0.0
239.805483,-33.0510722568729,-75.20131199339397,-20.997299327048115,0.20813841529481417,-0.05305989255671997,-0.8510825274835448,-0.4582988862843881,0.26563648878391094,-0.385465438718991,nm,0.0
239.81500000000003,-42.01163269104946,-74.68593153634006,-14.577150526943575,0.49711094042889664,0.17827014154739018,-1.0363796394381133,-0.41672638035455944,0.22916634736816238,-0.43984767829047927,nm,0.0
239.82451799999998,-49.36852104753961,-74.74192917925723,-10.239691124179217,0.6540129560551112,-0.7550304765632195,-1.2166280267205936,-0.38695150278063256,0.061800897105868176,-0.5449589404602457,nm,0.0
239.843609,-57.588862903942236,-77.31658715393094,-5.798903147236033,0.8296901948642724,-0.17711709960390415,-1.512334892051818,-0.2011436387261678,-0.3259162115321499,-0.3325982151270221,nm,0.0
239.853034,-60.83213146674348,-79.44480471423898,-4.56246049630573,0.6999313252229421,-0.873683526349795,-1.606501615569614,-0.17604516808383258,-0.42350851562952285,-0.3824551021308771,nm,0.0
239.86264000000003,-64.60693895395357,-81.39695667780157,-1.9442273978892246,0.6022532421870891,-0.6490685837341686,-1.70531983856576,-0.1551656668912346,-0.39436855199104154,-0.2154485422047331,nm,0.0
239.87214400000002,-69.23394518180882,-82.59203109854718,1.8325195297763395,0.5851048893329344,-0.44029570698216114,-1.8713268691322889,-0.13648572667186212,-0.2499824962386588,-0.15507633670128146,nm,0.0
239.881648,-72.29869732280906,-82.7417597113292,4.044559485648943,0.5454346415580684,-0.734829829541926,-2.012295515514859,-0.08434700162948784,-0.04308419419913632,-0.1581245197594047,nm,0.0
239.89114400000003,-71.15120612264353,-81.93543939070227,2.5737428150969115,0.6411638220436243,-0.5571520234675852,-2.182530165009263,0.012728159941433089,0.1555967617590057,-0.0580966091493147,nm,0.0
239.90066499999998,-66.63941516275975,-80.5653438962046,-1.975511066792822,0.7400186643771357,-0.45500898178358373,-2.221150782271332,0.12712441831957527,0.2679344580377101,-0.009042423925311639,nm,0.0
239.91016499999998,-59.88539080126342,-79.02369287316509,-8.519614405594977,0.7142963519658062,-0.45763449409424,-2.10523010888486,0.2580298973252812,0.2776822766217407,0.029464225702625562,nm,0.0
239.929181,-41.4800161091345,-75.9737590692508,-25.412325477634568,0.5101041733163704,-0.038835058171972366,-1.3570843646870985,0.520917732413971,0.11835729804885699,0.12914954754187555,nm,0.0
239.938815,-31.734420231041625,-74.10984960803985,-34.09567304728402,0.29495114499245684,0.12426943470012157,-0.7715512604369651,0.6139859857273973,0.06413685585454525,0.15473466726024454,nm,0.0
239.94835400000002,-23.624620416030545,-71.73822570063473,-40.88630100468689,0.06592231290825722,0.29396117643121245,-0.17688766690236207,0.6596041360441245,0.07609656682924326,0.20024502689150042,nm,0.0
239.95783600000001,-18.055476047495173,-68.91962763235563,-44.83149546418574,-0.2506749251683556,0.5662360763837849,0.4207157232187346,0.6523010707803448,0.14740695414017338,0.26696928269513065,nm,0.0
239.96732999999998,-14.679723615197812,-65.77600656298478,-46.11916139490319,-0.5971201945592951,0.9884246892907539,1.0399914397343466,0.6254493197309875,0.2442909213741603,0.3719766982232722,nm,0.0
239.97685700000002,-12.612823730830605,-62.42501552136065,-45.60488246635519,-0.9645492984366887,1.3519393619429725,1.8262762921454754,0.6023195700104641,0.3254913650941622,0.48052263405248197,nm,0.0
239.986349,-10.684209894601285,-58.97135760478824,-44.26146961805465,-1.1266764327791223,1.2390031237975934,2.473275280146818,0.617893188088304,0.34346350795279246,0.6103141124182375,nm,0.0
