timestamp,roll,pitch,yaw,acc_x,acc_y,acc_z,gyro_x,gyro_y,gyro_z,markers,motor_input
218.511896,-25.840777051448537,-21.315386289335898,-132.8855828915596,-0.21082147447079672,-0.3748321877634466,-0.627187531972511,-0.07141557026001626,0.05521346167561298,-0.20560189270898568,nm,0.0
218.52123400000002,-25.401648675191428,-22.19441324048084,-134.0521787771192,-0.5086970743158091,-0.5832328689890789,-0.5233532214818624,-0.1969745579118038,0.06656034465758644,-0.19799037715983714,nm,0.0
218.540271,-24.202492300703423,-25.189675654102242,-135.07339354334178,-0.7604611594133902,-0.5371406003211514,-0.4375106045947682,-0.31822273710496146,0.14111999214256182,0.01114753838987174,nm,0.0
218.54958100000002,-23.283557178995995,-26.54816171306032,-134.73158736225764,-0.5171362208035523,-0.2729699114536514,-0.7295351904705079,-0.3225626755271706,0.07967104458820565,0.1516592001702553,nm,0.0
218.55910100000003,-22.150053838634168,-27.837573076567836,-133.88613266838018,-0.1375410576501163,-0.0820218574667594,-1.0711016332045373,-0.3389109809117689,0.04057615381130712,0.2758255571775985,nm,0.0
218.568679,-20.959234738386755,-29.03054855582659,-132.89043593686748,0.14401252513763219,0.12483769034148762,-1.2927942931935088,-0.3308949687393146,0.016121183178670416,0.3156041218250285,nm,0.0
218.57818899999998,-19.452686831536116,-29.845806645275076,-132.1933572344336,0.27943014077323247,0.2651768825326335,-1.560288493037675,-0.31128219935490253,-0.07905609146832665,0.2903606565461515,nm,0.0
218.58769500000002,-17.545948401013952,-30.224618349290417,-131.98958967794724,0.38308943947803226,0.29654460072404987,-1.6539861571252739,-0.2913296154062946,-0.1905152122678596,0.23413788768651403,nm,0.0
218.60682899999998,-13.45931260101173,-29.751890750931054,-132.5008523399563,0.2126106988864887,0.06579607842455168,-1.0416067091856382,-0.17509500326058974,-0.3196693292266525,0.13782752138112137,nm,0.0
218.61651400000002,-11.811563309616846,-28.66176123777982,-132.5602152943342,0.009389450407728473,-0.10136016524126791,-0.8911077433097321,-0.047571570646211675,-0.35633922136256635,0.15012779827470232,nm,0.0
218.644868,-10.524298451670736,-23.71250961072334,-128.95795519684563,-0.32654245533685194,-0.5956203934678906,-1.1138238688420476,0.27731675677558054,-0.2455764320080542,0.354466746198946,nm,0.0
218.654373,-10.46054652598887,-21.537804244755318,-127.0983537264369,-0.06643134337949723,-0.5834342564613294,-1.153520997712902,0.32170670782181415,-0.27562536714119057,0.37704592082065763,nm,0.0
218.663893,-10.29755269617545,-19.326631566504286,-125.5182046891922,0.0057800237154320405,-0.47545074545000204,-1.2188537392180876,0.32459259371474725,-0.2852857051043165,0.3272878729809418,nm,0.0
218.673392,-9.752253344382408,-17.116061052140974,-124.44459134538728,0.18268033520821889,-0.3638253791631038,-0.9400366676588582,0.2890986061128652,-0.3375019056401254,0.2482638690251321,nm,0.0
218.68308599999997,-9.030763687047338,-14.807398605930805,-123.8741139307604,0.2473021209499149,-0.21709424095165236,-0.6049213150953366,0.2904384406204765,-0.3734174869379102,0.152705273501551,nm,0.0
218.692602,-8.3190645470078,-12.343051882473194,-123.48993439877863,0.12777360168016744,-0.08126925077558371,-0.37930110122155675,0.3197347280097319,-0.38793753602343234,0.10868241160848587,nm,0.0
218.702122,-7.6918576998338155,-9.647499142834157,-122.81825890494872,0.10296685392135434,0.03499701065009256,0.11411413884083708,0.3704560308656305,-0.3975359158413002,0.15627434112589525,nm,0.0
218.71160899999998,-7.278103114805506,-6.650658693326395,-121.48825289299475,0.002630906633663259,0.1578328108891153,0.34711800410614674,0.4504708659489033,-0.38817113090787164,0.2753800461389625,nm,0.0
218.72113399999998,-6.863662822664219,-3.421894508165585,-119.42375317683096,-0.026896199855462714,0.24376491417388696,0.6332385239254944,0.5015812606088559,-0.3987431950010152,0.41745228988408756,nm,0.0
218.74966500000002,-4.332003822564031,4.277204846734977,-114.33717316491426,-0.14004450946900832,0.17118322663513214,1.9849051879326038,0.2596437571681424,-0.24439850143770336,0.11404922346164116,nm,0.0
218.75898299999997,-3.662065416179754,5.019725718774221,-115.57882432467869,-0.3931639903835547,-0.15156319016144018,2.1681562429873926,0.06496963724412841,-0.18420091912188225,-0.2641129583623494,nm,0.0
218.768497,-3.5052723223823046,5.168139123147365,-118.6175774921482,-0.5873756009367371,-0.39712293468724846,2.6247413021747845,-0.001175712727418553,-0.04090175419421619,-0.6158656461154115,nm,0.0
218.78750899999997,-4.922373974972546,3.1468859450146636,-126.8491033543995,-1.2057035297510976,-0.01808983389100854,2.0142006286802308,-0.17547156833860847,0.2862370727070477,-0.8153682169131409,nm,0.0
218.79701300000002,-5.8265427030072106,1.0825467987326776,-129.94308321751652,-1.1223267442312181,0.26003147261623744,2.1729290590093204,-0.22497281923025098,0.4015537246998766,-0.6164348868695639,nm,0.0
218.806542,-6.959003382814625,-1.0883072685128345,-131.47452676584552,-0.9083811817834737,0.780795242602707,1.710313288675124,-0.19502263300746708,0.4586968774698648,-0.3098643078486826,nm,0.0
218.82555499999998,-9.094076992406206,-5.097477772833332,-130.3662543063896,0.23657781675705422,1.1348224374730524,1.33161735483861,-0.14951442648446858,0.42667083752117474,0.19258385533252448,nm,0.0
218.835073,-10.202484082809692,-6.573274446742807,-129.12352618015692,0.45968092497060964,1.145998796775769,0.7064079320992079,-0.09986228926670235,0.3613899165887988,0.22421015659872,nm,0.0
218.84476500000002,-10.984735001093503,-7.757760221302077,-128.41524438639522,0.6395687997327143,0.9038877465560828,0.5105803935506218,-0.10149141600128732,0.2722005213493782,0.12056545040749618,nm,0.0
218.882823,-12.476214357378261,-14.785557355626509,-132.370658046493,-0.5037463106369158,-0.3360714758346356,-0.1943047826033,-0.3239606480732053,0.3305317024134572,-0.2705535902851733,nm,0.0
218.89236300000002,-12.707125204417624,-17.377521006329044,-133.05960123269895,-0.40710708043086236,-0.2939704421517469,-0.2953314490349781,-0.3649455405510888,0.3883503719480338,-0.1509228874059712,nm,0.0
218.90185599999998,-13.128380108829795,-20.04365909277252,-132.99274262028808,0.0058217617051037045,-0.10668317366273232,-0.3666522308201498,-0.34950958960403034,0.42632964633508863,-0.013499487780490461,nm,0.0
218.91133900000003,-14.06387767743106,-22.517580528479243,-132.40050188929985,0.4442124847192137,0.17584686121901622,-0.6850062606931001,-0.25945086877816786,0.4678084345776659,0.051204780696823826,nm,0.0
218.930234,-15.941189463447154,-26.598785555781323,-131.45739636418298,0.9608312172029995,0.3805832198523126,-1.4189997956175908,-0.21405360379459046,0.3482695315558701,-0.004874331964080993,nm,0.0
218.958836,-15.96673260056367,-30.466545272885654,-135.21551757884095,0.33116869587537595,-0.3002157341787998,-1.4422826809147933,-0.21546046539311547,0.09021287806952111,-0.311168571889934,nm,0.0
218.97775800000002,-15.492706648386633,-31.596431628456898,-137.69265238346998,-0.33427594734805816,-0.6795720175983886,-1.1455308802301545,-0.07775512157600564,0.052477077729306654,-0.16218739929113501,nm,0.0
218.98725499999998,-15.731653524711962,-31.652158407793735,-137.51720503830975,-0.2933080457243919,-0.7953349966774844,-1.0817986499366021,0.0,0.0,0.0,nm,0.0
218.996747,-16.384432196535,-31.425834410618037,-136.40511575863846,-0.21291091982774754,-0.7809108813902412,-1.2413617919250082,0.09917861778075433,0.04778767303907509,0.1564082219434427,nm,0.0
219.006338,-17.09522607908167,-30.96153008712397,-134.7756096340814,0.01117947061250319,-0.6975062680660326,-1.4177303738241147,0.13875304132267066,0.023338617376127274,0.2547344725630848,nm,0.0
219.015841,-17.578113896638683,-30.278797834862623,-133.18861498702893,0.3152521997153522,-0.5499735603409839,-1.5172651638488923,0.14276811719672086,-0.03085480506186666,0.2707196247233136,nm,0.0
219.02535099999997,-17.708617285026286,-29.41663115146192,-132.08005845706353,0.38710371265133,-0.3777281209952077,-1.6393746733341341,0.12888903360400267,-0.09632440327842888,0.21112600134057277,nm,0.0
219.053886,-15.952689524427349,-25.33194885759052,-131.6297208749447,0.07720791689059782,-0.1972078460442541,-1.1239200378327447,0.15171282933362495,-0.31971314361103664,0.05528520056854028,nm,0.0
219.06331500000002,-15.378506418609064,-23.266573293194867,-131.32403239515403,-0.08073858205868568,-0.24790870341718171,-0.862832436619485,0.2267183125861398,-0.349016882603005,0.10960201633915541,nm,0.0
219.07301600000002,-15.10446360106677,-20.8429256699371,-130.38286508966317,-0.20474951953377735,-0.31205260339159907,-0.6548857474847207,0.3199938537418766,-0.3527984289115789,0.2097621704669763,nm,0.0
219.082524,-15.030742760632776,-18.12054197716052,-128.77051500648605,-0.2917003310480608,-0.3409911559303329,-0.593010920963663,0.3973893827955348,-0.35533110171014737,0.3280896094650517,nm,0.0
219.092033,-14.92114044374449,-15.209153148645772,-126.67476052748408,-0.19566004079065052,-0.2871522162764616,-0.46999868804047906,0.43425274183245033,-0.3711499487456449,0.42584716373916764,nm,0.0
219.101546,-14.645331068402237,-12.272251947331442,-124.42379374531457,-0.1328545722468502,-0.10760385779150694,-0.39201283061216685,0.4332057862522371,-0.38396125455112934,0.46333868862688316,nm,0.0
219.11104600000002,-13.74451063580739,-9.412464024984251,-122.35278939317712,0.014533121091938711,0.11192254463806486,-0.2142911521635856,0.36651276249098635,-0.46199045956668594,0.447603390125793,nm,0.0
219.120574,-12.359901491929074,-6.683970188290522,-120.75832803663872,0.4071301937263767,0.3040009188521581,0.8381451907263701,0.30777319531927894,-0.5191855779470597,0.35648470251069764,nm,0.0
219.130073,-11.036934717431006,-4.103182464518609,-119.83075482215037,0.21341268087787746,0.7571441431932614,1.778909224443501,0.299105471333432,-0.4879358388881867,0.20850289454916682,nm,0.0
219.15841400000002,-6.784766747249593,0.5621303903147841,-121.84044984012463,-0.4779615402469808,0.677975128618556,3.501504156843515,0.06870371972698454,-0.21025375838814128,-0.33215872510904443,nm,0.0
219.177622,-7.859598948682143,0.5490543754204774,-127.68276522168802,-1.0996131776688738,-0.00017205462394384,3.055376437824093,0.036383153034174304,0.18953304739875088,-0.6495537394394154,nm,0.0
219.187128,-9.479699607171968,-0.65578707497819,-131.01385177623715,-1.227504822595731,0.07968638621515094,2.2878692318697267,0.00562091779557162,0.4071561227291051,-0.6699238729687891,nm,0.0
219.19664300000002,-10.981073609691299,-2.748781800304667,-133.74666934643983,-0.9932004566183746,0.3257594591983601,2.113477540096292,-0.1204730183976292,0.5084266061495357,-0.5582024483589911,nm,0.0
219.20616399999997,-12.096841327765416,-5.393828345307745,-135.38012483298684,-0.39528193217871543,0.4665305035993395,1.9772934602650019,-0.2343993503471749,0.5347310361357227,-0.3445335830408225,nm,0.0
219.21566399999998,-13.257691384396189,-8.015030416121768,-135.82143530745861,0.05366905270083705,0.7418435031395846,1.3540709105208,-0.21572468026501324,0.5409270433309091,-0.11664800233492706,nm,0.0
219.225179,-14.25073803030432,-10.225137892335406,-135.34085752045505,0.40900523497977787,0.8588887062703386,0.6194117436978249,-0.18303186170139496,0.45780599036233743,0.06396559416329238,nm,0.0
219.234522,-14.875549463923159,-11.98738453181831,-134.5113834422127,0.6433013606802638,0.7368567869760277,0.12361692625503176,-0.1767435669809521,0.3402453445731505,0.1415718299932873,nm,0.0
219.24403900000001,-15.035169788883403,-13.455547589991019,-134.00066109197235,0.5671641135029157,0.536151082699312,-0.30113330706019253,-0.20244610855175277,0.23149491118350404,0.09503650540348593,nm,0.0
219.263068,-13.459869592282761,-16.647436068703406,-135.26195491349628,0.02011930251714041,-0.09139772988817106,-0.49805760625896617,-0.4044094390139834,0.10136006722479973,-0.14775936178965685,nm,0.0
219.28208700000002,-10.4839285417033,-20.873074643725026,-138.26430026527314,-0.4863012018738655,-0.288746853449442,-0.4144430060702239,-0.5268501130470243,0.1308227218658052,-0.19124586564159796,nm,0.0
219.301144,-8.33958816724749,-25.387236729780163,-139.22530941473218,0.0021364903555125365,0.009228222710126776,-0.6977771664998393,-0.4187838116566635,0.2497416094365253,0.05515847495154746,nm,0.0
219.310661,-8.367019581361593,-27.410790567160102,-138.56618631183235,0.36727309768170474,0.21440471960137172,-1.0621642210196172,-0.27617601761181704,0.31309416040430565,0.12962618150758293,nm,0.0
219.320255,-8.890100429203306,-29.009844347852038,-137.650737680194,0.6065876719034907,0.32566729147187273,-1.5671375643587426,-0.15862481984644267,0.3043699196633706,0.1341665466334341,nm,0.0
219.329752,-9.378153493757157,-30.158384617014608,-136.71812989903935,1.010594095620909,0.21152274591751455,-1.7301613591013891,-0.10820411831592057,0.2304034937925692,0.07078745801850524,nm,0.0
219.34878899999998,-10.442982565398047,-31.24698744950588,-136.5520154662699,0.6471070272496716,-0.14971584815289554,-1.8781883937208383,-0.005042822974589991,0.1116516578709925,-0.2652623152710312,nm,0.0
219.35829399999997,-10.700299512202163,-31.310511184954493,-137.55392526188768,0.3913984060814903,-0.4535216431237833,-1.6656751181668783,0.010017952225538583,0.043994285231387334,-0.32538804618793266,nm,0.0
219.36779900000002,-11.324721775145338,-31.125760904767404,-138.29228041453143,-0.04076574289561553,-0.6991150213449627,-1.452190512846833,0.09068209078781349,0.049461262734809344,-0.3109866193228942,nm,0.0
219.39623400000002,-16.161868561935037,-28.262528925555387,-134.8124784636473,-0.49562484318627176,-1.2111918098776175,-1.2220440877134209,0.4284876041596907,0.05698210958340299,0.1707086411532697,nm,0.0
219.40573500000002,-18.17636014304855,-26.79527090416593,-132.13516577146535,-0.3736915166828637,-1.196727808187636,-1.4416526661191222,0.4456004270731916,0.06297464056971748,0.2724163275422037,nm,0.0
219.453429,-23.251841679386086,-22.212966206954782,-126.49701670368832,0.1336124553806351,-0.16048895829662066,-0.8684765585007093,0.2008208972471476,-0.06663594762761928,-0.07479784403628617,nm,0.0
219.46293699999998,-23.701736076824112,-20.52498906261465,-126.2027876083426,-0.006706011914513992,-0.1418924269652722,-0.44944846359171864,0.30825042955397464,-0.13003797783174176,0.028576134733368442,nm,0.0
219.47246399999997,-24.20680785036227,-17.926827195890606,-124.96438150607399,-0.03693020834026488,-0.12235530358117037,0.02045449514673781,0.4648757941706829,-0.22269769605432366,0.21693248959432954,nm,0.0
219.48196900000002,-24.31708413633598,-14.411262825672848,-122.73151605388182,0.2564261342067432,0.025723043265976995,0.6237752932658566,0.582534304212893,-0.3727855256162438,0.4427519014340164,nm,0.0
219.491457,-23.333314954521214,-10.50833798475499,-119.83540367987045,0.8149361624980285,0.38964684282620893,1.482663859424825,0.5539197447875699,-0.5694233486047628,0.6234674489387848,nm,0.0
