timestamp,roll,pitch,yaw,acc_x,acc_y,acc_z,gyro_x,gyro_y,gyro_z,markers,motor_input
230.504314,-10.274930217805048,-22.695542292549806,-72.54994127660864,2.243223390153685,0.06554603135745814,1.5711639940690514,-0.20828819592878217,1.014810549853277,-0.44881868642184714,nm,0.0
230.52335100000002,-18.405369996446975,-20.84790629411852,-68.38891923880152,1.6528161695794168,0.4409517828328846,0.17131206613445557,-0.020761778497008693,0.651046024087446,0.2760094235035826,nm,0.0
230.53266699999998,-20.191413768847305,-19.408119187611458,-65.67873667418561,1.030226723800355,0.8719301050658426,-0.46472895689033905,0.12540740894593935,0.41080093167950543,0.4211591304865008,nm,0.0
230.542363,-20.243774305456657,-18.122391035033576,-63.567826621250326,0.4574741620022789,1.2327422432363642,-0.8264237928617939,0.21979207587855099,0.10806894951033641,0.4207893418831484,nm,0.0
230.551866,-18.728382463826467,-17.322385333542922,-62.565729416326015,0.07042843975237154,1.3090107475886774,-0.8210453535558022,0.2654355173994821,-0.1966273042268401,0.2941038123804598,nm,0.0
230.56139199999998,-15.954934378622802,-16.801300569029237,-62.89084987494213,-0.20771738077092256,0.8981057443045286,-0.6803088761500968,0.32776851290944087,-0.4356671764022752,0.09830758324846081,nm,0.0
230.571091,-12.095232817835061,-16.130652907194158,-64.23285619781342,-0.2936067129572852,0.5152691413209628,-0.3674581574791311,0.44191847449160604,-0.6154132675994406,-0.049981580624981196,nm,0.0
230.580592,-8.256583989985232,-15.392232644406283,-65.85424423883923,-0.3582366754236655,-0.15892732796462378,-0.13971011819369444,0.43778674134871953,-0.6197261715618133,-0.11706268084410806,nm,0.0
230.59941999999998,-2.091753010697521,-14.175000616263537,-66.88336100782665,-0.7904825755001557,-1.2840745000634923,-0.6100644620713113,0.31492716548653393,-0.5019028661411803,0.15725582432221052,nm,0.0
230.608939,0.2886688658871809,-13.95541304759591,-65.61467879087779,-0.904996745138155,-1.161385674833432,-0.8686824070928488,0.21888943738218225,-0.4170905208968854,0.36658432760815346,nm,0.0
230.61844,2.076196840582886,-14.377854920641415,-63.53048730780489,-1.0361172137491084,-0.9203869829427095,-1.1372028606547362,0.0656622753081958,-0.3616539730461611,0.5013365178760175,nm,0.0
230.637303,4.623612056004715,-16.350768877862496,-59.54028157770135,-1.3193235088689286,-0.10194911161365684,-1.29434995002868,-0.08243053195727043,-0.3001892723693614,0.40479302972568126,nm,0.0
230.65632000000002,6.850532452009147,-18.0383759990242,-58.97422046079895,-1.3473591225000396,-0.02578123013412595,-1.5003860152712318,-0.02221008129224993,-0.28974207726072576,0.023962424059679372,nm,0.0
230.665807,8.034042737422988,-18.64361170141218,-59.840363715421745,-1.229070931959897,-0.21847347578083792,-1.2921888119660385,0.004794668438315338,-0.2678201853771311,-0.1029390219401061,nm,0.0
230.67532400000002,9.026403668247172,-19.216450392772522,-60.75372258039605,-1.005674381907467,-0.5248181361287667,-1.2497362557358163,-0.011914477217745646,-0.23255381176792708,-0.12259997151652796,nm,0.0
230.684858,9.837062919927975,-20.05319213236804,-61.177995867503725,-0.7446976085955616,-0.6797454901547623,-1.1343656939216828,-0.0776630367175085,-0.22745763639392133,-0.034614645960058026,nm,0.0
230.69434800000002,10.40606840977596,-21.277571426011157,-60.852018674646914,-0.48667503512174076,-0.6254062929414288,-0.7938838509747677,-0.16797867042521358,-0.22463990630318018,0.1013477439375046,nm,0.0
230.704036,10.640674907345698,-22.719138020853872,-59.88492528127248,-0.29015260634262124,-0.3371461924192323,-0.5030410996549413,-0.23425527391663267,-0.19334174662203826,0.20727103455553397,nm,0.0
230.751586,7.9599215201494395,-25.651744095777747,-64.52804002892003,0.7757560449881005,1.5767837291099456,2.7472165451392927,0.007723608377146812,0.2712810607771637,-0.8258566912080402,nm,0.0
230.76109799999998,5.470437462848776,-24.515313746736396,-68.7740499920277,1.263659172231216,1.07834843016899,2.8505083646677973,0.022499070488254374,0.4931639974611126,-1.0641620576728128,nm,0.0
230.77060200000003,2.321128857913639,-23.33351099912293,-72.76911083955125,1.705527539141337,0.6193801152591157,2.899341405826034,0.024912517965932007,0.6114613828410299,-1.0578476400046206,nm,0.0
230.78012099999998,-1.5137180126211611,-22.389845257686556,-75.59154833614117,2.0200980306295917,0.11442840403551816,2.5032737784500965,-0.020729033724112018,0.7221465303681525,-0.8650617853250823,nm,0.0
230.79913000000002,-9.613952662016215,-20.998359372088057,-75.54158769871621,1.729340250251207,-0.36000064145802324,1.0277031111319659,-0.04611868664837952,0.7108817887320602,-0.06867801596105197,nm,0.0
230.80882699999998,-12.517369662926999,-20.032739961488485,-72.95000615098155,1.5580300702319674,0.09327954068078335,0.5479564160289915,0.02824689625974661,0.5664256083323883,0.31513977168163926,nm,0.0
230.818346,-14.403717588908652,-18.863715377247498,-69.75400213138376,1.085600921583522,0.649355017724358,-0.05469197085202981,0.09840326713849346,0.401768715870028,0.5144494506088153,nm,0.0
230.846684,-11.825423149396709,-17.138926308609594,-65.17889958904784,-0.1815432103759512,1.126824445426999,-0.5995259504519104,0.20745243223938178,-0.36055352669643365,0.14432440559050352,nm,0.0
230.856397,-8.603428409380456,-16.804393636126058,-66.41061592718441,-0.2876570795841124,0.7705408820616819,-0.3940745157407477,0.30561539950274935,-0.546708119400874,-0.059324127653810774,nm,0.0
230.86590399999997,-5.369906203311354,-16.354207821371915,-68.22116391525157,-0.3670921608406204,0.16390457696279923,-0.05719523279389049,0.31389536236341736,-0.5489748473897363,-0.17947891460570156,nm,0.0
230.875213,-2.880062765068846,-15.805098224174236,-69.66229794732222,-0.764391035057526,-0.6975848144092626,-0.4668926070734619,0.26608139687073756,-0.4185741704167802,-0.15279326829906345,nm,0.0
230.88474499999998,-0.7634363046543058,-15.313947245044751,-69.94553974300989,-0.7680353335669471,-0.9929903863837031,-0.4366713457105718,0.22473497331618084,-0.36025175083437533,0.05412270380846583,nm,0.0
230.89426999999998,0.4861700964728329,-15.09395032557365,-68.87760061348747,-0.7809545539601913,-0.9292507859243926,-0.6088314047261141,0.11796088710824842,-0.22173490793934936,0.2763045292548198,nm,0.0
230.913126,0.9069331639689339,-16.029890678786558,-64.41519200576985,-0.8383573388903738,-0.24616753219611362,-0.8441880005739304,-0.12192709785522239,-0.06786838972356955,0.4777749536048652,nm,0.0
230.93214700000001,-0.05205597809693013,-17.162356550067347,-61.51921695641589,-0.9824589710600345,0.21471054321414476,-1.3585208534219135,-0.13772931394360668,0.03153211478876051,0.15657378774960984,nm,0.0
230.951131,-0.4412093025250772,-17.962424471253247,-62.63266037810984,-0.8262539713740624,-0.06414889678865324,-1.1064247846858575,-0.09096138978670573,-0.023576825544112952,-0.2004323075675053,nm,0.0
230.96066199999999,-0.564260222950736,-18.38085063205316,-63.652247080892955,-0.6928228413911159,-0.4443250845060395,-1.0091881879812064,-0.09251758248032552,-0.02895139587158922,-0.2143497590047235,nm,0.0
230.970161,-0.709928112994921,-18.88097334219485,-64.06654784938172,-0.4948942572563872,-0.6323238211162413,-0.8613027728824482,-0.10936200799345894,-0.03126220875339086,-0.09469461097115409,nm,0.0
230.979678,-1.024029666968588,-19.57859104021266,-63.522772951435094,-0.2858043854653794,-0.6847362654154677,-0.7589039228445531,-0.15874499933923145,-0.02045241664215402,0.08589568542997163,nm,0.0
230.99885400000002,-1.4767454336069028,-21.459589743189103,-60.33112084169746,0.06839083081527904,-0.05524314399142578,-0.40403842561895537,-0.1950579146698654,-0.08340384146789191,0.3434959165934538,nm,0.0
231.008361,-1.4293072388165986,-22.57615811035144,-58.902890947035466,0.077448192217471,0.2389682221164351,-0.46056243839940464,-0.19460734461462423,-0.13337001698168707,0.2877326153615683,nm,0.0
231.017887,-0.6572131494358202,-23.829071252719775,-58.457577586256505,0.10039468238989757,0.4469099586481172,-0.4535664476568935,-0.14643495278651344,-0.26459205450007206,0.14829862267893135,nm,0.0
231.02739799999998,1.0986570414735082,-25.077530862376992,-59.32995280176615,0.272704220941165,0.6937568080791335,-0.06486409170623703,-0.054627303365441957,-0.41595103872405664,-0.031040620631711795,nm,0.0
231.075118,12.03816444084693,-26.354150985746575,-71.61939270271623,0.5693065853650794,0.0596765583366777,0.9174210666087822,0.1515882021151849,-0.21557723198282375,-0.209311911956339,nm,0.0
231.08462899999998,12.587577030560892,-25.897869762314603,-72.37735362615435,0.5539905007060045,0.15903444168687883,0.9101285154266509,0.11024183766758386,-0.07735201369908436,-0.10710468748924941,nm,0.0
231.09412899999998,12.60512002027856,-25.346018104037135,-72.46394225048665,0.4800846617173812,0.35130645040994696,1.0249625939194442,0.09910346582493164,0.018748312786744315,-0.019696448314547657,nm,0.0
231.103649,12.330629449480144,-24.60300769238142,-72.21081914009879,0.6062921261038053,0.39066319003022804,0.6167692341574263,0.11945497968999537,0.08103615260462169,0.023527437169892914,nm,0.0
231.11297900000002,11.794308225966276,-23.834762011615414,-72.00943700962075,0.5421508061411004,0.4357516012824345,0.5590997718567571,0.10906014274831392,0.12892492221904434,-0.007712297821674417,nm,0.0
231.122486,11.161076566935732,-23.144867177210433,-72.07981701541237,0.44192871054373767,0.33034040364622314,0.2637831352842241,0.08819518780043924,0.14175538422914366,-0.06860854075973286,nm,0.0
231.141517,10.030816657051828,-21.569658421673193,-72.75168463698375,0.018499529743328132,0.4261278932889434,0.4767155098945362,0.12213685151444353,0.14368938578424498,-0.12137674210788131,nm,0.0
231.15102700000003,9.397876386462855,-20.67227654115313,-72.97807639255598,-0.11107097114761114,0.32678952323004384,0.3496113712532545,0.12904398094366762,0.1548013710179605,-0.0950347687572399,nm,0.0
231.16053300000002,8.78393805201385,-19.769525009452806,-72.91489433520815,-0.129328298968807,0.2407431608018754,0.2673723137153007,0.13106406943078297,0.15224603322410918,-0.03390136262899178,nm,0.0
231.17957500000003,7.474013083178341,-17.89487207570111,-71.96003471007621,-0.08500297344393597,0.21352847412880652,0.043679356158689016,0.1337095776643756,0.16472549791898997,0.07066626198637345,nm,0.0
231.189082,6.859510210265014,-16.994815890868065,-71.37489611485168,-0.05591527807794578,0.24729005409255347,-0.002181845989329655,0.12623139823554724,0.15708076707744884,0.07616477826719421,nm,0.0
231.198592,6.364543340566884,-16.11587484246832,-70.9732708118984,-0.04124494946910498,0.26574435378224615,-0.07094151177249462,0.1279969158672526,0.13569099378248664,0.04804073572662917,nm,0.0
231.20809999999997,6.102256832942783,-15.209572603073015,-70.86656456380977,-0.030042300368877683,0.2942441823053361,-0.0707145570462112,0.147014899776943,0.09614292104458978,0.0029807766399497543,nm,0.0
231.217615,6.024012471186133,-14.253093093676739,-71.06620954923355,-0.026388066016654554,0.3165903445268378,-0.03236927732167154,0.16807915826522965,0.06590936693808029,-0.04827791503404812,nm,0.0
231.22711999999999,6.007828170254786,-13.233603466112013,-71.4710905471489,-0.05774883476822868,0.27338762530204314,-0.06180181356048646,0.1841821265941808,0.05779416797805485,-0.08628944395450766,nm,0.0
231.24614599999998,6.0189216218976584,-10.901902210061317,-72.20623427904313,-0.08854982476362634,0.1589022648831701,0.040718956475298385,0.22215473742428662,0.06853329571629915,-0.0658039814578367,nm,0.0
231.255728,5.900836297668845,-9.444986881815451,-72.25426164930103,-0.11394641247918408,0.1038721501557564,0.03228764238493038,0.24010268163259665,0.07651516949880656,-0.018896687908083146,nm,0.0
231.265412,5.897106223392588,-7.976325621455999,-72.0706833961208,-0.0841470263478427,0.08412627424268118,0.0636691437977201,0.25384551823378243,0.06300050469409714,0.03138628767357726,nm,0.0
231.27485499999997,5.955061615411995,-6.5955148555125005,-71.76120367453404,-0.042703658720981176,0.08649781159175451,0.11910634501723318,0.2580390776774446,0.06471526762808127,0.05814053171925801,nm,0.0
231.284367,5.9740070876286016,-5.169369157770884,-71.46502621608684,-0.03598647755123262,0.07182555658504003,0.10111067598436858,0.2638254109814521,0.07641332348651182,0.05421363688343611,nm,0.0
231.30336300000002,5.7387474232750915,-2.155945773089231,-71.48348969473051,0.05085908219721431,0.023287986074713805,0.15753805433600732,0.270735909649874,0.1236235217074371,-0.03773879272544892,nm,0.0
231.312895,5.490466930304233,-0.5893138195302359,-71.9489541711561,0.08253696509111662,-0.001645159259241262,0.1807581943778772,0.27363604700829486,0.13602068803013687,-0.10029745880050821,nm,0.0
231.32238800000002,5.200021563873671,0.9629917454513279,-72.68474460152943,0.11127740967335523,0.03208595971540329,0.14798760056848026,0.2696456452334533,0.14049718167846137,-0.15315730721107018,nm,0.0
231.331917,4.842854964470825,2.4556911415064286,-73.57415512149356,0.10397398620597449,0.024188622939455482,0.14456307199705393,0.2562292433848012,0.14610176370783423,-0.18206389031887635,nm,0.0
231.341242,4.496124146397096,3.9255347175551294,-74.4490604350104,0.0913103628218475,0.07607712753665985,0.14899102449034946,0.25457124248255925,0.13893448287434118,-0.17751640982972447,nm,0.0
231.360262,3.9485060766814724,7.045484454956145,-75.66225475835668,0.08969462360533229,0.19006770778588372,0.10258637812655141,0.2885993114473824,0.11737707007870654,-0.10074217000896446,nm,0.0
231.36997799999997,3.8168702617323236,8.715752555189257,-75.98698235574147,0.14049997886288892,0.22824965563641716,0.13938071830392007,0.3081846201770527,0.09918198319964854,-0.06796005777428864,nm,0.0
231.389011,3.7866270000275466,12.052253159161612,-76.65609404177216,0.20604267748489472,0.2656567746026132,0.06275324597749223,0.31128507689373086,0.06173489287407266,-0.08522572912382237,nm,0.0
231.39854,3.9545881172564186,13.601058144216587,-77.02861262561206,0.2422159146670591,0.21534180297861527,0.057843034614737665,0.29943982516323325,0.03188148452839695,-0.12708296911386935,nm,0.0
231.408045,4.229825148435797,15.095351727620377,-77.08736959310237,0.2525189159239367,0.1524434416756985,-0.013258843333465697,0.2935056197788499,0.00967703241500084,-0.16782790408963918,nm,0.0
231.417632,4.9581958285782495,16.54666622320806,-76.9106095189817,0.2485736766534961,0.06687360893655724,-0.029758959137154564,0.28864743300148066,-0.02061286694772334,-0.19330561071955307,nm,0.0
231.426904,5.566907504909721,17.849233266071508,-75.539937770876,0.23095918969668408,0.07868825761329284,-0.14699570585812086,0.27219864780078296,-0.05261359689423818,-0.19968878718201763,nm,0.0
231.436542,6.625066291102654,18.877909600097524,-73.36067105318857,0.19715107883444816,-0.016417750264131257,-0.04774745160742381,0.250294499593174,-0.09412077161345923,-0.18840233805289427,nm,0.0
231.45549100000002,9.340026946407546,20.824342198324114,-69.5718338254549,0.08921276699991491,0.12619664178529885,-0.005448323548994391,0.24049035835918808,-0.16742470878358376,-0.14370149337131435,nm,0.0
231.465002,10.815150415653017,21.66620606772359,-68.04715616872242,-0.03477384772290511,0.2310834222535037,-0.01003822821827677,0.199925848300778,-0.2064689471393615,-0.1432119640889058,nm,0.0
231.484021,13.604152602181445,23.02291763782315,-64.69082729790216,-0.2312135049947685,0.37202208395838754,-0.098254421241803,0.17835216363262751,-0.19377982676564529,-0.15846593995322628,nm,0.0
231.493526,14.742219669512302,24.005035352045716,-63.16366997977875,-0.32782837621823746,0.34609682525282864,-0.21820702244060267,0.17337473183030183,-0.1867802983364555,-0.1806471548898842,nm,0.0
