timestamp,roll,pitch,yaw,acc_x,acc_y,acc_z,gyro_x,gyro_y,gyro_z,markers,motor_input
224.018409,-10.970427398646155,-57.946643947001014,-169.09546813581272,-1.2151020724854624,1.3584569147208587,5.465153217468163,0.2004979338307528,-0.34795802115469365,1.3699592005322325,nm,0.0
224.027931,-12.671224986815337,-57.445041401414386,-161.76602818554133,-0.5810080623699683,0.9830913519952443,4.02860750081932,0.19226270843512086,-0.04131159368765927,1.1833454537434323,nm,0.0
224.04675899999998,-6.2555579060660795,-60.54287456317293,-161.64308380995718,0.9429996659609399,0.8170042580150269,1.9224559422625862,-0.6969751939467931,0.23295835457897404,0.349188910726547,nm,0.0
224.056279,3.1470031949350115,-61.71304516582089,-172.2284663232242,-0.1721629817382294,0.8909698159383062,0.6670035693302867,-0.9466726056462965,0.03272401792620509,-0.465475254887753,nm,0.0
224.06578499999998,16.387486315902585,-60.94476581395951,172.46250009693696,-0.8006857214688301,1.0816410980544313,0.14502400648062952,-1.2778665234059703,-0.14434048080995426,-0.7326129694340378,nm,0.0
224.07531200000003,29.49466639841243,-58.86597599033956,157.19641525150988,-0.00827212574154689,0.8806972539263238,0.7727906481905126,-1.3840856737815934,-0.04382131610705585,-0.7805281285223589,nm,0.0
224.08481400000002,37.83726415300878,-56.51982188059482,145.28888279610393,-0.5365443709779001,1.5591753956788623,0.39979912782288257,-1.0145381224147618,0.03062582644613892,-0.9707654132485246,nm,0.0
224.103845,42.50052076164423,-55.61377458927543,134.96469124851873,0.39714882959884446,0.5654700295671257,-0.2744232740370084,0.007066131057618212,0.11895351552299196,-0.5401270372466294,nm,0.0
224.11316200000002,39.881289182650725,-57.322987693357994,134.38545592650016,0.4048286527404004,-0.17795948143495238,-1.0268256823916806,0.44234645248017407,0.04794833642473285,-0.5536745552856656,nm,0.0
224.12274699999998,36.38140532126291,-58.884236601670715,135.05887380702194,0.2605094935318171,-0.7374448489759258,-2.056157405321535,0.4783982018269199,-0.029591432695555336,-0.4602471333405077,nm,0.0
224.13225000000003,34.72686435121556,-59.30234913017016,134.6204435634072,0.7506632640697454,-1.977751111321353,-2.329733235887719,0.1755540565939324,-0.04797056703101392,-0.37196742919918363,nm,0.0
224.151281,38.63537282924085,-56.16560113069694,124.66017762672394,-0.007914199341579786,-1.713226782108282,-2.4708089444348533,-0.5689351044660794,0.022051369880264012,-0.7074977518627178,nm,0.0
224.160791,42.73156161712459,-53.01596529368016,118.23747677848014,0.15604318886899637,-1.5724683758557878,-1.726336786189202,-0.7872456658250734,0.09033015485383798,-0.6188149898289245,nm,0.0
224.17040899999998,45.191001524573664,-50.036424845569606,113.42322128853326,-0.044108501265721856,-0.7851751807864057,-1.5364451269322588,-0.6712860803645866,0.02965203720679819,-0.5808713195439072,nm,0.0
224.17982199999997,45.865591375046634,-48.5356375268628,111.13574266931116,-0.08150732214882972,-0.16216012002800828,-1.3287881747720942,-0.3118626601000235,-0.018609853762720553,-0.3587138095009819,nm,0.0
224.189247,44.58457240892977,-49.024498598198775,111.93294914368288,0.0005648788392002632,-0.27773926742703703,-1.0118028533104035,0.15279088241229732,-0.10736865668347804,-0.036160362742711324,nm,0.0
224.19875699999997,40.833010766056354,-51.21891666219526,115.71489044535834,-0.1197865140261051,-0.49861331071934434,-1.0935030337466796,0.5958511025154875,-0.24903255785476117,0.1784688638847281,nm,0.0
224.20829,35.27759295152874,-54.34081802261926,121.77095730138208,-0.15880012333358534,-0.9218560708381762,-1.3768283112804833,0.8702494235313096,-0.27526246606145816,0.32498274115254655,nm,0.0
224.22727899999998,22.936513125621637,-59.75726002110278,135.16576425908173,0.22574125938945772,-1.1886027337218266,-1.6609743303456141,0.7667874856621026,-0.146381778389931,0.24610695032947347,nm,0.0
224.23689099999999,18.356825591467206,-61.08237521392583,139.96591145301022,0.14832494332930454,-0.6713613118164709,-1.508636047831544,0.51110264371965,-0.09550778400278549,0.16473287358291672,nm,0.0
224.24650599999998,15.494287288544404,-61.652150629459335,143.35547750234653,0.1782311824495414,-0.1776888756076148,-0.7365834648054324,0.2840865561930528,-0.06686263766905932,0.1772074481759706,nm,0.0
224.26550799999998,10.091568117509398,-61.123870979666336,152.31490667963962,-0.5977711150459333,1.2206495681067042,1.417348050078583,0.18522312677546107,-0.2238579616038721,0.5753492670038717,nm,0.0
224.28451900000002,2.289113006505209,-58.57873212780039,170.8346459999624,-1.6599287023747067,1.808520160498508,5.57285655299566,0.3407563634523379,-0.3532546949121377,1.3699289475193,nm,0.0
224.29422200000002,-4.847341075571938,-58.88688387673002,-176.37053490951925,-0.8177407832130031,0.8655026220455018,5.258595556628298,0.7359970905334833,0.037451665234514285,1.3418831550913255,nm,0.0
224.303732,-10.090816644849154,-60.51122461628098,-166.23601753835985,-0.5641850841569307,0.8115607918603126,2.017715141589767,0.4657834987091071,0.4122925969996869,1.1254417896620283,nm,0.0
224.31305,-9.539426633835953,-63.27935119583928,-162.9757621715592,1.1852425952709924,0.8483224558648675,1.406532102876801,-0.20643690692801214,0.5311652712371463,0.7541036591598347,nm,0.0
224.32256199999998,-1.5224383213818449,-65.34098982890445,-169.05437091463793,0.7029754350421419,0.922527599973324,0.39726852523783673,-0.7831959953204213,0.24226873840822313,0.2347177720450442,nm,0.0
224.33235699999997,12.991541243216483,-65.26270856784953,176.8908021366371,0.3295651032283226,0.7535729618804928,0.4506444998778145,-1.2159699018738017,-0.08732950869797478,-0.16659412486808528,nm,0.0
224.36061800000002,43.693206973241644,-56.95329994373556,140.04038631214743,-0.22803960944832624,1.4861536627655372,0.689094463904931,-0.7770276125147769,-0.08776376287160625,-0.6807692600315841,nm,0.0
224.379644,42.784345253356626,-57.36647502299496,134.09552852614144,0.4191448550464377,0.2877081832868623,-0.2329400906104887,0.30464623040110217,0.026482562848806387,-0.6499006191932973,nm,0.0
224.388973,38.587491407795035,-59.076881641479204,134.39567398431336,0.6044999420343075,-0.7056615583976968,-1.07051514433276,0.5495543866381882,-0.06468234783607221,-0.6544291683150444,nm,0.0
224.39854699999998,34.14645392841067,-60.04191430224741,134.99890954361533,0.5187422749341944,-1.591715081180211,-2.2068767516280623,0.4504053217216784,-0.1706986257003607,-0.645693930244459,nm,0.0
224.40806,31.769406503280294,-59.87783322378603,133.45164285486482,0.696002040162302,-2.4982116795286595,-2.7038389520753894,0.13977949981664536,-0.1798799757251914,-0.7214895890760299,nm,0.0
224.417563,31.785247005465195,-58.59578573705584,128.97195660441201,0.23656000709554997,-2.364637655692835,-2.8158448569138907,-0.19602286512591457,-0.15409038609225317,-0.8940713373536163,nm,0.0
224.427091,33.42193631929015,-56.172714014574495,123.37092366944437,0.09273276447451678,-2.159567813277984,-2.367092760109356,-0.49680887019459585,-0.12985765498463525,-0.8457996092305515,nm,0.0
224.43651100000002,34.613118111455975,-53.32726553179408,118.64243134860227,-0.001786402964224681,-1.7405423724688,-1.6530270149629522,-0.5592631439299205,-0.16160474501219524,-0.7531397077205461,nm,0.0
224.474567,22.282065703577864,-52.989502884538595,124.87875980582483,-0.6743417756893093,-0.5775322467525431,-0.7570709378317609,0.6598845493894484,-0.38106121096692963,0.24015054979544,nm,0.0
224.49358900000001,10.473778379893783,-57.792419823291965,138.5903682728052,-0.07332365893144036,-1.0684127277966995,-1.2180045549361598,0.7912241047830416,-0.085769544002687,0.41017079384127714,nm,0.0
224.50307899999999,6.046475054891067,-59.75624053661704,144.27440525914045,0.19079917456188988,-0.7407174208055072,-1.2609738729487092,0.6038584574059036,0.035012922081272616,0.381855795291491,nm,0.0
224.51261200000002,3.627489052694003,-60.98670998086206,148.545879004197,0.2719801940362357,-0.21054391289926389,-0.893687922884581,0.3347938638775467,0.08681604307301927,0.4367528585992716,nm,0.0
224.522323,2.780937780835988,-61.39527209571144,152.30429714008054,-0.012307392426128742,0.6250788613821735,-0.07729186653785906,0.10967196202969443,0.04474884485251023,0.6067439943711861,nm,0.0
224.550806,1.0191339450814512,-57.1738017375541,173.73828270736513,-1.8364029309663348,3.205380145991843,6.385507249788237,0.03762968166400307,-0.39914727704775627,1.7848322057764618,nm,0.0
224.570012,-12.324063191745838,-60.47516289342023,-159.0384760579122,0.17238221059043907,0.8939711373395899,1.580785446100266,0.42156700925037977,0.6576851897951683,1.4194281894868621,nm,0.0
224.57953999999998,-11.237541856811458,-64.27130824332528,-155.71477669996733,1.3257481474326283,1.1427488492309432,0.5464541102829364,-0.3957289838933564,0.6725624131193833,0.862215188207601,nm,0.0
224.588678,0.4410869186414859,-67.11877903145263,-165.53439106025766,0.8307728753770942,0.8699512881851001,-0.42487115464857245,-1.104523896069175,0.22649882256320922,0.17192254812196556,nm,0.0
224.59845600000003,20.794403481563542,-66.53024292149306,173.8638729313977,0.12001733041091599,0.834999978693374,-0.09889814699872682,-1.5926992410452827,-0.22118619645770798,-0.3664689933854938,nm,0.0
224.60795700000003,38.65062843709472,-62.36498285696516,154.14605208859578,-0.41369931366756174,1.2941501213499809,0.09201557952878166,-1.7135262921130396,-0.35837967785429875,-0.7116879829868014,nm,0.0
224.617467,49.07133641086273,-57.60311764991507,140.8737325673656,-0.7243734054636617,2.0288777917177683,0.49929325324687596,-1.3979976162283563,-0.22980686132100467,-0.8475073488828182,nm,0.0
224.626898,53.04896556469086,-54.82751278129069,133.47910324223542,-0.35352321385380703,2.0770089443721833,0.3438879565405147,-0.709537101536806,-0.09451666020142763,-0.8198975969529348,nm,0.0
224.636407,52.37495840890548,-55.20886739581151,130.1286354554779,0.13677941299933694,1.4488335135945973,0.13292935299409467,0.10237706502405619,0.005770520380663524,-0.7829838640021929,nm,0.0
224.645927,48.17498690158064,-57.91964150245774,129.92470444063912,0.7375758213019574,0.10686346576999245,-0.28311027043634457,0.7082354073952256,0.007227009919701196,-0.7433059584539441,nm,0.0
224.655248,41.06431327724691,-60.742734697053656,132.1493414394193,0.9205602274618615,-1.1981601809954867,-1.3098511006053886,0.8980265423101425,-0.16353906086013476,-0.7793792220411587,nm,0.0
224.69337299999998,34.05417616700822,-55.869760250382654,117.65967032126753,-0.10433613650574874,-2.370297052043994,-2.1650163497963235,-0.6943573159153204,-0.10063099613370724,-1.1625780194587145,nm,0.0
224.70287800000003,35.3009930658963,-52.53018946955263,111.5570867984119,-0.09580842367115185,-1.6706184335996832,-1.2731240876765506,-0.6672961103078191,-0.13194985160362704,-1.02065747644327,nm,0.0
224.712386,34.03353906972978,-50.50025880437598,108.7988943409678,-0.29456467516216017,-0.6294206334178875,-0.7529246755664589,-0.3244458212841474,-0.2748048817929295,-0.7528371164396349,nm,0.0
224.722031,30.33696290884473,-50.3374502384428,110.19258105565865,-0.5553794591693028,-0.10714514869494143,-0.2592361641147407,0.12971790383704904,-0.4416555048434024,-0.2931299698170406,nm,0.0
224.73151399999998,24.34695008535472,-51.55518502673833,115.76877843194029,-0.9151481853141117,-0.20617054237103916,-0.10531353075812261,0.5220498634622487,-0.586465735259987,0.18369983642310936,nm,0.0
224.74083900000002,16.84464214220245,-53.464381637036254,124.27825934789794,-1.0512876010860648,-0.6104704704772622,-0.43345438011151866,0.7899547068473515,-0.5862037904797684,0.5107849290613263,nm,0.0
224.750345,9.467027620783162,-55.66476600748568,133.5485970996964,-0.778265194412592,-0.9596026571658575,-0.7755037513259836,0.8814890127499571,-0.37564536544421406,0.6524344526885001,nm,0.0
224.759875,3.788533291327499,-57.80181393877164,141.44502496790886,-0.34610776790204717,-1.0568597591823468,-0.9296767866795465,0.7491975172342311,-0.09190935979204434,0.6317139893513933,nm,0.0
224.769379,0.9640604112825616,-59.563261448208195,146.62906503560737,-0.17894332518949355,-0.4873631432953122,-0.8633749392642445,0.44500789002293817,0.1269308546881574,0.5573175300143781,nm,0.0
224.788576,4.1973095439778625,-60.764894831325115,151.33780824842142,-0.1094174098321993,0.7317782496343272,1.0140026027062106,-0.22758752154462925,0.1625059574526988,0.8846559062666209,nm,0.0
224.79809200000003,6.910996753603251,-59.58070356420226,154.6085894848389,0.3044260345267787,1.1200826529756411,2.8542032096596346,-0.35192205202408505,-0.07475744351368524,1.1283988499154611,nm,0.0
224.807598,8.790206089335962,-57.934300389216325,160.22500966664774,-1.3515973637479965,2.3969047513834636,3.7155608910457545,-0.31214308896495563,-0.21639311416973342,1.4476888713650204,nm,0.0
224.817102,9.758575373577086,-57.70288104576185,167.60628813699995,-0.6120831228645568,1.902879153691292,5.468852996950655,-0.11918329941568044,-0.0034747118748600543,1.643331915149716,nm,0.0
224.82679499999998,8.39458301809026,-59.61573050579865,175.00320291814242,-0.9749791481733036,1.9360439123203055,3.5562683762448044,0.1902033423817904,0.3690808959130805,1.2493410546987933,nm,0.0
224.836306,8.932218102875263,-62.65154826107204,178.7157177787803,-0.20243419472369525,1.2667568198091028,1.1978903703734667,-0.027402833260854145,0.6212786100040083,0.8399083579848009,nm,0.0
224.84563699999998,15.270992448308112,-65.56164820774985,174.4821637894654,0.5391830541196476,1.0646090109237618,0.2582724679310834,-0.5271830125182941,0.6250890358378653,0.2979412658320006,nm,0.0
224.873997,51.050772657532704,-58.7522706321387,134.45558797565658,0.24356984382923497,0.7975377013658119,-1.089657774289624,-1.3101080230857545,-0.08086240207972789,-0.7465816133487889,nm,0.0
224.902544,52.348269003105855,-53.227309939376575,120.41240088970233,0.8240099405203068,-0.022101250128060298,-0.6753824920849202,0.27820628876368386,-0.315884582693905,-0.8391471317098437,nm,0.0
224.92153800000003,38.67045656692722,-56.182843255128105,124.11243801933576,0.6172122360058906,-1.9777393195177018,-1.4041441885862203,0.6686871582723729,-0.5291821915497598,-0.6931265780012279,nm,0.0
224.93105799999998,32.18605232941698,-56.39909265656774,125.4503569207496,0.45636342303068556,-2.855512550539481,-1.7986795957289172,0.4454283571579123,-0.5529459317950278,-0.8128918384864652,nm,0.0
224.94055799999998,28.076093941434525,-55.679661850314055,123.81386157824424,-0.10203282724645109,-2.6831073512226458,-2.4203066578300954,0.14302152578347158,-0.4461199802729857,-1.0105843136813775,nm,0.0
224.95007,27.06425584195389,-54.61417686180155,119.62608084301992,-0.1983601064074919,-2.590889759714489,-2.0337886997303407,-0.11914520723581284,-0.19678139055509133,-1.0051140770186175,nm,0.0
224.959597,26.99733982450161,-53.58714096710261,114.9194988243281,-0.3753311890023555,-2.0222193054731,-1.5926327054492049,-0.17657940544028458,-0.08747618711857844,-0.9537606081802373,nm,0.0
224.978603,23.508520112742573,-53.79458200065383,112.55101537295478,-0.5963047162031571,-0.4662217484189111,-0.7855355134459994,0.2355775021120276,-0.22514882195809993,-0.2999424072980289,nm,0.0
224.99765399999998,10.405905543961554,-57.188427024648654,126.66545731470434,-0.9921912171693806,-0.17923719841488162,-0.5122705511859911,0.7823684695277662,-0.5274909619035238,0.5215455518452341,nm,0.0
