timestamp,roll,pitch,yaw,acc_x,acc_y,acc_z,gyro_x,gyro_y,gyro_z,markers,motor_input
237.503996,-6.766967240869051,-0.2387309302397362,-71.46512444331424,0.3123331749951366,0.574520796637239,0.14410584645057617,-0.6819953714535484,0.8657670455634101,0.1694870409354931,nm,0.0
237.513335,-12.114269732817768,-1.9887773520479053,-71.92957969747344,0.5660563037432991,0.9887292621295778,-0.4179045401474502,-0.6785427536631504,0.8964803217566986,-0.11583680827220998,nm,0.0
237.52284699999998,-17.120165377727844,-3.885985220219379,-73.68648770701773,0.38995654519836714,0.7249515168082621,-1.2015880067120297,-0.6689462176861762,0.8344999619125881,-0.403689570934931,nm,0.0
237.532548,-21.126455356273947,-5.9082466725461,-76.1883782172477,0.879456274667024,0.37275256027061965,-1.1240525891229534,-0.6094422717225504,0.6575518759108061,-0.5688716656218429,nm,0.0
237.54202899999999,-25.102644591355993,-7.8126640279396735,-78.70137694312318,0.8603682260477907,-0.3328009939809372,-1.35649114843369,-0.5551728478575965,0.6802583300716813,-0.5966474247969373,nm,0.0
237.56103199999998,-32.523987507890226,-9.91779216868571,-81.05797183077665,1.0783038099074316,-1.3915864230508463,-1.3420771691371247,-0.25360086866586384,0.6671507327538134,-0.2373807316018414,nm,0.0
237.59914799999999,-44.10844565049253,-6.517806791534943,-78.01707253336326,0.7352103301616695,-0.6818049376962783,-2.378608615123242,0.10301938022654676,0.43666442437765196,0.08902710597295552,nm,0.0
237.60865700000002,-45.35407625995498,-5.929299540207693,-77.85026375040766,0.4024949289671877,-0.3724804096995607,-2.3694289779575333,0.05319099916895951,0.25893595704480893,0.011908555331645898,nm,0.0
237.61818200000002,-45.624835459404196,-5.614506112906955,-78.14778402433306,0.3975312664107451,-0.06236638773723465,-2.020120617378752,0.04022403815425341,0.0577325276857476,-0.059454023203604586,nm,0.0
237.646824,-41.33064227634736,-2.3416648766697277,-79.02699253034109,0.12078704105080519,0.4231729822348968,-0.4445499701652829,0.44006210921734806,-0.4159579624148193,0.05014003496976149,nm,0.0
237.65631599999998,-37.736405021693265,0.14454936320999748,-78.12156520170487,-0.07234408142978035,0.7348585259351749,0.040198386637345,0.6197061921607474,-0.6155674221580429,0.1983414936780687,nm,0.0
237.68484400000003,-17.506074322556543,6.066381946302183,-71.66312599766785,-0.7403061193736147,2.12644054017514,3.0812935825738426,0.6737920588680671,-1.4523143633304336,0.29802452735112017,nm,0.0
237.70387100000002,-0.904434953175521,6.32970124485433,-70.3885041954752,-2.014997955582523,1.4188763394279005,3.9413279971509296,0.5176615342396308,-1.4812785058453515,-0.1964247120168119,nm,0.0
237.713375,5.314562543659416,6.65150502333725,-71.7561566650979,-2.402187559389386,0.35475396735825776,2.844507292482643,0.4534057769014442,-1.1585057142902098,-0.42099251473231497,nm,0.0
237.72288,9.464597172681797,7.3740546734866195,-73.65916223666285,-2.217411043471961,-0.6352999015296177,2.003874746592064,0.3745056403557986,-0.7528797000567649,-0.48983162794765017,nm,0.0
237.73239600000002,10.708971128691156,7.800073367658999,-75.33177677089411,-1.9807345374068746,-1.3427623845610452,0.912659904769625,0.13933264604455642,-0.22311325765060377,-0.3755623075844859,nm,0.0
237.751453,7.363058402635352,5.478054085888446,-75.80214674079038,-1.0984064242011486,-1.7757439645821032,0.6536123989639446,-0.4466869593051489,0.34784462730687055,0.11430865752174252,nm,0.0
237.77046700000002,-1.233368574828626,1.3767874267172937,-73.08315177313753,0.024897280896485137,-0.4090919503727617,0.4853067087674345,-0.6636411976216868,0.8216413017756246,0.3245203719037668,nm,0.0
237.77997100000002,-6.392402386771964,-0.39735142294702863,-72.33714071199492,0.430890392100322,0.3816886999401708,0.11575750712058026,-0.6556948740208511,0.8710925703959697,0.1545824096550968,nm,0.0
237.78933700000002,-11.797068258607482,-2.1811785636303878,-72.88111427913529,0.6357087723383096,0.7605960302719559,-0.4706859386451388,-0.6740413102737961,0.9160447342072484,-0.1353268774639202,nm,0.0
237.81783099999998,-24.955879449069393,-8.438052955304006,-79.43684438980269,0.9398627173273896,-0.3936549447427759,-1.3182705832611818,-0.5853838823284109,0.7082927405035279,-0.5716943499582333,nm,0.0
237.827327,-29.008080760661265,-9.987120345134032,-80.9294784728281,0.7893702123434595,-1.0187436561065573,-1.4303665878287,-0.45359937734869693,0.7284895319728466,-0.42616224401226965,nm,0.0
237.836822,-32.78090379435619,-10.63185924246798,-81.2436224939473,1.0826510966044771,-1.3362488407586326,-1.4108690726398305,-0.2541180176364249,0.7066301251124864,-0.19471713007048363,nm,0.0
237.85592,-39.86933365099357,-9.0991008863282,-79.43627288052232,0.9247303077838632,-1.3088947078851076,-2.097315203934661,0.10251557576805297,0.6775749234712195,0.12494801095859623,nm,0.0
237.865441,-42.336780863527984,-7.650810276644326,-78.29348287065272,0.9241541022392484,-0.8959364921887263,-2.367597889202276,0.17956139557247408,0.527557586917542,0.1619297717537465,nm,0.0
237.874946,-44.11493387645839,-6.423298968929852,-77.54733625039034,0.7086604177269193,-0.5368495596932777,-2.494814773173992,0.15610494372887138,0.38875625381370094,0.11112067524767472,nm,0.0
237.88446100000002,-45.064869529845424,-5.628583895303769,-77.39043998313048,0.4536928844523866,-0.24405827957169568,-2.3867613396616676,0.10413771970152297,0.21089004132043393,0.016910453629789626,nm,0.0
237.89398200000002,-45.036223016087526,-5.142718566467238,-77.77293196091806,0.3571646450792409,-0.043488706264635024,-2.0461200381338327,0.08604376831779269,0.007076322257841929,-0.07064095208724948,nm,0.0
237.90348500000002,-44.210389038778146,-4.599532394662933,-78.43161627138446,0.2346668811717328,0.06901169424724905,-1.5662508168156022,0.1300591136316975,-0.1470307790989787,-0.11265864174422376,nm,0.0
237.922625,-40.16133725532062,-1.7508779257754308,-78.95604296498226,0.04507268925493849,0.3176172399120021,-0.4839693804168721,0.4416834512407858,-0.42525521957957974,0.025957998336541492,nm,0.0
237.932128,-36.64529315013647,0.8042315191108299,-78.18311201534009,-0.18411370984822925,0.6561662827104089,-0.0520816783428738,0.6301394965226438,-0.5975753166763877,0.16353633542271373,nm,0.0
237.94162500000002,-31.493257095905147,3.5969525144490118,-76.4832476689706,0.08501032345313372,1.290097061234918,0.8416483545865261,0.7606540267177414,-0.8926272659455939,0.30203551925679945,nm,0.0
237.95114099999998,-25.2286034684578,5.964798658054208,-74.2008944806027,-0.1329250847282196,1.8382899257403578,2.0625310830978747,0.7641641295189594,-1.0992859802353634,0.35184576393270445,nm,0.0
237.960654,-17.780803066978457,7.518795720218276,-72.0087755441635,-0.8400493134987577,2.1594617223610175,2.8907827614980213,0.7176490263908973,-1.3366854296496382,0.2613075374789121,nm,0.0
237.970155,-9.469020252210477,8.249506847207924,-70.65190276670019,-1.1112743598332708,2.098036697998335,4.487074711394562,0.6564202201362245,-1.5248066016590092,0.03913104398230935,nm,0.0
237.979656,-2.057641421680124,8.610038857709478,-70.72812693921752,-1.995566963396455,1.3171288237444045,4.079923100774532,0.5441507541091988,-1.3708982496021256,-0.23816954498973456,nm,0.0
237.98917400000002,4.129700543133579,9.14638933261042,-72.08587886294228,-2.2948485043970654,0.14188021394444564,2.9840987889229305,0.48291881142347576,-1.1347429235231752,-0.46947529400609855,nm,0.0
238.00819399999997,9.797990179383994,10.5330130320741,-75.81732130461462,-1.9408252326269686,-1.5538857030068964,0.9488627656151112,0.1558360118928068,-0.238423924625009,-0.41432137765899085,nm,0.0
238.03673799999999,3.349794972560211,5.5823391976608185,-75.47493753015604,-0.466253956678413,-1.263309494816571,1.039774499041451,-0.640463785247105,0.566495018486252,0.3075060006395351,nm,0.0
238.04624500000003,-1.4319418621157451,3.3415416734013657,-74.07084571442775,-0.070498160087043,-0.3187897269228853,0.653576856573404,-0.6931827336543851,0.7943041359204865,0.3504898582147032,nm,0.0
238.055753,-6.513401245999195,1.3908954170025298,-73.26016470094551,0.35701242631519026,0.5392840779641891,0.3107634347010464,-0.6704207105867628,0.8563765900861743,0.20053501963970102,nm,0.0
238.06528899999998,-11.897775187260212,-0.43645316448033544,-73.66767212364532,0.6082131784248028,1.001179944351594,-0.2773805137968002,-0.6675721653206345,0.9199008874549087,-0.07486771638429932,nm,0.0
238.074619,-16.985680401582776,-2.364290869769563,-75.30182291450083,0.3675921686759746,0.7545510871463109,-1.1317073394315997,-0.6547919283272456,0.8688805496305513,-0.35284889383649554,nm,0.0
238.093631,-25.001487426390305,-6.36413509710356,-79.90306981287988,0.9514097770973107,-0.2707893761284727,-1.2824546632472982,-0.5503963448342555,0.7017085367015236,-0.5335346578373327,nm,0.0
238.103132,-28.936284666168838,-7.875606928637784,-81.4578131891877,0.7474973508510437,-0.9697616158489581,-1.4275750454327831,-0.43673414175034136,0.7146608398469078,-0.40658750514506753,nm,0.0
238.12213799999998,-35.87956327539565,-8.549176916959178,-81.35164960065701,1.1021173175039658,-1.4427761172493256,-1.6525641005818732,-0.09384147178534925,0.672693623211233,0.00800459245627783,nm,0.0
238.14124,-41.006084944473386,-6.843682058693694,-79.04959477316766,1.0010707723311527,-0.8589277237103856,-2.237501620714944,0.10406930772353093,0.43982433604050447,0.1908395452115156,nm,0.0
238.150746,-42.507616511867745,-6.121598317575554,-78.12597442886025,0.7912830575349145,-0.48393946221234696,-2.3828975248701934,0.07213358582805457,0.3132297690474759,0.15595995920713712,nm,0.0
238.160265,-43.19450665911941,-5.764584773528187,-77.73112201677291,0.45791891348673347,-0.14408232926323405,-2.3585429123377533,0.030937977211986694,0.1404358122099701,0.06990105341258562,nm,0.0
238.16979,-42.82933614347307,-5.592887880791378,-77.87053637379239,0.4304538841517566,0.1262744529594724,-2.0125268823868443,0.03858707789032875,-0.07214736480819128,-0.015689454620434223,nm,0.0
238.17927,-41.67718152431154,-5.266818396941086,-78.30309566056054,0.22462949866534598,0.26796842905921947,-1.5954866292699466,0.10077315844934408,-0.21952618697085846,-0.06005327152049294,nm,0.0
238.18872000000002,-39.72237728939323,-4.349260538712179,-78.6588028928497,-0.024854288826452693,0.32067641925305007,-1.097166616934663,0.2472244116656944,-0.3538566520786846,-0.034177205755156585,nm,0.0
238.198405,-36.80252272816795,-2.524729018786659,-78.59171320900184,-0.018408849977991526,0.5384845747661737,-0.5231817470304703,0.46238696230322485,-0.508690143404106,0.05190645739074003,nm,0.0
238.21742500000002,-27.712898966754082,3.006980364598256,-76.41742507927911,-0.11179963177497569,1.3645945015478957,0.543350492821978,0.78706582504176,-0.9011344097737906,0.26139699631772867,nm,0.0
238.226938,-21.912374622994975,5.553698103410406,-74.75121913818673,-0.35224221920439364,1.6128644076345053,1.6891145992791106,0.7712968316478237,-1.0045242013167903,0.24583191364482215,nm,0.0
238.245964,-8.152947204140805,8.656290936009517,-73.2510157777279,-1.0303180738455497,1.3137529495688773,3.2034407107906397,0.6221525853762786,-1.2902943583058686,-0.14914400656820867,nm,0.0
238.255464,-2.4206145028260178,9.820484674073343,-74.2076735886732,-1.6594213701627871,0.46256152117297833,2.7204442445035104,0.5311172285227987,-1.030986881716115,-0.38107894365774025,nm,0.0
238.26497600000002,1.8584406076790372,11.415848796450122,-75.94983452028329,-2.0041509094586663,-0.3367434236894326,2.13072368537765,0.5155225658842237,-0.7395313811896973,-0.5129639615558276,nm,0.0
238.293511,3.096906166681397,13.411485959005708,-79.17572364283953,-1.47630067769529,-1.7359048110538144,0.47573302606499807,-0.1069557223689562,0.2579475148416522,0.02789824875432673,nm,0.0
238.303033,0.6495266703833297,12.51350673219833,-78.19513756701697,-0.7062513306021783,-1.5028086462228758,0.9103305232548622,-0.28036575733118363,0.42564021911119754,0.2999670667261903,nm,0.0
238.312538,-3.2196251438270034,11.2690659193392,-76.59334108730495,-0.06573498972717792,-0.9433434100756014,0.9789462898474504,-0.4189769516733094,0.6775286474352875,0.47486775604106735,nm,0.0
238.32204599999997,-8.053231542787847,10.10822451195109,-75.10977750340467,0.3069522080643879,-0.27515576351403576,0.6099665563848465,-0.4681972552190871,0.8568749955253941,0.472131580334802,nm,0.0
238.331557,-13.208130094082568,9.19532021516325,-74.42201027842837,0.8115771658501564,0.4094716859935319,0.5374552567194489,-0.45413637404397217,0.9248008837603949,0.30761634989096465,nm,0.0
238.35039300000003,-23.572255252063346,6.772669433265106,-76.00520868198868,0.5757529718342207,0.5930295716687988,-0.6612316228302813,-0.5216321403573244,0.836525663647017,-0.11082640636133144,nm,0.0
238.35991600000003,-27.38140820059426,5.245965699735924,-77.42585878584906,0.9625685043926177,0.32195141086213935,-0.672445689776391,-0.48266497097303973,0.659027567735693,-0.2040223048077043,nm,0.0
238.36941800000002,-30.695278290200772,4.022391087903805,-78.57379954712643,0.5021966168744103,-0.12907762450462762,-1.125453561909391,-0.38812993385192684,0.5871961883622634,-0.17484260317074315,nm,0.0
238.39794400000002,-33.644285668058124,4.086957016601206,-77.21102246641182,0.49652921713245823,-0.4140443631142964,-1.2503749086531506,0.1081630014217127,0.036275864009514394,0.2400392207997614,nm,0.0
238.416982,-30.994176711391457,5.240419728812366,-74.36305158138266,0.4971425151760298,0.11133384117678179,-0.8496851572558127,0.1553195285334714,-0.31854050325809613,0.2431464756233372,nm,0.0
238.426654,-28.831541415713566,5.138173258393138,-73.58894057705955,0.24427270785327396,0.21054850814487472,-0.6397474831161475,0.08909285422675997,-0.429954298103953,0.1166061402132596,nm,0.0
238.44569199999998,-22.81267057337817,4.104419111796401,-74.23980772198185,0.25658982483271214,0.23292789063998282,-0.002958622005284698,0.05683023316976953,-0.6626224198180543,-0.1790857623227634,nm,0.0
238.45521,-20.066202517670504,3.6264808860460827,-75.1803281619284,-0.08471124075852472,-0.035809932535061775,0.20435089955652533,0.041774868968619955,-0.5639008736078488,-0.22632523521525702,nm,0.0
238.464706,-17.549904269539073,3.476595309002223,-75.91255814514875,-0.5407043347690804,-0.25963567410659877,0.12162037517519143,0.08574743312162789,-0.5036762599958362,-0.1793070229300493,nm,0.0
238.474215,-15.058141693783671,3.6542983059673375,-76.03019279887337,-0.3922979735098158,-0.25981632037756963,0.4617890095775039,0.14454280279409104,-0.48363634795030425,-0.05665239634100806,nm,0.0
238.483714,-13.417343252381121,3.9910849161430897,-75.49139917934342,-0.5819976945586355,-0.2693402923848668,0.3493503968468763,0.13543128039649727,-0.3103391913560731,0.08350016284802221,nm,0.0
238.49323,-12.345721663414482,4.375098129976117,-74.50178318821594,-0.67597350745713,-0.20422353359618467,0.21137387506488592,0.11929555018394199,-0.1961182569849711,0.1797441773265083,nm,0.0
