timestamp,roll,pitch,yaw,acc_x,acc_y,acc_z,gyro_x,gyro_y,gyro_z,markers,motor_input
214.50805899999997,-13.731965853301645,0.9432206190868091,-161.46011065799254,0.3193230690158857,0.10709126359064185,0.005545042551177738,0.04965602063155714,0.6291866701382146,0.03475673033125043,nm,0.0
214.517532,-14.738679116600586,-1.9450619524162356,-161.47020256313093,0.527239718472921,0.09892841703341701,-0.24249242658125109,-0.0027998058400607235,0.6223141270282422,-0.005326415844083108,nm,0.0
214.536399,-15.916117497767598,-7.315715590460175,-161.70439136047892,0.6569176311832996,0.19873327062650578,-0.7472541387460607,-0.09016431769609126,0.5270132698388881,-0.03522730292616911,nm,0.0
214.555415,-16.067475244729255,-11.448268336697355,-161.82425990515586,0.4882583849786762,0.21460299089888313,-1.1006118110469023,-0.13350965592984632,0.36451740481182116,-0.005831033149272192,nm,0.0
214.56493200000003,-15.88372173248405,-13.0224969594536,-161.8306609074737,0.39532178853865835,0.15098053239681675,-1.213705214055834,-0.14263950313356252,0.2982268392474959,0.006488123025918257,nm,0.0
214.57454399999997,-15.663185435278217,-14.434215917463101,-161.27759897078403,0.262159736893753,0.12259772272630254,-1.3421306409941958,-0.1417130874535443,0.26374472544180355,0.003090041707980437,nm,0.0
214.58404399999998,-15.408526243352277,-15.74514875428891,-160.79385044085797,0.13888683123873416,0.1044713773854166,-1.4201376877417078,-0.1434806776276951,0.24126933460539418,-0.013969408544349152,nm,0.0
214.59354699999997,-15.121617728481638,-16.95982949584342,-160.57649780541686,0.0763149557573511,0.07898916497675879,-1.462630373763276,-0.1437785767528386,0.22041532369661004,-0.03848002910473035,nm,0.0
214.61257199999997,-14.749256730558727,-19.1201292262183,-160.44345880930737,0.03621614778193381,0.11240731900708148,-1.5410799655436322,-0.1054685028009213,0.1933403982255363,-0.0764043199496854,nm,0.0
214.622084,-14.747017655677693,-19.919116890049576,-160.29240869746576,0.0758481938878343,0.11951664765947564,-1.5713591273083365,-0.0653200798050578,0.15990021243635244,-0.07994685707262539,nm,0.0
214.631581,-14.948568389788294,-20.41111974764809,-159.91083557886665,0.10291823050469873,0.14959332879864137,-1.614693814661521,-0.009036581346981204,0.1150990938941851,-0.07624951785219451,nm,0.0
214.641109,-15.31469542799504,-20.53809194950992,-159.4373304524701,0.11812211721318909,0.1281724790769689,-1.6280249107938167,0.044759344015321605,0.057503129357435644,-0.06094656849455005,nm,0.0
214.65061599999999,-15.907664604796208,-20.264371339729788,-158.91202284903437,0.17174645393066498,0.07293625892758202,-1.560229356382251,0.11296660268237699,-0.0016351439390110128,-0.04885102529439679,nm,0.0
214.67914199999998,-18.93676713872712,-17.401622590991163,-156.52293048567057,-0.0876448497261753,-0.2347652164381069,-1.1903706343199962,0.2796720861138828,-0.14153262247118525,-0.01985835039458271,nm,0.0
214.69804200000002,-21.48515360094293,-14.423338441016135,-155.27854873429604,-0.39227415795746035,-0.35783563612207353,-1.1562008103574983,0.3393120704714657,-0.16793013534422996,0.003185949253579549,nm,0.0
214.707598,-22.687670320127246,-12.803140858664257,-154.19040374774943,-0.3573841354587242,-0.4921044804262029,-1.024434960079453,0.34018598439561154,-0.18261689651204824,0.0207791864979591,nm,0.0
214.726569,-24.898546544856316,-9.059996544357473,-152.73359491301454,-0.1779996842081459,-0.462986098848033,-0.8356020020105589,0.34405077084963626,-0.2517833021379352,0.03621619399318287,nm,0.0
214.73626800000002,-25.646012385719008,-6.853761144515832,-152.41946496039753,-0.04567984529146042,-0.47692637001462884,-0.6265185652824774,0.32364150548216086,-0.31552962796564527,0.043616732343349965,nm,0.0
214.745776,-26.10897958552006,-4.34076126914642,-152.16166129518245,0.027827850891611036,-0.41641465845074205,-0.40732828231304014,0.3041886165765253,-0.39434629150337264,0.043849133291123235,nm,0.0
214.755119,-26.15894404991127,-1.5178032246066013,-151.95126115158087,0.1527932950793086,-0.3987201679988142,-0.020573628528192483,0.26215373774522427,-0.4865113941340034,0.04259315321820506,nm,0.0
214.79314200000002,-21.224630041732535,9.997774892725332,-150.96797776429855,0.5480680563039662,-0.38039730546381406,2.1648798497127966,-0.12133790805028506,-0.6407925857871308,-0.006243396810058743,nm,0.0
214.80265899999998,-19.197093178388467,12.072029535470897,-150.72493285931017,0.15811484968208933,0.22715014896599775,2.361138185621756,-0.15720857422605305,-0.5487708756623146,-0.03113081621008977,nm,0.0
214.82175900000001,-13.907905694309473,14.626463575429673,-150.55783225010882,-0.314950130632626,0.027328060465684922,3.267281479079989,-0.32644996836349577,-0.4019650062804574,-0.12788892677855623,nm,0.0
214.83127,-12.346123856632163,15.013233660819822,-150.81472250171444,-0.7413399541054992,0.4141223233507349,2.950913634993779,-0.23666908380485185,-0.20737496904678634,-0.13525459563632689,nm,0.0
214.84077399999998,-11.203247541379918,14.765190787579773,-151.16524369162101,-0.8727492230483203,0.2963311171275584,2.942890314764827,-0.22835852783603358,-0.05559983021281924,-0.13302909519497236,nm,0.0
214.85028200000002,-11.075629214289338,13.975996940545539,-151.50918985952828,-0.8432201053605863,0.26341353644135257,2.744637700378373,-0.10836049483916552,0.13505726287630906,-0.0792024576525686,nm,0.0
214.859795,-11.835397712768467,12.693964664613608,-151.69666709163178,-0.6951182018557934,0.407908587580253,2.222947359433888,-0.0027948862865655446,0.3045052884654544,-0.006159344670912762,nm,0.0
214.86930900000002,-12.889940127944746,10.952065985149385,-151.60881626003288,-0.33245183426686964,0.12430243545174587,2.060288656825835,0.0051943785754946705,0.41333676173996803,0.057529476147100675,nm,0.0
214.926294,-20.64062243343138,-2.6148549018302756,-150.7960919819984,0.3969788594716454,0.050450736308000566,-0.48426438046572373,-0.15385367092621635,0.4806923802111437,-0.06831555314951177,nm,0.0
214.93588300000002,-20.55550731435127,-5.018073543025393,-151.23387798803932,0.2485404973863866,0.09950783678404376,-0.7184501583008512,-0.2597836213188214,0.4207540909362504,-0.0864185294089895,nm,0.0
214.95490299999997,-19.20676322993721,-9.545733858055765,-151.9529933567077,0.13996047110240473,0.10478995906775572,-0.8451138437483013,-0.34312552840219573,0.32682131410769666,-0.0402118921645808,nm,0.0
214.96424699999997,-18.224254715082743,-11.515537729495215,-152.07106324027757,0.14255602405276932,0.17384106438276764,-0.938074372101107,-0.3675427029912002,0.26568728246471013,0.012621390626796474,nm,0.0
215.002219,-14.284706749650294,-17.421582724106333,-151.75457404625962,0.3926990387686514,0.18851005460587889,-1.1993297523950528,-0.2821986573094256,0.13384763226118734,0.05131568876643374,nm,0.0
215.01199,-13.991902270201923,-18.448212409993,-151.9813558887207,0.14814291559100115,0.3578714895291575,-1.486676631670497,-0.15789452036726087,0.16294013375911312,-0.027140934407353132,nm,0.0
215.03102600000003,-13.929387357466398,-19.83941741792894,-151.81695677580328,0.15266323450412303,0.19485321236098668,-1.3678703150785367,-0.04768007154303994,0.11845895696076224,-0.0748715874563455,nm,0.0
215.04054499999998,-14.59273114907239,-20.131813182388793,-151.70776786298458,-0.039534246056024194,0.23252118407455907,-1.5005711966342747,0.07018302109858594,0.11882341762719473,-0.09081460141208429,nm,0.0
215.05004899999997,-15.454983385280562,-20.115304278841414,-151.34287757794823,-0.01456247902983222,0.08332964283361914,-1.5595043364242585,0.13207625160296596,0.08276073654611033,-0.05866668286034013,nm,0.0
215.059559,-16.963194901514505,-19.837813834196712,-150.8061321681792,0.14442610054278976,-0.09367751109883454,-1.2640952906364669,0.2632786060373178,0.09734141829360703,-0.061269233272957385,nm,0.0
215.06907900000002,-18.98769204943387,-19.19507456887801,-150.2366912330195,-0.1834140473700911,0.09242656181637035,-1.5060382721512167,0.3840343370729068,0.084834673312169,-0.0759273389589034,nm,0.0
215.078586,-20.619035364202908,-18.176736119436946,-149.4651363118342,0.08431401237870609,-0.27460998030536354,-1.2672592480532643,0.35829862452378775,-0.011640814222270823,-0.040751897023708857,nm,0.0
215.08810400000002,-22.560387335708963,-16.970578086702616,-148.74326127190378,0.022399616250620667,-0.43402481221692135,-1.2941746508685366,0.4302972142830428,-0.007264816423787436,-0.07457251583291301,nm,0.0
215.097563,-24.568346873847815,-15.641638671470993,-148.6843330090022,-0.3542186270900594,-0.32843537518792154,-1.4888401796852488,0.45624390389982383,-0.01928535581957993,-0.0989403206536281,nm,0.0
215.10698599999998,-26.028361663517558,-14.130491427504587,-148.74311916301798,-0.2553552631157789,-0.5952721233622528,-1.256146967110325,0.38690360802479673,-0.1041413169443482,-0.08455770724439923,nm,0.0
215.135522,-29.076847373933084,-8.884038700801117,-148.69546537686358,-0.27184355331322474,-0.5660355971430535,-1.0513177090250891,0.28579774534169683,-0.25627081709922783,0.013292255820520814,nm,0.0
215.15471599999998,-29.096616613079892,-4.2186202233240575,-147.99166839772644,0.07353981919060575,-0.3474860923249039,-0.5454740225258413,0.2068186467397896,-0.4395003354063206,0.09057025834874897,nm,0.0
215.164072,-28.315858230046437,-1.4769648379064397,-147.51149504951948,0.3088848518305291,-0.31769983100578386,-0.06001817134560761,0.14872805762788602,-0.5403962647867245,0.10534101748427524,nm,0.0
215.173556,-27.04113336039323,1.5318687041947583,-147.05486109923154,0.5373863928743098,-0.13599402059936044,0.3545391890185476,0.09859252749091674,-0.6377437638868558,0.09211558317652323,nm,0.0
215.18309100000002,-25.15839844528222,4.626659694899503,-146.5606990819319,0.7324716986359304,0.12595941569760463,0.8287195666572033,0.011825728936824395,-0.7176290952236667,0.07872487796039308,nm,0.0
215.192574,-22.409980671601538,7.592699973191465,-145.9058860442662,1.0195303109451423,-0.03676542510261942,1.7270927106123732,-0.13725945726364341,-0.7908734012059421,0.0715949716667791,nm,0.0
215.20209200000002,-19.530946949954114,10.34643451621834,-145.11152367199387,0.8691528485286231,0.1124045574707312,2.633259568654997,-0.16950273953383188,-0.7700249315939772,0.06727304608170855,nm,0.0
215.21159600000001,-16.175073141564027,12.85684297343254,-144.17905267738007,0.44731479173340755,0.6433825057129902,2.637386301650741,-0.25828441711998207,-0.7840311869652886,0.0486427896578941,nm,0.0
215.230628,-8.576538921139907,16.491277539160546,-142.40390527220518,-0.3500351108141318,0.5118727183905114,3.6462941200420196,-0.3624488686443345,-0.6428936093366597,-0.038648415160753465,nm,0.0
215.249723,-4.090942436783825,17.278856287704823,-142.12740947502724,-1.0640160323791303,0.49281796621540896,2.9642829102505734,-0.27927081530122433,-0.2059457222694082,-0.13227563376327248,nm,0.0
215.259223,-3.859237914111606,16.54219670135892,-142.67382335300928,-1.1406207291259358,0.536569118587211,2.352530751211211,-0.13640663790766328,0.09633657884028272,-0.12860788280710464,nm,0.0
215.268742,-4.6518108691679405,14.984972041918846,-143.4190656103332,-1.0104721806799588,0.4651505656573344,1.878930918147829,-0.07673206713612114,0.3476334976092092,-0.11148771867537648,nm,0.0
215.278249,-6.097073826682495,12.734131598001351,-144.0858473236252,-0.6831064513436532,0.1867796956005244,1.7579654833177978,-0.05140485810591533,0.536293012250168,-0.06905207800927202,nm,0.0
215.287769,-8.189508682133031,10.12775984322953,-144.49036105186437,-0.3208741933663992,0.1901987444233708,1.3200306132001938,0.01707991025048667,0.6701532520622414,-0.002144001064894357,nm,0.0
215.29727899999997,-10.352627298958623,7.4419452783559965,-144.54557711952248,0.0867036064824594,0.22905263341131155,0.844235803772444,0.024407085862017088,0.6930307861968047,0.05160341201429136,nm,0.0
215.306707,-12.317738881107795,4.831247677392985,-144.32238882028187,0.4706403915434704,0.2233192636042387,0.4711288009080377,0.0019542382614202106,0.6593505131454936,0.08392895356870243,nm,0.0
215.316228,-14.124361508065181,2.4190722796100874,-144.01762571673507,0.6937711480254226,0.2036771073521293,0.07644175176345408,-0.002462716684337975,0.6094132531298733,0.08171674306614626,nm,0.0
215.32593,-15.657196245388054,0.2888137328706122,-143.83953585573124,0.6245840232614829,0.3390459418636106,-0.4449899148698692,-0.015687617606582334,0.5318718970124511,0.041312737884264365,nm,0.0
215.344748,-16.62136525107336,-3.503453702456053,-144.143989358095,0.496494661809812,-0.0578392768652356,-0.7584752878475423,-0.1951337499965318,0.335376684224208,-0.056951373693444794,nm,0.0
215.35426199999998,-16.677110010636973,-5.319894630972329,-144.5947662279949,0.12259171542516262,-0.05694796861838661,-1.0182735010899693,-0.21543897720605815,0.3086588190595638,-0.0918275330247452,nm,0.0
215.373305,-15.532613882812148,-8.868373338053003,-145.3862172254702,-0.09015357420289065,-0.25153447698219605,-1.0002010884215948,-0.32654110506108364,0.2234692072734047,-0.048064410199682266,nm,0.0
215.382829,-14.8369469023557,-10.68381813006971,-145.52091560729173,-0.16721803888939538,-0.132469939711998,-1.1281452049482084,-0.3317786195527854,0.22821164209723252,-0.003834256472453529,nm,0.0
215.401889,-13.328572155488438,-14.066366193597506,-145.41695921002182,0.12793033482871127,0.05771640092087708,-1.2441533609001998,-0.3072455172289995,0.19885317410453862,0.04498685538754553,nm,0.0
215.411389,-12.715486926613568,-15.50513760002581,-145.4437890952332,0.20171059970957528,0.19267977246443646,-1.397504456760268,-0.27385819630317965,0.17636066446430815,0.025546837404765942,nm,0.0
215.420942,-12.12041261588173,-16.644159717121756,-145.67507488394176,0.2906949599371742,0.21357484283422074,-1.39408767910336,-0.23605790994490192,0.1298301205185154,-0.013705313859414724,nm,0.0
215.430446,-11.699211078944915,-17.376509680570496,-146.15031846837934,0.20560913494094724,0.2370932293101714,-1.4499670562384337,-0.16157883166784934,0.08280693592778375,-0.07086052741562575,nm,0.0
215.439968,-11.42229873944916,-17.682768972612404,-146.78015513426078,0.06332314918660939,0.17188159487538726,-1.4198444039711307,-0.09048018530926129,0.02858111123654255,-0.10979646232205688,nm,0.0
215.449493,-11.372513312847373,-17.59209430611464,-146.7955245448672,-0.1184275610801605,0.0459192055575098,-1.337510155100087,-0.010415704323941972,-0.013711675065811096,-0.1256666186276804,nm,0.0
215.468429,-12.098751597179982,-16.432026936357964,-146.65388259725808,-0.4358383210668997,-0.2336008460499604,-1.2105985304346378,0.14386925005780676,-0.06199694375229162,-0.0900157243559757,nm,0.0
215.477947,-12.825745887087662,-15.529671071868469,-146.21121760816723,-0.49231948697504335,-0.3528054256536084,-1.1791849173662279,0.20433420917904566,-0.06547339842973025,-0.06330876328367571,nm,0.0
215.487406,-13.706984516789085,-14.511862254270191,-146.22007957763515,-0.4913734322433633,-0.41971852532719706,-1.193294363086735,0.24247682648194047,-0.0679098979895593,-0.04780036288742209,nm,0.0
215.49691499999997,-14.642806324920183,-13.440245424890836,-146.24051729520406,-0.418565333029875,-0.44691414949469455,-1.223839832756265,0.2579642435352134,-0.0705271380052897,-0.049566870739899446,nm,0.0
