timestamp,roll,pitch,yaw,acc_x,acc_y,acc_z,gyro_x,gyro_y,gyro_z,markers,motor_input
233.51910999999998,-28.00832968925906,30.156147122344674,-104.24571184844555,-0.3084137160025759,-0.7505274909505901,0.02022273675218696,-0.007713739200402866,0.1801920938182528,-0.4670777916759999,nm,0.0
233.52847599999998,-28.87029225374117,29.508927785274132,-105.7779014303312,-0.7975362017919554,-0.8800527944650058,-0.41506701261029033,-0.10022029539701852,0.17559509264944412,-0.22282324957331828,nm,0.0
233.53798099999997,-29.08305349819837,28.464484372729743,-106.0578057951838,-0.9998051904980662,-1.0036204518549248,-0.5525693996695739,-0.20476894584600228,0.09063789413524657,-0.03717660769164176,nm,0.0
233.55727900000002,-29.52653510178778,25.944363824871967,-105.35528905140744,-0.5222819219861039,-0.062139986685154185,-0.17890437339236617,-0.26006395108321523,0.16772347298889967,0.1224787597858793,nm,0.0
233.56679,-30.624876757983,24.130231743662403,-105.39418622391135,-0.4132762089922334,0.27089858802867517,-0.12549173779686965,-0.3112908526160368,0.28548602861776257,0.08429447118546479,nm,0.0
233.57627599999998,-32.35639600941925,22.292623474735834,-106.23700356914335,-0.2708435364878592,0.2803057368542644,-0.18348560061823163,-0.2810499576386563,0.40392568123083605,-0.03249675426018811,nm,0.0
233.58577599999998,-34.78787065815038,20.679448470928904,-107.85203129220807,-0.5138470444240937,0.20900290056802476,-0.6068649495808276,-0.1899089141368167,0.5250342265367972,-0.144699276610193,nm,0.0
233.62378099999998,-45.48034710421439,16.715898516421362,-116.01274105452006,-1.2261612140463047,-1.469380721387182,-1.8653591075681777,0.11737925229940392,0.4488271222961985,0.07011109241174074,nm,0.0
233.633233,-47.62124644259872,16.52502496799376,-115.72598653183674,-1.2238906657600686,-1.4148733916016893,-2.0300299978860092,0.13116302883111253,0.3844050437167343,0.18334431381423827,nm,0.0
233.642753,-49.26062366346118,16.445675853818884,-114.99896386723519,-1.2611694158437299,-1.174310262729942,-1.9771944138262556,0.10691585147075768,0.28904072149370225,0.24234441562143777,nm,0.0
233.652348,-50.00693036677957,16.586363530546496,-114.04338383354148,-0.858703722432678,-0.8379797344593085,-1.891617690606503,0.07161837751056471,0.11616047798359189,0.23756521010993908,nm,0.0
233.671189,-50.1237014248293,17.47298324289665,-111.6100029689422,-0.33232760248740617,-0.16762482829383576,-1.6301996447585947,0.08103031984658887,-0.06982040371831777,0.2547358068636813,nm,0.0
233.680689,-49.22560905082568,18.61255440076974,-110.33926085391734,-0.01305675984109399,-0.029126857569452883,-1.4873607332693113,0.13847653285062828,-0.24475353825209806,0.20206377405246778,nm,0.0
233.69965800000003,-45.50010591467054,22.94724042520465,-107.60692964464513,0.44489032750922575,0.08693196055522359,-1.1087947408572691,0.325423172362068,-0.5498965976628772,0.1347561598880722,nm,0.0
233.70919999999998,-42.25198433845187,25.642682852468905,-105.55933783901422,0.9564193552017102,-0.010048058436317887,-0.5824147448906764,0.3343869557556232,-0.7262770615954595,0.14326372758688097,nm,0.0
233.718834,-38.18198904391085,28.179190781486312,-102.89131460698559,1.478822772542278,0.1987440472799932,0.26431310786936985,0.29998871540231686,-0.8335166023498238,0.16500496413085886,nm,0.0
233.728335,-33.65799285685381,30.009284806393822,-99.69299408441374,1.9331207042011855,0.7564762135917774,1.532112172137476,0.19073318350184557,-0.8524764945862745,0.1984319109769653,nm,0.0
233.737858,-29.097551957979547,30.704465189196554,-96.38624111172071,2.278967123624822,1.6690050336641127,3.015764814628265,0.014301616560610046,-0.8043943823773355,0.19822736112556558,nm,0.0
233.74736900000002,-25.145593999779198,30.384150687863908,-93.94842022301334,2.0677040628910404,2.9441884771802167,4.190204691797359,-0.13831055617267493,-0.6778371457805205,0.08301318316788663,nm,0.0
233.75688399999999,-22.417755484175085,30.04550021252354,-93.76084696895681,2.0742068945430434,3.6055304233735104,4.661985921905571,-0.11240747192085496,-0.47106290729376393,-0.2405789325290759,nm,0.0
233.76639400000002,-21.54900499569062,30.212657845169204,-96.04799845748036,1.4614014629688428,2.8395332184545845,3.8443457390147597,0.007326920293032639,-0.15686094189114197,-0.5486508506731177,nm,0.0
233.77589200000003,-22.24195600923207,30.64566898185182,-99.84367030701496,0.8876762769436017,1.3418213975605622,2.615057267818022,0.08903495493629565,0.1032556272268209,-0.6929758040951565,nm,0.0
233.813794,-24.24351894285469,30.710342303220052,-107.9719413016825,-1.2715491237195995,-0.9728751508744061,-0.5858182464470715,-0.1810072802900893,0.059572889822940886,-0.0071134094358174475,nm,0.0
233.82354999999998,-23.837461484962308,29.489927985915102,-107.43041749518278,-0.7406872241786032,-0.7638395100832478,-0.07312311024523357,-0.2680246890776489,0.005675447885434228,0.06472717750305224,nm,0.0
233.83308200000002,-24.248883894119256,27.879583472624475,-107.0941891750437,-0.49932854284055606,-0.12860700417309215,0.1300766130436866,-0.30034058079581405,0.16289907873313345,0.10419407189651879,nm,0.0
233.84257799999997,-25.58731484707125,25.819084539559128,-107.44413135412883,-0.4368973021636295,0.5855482646728616,0.11712824747093305,-0.33690815497460064,0.34888136574481726,0.048817280739256244,nm,0.0
233.85210300000003,-27.53910541514018,23.58107345591431,-105.44911136537687,-0.25497726872120835,0.49524233528458944,0.19173497643520426,-0.35591495111178084,0.4554403759819319,-0.07412472694227676,nm,0.0
233.880393,-36.25087264011145,19.269583620629803,-118.4027569338995,-0.8657989259864539,-0.4473353826669929,-1.0743979374348935,0.06717295375038149,0.6008337564889729,-0.09245182283821347,nm,0.0
233.899574,-41.881045359726464,18.753953747838956,-117.8141724089688,-1.2085786641080545,-1.306559917737373,-1.8493012488049851,0.22283425824742334,0.4463058481603518,0.1460701659113054,nm,0.0
233.918664,-46.11350196525998,18.527641832682612,-116.60933117432543,-1.1850312256923883,-1.084593485977143,-2.1420961599174273,0.09047808743185543,0.34664310737518594,0.2439888415873887,nm,0.0
233.928144,-47.181075503944385,17.900552612730436,-116.05916412981516,-0.9162042001516552,-0.9175515286130829,-1.9112248868202233,-0.03621715524442587,0.23586081780283508,0.18000775248858691,nm,0.0
233.937492,-47.761610216714566,17.194454790357632,-115.62565995450888,-0.5051561735169376,-0.6424142787953484,-1.7866315266288346,-0.09263123260677138,0.15942903802494277,0.12508720063221523,nm,0.0
233.947009,-48.130603526505745,16.581712369284222,-115.09346153088207,-0.6208920865847064,-0.12000783135051464,-1.6489355200423506,-0.09423186681292678,0.11435504229541081,0.13141726792494457,nm,0.0
233.96602800000002,-46.42681197267761,17.57243371985999,-113.23835484014032,0.038172517239513704,-0.18343494664292934,-1.2088989958008443,0.09454962011819458,-0.28877923975086583,0.1380281097417936,nm,0.0
234.004149,-34.15067982850276,29.26704704840841,-104.30188038000006,1.4671292955121906,0.2618256368983907,0.5706020717467906,0.3463449919811031,-0.8922269744206015,0.20458957487402757,nm,0.0
234.04218699999998,-21.853839378794614,30.992742500419507,-99.18792421841475,2.2152282623451574,3.026208707746823,4.577978537674723,-0.13118982984331506,-0.22449538670577243,-0.38973815743580775,nm,0.0
234.051703,-22.35234346972876,31.141868183438195,-102.19238115127949,1.2679292348735918,2.389529718453029,3.4385743930744366,0.031683923566756186,0.0757983303150217,-0.5533551225856757,nm,0.0
234.061207,-23.561323847071115,31.51085109221471,-105.88800455293561,0.6160378159351177,1.2004413969560204,2.221346806857148,0.10817132157064993,0.180778127124097,-0.6171603010446545,nm,0.0
234.07071900000003,-24.967831208864606,31.836549302541044,-109.19618029575281,-0.10253698538515858,0.07632747237741315,1.1370671980947724,0.12061997517631987,0.20762746448032907,-0.5173258382498703,nm,0.0
234.08023,-26.082738696017213,31.995510121264594,-111.45993090105466,-0.6297899698530761,-0.6517271711071625,0.15620562418007547,0.08178381444425988,0.16581895541248162,-0.3379012915385129,nm,0.0
234.08973999999998,-26.771405032269108,31.688705086464658,-112.4224163205055,-0.8657749532390361,-0.6985063622012879,-0.32969520103727,-0.027164442780999467,0.1309621155008843,-0.12250451262919555,nm,0.0
234.09918100000002,-27.017574261784272,30.58425257945422,-112.27197753061608,-0.9480126307585971,-0.9708716462325463,-0.4416804314450418,-0.2025007363816195,0.12237553417009168,0.05320059070689031,nm,0.0
234.14693100000002,-34.103905698302746,19.958467606742268,-115.09249323976192,-0.5126119370561075,0.26963373287525727,-0.6178841397266976,-0.23494622882995927,0.5856773133986117,-0.13428738998144668,nm,0.0
234.156283,-36.625740367731446,18.197745309386793,-119.34841758730322,-0.8489304492332503,-0.0856168354247017,-1.0614843245302248,-0.0950377742379882,0.5876895868869326,-0.12690938458209033,nm,0.0
234.16568800000002,-39.07827366163326,16.90921162801556,-122.07813170225714,-1.216321460477644,-0.5894351009561841,-1.4470209623829533,0.011410143899154122,0.5343843459580288,-0.04634004206777994,nm,0.0
234.17533899999998,-41.3641224585908,16.137377092613438,-122.47011435746774,-1.434500860693444,-1.0766152904977941,-1.7412676794966921,0.08962181480871473,0.4538577015818369,0.05384765911996614,nm,0.0
234.184855,-43.45600456666546,15.699758180619229,-122.31986711645696,-1.5043865849541351,-1.2668491493241745,-2.0710812768478037,0.12786279888713656,0.3871925144817806,0.14757486813952891,nm,0.0
234.20386799999997,-46.183430455558906,14.551228936090782,-120.75477265401805,-1.4024641417237038,-1.0978848301768105,-1.9862283178082316,-0.018837760252112663,0.23324047947546134,0.24011244682231384,nm,0.0
234.213273,-46.457118359581884,14.100761119011047,-119.68023461112088,-0.9281918283277653,-0.8206625410670416,-1.8164790372212822,-0.06500926630378748,0.09058744150344537,0.2320927052803802,nm,0.0
234.232289,-45.77475228407736,14.260421951691898,-116.62323165686588,-0.33910288012164436,-0.1924351395521491,-1.4608386131350812,-0.009110169510425111,-0.13431993479996085,0.31651656589653904,nm,0.0
234.251252,-42.88755721090812,17.817178122552964,-112.76620326636568,0.40318247777009936,0.14667904380287133,-1.0978252417905285,0.2782122955697782,-0.4795717342262495,0.301140348732402,nm,0.0
234.2608,-40.58105695920054,20.857638059842735,-110.69028346945474,0.8596086687045241,0.26007609268132686,-0.6848829908519093,0.3902501074702374,-0.6328438386568809,0.2639302757012048,nm,0.0
234.270436,-37.62283893324546,24.100316811861212,-108.5339207827475,1.3544948062223487,0.29717773885356286,-0.05175155097793851,0.4138751335048103,-0.7364322451752301,0.20542691237714902,nm,0.0
234.28944700000002,-31.117484719618865,29.352952979332606,-105.03920844614237,2.1012035839286516,1.057649315650439,2.0086735091448324,0.2722081305569762,-0.6726350829876737,-0.004169795970543463,nm,0.0
234.31799800000002,-25.143800079291434,32.71806299863706,-107.16983915354164,2.2728584884304497,2.0841572689484944,4.415780844661531,0.09335258888783665,-0.2397788914762635,-0.5495160621034361,nm,0.0
234.34654200000003,-27.729729668706316,35.08038617532006,-115.91590558452975,-0.371158259742832,0.18209820712383765,0.7229848123472619,0.19988854500013528,0.11287487135434704,-0.37234287391056425,nm,0.0
234.356052,-28.11528330497963,35.36723021657071,-117.274406747422,-0.630053139635961,-0.6309058182934343,0.033077443311317685,0.06567437922484844,0.031182692447450606,-0.23014290937325863,nm,0.0
234.365399,-28.259502414906706,34.779124658513815,-117.56027216464082,-0.8970848929570282,-0.6447672712369914,-0.4674500226467018,-0.10761076263837784,0.07577006893934203,-0.04324803331122389,nm,0.0
234.37499599999998,-28.256593355245183,33.28952554354354,-114.71131252114692,-0.9364943849633732,-0.8286142233180448,-0.6080736487403188,-0.284903638288285,0.12469116204748688,0.04844550772122264,nm,0.0
234.394217,-29.399016864508766,28.529887763829322,-109.18732261159035,-0.6313065406199578,-0.20108072758615206,-0.2492299939950988,-0.4755300120099535,0.3147275264488533,0.036398020884710426,nm,0.0
234.40372499999998,-30.531050317337677,25.418347906134557,-106.67554942428046,-0.5543040521716701,-0.02578361978124009,-0.12402978678843271,-0.5544541246727691,0.3672977004761567,-0.0005221215914367813,nm,0.0
234.413239,-31.91329346643296,22.52886810426012,-104.30706552495886,-0.5310536516913256,0.039513522124656454,-0.16027046753886862,-0.5141501930813356,0.3818085966476031,-0.02019978486583982,nm,0.0
234.42273400000002,-33.50294197361425,20.31168937833206,-101.8451570647342,-0.6819268040021726,0.03276855807134585,-0.47104224023212543,-0.3889655260169228,0.3753746856877235,0.013818116541287399,nm,0.0
234.432062,-35.04616273108054,18.872514339445157,-99.52567615738283,-0.7389314147133252,-0.1895838034117895,-0.8498123059524366,-0.24945090495960245,0.32999402896812063,0.10001074800259782,nm,0.0
234.44148800000002,-36.505805606480955,18.212048662152334,-97.55751021037896,-0.6688557994537195,-0.6023269699963835,-1.1906531552352293,-0.10643742831270263,0.28721335642125945,0.20071339659568105,nm,0.0
234.451183,-37.83274087580628,18.243207661292082,-95.83823121115022,-0.6919744105897946,-0.8203973245079554,-1.565474796292807,0.020781248553720336,0.24438697076436333,0.2510380346934386,nm,0.0
234.470453,-39.59793572416378,18.613691680747362,-94.07700169981094,-0.5284865500849353,-0.9594472855478933,-1.942726028286862,0.015085564829188556,0.1339949119860485,0.2160757148795323,nm,0.0
234.479744,-40.004961289424884,18.25989883646141,-93.47705503662283,-0.4332239377232636,-0.9088000689903296,-1.8982019821141085,-0.07813795690190362,0.07532502785651946,0.14749185096210213,nm,0.0
234.489253,-40.12755111775581,17.535072138599542,-93.1746569546733,-0.3741283912680987,-0.7830520997544251,-1.7554388380330233,-0.15603623367378883,0.02519009810168836,0.06979608981960825,nm,0.0
