timestamp,roll,pitch,yaw,acc_x,acc_y,acc_z,gyro_x,gyro_y,gyro_z,markers,motor_input
193.00495800000002,6.4272513993571305,-11.06572318710285,-95.31964252876998,-1.5066478580750342,-1.206080043664853,0.21519228160355894,0.017828279864837242,-0.2742629797539951,0.27252366247373355,nm,0.0
193.01429299999998,7.153496371431782,-11.292456126049451,-93.97574666490779,-1.422423509866279,-1.1001154950325314,0.030205274511392634,-0.068316929407964,-0.1452436731495655,0.2923288809023207,nm,0.0
193.023987,7.5452577011055215,-11.834506179823144,-92.69683719478198,-1.281281559702001,-0.8525251161289418,-0.07062761274295147,-0.12414428756747034,-0.07744898596729034,0.26684746391395214,nm,0.0
193.05250900000001,6.962288431511185,-13.352286235095345,-91.31674411925901,-0.9662160417849275,-0.35548550918062016,-0.24966146706083542,-0.06426395667446838,0.05630557578099678,-0.01944292919357049,nm,0.0
193.062018,6.5842740019947215,-13.291590326948905,-91.61052950489996,-0.8230450062094081,-0.2754044519881297,-0.12489806452572969,0.0027445639497616697,0.06600708927179727,-0.08082056317132567,nm,0.0
193.07136599999998,6.021169690044858,-12.95506526584051,-92.00776884961601,-0.7469974767846762,-0.3649215863363334,-0.5388365277778772,0.059425394435860236,0.10044835491116151,-0.1096297229611483,nm,0.0
193.090547,5.2005775073105855,-11.81368333300024,-92.52277714167003,-0.29333431310778574,-0.24385488114995055,-0.2637085755995421,0.12190774563177635,0.06752617475851513,-0.06049490027189751,nm,0.0
193.100083,4.492026940270688,-10.860769175171864,-92.68515019400095,-0.0624952176032997,-0.061417923757746476,-0.10496738046289185,0.18531285889876925,0.12348659428237395,-0.06487409836822805,nm,0.0
193.10957299999998,3.374614752374918,-9.598959105171568,-93.03169716525946,0.21018161495992077,0.24419959915259729,0.20169119198108632,0.2515628770666334,0.20072774172315033,-0.11353352991832753,nm,0.0
193.119089,1.8407889511354467,-8.166133409023711,-93.79312982860196,0.48839290855488926,0.6131302753416622,0.4341497243304818,0.29246826154084415,0.2795757767552765,-0.20414994380091073,nm,0.0
193.12862900000002,-0.09709941649819645,-6.677118718268409,-95.10937681430434,1.24771798793047,1.0792128004507633,1.3792462664622065,0.31483057339119763,0.3546993854484271,-0.31769761753473713,nm,0.0
193.13812399999998,-3.3004812624730206,-5.170369538730785,-96.98483857099258,1.8392380727336974,1.4589999234085815,1.723413133320526,0.35450421679319877,0.597545409343973,-0.4451779785752606,nm,0.0
193.147657,-7.4088095997827965,-3.850208241910092,-99.06645051231799,2.3204835363574285,1.796930083377382,1.6970873336589463,0.36306954870113956,0.770703033483404,-0.4841499573809661,nm,0.0
193.166687,-16.79601992179949,-2.1739208840251902,-101.63493740411556,3.1239657815392383,1.6436997538821594,1.2288416522354566,0.32247251893005596,0.9304355166765347,-0.21784066630222162,nm,0.0
193.17601699999997,-21.31135096972891,-1.2553811719655659,-101.51399506464683,2.8727360820144643,1.3572290145426849,0.5109481501893988,0.3477299009666129,0.8447867869450965,-0.002993923048723447,nm,0.0
193.18554600000002,-24.595428505687714,-0.20565783332611084,-100.63874356414006,2.5984619574349344,1.1130331976939922,-0.23778846284411614,0.3189142459291889,0.6010285327929246,0.16727055651765568,nm,0.0
193.19503699999999,-26.800826889656733,0.4348796727851712,-99.51472602446923,2.146797086518498,0.9922557781808279,-0.9325509621150978,0.18999162459171007,0.4081666548125931,0.22678056790122264,nm,0.0
193.204534,-28.04615229260006,-0.06165951224043018,-98.6455171722124,1.6678386946453039,0.8717458591738493,-1.0832300114771092,-0.07228652541238705,0.2575286813767814,0.17603048337293642,nm,0.0
193.21405000000001,-28.190031566181425,-1.9134713270452555,-98.47834834246392,1.3686987846375858,0.566961749577816,-0.8576038723376085,-0.3758247710126499,0.07928741675141414,0.034387632915158506,nm,0.0
193.223575,-27.424662371200245,-4.611900902968152,-99.26131657369206,0.9846424995877017,0.3396781112363044,-0.6363757062543893,-0.5709585175086431,-0.07204013867245886,-0.14647476699648881,nm,0.0
193.233077,-25.944827562514888,-7.485015465988144,-100.67208081806972,0.5240609536669505,0.2871373277125052,-0.4233567009987019,-0.6312199236853642,-0.19447101123628296,-0.2496368848967216,nm,0.0
193.25206899999998,-21.810531286878973,-11.59893325620049,-102.43662019461811,-0.1681330360167192,0.30903206901478397,-0.11402419953694644,-0.417321766644355,-0.354926869155258,-0.013354377660641417,nm,0.0
193.27125700000002,-18.952837164894657,-11.598227867239208,-100.19978153444197,-0.4506136937080342,0.29748538603205,-0.4757573017879504,0.031982208673578455,-0.22068057408007713,0.3649610717611681,nm,0.0
193.280765,-17.81513048494903,-10.899426948182818,-98.08396125985178,-0.35345992606913684,0.18573395314237626,-0.6104288595698334,0.08920860319324929,-0.24749038299353823,0.46820901860603814,nm,0.0
193.29027799999997,-16.627272567698373,-10.38937564236679,-96.2220292906681,-0.13097831211298733,-0.0034602444550250965,-0.43876926533886385,0.058964817887362464,-0.24980108121270753,0.41656025896039106,nm,0.0
193.309315,-14.246052392085076,-10.37150400087289,-95.4127984012666,-0.5308954654396135,-0.49047777937347303,-0.5696778151848723,-0.07454749985646573,-0.2693441212968633,0.01950083287435884,nm,0.0
193.318856,-12.630358404206547,-10.983689618497229,-96.42614023765336,-0.6188340458487875,-0.6720053298397234,-0.4166130619899066,-0.1678752039575408,-0.30883949189210347,-0.14387559007364806,nm,0.0
193.328157,-11.01142285043899,-11.908113238526798,-97.80072110584689,-0.8993158197301983,-0.7828302026026034,-0.38255082446417465,-0.23625105448863537,-0.29739271398932976,-0.21204465749783055,nm,0.0
193.337638,-9.269187904974984,-12.830552464902524,-98.91368355813125,-1.0629524271178759,-0.7419608584120093,-0.2807239391331924,-0.24552833978672245,-0.3151898270326258,-0.14952344889282093,nm,0.0
193.34732499999998,-7.526409252102045,-13.475923166869503,-99.28576631093725,-1.0912725932777358,-0.6045898305104414,-0.1874631522252254,-0.19455717501965272,-0.3200233156237523,0.0031924650638076855,nm,0.0
193.375871,-2.2588339566426554,-13.435429954443977,-95.98488791510555,-0.8476677884133361,-0.3235955673953013,-0.2736592507581903,-0.004531067583043832,-0.3855412082006905,0.3895242143949168,nm,0.0
193.38538000000003,-0.05490697892950167,-13.062789319292847,-94.76353613648678,-0.794052292404592,-0.3543772602421022,-0.2392280912202916,0.021764351353938734,-0.4410266148193584,0.34235092735128353,nm,0.0
193.39488300000002,2.5143764774248076,-12.56945967738303,-94.17414778902689,-0.8001392789507776,-0.4682419590115863,-0.04043626523289254,0.047388195776687334,-0.5144037163724251,0.22824307886281278,nm,0.0
193.404397,5.33515146053619,-11.869698416073897,-94.23855894640657,-0.8540979072144645,-0.6838295828633186,0.08014494005306409,0.0874976295395053,-0.5674664633660146,0.10215702372750074,nm,0.0
193.413915,8.158561279682809,-11.02041995904623,-94.68250428443474,-0.972442280974886,-0.9140914500053152,0.1827578467965869,0.1149398108670332,-0.5722730068441412,0.01817203707107496,nm,0.0
193.42342399999998,10.74591400856189,-10.216615623840406,-95.08190643235099,-1.0831191784746133,-1.1231404652139658,0.2857911879813348,0.10578458731319695,-0.5276359931490306,0.009786425313696466,nm,0.0
193.43292799999998,12.892510630224631,-9.645126090114132,-95.05182797205332,-1.1483396687969705,-1.2124464649677777,0.33189311948217876,0.0656332681149974,-0.43844869552061544,0.07395517570757512,nm,0.0
193.44243300000002,14.529936601574601,-9.485588337983266,-94.42288756936311,-1.1081593186268643,-1.1243894440511555,0.2626994085183412,-0.005529189542716837,-0.33162456919039884,0.17389427564914867,nm,0.0
193.45195500000003,15.691102758040477,-9.829426734204455,-93.31266835795905,-1.0164882544631337,-0.8838876350910728,0.3097210395702874,-0.09452954833237201,-0.23111131506347743,0.25462235079484785,nm,0.0
193.48047799999998,16.653691334493484,-11.538928545973569,-90.34720654274518,-0.7127670029312363,-0.009206409854480999,0.4376066837455779,-0.07804895173226842,-0.007969204734977354,0.11317216806404454,nm,0.0
193.499499,16.051776140243447,-10.854963394084086,-91.11800257473496,-0.5544662772353918,0.02686313359383361,0.5695977604644307,0.09989906086778362,0.07295665496850393,-0.16408664201123527,nm,0.0
193.509016,15.369756712847142,-10.097558409674859,-92.23722935178223,-0.49919472508157486,-0.08472024434985194,0.5763656696627438,0.14523630599821724,0.12255118789333133,-0.25548536091101626,nm,0.0
193.51852899999997,14.38450405832181,-9.321160858889375,-93.42524157823028,-0.4513463818775624,-0.1391825798910142,0.5952879570900023,0.15431428846347592,0.179647103366849,-0.27762640452621135,nm,0.0
193.52803400000002,12.981370273421607,-8.716269725887145,-94.3719863360192,-0.4100409028834474,-0.10503988271775047,0.5666436393221479,0.1288521731518683,0.26201249112286135,-0.23992192276798807,nm,0.0
193.537538,11.324162513777688,-8.404466001845693,-94.87771409946312,-0.3678057858772582,-0.01192269106681847,0.2970405686514813,0.0775740040308012,0.31562783422164004,-0.15672068222708227,nm,0.0
193.54705299999998,9.836166667925642,-8.36558207765,-94.89799174409845,-0.03697880911102181,0.22815167024057004,0.4487320925812932,0.021582970449466485,0.28668160195424475,-0.05331943311807468,nm,0.0
193.556571,8.048484089657954,-8.464662532824354,-94.62529340977748,0.28908353113316587,0.45489478382302717,0.5174080456848863,-0.001837787273699965,0.3481851782978852,-0.0032552292499058973,nm,0.0
193.566068,5.893453323282867,-8.492879281470675,-94.33149476206614,0.4952017455023846,0.6320499819784238,0.46571442643776434,0.016033958221470662,0.41961390310356034,-0.009858745353037594,nm,0.0
193.57557799999998,3.6798994210798903,-8.253646045880071,-94.29462194600117,0.82085021380182,0.8374957757242919,0.6665401232197482,0.06886770742654753,0.4274370310542704,-0.06181320582125173,nm,0.0
193.60415500000002,-3.3463870289048963,-7.0145232558007695,-96.94439450639034,1.4729465689847783,1.0664561612807366,0.5854588357710181,0.09862154675507488,0.43728836637976265,-0.30924883323928554,nm,0.0
193.61365800000002,-5.76363896571316,-6.775290046427958,-98.14655245545535,1.531744072465133,1.0049257846635238,0.46390244080003556,0.09761291110024549,0.46513029077879553,-0.30165832615710525,nm,0.0
193.62316,-8.187807625740726,-6.509518008488545,-98.94285375628868,1.5310402350650223,0.9258827867115758,0.28997902005942733,0.11108873535433218,0.4642162648317765,-0.2179739613272319,nm,0.0
193.632689,-10.524323825986082,-6.154076340006166,-99.10655080613178,1.5631738128524735,0.8151110784070674,0.10969682678307016,0.12993087919193055,0.4435242332482708,-0.08632520694545229,nm,0.0
193.64202300000002,-12.803215471137518,-5.689586040723869,-98.64720926925987,1.518499880963279,0.7109072739390406,-0.13302833387842686,0.1485785269834533,0.4295061849942908,0.04335635258871448,nm,0.0
193.65152700000002,-14.871137230051472,-5.201192176929716,-97.77015554419357,1.4272480599570134,0.6041630802028215,-0.3304361494640925,0.1423004131800202,0.3892893420685762,0.13516221817793386,nm,0.0
193.661038,-16.583746127854134,-4.882917700971664,-96.79304991992859,1.3444629032591913,0.5006229854118648,-0.4373787752261548,0.09321015850510085,0.3258504386614278,0.1646918844792307,nm,0.0
193.680082,-19.09759587031785,-5.509825057599451,-95.62077915625773,0.9412889275776346,0.2225412744630987,-0.5565232145538769,-0.10005919633637321,0.22405913784891526,0.05924290112658951,nm,0.0
193.70872599999998,-21.078885687202533,-8.611337317733524,-95.91700756879003,0.345077873960847,0.11390749803583819,-0.533662925558234,-0.21962668318696127,0.12068868180953275,-0.03839114780532405,nm,0.0
193.718268,-21.579856440594952,-9.505715506840613,-95.73928719464324,0.26979800042121005,0.1951980723988019,-0.4858258338542574,-0.18136831921216898,0.11170854251171972,0.020599559874383833,nm,0.0
193.72777399999998,-22.137981191915728,-10.04384342866969,-95.19082374437167,0.1736179470348142,0.2768091101744001,-0.5498104291871467,-0.10999149861500691,0.11477048606288415,0.09183286531438241,nm,0.0
193.737288,-22.643588141515707,-10.16427335146068,-94.37161320280939,0.18428297668520646,0.3094015586778408,-0.5436321899417501,-0.028863585391078854,0.09603992252514681,0.14738586440063448,nm,0.0
193.746769,-23.002727478825214,-9.932446601172307,-93.51413296714303,0.18834636957219392,0.26607671081127676,-0.5988013466084295,0.038123288239108065,0.061967692998422426,0.16032014020130173,nm,0.0
193.756291,-23.10607556258055,-9.568933468089988,-92.85249874625445,0.1739949307423655,0.12064341584888333,-0.655288878594769,0.06082089057537448,0.010683221424020433,0.13013735035715954,nm,0.0
193.775316,-22.3260653467058,-9.226280024707576,-92.63553655365762,-0.03260380705958936,-0.356802649799082,-0.6408876446692516,-0.0033284633272140807,-0.11994697720057804,0.0017962201121932966,nm,0.0
193.784818,-21.201358475057926,-9.35754076216435,-92.99943834809957,-0.11045100602910943,-0.5418378893729767,-0.5866676333293134,-0.050172810484216436,-0.22637481743384827,-0.035765610252292454,nm,0.0
193.80385399999997,-18.048169140975883,-9.90145027284697,-93.79584096642353,-0.386563339574389,-0.6235373657332759,-0.33636936633936015,-0.08599926674579153,-0.3214556251389318,-0.01527001446962462,nm,0.0
193.813364,-15.94372104160856,-10.00245601695884,-93.89543678939773,-0.554366065034605,-0.5090474917228186,-0.2637647581292657,-0.06103318922857813,-0.41844394555420183,0.05254462975340544,nm,0.0
193.822844,-13.339932650703174,-9.891897954623674,-93.72743479715112,-0.464560389402935,-0.2978053271753285,0.05266184707233796,-0.024980700847007355,-0.519708280063031,0.12277914428158912,nm,0.0
193.832392,-10.646833743578034,-9.57191594701013,-93.42675570739013,-0.6582150509738065,-0.18165559644914367,0.10357973818527252,0.017982008171049373,-0.5404655746693108,0.1498174356575714,nm,0.0
193.841887,-7.658867297673299,-9.019200619234963,-93.14987844220312,-0.843945630471947,-0.14165992421877488,0.14348849669643612,0.06398705820998024,-0.6019872013048478,0.14983957657640326,nm,0.0
193.851391,-4.368529895947312,-8.255698402678004,-93.03122091367574,-0.9050177198875372,-0.1824275342136558,0.4000898231040179,0.10510679076116675,-0.6649460551117867,0.11969201735121782,nm,0.0
193.86090099999998,-1.2123416613991342,-7.353282570605127,-93.14179309034505,-1.1427599439477079,-0.3844320173363136,0.47579900308514245,0.13450824885110854,-0.6412516502596387,0.059921522452118466,nm,0.0
193.879922,4.3358710733422825,-5.370511972406141,-93.72995543565428,-1.5298739387528455,-0.9335751614424338,0.5995799374577566,0.1546404728850119,-0.5357406081267445,-0.01398585484743374,nm,0.0
193.88943700000002,6.326316066927009,-4.523634756906285,-93.94200211472163,-1.6504440723188942,-1.139038844223876,0.431600366670142,0.13107274930711837,-0.413619355747901,-0.013695028617911918,nm,0.0
193.898942,7.725543317930138,-4.0166201762712666,-93.97707242432793,-1.6452483879112798,-1.2007391585751985,0.331675113949549,0.07058995962544774,-0.2917960505391377,0.00789476035445366,nm,0.0
193.91795800000003,8.701860193854575,-4.284669032071331,-93.59459115875843,-1.3876909265602264,-0.8477817911035787,0.3076322716183383,-0.08047426274645601,-0.04091103812632583,0.045702934901930066,nm,0.0
193.92747899999998,8.424367529590832,-4.8540840793891755,-93.3426601637405,-1.171117933757315,-0.5322039670553379,0.29601151149143834,-0.12171815101540244,0.05592005599545502,0.0400350127169271,nm,0.0
193.93698099999997,7.775627309622216,-5.45169470046151,-93.171194819459,-0.9641123856726682,-0.2551875912305167,0.22973050772931297,-0.12343678327533146,0.12962597476532264,0.0168768793479227,nm,0.0
193.94648700000002,6.923187157918955,-5.919302725162003,-93.108678994883,-0.8035563009379517,-0.07486537390308369,0.1251619181557184,-0.09559263724488848,0.16834843042404518,-0.009958379174216686,nm,0.0
193.95600900000002,6.033602950444669,-6.210068787303353,-93.10778857821558,-0.6747469788620882,-0.03828094387307743,0.07401832840932142,-0.06003159102816148,0.17364717081352266,-0.024000536871494775,nm,0.0
193.965514,5.189676290763095,-6.3140738748151,-93.04971583508078,-0.5948857741390565,-0.1288191736460258,0.03167128693688437,-0.023353385149949862,0.16247393295429624,-0.011986893184623745,nm,0.0
193.97501400000002,4.486954839195794,-6.219792086397797,-92.79806145558778,-0.5150659390404357,-0.2531738447908116,0.022982058375199968,0.014368514009668274,0.13231983469723518,0.029967824489375662,nm,0.0
