timestamp,roll,pitch,yaw,acc_x,acc_y,acc_z,gyro_x,gyro_y,gyro_z,markers,motor_input
194.003571,3.217943011380943,-5.041685997123959,-90.8094466137132,-0.13468450913427693,-0.10010880479119848,0.13149005012287854,0.08906215340582994,0.05909491065713116,0.13977730492855117,nm,0.0
194.032092,1.3279036849956256,-2.9217179603611387,-90.44005259526794,0.2352934299014719,0.42392524981112917,0.5100757906704974,0.1520024552510512,0.19762868574802056,-0.08591674173045223,nm,0.0
194.041591,0.03052903810957164,-2.05769397267602,-91.20603984562338,0.4482178471483351,0.46450974982400617,0.5948927505842425,0.16487711114603423,0.25073788085738585,-0.16929367544090515,nm,0.0
194.051139,-1.8185247775903348,-1.3044239057507603,-92.22403387670177,0.8455594712343463,0.453670759479686,0.8956347190125329,0.1497351736034758,0.3594186240660334,-0.21901840485072144,nm,0.0
194.060646,-4.659427788064964,-0.8050719384602677,-93.27837141825297,1.031865701929582,0.4322450543862276,0.7926959979752192,0.11474503657551309,0.5576059772729621,-0.22534276133176556,nm,0.0
194.070171,-8.050522084499326,-0.5627364937226254,-94.12509513672636,1.3409438212100402,0.5090198031729768,0.8370399553589123,0.07954430397861009,0.6689516646269722,-0.1807101613907315,nm,0.0
194.07967599999998,-11.81009320720795,-0.45239656724719374,-94.67491386602157,1.7818347719985168,0.6858808781152503,0.9067838074442333,0.06683728929226615,0.7435368619627118,-0.11904020286991294,nm,0.0
194.08918400000002,-15.848369635843081,-0.37313948127374535,-94.99000818022826,2.0387053594315816,0.9527204198267831,0.6656326514475072,0.07082332955836944,0.7991456608224615,-0.07033857671312438,nm,0.0
194.098512,-19.75004117621744,-0.36055086003322206,-95.17040928882795,2.3324442635256566,1.2192691525329777,0.5126482269642485,0.0584972448195473,0.7727649400915638,-0.041701180928311904,nm,0.0
194.13655500000002,-30.393027304558743,-2.5735338947117286,-95.87996132871383,1.4433074108683348,0.8122430065588451,-0.9328772786030071,-0.1805239573543112,0.34356783960635123,-0.04180902033007915,nm,0.0
194.14606999999998,-31.327502500633326,-3.836264002195801,-95.9449567706322,1.0927654850868262,0.47654904306976537,-0.901572344445451,-0.2453815044713119,0.20697819859626446,-0.02115130750484129,nm,0.0
194.15559399999998,-31.629124910709862,-5.218871002164199,-95.8824092088276,0.8607138793185741,0.24439653533604092,-0.7419700397540101,-0.28228548460982666,0.08355708392654629,0.01028801102620682,nm,0.0
194.16527499999998,-31.48248919498808,-6.608412550532669,-95.65804801931729,0.5694872797974126,0.15668989843342404,-0.6367962886552593,-0.29286075085837476,-0.005933256598477502,0.05059224788168474,nm,0.0
194.18425399999998,-30.133560701954494,-9.020305739704483,-94.73309486499855,0.31387219883965434,0.28289041238356816,-0.5130761223859938,-0.24815333214213184,-0.13765560734452964,0.1293874917227047,nm,0.0
194.203291,-28.18497238011975,-10.565113067035554,-93.70864778707573,0.18654354505609488,0.4286691741182141,-0.5848794011217056,-0.16164090679628354,-0.20568325713122293,0.13689744427869735,nm,0.0
194.212799,-27.275185730484328,-11.098609298487855,-93.39802899677531,0.1276646053279986,0.366094614384785,-0.5588294070797981,-0.1307020899771826,-0.17727499593611418,0.09865459864448588,nm,0.0
194.22228600000003,-26.45857274840499,-11.509858663411602,-93.31738114164331,-0.22519687736111557,0.1704306631884524,-0.7152798255867672,-0.1045925473499927,-0.16059330864164853,0.05029907576882549,nm,0.0
194.231799,-25.347045256162573,-11.8413813709222,-93.4077743385583,-0.22395417419387234,-0.04031979832635363,-0.6063792220888105,-0.09206942902713484,-0.21906030810203256,0.028840912071337325,nm,0.0
194.24130499999998,-24.19469514612619,-12.160262605365512,-93.58649424803149,-0.3481977650624147,-0.29009812587113126,-0.5081348471094269,-0.09054407823448049,-0.2267520170768661,0.013879442527224653,nm,0.0
194.25083800000002,-22.921575626121278,-12.474755924581594,-93.74358599362014,-0.569605890080262,-0.47056807213004886,-0.4713152254623514,-0.09183155950646797,-0.2499063720654745,0.02437343231482761,nm,0.0
194.26035,-21.31618477139907,-12.806682966210131,-93.77633154231734,-0.5846002965471845,-0.5077643129337716,-0.36027087777516653,-0.09996131775432868,-0.314084245313302,0.06492197667327088,nm,0.0
194.26985399999998,-19.569345753546493,-13.181711403259694,-93.67680040649036,-0.671964629194338,-0.45247912207217894,-0.3429624621649784,-0.11014120658212231,-0.34078173854282157,0.09936908764865057,nm,0.0
194.27940299999997,-17.655799599413136,-13.550597798480414,-93.52117844617943,-0.7802318167815804,-0.2936111094851757,-0.33527499113264514,-0.1101336544569593,-0.3731038366577297,0.12015868076575918,nm,0.0
194.288914,-15.458822483506205,-13.893356964528675,-93.4172098966365,-0.801670163245481,-0.10708689207608664,-0.2648364538819306,-0.10732420997835118,-0.42825901209833445,0.12516206286183273,nm,0.0
194.29838900000001,-13.063293797045498,-14.177662930857005,-93.47032499006306,-0.9001956066340683,-0.027525438710272476,-0.11720491921807598,-0.09767038405710439,-0.46704905553806236,0.10521925580667592,nm,0.0
194.30790699999997,-10.434855439220833,-14.23476982475639,-93.71282569090842,-1.0530298758038468,-0.1240613866958559,0.024203309605967248,-0.056192694312516056,-0.5145458739979546,0.07959973773622252,nm,0.0
194.317393,-7.573816480826977,-13.887194749939349,-94.0497767087574,-1.172232242602645,-0.3357563282303252,0.21281352009542956,0.019093830388907523,-0.5652839200198263,0.0700821950976879,nm,0.0
194.326925,-4.689692616582164,-13.167048427470556,-94.29072366743065,-1.29834164218618,-0.6595872717110379,0.36619340257836624,0.09039219376344211,-0.5766955721808844,0.08451839785949151,nm,0.0
194.33641100000003,-1.978135995821149,-12.309925398198828,-94.24039841765003,-1.4170766524225282,-1.000783733360804,0.4397516458797347,0.11936359910041194,-0.5472109290526292,0.12680139368844642,nm,0.0
194.34593299999997,0.5213549175642699,-11.585187798075092,-93.79234079659615,-1.5113980817506418,-1.3701146181822328,0.28758621528493017,0.09832916350018402,-0.5051104680885891,0.18971077155136173,nm,0.0
194.36495900000003,4.611350646924926,-11.11410793004411,-92.04013746083582,-1.3731330043168617,-1.3208984290899157,0.3350088485923965,-0.01413846889876978,-0.3633260294490691,0.2537268208330104,nm,0.0
194.39348500000003,8.145509550436918,-12.015687969512118,-90.9380228305947,-1.132973779243827,-0.39125012950801136,0.09749742638391429,-0.09573610063355506,-0.13206145696210667,0.0026374535888121207,nm,0.0
194.402998,8.525122608065466,-12.179111450735771,-91.40298239609898,-1.1070896132564625,-0.233664435053126,-0.030246969540659023,-0.0452819698916737,-0.08099565986908715,-0.08222812786014257,nm,0.0
194.412497,8.728393017193577,-11.955478598088181,-92.0217102440355,-1.0098263746271425,-0.12773506137667856,0.12394117482335373,0.03247189457983249,-0.0483451046715377,-0.12050372729489568,nm,0.0
194.43152999999998,8.19702201592033,-10.773027842476175,-92.90381010283143,-0.8917604651994374,-0.3273242091358107,0.11328358900501291,0.12868548084225298,0.05494939241126543,-0.08217202027613438,nm,0.0
194.44103199999998,7.751030155146865,-9.830053869363448,-92.90228650444176,-0.6678454443136024,-0.3659796215090171,0.34392826764481704,0.1817281281959603,0.07137412373019512,-0.020895898108657142,nm,0.0
194.450548,7.031904874575462,-8.608815959382875,-92.73658329704261,-0.4014691556508359,-0.28971134818353894,0.4109998316301034,0.23988212933127254,0.12322835546192075,0.004852564944092945,nm,0.0
194.46005,6.041433184395357,-7.2270448178515485,-92.73317653274188,-0.10643206510739364,-0.10903446586993375,0.6456797242020776,0.2742876545081681,0.17646897142155787,-0.03187308787734838,nm,0.0
194.46956200000002,4.595388606984302,-5.702487503471496,-93.25103563663377,0.21801499955288509,0.09100394383024676,1.0336899502492838,0.3082169408094034,0.2651333472220479,-0.1414139525726696,nm,0.0
194.479078,2.477223535906757,-4.070201412015264,-94.53704381136794,0.39845466744311386,0.34391098250621926,1.08431092951889,0.342789426390941,0.3936535079083694,-0.2984754396759209,nm,0.0
194.48858600000003,0.05608471825493292,-2.678474581302384,-96.56589570013901,0.9015926417774026,0.5931686057478868,1.5034236821631344,0.3117957285376238,0.4495784414368235,-0.4392456640974712,nm,0.0
194.49808700000003,-3.245952437451109,-1.87527258565985,-99.05788258321482,1.4245787639241065,0.707699134668924,1.6794309678529311,0.23628552246656945,0.6282246859635007,-0.5290458247995327,nm,0.0
194.507593,-7.52532760205182,-1.612198743163424,-101.4843992491173,1.7220994632252755,0.7746858010805389,1.6606256708678842,0.19127004783734264,0.829584401924797,-0.5147863361288798,nm,0.0
194.51712,-12.181171674428702,-1.6558332565579639,-103.27527322076051,2.0917242260078304,0.8403395898494717,1.3751534317687915,0.17766490763411244,0.9087719218358984,-0.3870520007792488,nm,0.0
194.55502399999997,-28.300651101822908,-2.143294920939379,-102.1990036943495,2.0178755214795387,1.1536597801525046,-0.9257242330131342,0.09216374308970582,0.5830758964970285,0.1734119218165485,nm,0.0
194.564536,-30.370232408910354,-2.7277957967178335,-101.5013760907601,1.7133506591804937,1.1240950698785628,-1.1393474391020535,-0.04309737118778263,0.4255976396318087,0.12404959829870904,nm,0.0
194.57403200000002,-31.395841095429923,-4.055237916477586,-101.31583546635184,1.3211544486406002,0.8800300064567095,-1.1675422101247364,-0.23352505067521934,0.24989531164469575,0.027355468350230963,nm,0.0
194.58357400000003,-31.501680657377698,-6.027307063163419,-101.71575454167157,0.9416969058034059,0.48382311677640866,-1.0624585393308592,-0.3962527911220761,0.0960570284082357,-0.07934026012901044,nm,0.0
194.621742,-28.0347599036496,-13.43016601518605,-102.6532405768487,-0.1134976999158104,-0.07802707127803865,-0.4229395110677199,-0.2764301543638503,-0.1475017133183407,0.17739931623933358,nm,0.0
194.63123499999998,-27.19659165920601,-13.976748224869306,-101.27297976998747,0.10662727526596252,0.09420816551621883,-0.4583249531516434,-0.15446454935246073,-0.14020462857526694,0.3186082824403572,nm,0.0
194.65976500000002,-26.038901062719574,-14.683881182884459,-97.03953786122248,0.17977647581435616,0.36297045054475247,-0.7657642590203012,-0.08187128550448639,-0.09769246424681155,0.21401771542677908,nm,0.0
194.678799,-24.629154560519318,-15.88255806788815,-97.61200373365452,-0.1888988248406025,-0.11575528885519858,-0.7049523260570492,-0.17098594424321317,-0.1495748658630091,-0.08072201212540334,nm,0.0
194.688302,-23.516379368614327,-16.611003018540746,-98.55920324398538,-0.2750056366213318,-0.371672047659091,-0.49926925182069404,-0.1879416783576313,-0.19538445900595694,-0.12529343116730418,nm,0.0
194.697827,-22.405261173447116,-17.25209077018061,-99.30817822057422,-0.4886421885022265,-0.5551096297873979,-0.40319693695029296,-0.17336991398346038,-0.19430638774586034,-0.08331612292940062,nm,0.0
194.71685,-20.206256722368504,-17.855315786456178,-98.91577814578147,-0.4953212227402616,-0.48443499494795855,-0.24923584558932316,-0.07900288908094844,-0.20211625426168514,0.17642056057151106,nm,0.0
194.72636200000002,-19.210483465952343,-17.80550221711393,-97.88040847538936,-0.430941440940243,-0.2734320523879359,-0.29909498898434383,-0.0312786074544405,-0.19376722125749157,0.2695790788850691,nm,0.0
194.74536199999997,-16.81093542835756,-17.45380477259792,-96.01463720899916,-0.28456310514832817,0.09273151158845662,-0.2842836013815418,-0.0008779275691104588,-0.25843942432211175,0.22923101445284427,nm,0.0
194.764401,-13.470615792089477,-16.667788846093455,-96.54081726227535,-0.42936969617152027,-0.06253832073130988,-0.07115488057065289,0.044814323531575086,-0.35498209473987513,-0.015857401861877996,nm,0.0
194.773916,-11.638147769730582,-15.995703094568283,-97.51337511014468,-0.5549655658608846,-0.28278756730325855,0.11249646646707608,0.07724973504749907,-0.3710662750782217,-0.09206955956275528,nm,0.0
194.78341200000003,-9.978195091949377,-15.157693337948148,-98.42951092847778,-0.7061589273299612,-0.4911879657158625,0.22179472815664658,0.10852164731134353,-0.34536130676890725,-0.09514613929964012,nm,0.0
194.792905,-8.600117007089619,-14.23880919114341,-98.91495793701947,-0.7846986805054149,-0.5906123342956967,0.2855986294402099,0.12840945300002307,-0.2965668598429626,-0.028565592091376834,nm,0.0
194.80243099999998,-7.5529403710915854,-13.341274378910898,-98.81391496266686,-0.7610318096553633,-0.5486978169214702,0.2801219409805819,0.13301980661323798,-0.2339262628468588,0.06848942088224183,nm,0.0
194.81193699999997,-6.827816215107901,-12.539165891956634,-98.2457010217851,-0.6716248806495094,-0.3864401298161585,0.23906890144718415,0.12476566823768889,-0.16893659635405073,0.14430168848918284,nm,0.0
194.840472,-5.944567862476087,-10.6671740393561,-97.10802902404136,-0.35358182206816646,0.13681817917804462,0.20940002141676856,0.0992779415182745,-0.04351831922820854,-0.0064155878135215595,nm,0.0
194.85948800000003,-6.016466050736292,-9.475435898125797,-98.71239342579123,-0.3303541894930807,0.039957940721437,0.38326484459952415,0.1083178705530267,-0.0029935461079396023,-0.20510712632186426,nm,0.0
194.86899300000002,-6.280872095932155,-8.900789572740436,-99.76459349838562,-0.34949368872181136,-0.07903760538550214,0.46269212219489136,0.10881303543747776,0.028427490881603797,-0.2216489298896814,nm,0.0
194.88801299999997,-7.294767375529532,-7.7877486437981736,-100.87233972318852,-0.22574192275715643,-0.1535515879742334,0.5246522215267602,0.11836715442707675,0.08879031889371074,-0.0840948766913192,nm,0.0
194.90704000000002,-8.737292426900325,-6.666803861965176,-100.42261297998587,0.07533949066208609,0.03780074276955397,0.43466837261417934,0.12252149912920106,0.12144988069096913,0.0478656031364238,nm,0.0
194.91655899999998,-9.463730534100637,-6.180549845667624,-100.13167281674167,0.2305609343084961,0.16272914513896425,0.3958394589671137,0.10826220749876296,0.12048387092240767,0.039794948380344114,nm,0.0
194.94508299999998,-11.108536133690778,-5.713567480011487,-101.1189611052194,0.3023214278327684,0.10691313651587343,0.31490752031544644,-0.005228483421462774,0.08877038186374217,-0.13917571504969817,nm,0.0
194.964102,-11.853883230252366,-6.277280639369471,-102.33705340026872,0.14072747306307268,-0.08656260703719482,0.25175118648087297,-0.06633600160178914,0.07802302389378407,-0.1121963119339273,nm,0.0
194.98311700000002,-12.477858568609822,-7.0268768495750145,-102.27858167985255,0.0950605216519861,-0.05515054559530772,0.18466226451810766,-0.07205118745717509,0.06942488963430916,0.035064189852896444,nm,0.0
194.992649,-12.74730145276809,-7.352348882970042,-101.81570156259734,0.1339529838731685,0.04365977129596809,0.12515728197034187,-0.06615871792056846,0.06204552216033516,0.0845781263026114,nm,0.0
