timestamp,roll,pitch,yaw,acc_x,acc_y,acc_z,gyro_x,gyro_y,gyro_z,markers,motor_input
196.000733,7.3323236400621905,-12.773954628822072,-103.49518979771698,-0.6345868324778147,1.2227887675935631,0.324711968556061,0.01314246466547607,0.28762782199260606,0.2469016655031253,nm,0.0
196.01024600000002,5.302428373277112,-12.71352174515135,-102.51799890914774,-0.39003403610024817,0.9330348285941082,0.26988524457691926,0.08844367652335265,0.37864272529091614,0.10156622023393604,nm,0.0
196.019755,2.9563549779374276,-12.518673118107307,-102.17910154701102,-0.23751329856105302,0.5284830674385492,0.23174096244531403,0.12340085537736925,0.43466349399101184,-0.03873325605610689,nm,0.0
196.02926399999998,0.4826703562595024,-12.293347414015958,-102.28421725892443,-0.16019202655792078,0.14080310616201588,0.14061005025212386,0.13363091701666457,0.4585986511690796,-0.13096680278514758,nm,0.0
196.038798,-1.9706633014846855,-12.167500360670985,-102.53399939002462,-0.041261680490242175,-0.05873796032978014,0.13367274090741663,0.11463430025028669,0.459062759049526,-0.15710335863031322,nm,0.0
196.04831399999998,-4.467423182768901,-12.22652679552948,-102.6733618131111,-0.034109937785066734,-0.12039621462202543,-0.0628293126311113,0.08178578677983947,0.47523239770670783,-0.1360400412594909,nm,0.0
196.06731299999998,-8.428167355131533,-12.651423619667693,-102.14923448591207,0.3047181972681298,0.2495931445664987,-0.2746978543040912,0.010333305378683568,0.33164489658914625,0.003852719939476926,nm,0.0
196.086349,-11.383158864106584,-12.563873833955295,-101.2725386269676,0.37537549464154985,0.5154025013469447,-0.6272168074548213,0.08031502822342634,0.24540823356018596,0.017270029420324923,nm,0.0
196.10536699999997,-12.404972266091702,-11.082619108610999,-101.35771636733921,0.48402790368895743,0.255089817490196,-0.374059561459106,0.16823070155630573,0.026177678655845762,-0.057476803777234166,nm,0.0
196.114883,-12.472439966788484,-10.12703485412553,-101.8837950888073,0.3143475695014403,-0.1214546858098648,-0.30299302986754717,0.17651397269218966,-0.02949571016587063,-0.1088777353433362,nm,0.0
196.124443,-12.361221661295898,-9.126291245418537,-102.59626155237336,0.2925340625516998,-0.49678878326093745,-0.0197797142837968,0.17755490933033746,-0.06771860625949379,-0.1401214406453545,nm,0.0
196.13393799999997,-12.440026328885075,-8.140783752452469,-103.34299058747611,0.11819268518203305,-0.866936548293947,-8.576932596616587e-05,0.1821365992533415,-0.032659668297538365,-0.1531729920220661,nm,0.0
196.14343,-12.693120132928458,-7.193643314309944,-103.78285232400879,0.05234106092574773,-1.1894018794902108,0.11582780050257743,0.18243839282201238,0.0012403621045605987,-0.1344437260101429,nm,0.0
196.162456,-14.304147348230673,-5.308514055986813,-104.45662551160805,0.2764310462396905,-1.828486921242647,0.26369060630747404,0.2224661109493209,0.15901570431039672,-0.0952591927123448,nm,0.0
196.18128399999998,-17.971570186884517,-3.9557796781326995,-106.14554787501167,0.5607932852067454,-2.379728749312802,0.1267105976115353,0.19999989609337876,0.3579531970635596,-0.2007892339407583,nm,0.0
196.19081200000002,-20.14592849256565,-3.9204272388279087,-107.75689835029586,0.6854291008484414,-2.3709627341063912,0.16057907216154726,0.1202584767988749,0.41094276075143715,-0.3054465916713584,nm,0.0
196.210024,-24.02102548127261,-5.417357982115818,-111.2704966896348,0.9987333991452283,-1.950093684670096,0.5137655538464256,-0.06367087753685649,0.40567157435380674,-0.3271452980374205,nm,0.0
196.219523,-25.839137839665728,-6.636805769494981,-112.12283573411942,1.156237273299376,-1.5853055950419859,0.2625565841465839,-0.1062296498911249,0.4258447050830875,-0.16038730553829597,nm,0.0
196.22885499999998,-27.552077142832715,-7.588145624620397,-112.06174630462054,0.7843668575595728,-1.351795458140352,-0.30663993655904626,-0.06180263320570062,0.38613230943231397,0.014905432564096908,nm,0.0
196.23836500000002,-28.29340799637084,-7.661436072767741,-111.3644836205799,0.9514152120792438,-1.0498502955924185,-0.5653200195907321,0.02675764240665202,0.14099994079010955,0.11722062973321737,nm,0.0
196.247832,-28.307956419232188,-7.342554443383529,-110.61555735923872,1.203925133208242,-0.8287553677980631,-0.7250956282611679,0.04665239855602094,-0.021504354648615824,0.1516273500442341,nm,0.0
196.25738900000002,-28.110706479755947,-7.388989155081169,-109.50842175600161,0.9835550667041719,-0.6760877055486937,-0.7044630688565423,-0.03598577448928956,-0.035311481611257606,0.11893074768329953,nm,0.0
196.26688900000002,-27.268839889660935,-7.986178669657843,-108.74487166559325,0.823032781581397,-0.663448506255008,-0.537234679284144,-0.18093479137413526,-0.1214960348907289,0.033220210089937245,nm,0.0
196.29558699999998,-22.75307624880607,-11.50344748517065,-111.38171470033804,0.08402203428161119,-0.20798027459523588,0.06460997926489147,-0.3786144068912212,-0.2406448701496049,-0.12316655061201438,nm,0.0
196.30509700000002,-20.524346517459062,-12.397395932120292,-111.84621705630585,-0.012665660725718595,0.18957831404575962,0.05963027073649496,-0.34135455959322,-0.3411514054189918,0.0003315032576775831,nm,0.0
196.31441600000002,-18.001894892735116,-12.70099189204727,-111.58320157035764,0.13870072658370608,0.6868674546260818,0.06478148477886192,-0.25302756387974723,-0.43691566148422556,0.16280043809675485,nm,0.0
196.324101,-15.540748966860813,-12.478394653915633,-110.67023993523594,0.16489337150652114,1.2810332472608517,0.042204255731963104,-0.14590234564457966,-0.4664353833521779,0.2900317568766536,nm,0.0
196.333429,-12.856091979106985,-11.880654123708084,-109.44902100030944,0.11528465827943597,1.734314311093361,-0.17450370548972377,-0.08186013027807124,-0.5368320128086904,0.3570871074462067,nm,0.0
196.34293799999998,-9.807128919395176,-11.031774023136217,-108.40151824029194,0.14522607254842387,1.9577106504361705,-0.09751278630044335,-0.04721355079040374,-0.6237307016952515,0.3294005414740353,nm,0.0
196.352433,-6.6163764841495825,-9.825852943817262,-107.93627253348113,-0.1590518048698285,1.9878081670561536,0.229932828859607,0.019711397768303846,-0.6751469661774435,0.20643132116016683,nm,0.0
196.36196500000003,-3.056264697764956,-8.272432504832176,-108.12852414985736,-0.4966460932482795,1.8427868003868588,0.34821485127901974,0.06423427958089084,-0.7685913292838285,0.07038003858800643,nm,0.0
196.37146700000002,0.6435778285673219,-6.819127994650023,-108.78936649244481,-0.857837886902995,1.5001813167093965,0.5988140174103754,0.030126432138072774,-0.7916137082422148,-0.03916975232565915,nm,0.0
196.38098,4.03616405708014,-5.671813818461116,-109.56442192797981,-1.3877460083962059,1.1093095083552418,0.5741870073245277,-0.017905105170364144,-0.7160200860928408,-0.08624572165628822,nm,0.0
196.400007,9.929343776537946,-4.2599538619199775,-109.86860387377656,-1.772028593830361,1.0652396055184672,0.34695746883947826,-0.10951386703014314,-0.5612491565547538,0.0654965493503764,nm,0.0
196.42870200000002,14.370983983039308,-6.039519297209484,-107.17843091626867,-1.221234201069724,1.755412118520852,0.2618644608102991,-0.20879991800728706,-0.08710681920233172,0.22227181369615487,nm,0.0
196.43822600000001,14.181322405650878,-6.598029442781369,-106.216313461499,-0.9779569802956516,1.7544015135340332,0.20918072894234535,-0.10804434576680744,0.06419703445052832,0.1816269781482556,nm,0.0
196.44772600000002,13.269559713420477,-6.849114900600761,-105.4919945575626,-0.7867988180726014,1.449486568762582,0.2329537336213913,-0.010662259799317864,0.1839410899224613,0.11701123206133376,nm,0.0
196.45724399999997,11.735160506225734,-6.796712333095132,-104.9471532953777,-0.6724248730165627,0.9102646862936583,0.27858106535043353,0.07824355610938692,0.2873852948035367,0.06621808694699913,nm,0.0
196.46674299999998,9.733807453679088,-6.531618546992345,-104.41333254949659,-0.590339968708405,0.3214606007981938,0.22120365006462342,0.14007356055414544,0.3673875207711447,0.05433507271596425,nm,0.0
196.476256,7.532882800693657,-6.285226197423038,-103.74538148337098,-0.4789999179278391,-0.1522509683007299,0.14740604916004893,0.1420670049285714,0.4085816774185423,0.07888515409005638,nm,0.0
196.50479299999998,0.9684701816282005,-6.9489224354040156,-101.12933065225032,-0.0471381631625627,-0.0391224342700389,-0.3896094944031383,-0.02877968205001603,0.39071802177299253,0.11998216720295095,nm,0.0
196.51432300000002,-0.33527025143310774,-7.661372160377889,-100.55589561915757,0.3216864903266405,0.3836856051628228,-0.1757589530830813,-0.10422037515996872,0.27646659216238484,0.07768496321812851,nm,0.0
196.52384300000003,-1.4924035687432302,-8.384145140365462,-100.39259155062724,0.395059352067108,0.7157602831628896,-0.3283842099879933,-0.11350615780219579,0.2472021368128655,-0.0032424299456229864,nm,0.0
196.533375,-2.255857988082924,-8.766962301048473,-100.57744235312808,0.37319413202606905,0.8987973499603689,-0.39633883754030363,-0.060841791397953024,0.15791931492359665,-0.06319908298238915,nm,0.0
196.54286499999998,-2.5509257249159347,-8.644325118475663,-100.92654597113226,0.5081799381520951,0.9202656649015386,-0.16663762387674952,0.022001479778914042,0.04822196099138369,-0.08218172206825393,nm,0.0
196.56189700000002,-2.793660018663015,-7.166266948022533,-101.19899948814205,0.26151756776140167,0.19061812933558758,-0.09867620128543363,0.17081933737706761,-0.042939488568929186,0.00040540280291662855,nm,0.0
196.580924,-2.381265121203938,-4.466391491840719,-99.85829775735843,0.21409575503619957,-0.594596020616078,-0.08782073228162704,0.25231597927264615,-0.09279065515909393,0.15939056869429064,nm,0.0
196.590427,-1.953530857800025,-3.348043829021076,-98.75724150440371,0.2694545143927909,-0.8139559370202349,-0.020514013454612828,0.1945204008206647,-0.12515043315350602,0.20553267577922268,nm,0.0
196.609451,-1.0279631871148287,-1.9312036784007738,-97.06869273325228,0.4077585881575547,-0.7230730377641769,0.0809433868389932,0.09431348979791723,-0.10234076055532029,0.1509878683544935,nm,0.0
196.62846900000002,-0.5374827592197122,-0.9952288786893727,-96.49504629781227,0.4672774581009476,-0.8282131171642897,0.35650451948180406,0.08239691600809085,-0.04142334265310652,0.023594010354890626,nm,0.0
196.637985,-0.7315690243277805,-0.26616463148800135,-96.50669751878003,0.4030723067964177,-1.181904497052551,0.3432271950458592,0.13703011506871238,0.01705581278146831,-0.007460890148720187,nm,0.0
196.65682,-2.2932184710635988,1.5213546834691918,-96.32267943242904,0.46615068354780476,-2.1299209676700066,0.12759840356145577,0.1793723918857434,0.1832525281183912,0.03104098360673939,nm,0.0
196.66633900000002,-3.725640942428418,1.9105385266123827,-96.0787506810489,0.4934494719351902,-2.4812175468135638,0.03245473869019278,0.09584221928639336,0.27168093726949094,0.053106922733525956,nm,0.0
196.675851,-5.316033484143567,1.9329782833909754,-95.92916547951035,0.698035665450335,-2.4643116003142795,-0.005187670689079737,0.025065347118749515,0.311110204175016,0.03663973638917075,nm,0.0
196.68535899999998,-6.998640967115902,1.5670496302883499,-96.0827561687212,0.6604473498786717,-2.072487399998068,-0.24970424194054966,-0.05044731483580727,0.3376419143671874,-0.02404873945418184,nm,0.0
196.704559,-9.360929449831454,-0.33902169365503876,-97.35387987563112,0.9081137285044888,-1.3172097449323867,0.2562025096195281,-0.1937240069653916,0.24142215654184868,-0.0673971431983497,nm,0.0
196.73308699999998,-13.081021582810564,-2.8277759793768182,-98.06905637788392,0.8977743767738307,-0.4709544647215166,0.07375384994936247,-0.10967942492216683,0.19329375730010248,0.05479149422801665,nm,0.0
196.74262000000002,-14.143134415832874,-3.1152905401440423,-98.01877177590696,0.5763448568194154,-0.4198879994260379,-0.2839933901939803,-0.03992027955570065,0.21379088564034987,0.07081690965554542,nm,0.0
196.752129,-14.60078777772421,-3.237181947240071,-97.6645861790973,0.41873352543311826,-0.3733741362940912,-0.24230727688834341,-0.024892491378062348,0.08925404008378231,0.09436069706457469,nm,0.0
196.761608,-14.366906452761013,-3.428527454455397,-97.07377715119866,0.5706084920246637,-0.3998746537473741,-0.0657157559150803,-0.05724795430908721,-0.046351622001283746,0.11259898343177857,nm,0.0
196.77113899999998,-14.160569620378963,-3.6766844232130818,-96.44739431036979,0.33094866018264135,-0.35135251194822836,-0.15896198519141944,-0.0673478810186061,-0.04022945608682417,0.08919177749109829,nm,0.0
196.79016900000002,-12.687616993827024,-4.288494285079484,-95.60806236194094,0.2448847586093614,0.013035269318194195,-0.10015403067960364,-0.09893585641516026,-0.18193565673714862,0.01320830713933939,nm,0.0
196.79968,-11.88957502396392,-4.711260966679059,-95.45821642460217,0.13357902934252358,0.24418853510409583,-0.04426479194732949,-0.11210880556120162,-0.15610627241270367,-0.04251521027597404,nm,0.0
196.818637,-9.719050264310795,-5.294918741283603,-96.52537081436756,-0.08889141653519901,0.8987468667148569,0.03813564124398369,-0.08709372512492929,-0.263576311067769,-0.09255150903998902,nm,0.0
196.82815000000002,-8.08453575931564,-5.367480663096653,-97.03778958720456,-0.03807590214645737,1.1773249404162804,0.20158464046282923,-0.06591315862461947,-0.3269900099027453,-0.07474901755338996,nm,0.0
196.83766899999998,-6.563777862950055,-5.152457626321422,-97.44849728965617,-0.372467132433912,1.3485520207355928,0.007795832468439169,-0.008475667267405111,-0.31128639048693707,-0.05722595233288981,nm,0.0
196.85666799999998,-2.7031499887006163,-3.9442318583856153,-97.89456475019749,-0.5691864074992127,1.610785223204093,0.32255810437292126,0.06487691807748706,-0.4215159498582106,-0.009026688620659404,nm,0.0
196.866182,-0.7032319086231612,-3.293331792980907,-98.02895363632963,-0.8955954962626592,1.5417374772533186,0.19974231849267746,0.06112642253231896,-0.41881391104310534,-0.0059846217556776765,nm,0.0
196.875706,1.5315506430970462,-2.687612474433578,-98.0767937666335,-1.0312796943228748,1.459010250759728,0.5013315580376712,0.04508408044281154,-0.46440909425416005,0.008884076376539693,nm,0.0
196.885215,3.5566092522635624,-2.2139447101429255,-97.99197314534463,-1.1536213671917739,1.4089535944068623,0.47272011160544714,0.0250907093819332,-0.4193667896229818,0.02897424242252097,nm,0.0
196.93276999999998,6.459499426530378,-2.8804814445425198,-94.71260739709233,-0.9811047062443988,1.413510506475083,0.30724930366030906,-0.007985521324142632,0.10010933274737678,0.1855615414097549,nm,0.0
196.942267,5.280254312859731,-2.651533280423561,-93.68604850717256,-0.735046609406637,1.0815381467257,0.2665659877723048,0.051378277623103846,0.2259608697959198,0.1884936845458969,nm,0.0
196.96129699999997,1.643863389250502,-2.0010653696188716,-91.81592742390296,-0.3020096770911435,0.22373281071225568,0.12991215494955025,0.06889742715580724,0.3799721684833208,0.15712926544432293,nm,0.0
196.97082300000002,-0.40949357124342134,-1.747145836825373,-91.1190029258726,-0.12434385885469196,0.0024558857065927818,0.0008884621405742471,0.04947650781143662,0.40322872025043566,0.12147221314794297,nm,0.0
196.98036,-2.4236729157281234,-1.6893122087765289,-90.68850843472553,-0.00364083250782008,-0.04629230306403607,-0.07153477418486588,0.0059507988545856715,0.39655457815011386,0.06989913045687592,nm,0.0
196.98986399999998,-4.305379013148804,-1.8759775203163978,-90.57507372405749,0.10933588503393434,0.06828099639661245,-0.08209110752556777,-0.045331472345796944,0.37062480446981483,0.007211363100062565,nm,0.0
196.999361,-6.076399354271039,-2.1781833864129028,-90.78317970728072,0.07463296343327927,0.25577995221910854,-0.2259147649179826,-0.06855652312832679,0.34876467456783905,-0.05757532526136319,nm,0.0
