timestamp,roll,pitch,yaw,acc_x,acc_y,acc_z,gyro_x,gyro_y,gyro_z,acc magnitude,gyro magnitude
0.0,0.021649335636036,-29.570017280167413,-28.14527591470696,-0.0752734197834444,0.0116347208693032,0.0550537099637476,0.0,0.0,0.0,,
0.009496999999996,0.0842976438569734,-29.47955604114979,-28.18477569025245,-0.0513119606491966,-0.0125693323472374,0.0695047183592625,0.0,0.0,0.0,,
0.0190079999999994,0.168286539348254,-29.41363584576365,-28.27619376046514,-0.060248173620083,-0.0223195739414661,0.0753580931107055,0.0,0.0,0.0,,
0.0285180000000053,0.2458616309704224,-29.367505769835063,-28.36883921996524,-0.0731931236414463,-0.0337021274138706,0.0859919265192024,0.0,0.0,0.0,,
0.0379740000000055,0.3941042947508458,-29.39205446484497,-28.52866827864725,-0.0905223446505041,-0.0416063879201241,0.1059134601126912,0.0,0.0,0.0,,
0.0474849999999946,0.5229154890965542,-29.42254216637957,-28.65206696607601,-0.1102879527125931,-0.046583744367099,0.1319998171010191,0.0,0.0,0.0,,
0.0569890000000015,0.6230545145397017,-29.449017880099014,-28.722738253615127,-0.1265761711977458,-0.0479984080960482,0.1557477826101055,0.0,0.0,0.0,,
0.0664749999999969,0.6804602914552368,-29.460857589481947,-28.781065367938982,-0.1244924872673047,-0.0618650669053537,0.2019466031479391,0.0,0.0,0.0,,
0.0759860000000003,0.6994675844067098,-29.45739318859789,-28.86892598850928,-0.1113909475089102,-0.0895835856016944,0.2292077299895148,0.0,0.0,0.0,,
0.0854870000000005,0.6971908110559143,-29.44605790926556,-28.956204251703163,-0.0976627232376843,-0.1107488132389696,0.2687802424038132,0.0,0.0,0.0,,
0.0949959999999947,0.6592729647869138,-29.435706777354905,-29.048289105389724,-0.0795766825839762,-0.1320869978642568,0.27651956772707,0.0,0.0,0.0,,
0.1045179999999987,0.5825221579831521,-29.433866750145203,-29.06871181723416,-0.0671266054658767,-0.1409839839730921,0.2634512832688017,0.0,0.0,0.0,,
0.1140380000000078,0.4744411087588529,-29.4285866997817,-28.99804450825712,-0.068025531583226,-0.1308458062071076,0.2254361518386825,0.0,0.0,0.0,,
0.1235400000000055,0.3499900183290058,-29.39297009854314,-28.851481969533925,-0.1099817054249509,-0.0889694763939511,0.2012933949509623,0.0,0.0,0.0,,
0.1330439999999981,0.2233609324849665,-29.289959118405186,-28.641690007084726,-0.1484724456135433,-0.0447127158569632,0.1940879520388302,-0.0094236992498583,0.0287247601757038,0.0537229762304228,,
0.1425440000000009,0.1134288030311686,-29.050050544113653,-28.399575499064525,-0.2123108822957731,0.0048533386263166,0.2130680311108073,0.0061096839057855,0.051382494807244,0.0617595908654389,,
0.1520639999999957,0.0252240479229285,-28.592695726351984,-28.14554696594463,-0.210195388322902,0.0227524152960078,0.2431291911307117,0.0298373871171747,0.0879622380062879,0.0629343894098293,,
0.1615850000000023,-0.0683296382649422,-27.90067600739081,-27.94287446724615,-0.1728549427276345,-0.0014174765924086,0.2871425130463667,0.0507384829961346,0.1300116018375419,0.0571686148160847,,
0.1710800000000034,-0.1504257335744469,-27.00531310791144,-27.756334347992684,-0.0734216218363396,-0.0685069205916112,0.3812561737730814,0.0710486676310175,0.1652703630488729,0.0549439561074783,,
0.1805980000000033,-0.2400974153927782,-25.92381196264986,-27.543163898206924,0.058353009486466,-0.1417963203868359,0.4373592167232303,0.0864918055570029,0.1992063816650497,0.0600798662999742,,
0.190100000000001,-0.4010244023949391,-24.7214051095296,-27.27204882191389,0.1830425333587308,-0.213723497320596,0.3941261291463953,0.0852977968591658,0.2270501239403811,0.072129968784483,,
0.1996170000000034,-0.6503278353540164,-23.4677266865272,-26.84286457220304,0.2285764524307171,-0.2596899131879007,0.3676868910760721,0.0739350018501223,0.2442098203712817,0.0950222918577888,,
0.2091309999999993,-0.9515629957136836,-22.135072571329584,-26.23079207767272,0.2017228429098649,-0.2792719000727456,0.3736451216716331,0.0698394564118474,0.2635013959682766,0.1298277334418341,,
0.2281760000000048,-1.6482982908555934,-18.880838336625377,-24.544042934737742,0.0594388977235505,-0.244722415408423,0.0140875301475899,0.086836805810784,0.3443970846712756,0.213274351233119,,
0.2376789999999999,-1.9231167070508248,-16.910572919107548,-23.41802832910392,-0.0280816955967087,-0.16901081178843,-0.1361813035823373,0.1133126484471262,0.381542899627264,0.2561563576970292,,
0.2471749999999986,-2.1280743352637725,-14.652316471202454,-22.191861863235395,-0.0507235184855643,-0.1624450894046846,-0.2661514600855412,0.1398560669494573,0.4318666483517333,0.2860871351412953,,
0.2567190000000039,-2.1674876952758786,-12.078094785279792,-20.902137887985432,-0.0524355226216598,-0.192233601168685,-0.5017039375698092,0.1833802279340824,0.4818432438825333,0.3128719963017642,,
0.2662260000000032,-1.992936519719696,-9.364830243520304,-19.562075424626403,-0.0973543195937138,-0.1093878157280994,-0.4950563197498733,0.2214587800727896,0.4973548223903571,0.335587787661765,,
0.2757250000000084,-1.7288049024660668,-6.629259756445236,-18.18776449870348,-0.055528721760111,-0.0834260307683139,-0.5039898436595184,0.2281249668635498,0.5008018435501913,0.3434520937785291,,
0.2852400000000017,-1.2590677989728187,-3.6926340869726864,-16.81827287390145,0.1199968667266249,-0.0482563361291299,-0.5147718996611609,0.2676022927541658,0.5319751368961779,0.3418181820153846,,
0.294747000000001,-0.532979710145072,-0.5610848426312974,-15.488570728541132,0.1455402451830448,0.0865480415510482,-0.6032101085062641,0.315441326304328,0.561131958526381,0.3284039672377893,,
0.3040770000000066,0.1611184567741721,2.161228465816356,-14.243145856386874,-0.1582787946204825,0.3611679580641725,-1.0856977366929426,0.275394820517658,0.4905740768631246,0.3030614329901037,,
0.3135890000000074,0.1600429688894653,2.4160725671406293,-13.027118060763078,-0.917442373515771,0.9118227835696702,-0.9746647054744956,0.0119090044793587,0.0496249457196134,0.2848280000261137,,
0.3232980000000083,-1.292770033511252,0.7278591874262104,-11.71359686327579,0.2204474374832963,1.0647650908330966,-0.0245360774076915,-0.3567003643382292,-0.2676350139634599,0.2879765049699741,,
0.332800000000006,-5.04559473696911,0.2170401980669332,-10.368994791966117,-0.7165968029352205,1.079166280008778,-0.158404481281042,-0.7571329084332195,0.0441569644372461,0.2935291496220118,,
0.3423130000000043,-9.89944940149016,0.2915429422894083,-8.871443406145763,-1.3287991320820751,1.289487160897992,0.5977990669807861,-0.9555766680868052,0.1785475163809398,0.3379921201065771,,
0.3518109999999979,-15.737386521534065,0.9987099681215856,-7.322425633416242,0.3011484023348665,2.4894233721096315,2.846979374635087,-1.1367796614720105,0.307160875160726,0.3722193004337713,,
0.3610860000000002,-23.07831400272952,3.93027316574709,-6.250266559194393,0.1202318370661495,0.7639247235742036,-0.659784549068782,-1.389263969576258,0.7557019394614991,0.2776055252600961,,
0.3706860000000063,-28.52439927724703,6.648380028964372,-5.274060673568011,-0.4014073326154265,-0.9031097830512996,-1.8372637191301275,-1.0259458682479776,0.6501783190495526,0.2958802308767222,,
0.3802230000000008,-29.868295429807503,7.774435332852393,-3.778063609255527,0.3343234297697106,-0.7711614575176116,-1.5918427459060458,-0.2483735844893888,0.2458321148629829,0.3333474109931957,,
0.3896330000000034,-28.05671417152899,8.730594947410731,-2.718463795918781,0.4895692293441424,-1.303698464234949,-0.4689998219206831,0.3692769201568521,0.1707889083155906,0.1601058875743854,,
0.3993070000000074,-20.813814619904328,8.9352846017445,-1.8658017166165115,-0.3789425840133716,-1.1260872530659414,0.2347053270310655,1.433623857374772,-0.0164281651793619,-0.0521843680493011,,
0.4088160000000016,-8.17172844647396,6.433536777680668,-0.8824651289947821,-0.0206493267100878,1.2952623795473155,2.498511704606333,2.496244291816324,-0.5589516620074672,-0.1424620173553768,,
0.4183210000000059,4.334833277912233,2.812288720210093,-0.9133890743314796,-0.1848633373486757,0.1951482036505898,3.7622683737446754,2.485060222133,-0.7613051912451608,-0.2080531084626677,,
0.4278369999999967,17.55117652154003,0.1890651709763521,-1.9746889404235493,-1.3777831984643458,-0.902500824168115,3.006346115102746,2.631905892981002,-0.5894979692218766,-0.2808448807294981,,
0.437381000000002,32.623316196682275,-1.6002012004403072,-3.834396098687961,-2.0682418160841585,-1.2249943598877655,4.220810342161918,2.9961894116251093,-0.5087452295183551,-0.3330364908759697,,
0.4469069999999959,45.4343898579596,-1.8578300219508743,-6.020482838367214,-2.1717490297966977,-2.7065528934818697,2.8161361548306534,2.5503421020732904,-0.2714812686821569,-0.3585340138370474,,
0.4562400000000082,57.56562269852431,-0.1186350387507743,-7.076117050820539,-2.1018332726492903,-1.3022475208509188,0.1759629787349818,2.452582928183729,0.0676989118902535,-0.1687289808914154,,
0.4659300000000002,70.40475132783872,2.533216445820703,-6.975134624417919,-1.6926031716525645,-1.738548237683311,0.7531605434219821,2.6158184317694264,0.2104462801357132,-0.034106308125408,,
0.4752550000000042,81.25423954336493,5.36456382239559,-5.910463739734982,-0.5790901225054149,-1.054087105329594,-0.7482069293238462,2.217123955839606,0.3185382227750422,0.0628263384032233,,
0.4848599999999976,91.6118328591226,7.479021322911439,-3.7589921300995934,0.3645341964831592,0.7312851951880401,-1.811321908265953,2.08912926124336,0.2471328389689263,0.197605605640571,,
0.4943049999999971,103.43304521121604,8.105087905986602,-1.3667839501682713,0.8411297162397288,0.4816916087165986,-0.9962990034815702,2.348085745257497,0.0200116592032769,0.1564705284639841,,
0.5037960000000083,114.54194638546286,7.454750622476085,0.113396739893195,1.2910390509627911,-0.132914208917022,-1.1762960326143712,2.2019900868445106,-0.153874806257154,-0.0055605544803662,,
0.513306,124.5442008124488,5.889914092629036,0.6337061876141104,1.669953240982351,1.4167598102788057,-1.16326441978195,1.9909272644539544,-0.299574191675535,-0.1287135913378641,,
0.5228060000000028,136.42280311261447,3.846597423826718,0.2106438286712223,1.5455333625176897,0.9038800982263354,-0.8458362010349475,2.37256535895464,-0.3902511346453439,-0.2861934673027442,,
0.5322830000000067,150.61213570510137,2.6822965144216555,-1.5029478958979798,1.5750324529437998,-0.3067488640316849,-0.9652364110860312,2.833425423555082,-0.2639657565330481,-0.503130276835266,,
0.5418590000000023,166.54960205052012,3.228661547295916,-3.940086602255695,1.5605906995075098,-1.6214309730553795,-2.7395459582666435,3.188215249513666,-0.042720160486628,-0.6493927658100173,,
0.5513810000000063,-176.8657024735377,5.214270162948206,-6.028635951028293,1.0019306798780867,-0.8779268934532647,-4.436784001601062,3.333354379929445,0.1056805518972106,-0.6596701225972105,,
0.5609280000000041,-158.57604430998887,8.325721349608019,-7.064428381029618,-0.0545851097398907,0.1523433934178168,-5.881238366733305,3.68322854638752,0.1991938208955288,-0.6372370777505104,,
0.570447999999999,-139.39134184041652,11.70192313042492,-6.545395483738723,-1.165381126755016,1.957233303672797,-6.331730648849665,3.835160334788588,0.2168049488145005,-0.5648682782250567,,
0.5799439999999976,-120.57318707851437,13.902095880438011,-4.849426402089309,-1.9656187872806168,2.8734128651445463,-4.593406897955114,3.6985390787881953,0.0696624416401124,-0.4980897890401392,,
0.589461,-102.00127758166629,14.186015033966004,-2.957176216685905,-2.1617499772589346,2.355653633593489,-2.915646492580326,3.6018790773807474,-0.1893514576764333,-0.5264894303578278,,
0.5988959999999963,-83.22125661723003,12.656127520669608,-1.9150992024623528,-1.4978110523405066,2.4618878532178905,-2.052629923494578,3.640874588174953,-0.4587839794042986,-0.6659244653069188,,
0.6084050000000047,-63.3085151957663,10.295672252358074,-2.757349109499106,-0.4672030224860571,2.9000370978960457,-0.8626966806463204,3.885661689351699,-0.6268301007913691,-0.9603801902025124,,
0.617912000000004,-41.97181696844082,8.502939352057048,-5.0935600470620965,0.9221679271549176,5.769009702502863,1.886094677703457,4.182175958713935,-0.642676089328255,-1.1603140487222137,,
0.6276100000000042,-20.516274937027497,7.600029947649538,-7.574671824334226,2.3131533162856903,6.116980652190217,4.999920095566277,4.209488822531609,-0.6470597164693295,-1.0928930087265425,,
0.6370730000000009,1.032463627795924,8.175965067791093,-9.41206398091356,2.3039342634618545,3.283603331939878,6.890798413748106,4.245010015908478,-0.5186571596239797,-0.9558532632295454,,
0.6466309999999993,22.8031123255985,10.099525344708873,-9.603215205033582,1.0318354345381815,0.5779618597367615,7.957804421879285,4.308203471983916,-0.3356823082919474,-0.7301992380103062,,
0.6561420000000027,44.817404544274815,11.031935280884005,-8.438365108959461,-0.1960528667714017,-3.258836901887272,7.12941514125449,4.308386551987965,-0.497259389993722,-0.5778504671617584,,
0.6656520000000086,66.9382181534758,10.474065761549522,-6.730877842721052,-1.2702608583699184,-6.099387856709746,5.022419132670208,4.298337659236855,-0.683589769095559,-0.4885788792196336,,
0.6939610000000016,132.96234856574858,6.979233664371228,-1.8742385237065908,-0.8765387276759614,-5.919575141440408,-3.4485282618927755,4.322630299695457,-0.3865701554053454,-0.3057737645892496,,
0.7035479999999978,154.89276210926408,6.060669500880095,-0.4515394982028787,0.2277311878228207,-4.947369084177122,-5.804802588638222,4.35704716866868,-0.2701520626471382,-0.2170598356906067,,
0.7130989999999997,176.82474233060913,5.402856247144527,0.8013650072799162,1.0872472092964132,-2.9539075895207483,-8.805073546333503,4.368698688306951,-0.1167769808787423,-0.1906371875794505,,
0.7224099999999964,-161.2939460585349,5.024362335871242,1.627526281416136,1.5336283623586564,0.6063271656963423,-9.414041201299227,4.362660668700411,0.0175886355274392,-0.2346053315571512,,
0.7319260000000014,-139.4834769502585,5.009409746626503,1.6861904492399824,0.9792194181805832,3.16335809348983,-8.957981581921828,4.347743841372905,0.1228008706872817,-0.3702169676506096,,
0.7414349999999956,-117.70473269409112,5.9337500721400245,1.410742893521778,-0.0907652876592352,5.734912683905049,-7.305192969487083,4.3337570466831306,0.3000900795961072,-0.4702065486104719,,
0.7506840000000068,-96.1331381714322,7.698238480800814,1.5849855381675764,-1.0159629119703837,7.685561884779794,-3.9569922083313984,4.277796104463946,0.4611099870866572,-0.4780316808698807,,
0.7601960000000076,-75.55602347973098,9.583748170770912,2.1252352072687497,-1.6457456034316191,7.465749391333291,-1.0958856790433311,4.058959865008085,0.5051213373078604,-0.5119141956157486,,
0.769880999999998,-56.703149297214665,10.931112300820784,2.893562377147756,-1.5279457109787875,6.128860008314286,0.25358644332219,3.699168064627229,0.4296975646367201,-0.5196725553673126,,
0.7890440000000041,-28.19118980664193,11.745354636099648,2.485516080914667,0.2197096634847778,1.6498847968707415,0.7760793830387563,2.614797481921662,0.1848862188209011,-0.6768022611463007,,
0.7985900000000044,-14.0890868272634,11.890550203421574,1.2338549159461312,1.3494068390067389,1.723781089713836,2.313640723243798,2.761964624419617,0.1186391112164121,-0.8277691859010601,,
0.808099999999996,0.3612272490994,11.953528567140308,-0.1604340309065637,2.5374177233784465,0.5184419404321159,5.076206689200762,2.831374707951658,0.039074875368165,-0.8755586076615198,,
0.8176190000000076,15.4245442803406,12.07002991994169,-1.3058463914072,2.6340980180962243,-1.6216239499457004,6.369994581523348,2.950744097988152,-0.0145645331760776,-0.8558564044886519,,
0.8271519999999981,30.538025758046867,11.602247006826865,-2.14908291864281,1.921610492455771,-3.0196982743477587,6.28008149856003,2.958153284916248,-0.1824051563192264,-0.7886733462944551,,
0.8366579999999999,42.40791052271047,10.54544637060811,-2.9065568248063154,0.5572866358429514,-4.353640637310622,4.665997840602015,2.32118415755022,-0.3135727168448867,-0.6076759817145633,,
0.8459859999999964,50.93200053902761,9.340242169323831,-3.443623137164937,-1.1736633111321664,-3.404667057962273,2.040163786067085,1.6653642450977797,-0.3336680118564629,-0.4020434042583419,,
0.8555780000000084,56.89119393834537,8.061469546378612,-4.034273269068027,-2.162685207117345,-3.0169948681638887,1.803167559190415,1.1603612484527075,-0.3322381762328307,-0.2986475007695931,,
0.8648880000000077,59.04569657970936,7.366476412808872,-4.297215221305451,-2.323398613531713,-1.8035189142913053,0.3724883518541496,0.4162661833329946,-0.1698499512662897,-0.1105347030429602,,
0.8743960000000044,59.77428248133143,7.652905657427823,-3.315048062706666,-1.9527026899221192,-0.4989156755341802,-0.6706142889088753,0.148122095113409,0.0476561664440594,0.1776002599043969,,
0.8840880000000055,60.51849144760842,8.657645904981472,-1.2828630203646367,-0.9970154033706624,-0.3546014904913466,-0.0590260637020156,0.1554616731614997,0.195181393506255,0.3857590940647087,,
0.893414000000007,59.73872266962113,9.93698130407565,1.0490405954902162,0.0144816645306068,0.8441999340482945,-0.9607878534787346,-0.1535892620327826,0.2565791141583838,0.4921229194274787,,
0.9029230000000013,58.71472900477104,10.930251722260667,3.048287260339963,0.8303762562329953,1.57340445564402,-1.7884627065117118,-0.2086584233278846,0.1916259775913989,0.4374299785552371,,
0.9124330000000072,58.29664359364757,11.601024337444274,4.681868012257923,1.1285208596348977,2.0272291412566723,-1.8643304728541328,-0.0909861619433979,0.128529760989995,0.3434529918353908,,
0.922027,57.94715998736304,11.894470311295231,5.664612759089913,0.7439094777198945,3.1963082502237583,-3.0327827851233304,-0.0735420605371706,0.0523717868096226,0.21103205499938,,
0.9315440000000024,58.87947403925752,11.6608175030011,5.63582036761819,0.5740227703003584,3.4789837507381915,-3.1186042262593965,0.1864694336196476,-0.0285686339831937,-0.043863298766241,,
0.9409629999999964,60.72512037627826,11.282878622576067,4.792052999758816,0.6438185112364158,3.056208256886157,-2.4297053795769545,0.3675673868155191,-0.0424732699908023,-0.2424387909556472,,
0.950556000000006,62.31195119308684,11.326391642162683,0.6805417249530434,0.3178906287224882,3.245538940983385,-2.924256612348652,0.3113175480953919,0.0155464879062599,-0.2955271199538172,,
0.9600640000000028,64.66326179901583,11.8212364495759,-3.5050003757976143,0.1288065326897662,2.3620055260432133,-2.426492938011606,0.4655094647429797,0.0766495180035421,-0.3895173376797399,,
0.969583,67.33555832262132,12.7577709513737,-7.775154863143848,0.0055585275240826,1.4564682127083963,-2.016234551033898,0.5416288035495868,0.1231518565458049,-0.4581921869360688,,
0.9790920000000084,70.35097240481,14.021009330543109,-11.9101638462736,-0.0983402616993028,1.353950192470346,-2.156999452450107,0.625059101547183,0.1353120653363064,-0.4737950747188563,,
0.9886060000000044,74.28577032501552,15.350352655149363,-15.667517523458017,-0.1983676875284004,-0.1114249863569007,-1.3024175204251769,0.8050591759457872,0.0600019265920038,-0.4744928871800233,,
0.998034000000004,77.62063137124869,16.579106187944937,-18.83844768012427,-0.5072209193467314,-1.2745682834206584,-0.9129635799740848,0.68683651239603,0.0304862144636714,-0.3504647022449443,,
1.007546000000005,79.27927360406981,17.375020305264865,-21.704639149371697,-0.7357970532508201,-1.929766629357344,-0.9049736907114336,0.3539219416094748,0.0320509938487388,-0.1915821026493954,,
1.0170540000000017,78.62273988959326,17.52080394667252,-24.576611031670915,-1.1371988180274706,-3.727442690600145,0.0081342932645051,-0.102127549417525,0.0784034523808425,-0.0261803273027216,,
1.0265569999999968,73.77349512208338,17.14596690175192,-27.388550708818613,-1.3350912733792637,-4.7742039175031925,1.0975662764094205,-0.8578845228329881,0.3587435824034461,0.2621985222070968,,
1.0362439999999964,64.98931913169501,16.243531766182965,-30.39914264880024,-1.2281364447946577,-4.836205256410456,2.985514486276245,-1.5460072277082917,0.693230770447602,0.4506066906163655,,
1.0457719999999997,52.13738460770629,14.682885360530534,-33.90056968809559,-0.97644633111708,-4.328593163638482,6.327881226175756,-2.239355573560155,1.1105655044997924,0.5384593405135423,,
1.0552660000000031,34.42922089490294,12.53451493892154,-37.55747096369621,-0.5701389310590966,-1.4527180282444463,6.318298268720092,-3.006223213789122,1.738172812940889,0.6507416836409884,,
1.0647710000000077,16.421092030938706,9.969032369035595,-40.685916574120974,-0.5362258139301964,0.3724532040670907,6.524405735672499,-3.0214624507186305,1.9078748494576432,0.616719669892964,,
1.0742869999999982,-0.6881469393312539,7.500329476225164,-40.25799170314223,0.7087232225116957,2.8396935505357725,6.050973922048281,-2.894855621896191,1.8249633764200333,0.6053941702578776,,
1.0838010000000082,-18.16041368230156,6.011350322151237,-39.016698920490505,1.2721836928604795,3.200516954511578,3.3111501267360968,-2.8647536421247426,1.9888593146226416,0.6582425708739367,,
1.093322999999998,-34.07521704197573,6.417122235512855,-37.40101021712874,1.8798115968972773,3.222611869718586,1.7965745709592482,-2.439738127561298,2.0232217155228245,0.6664426470803025,,
1.1026470000000046,-48.91780273656325,8.184891575015852,-35.928873032486784,2.5511797562066705,3.739447630355994,0.0916112798066334,-2.1548281704730545,2.0429598841161667,0.6708857944456573,,
1.1121610000000004,-64.21862184117715,10.36150066090441,-34.76567954851112,2.569663991306099,3.1768041830591427,-1.3198675928345822,-2.216021693448035,2.1029878729421725,0.725322805681353,,
1.1216600000000057,-78.99066165243313,12.58498306936369,-34.31541830161776,2.398957020598503,2.6172388786709293,-2.26028374839834,-2.1368729549145806,2.008409449299449,0.6780910715441035,,
1.1312620000000069,-93.43122293340434,14.262708860238352,-35.015754606264544,3.0257394692096606,4.1329300536476605,-4.28493171475191,-2.122930083237974,1.874421104876391,0.5317535903100636,,
1.140775000000005,-109.99638756845548,14.632713989603149,-36.01887506764446,1.5602864003887056,3.398461514755723,-5.472565157736108,-2.571072192358444,1.9255219797646963,0.6279087712788987,,
1.150273999999996,-126.67287361671576,14.06248584156155,-35.67728261115627,0.674051446254086,2.273258736084049,-4.960742463268923,-2.688329590121809,1.8024218570488728,0.895271594842617,,
1.1597890000000035,-141.22407323892062,13.285691142119717,-33.8385138972751,0.0536805278544534,2.056907503504349,-6.157954146384371,-2.414187305307277,1.4868782123769624,1.0549694114177153,,
1.1692960000000028,-154.98617292698825,12.84308089636923,-30.90463880536447,-0.7731664190695894,0.9552327108988832,-5.202440096142863,-2.314699051856541,1.3628333887143165,1.2075688737882893,,
1.1788070000000062,-166.89812656432878,13.4068106160706,-27.49484660176497,-0.4044035724866954,0.3586051145006014,-3.424913987747978,-1.973118326409269,1.231612237773979,1.2219438571610308,,
1.1883160000000004,-175.92616936169375,14.621241761741173,-24.52958793929913,-0.1397873194766337,-0.2395029713937109,-3.3992894141771086,-1.4698783419305324,0.9874108095267046,1.0302541019875333,,
1.1978280000000012,176.60679300426253,15.734601664374088,-22.62427469581316,0.9093133065927704,-0.2875109294016065,-2.0283076220009906,-1.2333696501959026,0.7812086941509042,0.7723740086305498,,
1.2072590000000076,171.65953326984865,16.471809777162644,-22.15957833365852,1.545437719052115,-0.257391752882692,-1.439250134878122,-0.8235818265879531,0.4988920587439676,0.3676891067553335,,
1.216853999999998,168.36090851766113,17.096111565581005,-23.180346036875385,1.0957451606632789,-0.7072741531095977,-1.9526826712079024,-0.5351778376323737,0.3589775705256801,-0.0136783067800348,,
1.2262879999999967,164.5994778076145,17.877810449994435,-25.49788913814379,1.2701464118185728,-0.150327849248759,-0.9277971946469776,-0.5898535860475466,0.4385341656837245,-0.2376694780680889,,
1.2359739999999988,160.61546282778943,18.595380643866907,-28.757817307950827,0.2830223699823556,-0.3082153963572362,-0.7462932854756348,-0.6086675025021644,0.4731975453473216,-0.4029699779480979,,
1.2454859999999996,154.28315106510257,18.999533738992305,-32.24657476289423,-0.4028442309840861,0.0244332818668684,0.646594011101169,-0.9928893939693654,0.67867814731588,-0.2895106120761307,,
1.2550020000000046,145.3916902465381,19.309668898740394,-35.65339167670216,-1.1955870762275234,0.4542274582555197,1.2101436362201097,-1.3600292505477598,0.9902515048333544,-0.0969392751839463,,
1.2643290000000036,133.99864670191891,19.17536918199509,-38.6720191760935,-4.200850367205229,-1.1759504077273495,0.3909004633898007,-1.7319766657813722,1.2791409001889038,0.1489997516712408,,
1.2738190000000031,117.68304655320937,18.14431870544077,-40.664876684151984,-4.928070701496776,-1.56974427027146,1.607754877528886,-2.512518934875643,1.8171664631840805,0.6485054390514295,,
1.2835150000000084,98.04622523027165,16.09669151062576,-44.26425007767428,-5.874568413601592,-2.5153154707776246,2.724551592278787,-2.9932984410326275,2.3063635035080114,0.96621674876397,,
1.2930300000000017,76.92437154514762,13.198207843973742,-46.26163291828488,-5.262478045217319,-4.188142661612777,5.604951078868794,-3.229686251027564,2.5779277646910166,1.1953331231330495,,
1.302543,55.7971173019532,10.656250471938058,-42.95924756510837,-1.892923252250683,-3.844813943032143,7.089200576092419,-3.301788396652345,2.550089902270731,1.5283906276539057,,
1.3120490000000018,34.95294992234355,10.015207537041135,-37.54817880211609,1.3791329613754528,-2.5341179689267546,7.513283312186718,-3.218569731704956,2.5587501917923343,1.8207554045224044,,
1.3215179999999975,14.298277472001896,12.163676531682649,-32.03168684048426,4.300399611794818,-0.0861247725620878,6.970355958635073,-3.093564130283249,2.668023904246948,1.888477172612594,,
1.3310730000000035,-6.584648865701328,16.92894876070219,-28.76201375086452,5.99422550468548,2.5140400975319257,4.386639943577746,-3.016609787368128,2.8642787168263184,1.6981269153071497,,
1.3404079999999965,-28.56581639898188,22.058020954072443,-29.32929486319958,6.254504003082271,4.989423120354438,2.1845757198704105,-3.135866153062243,2.901821720857334,1.3570699174370198,,
1.3499180000000024,-51.906416408568376,24.40987396175834,-33.20763895192968,6.366308247360561,7.166148173039812,-0.7179490174700942,-3.427549308837022,2.624471026105513,1.0764580391054268,,
1.3594350000000048,-75.70301603442351,22.95680464529249,-38.1410952234761,5.330903340571461,7.236830905077955,-4.025723897713141,-3.708595936762519,2.3098059570488334,0.9380246285300636,,
1.3690150000000043,-98.53191426462618,18.5487516107854,-40.99298632403385,3.5936865472368464,6.416208089927247,-6.687643972826796,-3.848580607057595,2.050816801299843,1.055704684733498,,
1.3785270000000054,-120.1169826891635,13.550294874174275,-40.15161529095296,1.8295979639263915,4.652433334567574,-8.598113010475373,-3.7994017568058553,1.95093837810882,1.3615634014887104,,
1.3880450000000053,-141.2504049129793,10.14596593771992,-36.85535055117997,0.4944608559753324,2.291429430102865,-8.662065553876605,-3.662311870673548,2.0517623508077665,1.5214375067757615,,
1.3975460000000055,-161.54123407727502,9.234263034970326,-33.29446412220895,-0.6668034362470013,0.2650274686488614,-7.368336341608958,-3.382366359240333,2.154082324575729,1.3894916985228405,,
1.4070430000000016,179.8996225304613,10.493422774479797,-31.22754772116989,-1.5465444453878283,-1.3388463425314796,-6.844437166695489,-2.9625888007660417,2.165690650171996,1.0468059882075116,,
1.4165590000000066,162.3565443861616,12.080042355322552,-31.51080846098641,-1.0084313952105228,-2.099640747823502,-4.155730209260141,-2.776476566437774,2.06190221806138,0.6310403670211535,,
1.4260890000000046,146.77509060644343,12.100089198635152,-33.61806560854202,-0.3666351667965107,-1.9209126264998548,-2.1520998679188965,-2.568078504736521,1.6447905639789058,0.2338430110712842,,
1.4355230000000034,133.0217106788614,10.548348711639555,-36.542236949961975,-0.9758668359203913,-2.276518920198681,-1.3021717762427991,-2.386906967730879,1.29837293989973,-0.0420879837523093,,
1.4450230000000062,119.53867638046586,8.268751921792763,-39.500743109635934,-1.665839776779959,-2.409221484960023,-0.6436511837116339,-2.3777482314145746,1.282280946771831,-0.1482993534495154,,
1.4545269999999988,105.86365734417204,5.882980113192585,-41.63355051920291,-3.531743506106804,-3.408098373003837,0.2315800063192734,-2.3732355099248177,1.4057688189942097,-0.0876435618659546,,
1.464047000000008,90.3213793430571,4.350992624677481,-42.56690748685369,-5.707194002304478,-4.658616460142543,3.0365895219913672,-2.504072748033224,1.851672249723328,0.0918602766767478,,
1.4737280000000084,70.74356834953889,4.440920370254156,-42.83372584559488,-5.088028027482175,-3.4435974322910483,6.226804899025431,-2.860191189988094,2.66358897694565,0.2475437404346903,,
1.4832480000000032,48.98360210949596,5.786882236196168,-43.43140972566562,-3.084016072019971,-1.3775096682810628,7.763706691305422,-2.984965198075097,3.1613024623578685,0.2700942642124399,,
1.4927670000000006,27.01311281344253,7.118730030230988,-44.93154905331439,-0.6157322872522453,0.7853749021746056,8.225224495394047,-2.9512888939367907,3.235406016678749,0.1976812176790762,,
1.502278000000004,4.980323054969919,7.3714645114387,-46.780308386180856,1.727814446915877,1.8605473738985705,7.332071555838368,-3.012144693152755,3.175255377326645,0.190722769553256,,
1.5117809999999992,-16.402126893137442,6.702862707813077,-47.73586274809042,3.9077474208941534,2.596338164297414,5.500411925182991,-2.981191029287121,3.030988679751621,0.3354337986175301,,
1.5212750000000028,-36.01687960670224,6.060427956192574,-47.264604400987096,4.7655378435402005,2.698802061304924,2.3931180255269124,-2.7311194086295094,2.7919420179911687,0.5300197072863456,,
1.530619999999999,-53.807755480882,6.206978871375775,-45.85956561218398,4.143262013784739,2.1889905919656023,-0.2668867541730814,-2.4145006459569505,2.592178880259409,0.6597541638637009,,
1.5401240000000058,-70.00921303380969,7.087092872877118,-44.313815171155966,3.166983919895422,2.158524995817067,-1.6184347339040517,-2.1513137521363555,2.405761331601398,0.6830116012930291,,
1.5496370000000042,-84.86850241812587,8.079181847585252,-42.96986009971485,2.376530219422642,2.772772145884294,-2.6491487610516,-1.9981071570446016,2.17851657960726,0.6602752027508322,,
1.559229000000002,-99.33225384787484,8.549104663986386,-42.06395817016553,1.546362943896561,3.381626630715912,-3.782568723321204,-2.0489344969812056,2.005580163018789,0.5992116462402125,,
1.568725999999998,-114.04138657015967,8.097028912343164,-41.416569271494666,0.3873312660566634,2.9570365903974603,-4.074325295897055,-2.2342829059571403,1.8728063423337555,0.5552132099522785,,
1.5782449999999957,-127.93681826460316,6.928552315939496,-40.60697284007821,0.1796286755775016,2.8100943318695406,-4.829764207257584,-2.234050670063718,1.6342251879744745,0.5250366498879393,,
1.587761999999998,-141.38925472958442,5.363236309266866,-39.63743158573779,0.0684346357465065,1.953602439018797,-5.508984879410233,-2.248751549045404,1.4870362600965854,0.4815609564733931,,
1.5972540000000066,-154.12315100527553,3.909893623817293,-38.584236016524606,0.3669882185969534,0.9217134376354416,-4.640968575139527,-2.154498975438378,1.3780287549379315,0.4160778449080241,,
1.606777000000008,-164.32095362856094,2.9542291124941755,-37.819006308322976,0.8496237545737411,0.085143389096131,-3.933908863125458,-1.7194793617150002,1.1102836035581756,0.2750336585188133,,
1.6162920000000014,-171.75585331852545,2.42087232138661,-37.73616495974719,1.216716646773399,-0.5886514962594236,-2.541201784578707,-1.2404384382603346,0.826467583755182,0.0863531179238391,,
1.625636,-176.1773091495936,2.2548322778948924,-38.507531097165725,1.6842127642425533,-0.6564121139372747,-1.2054847221699634,-0.7162528801882245,0.5198128980387855,-0.1182773326506769,,
1.635158000000004,-177.0871748072248,2.521986583185251,-40.10412143894264,1.4121583888165157,-0.7502889668941963,-1.5083392025586382,-0.1069268620180241,0.1566782572300327,-0.3121059335810051,,
1.6446609999999993,-176.35511264770207,3.4726020032218554,-42.19311110500289,1.0845036051667218,-0.3109870991554755,-1.5141523779364705,0.2354781910593865,0.0470434571583979,-0.4259469382779496,,
1.6543549999999954,-174.69043667335768,5.1734774036360855,-44.41933718878027,0.802889024463519,0.2210490566571639,-0.8536201121778337,0.4754601410990215,0.0199090577563282,-0.4708324269081345,,
1.6638619999999946,-171.83591692042944,7.057799698819289,-46.45379335447146,-0.317684235675815,0.3545917635699879,-0.75897909286911,0.6675508953368111,-0.1401199222661056,-0.4681322188387359,,
1.673550000000006,-169.94349216237012,8.628487623511186,-47.798641889517846,-1.2459591910793872,0.4292917494687474,-0.1575682478353144,0.4858585999837781,-0.0610624497166334,-0.3209421040122518,,
1.6828859999999963,-170.35225623435267,9.619845959024516,-48.11399239060942,-1.20467165375651,0.2863811402134181,2.439201838591781,0.0933209722760023,0.1929473715000175,-0.0501656639844521,,
1.6923950000000048,-171.68975141228233,10.071615403071627,-49.02218156942568,-1.0542699131088575,-0.2581340925895602,3.9719959040257287,-0.1032148403144144,0.2590852249373748,0.1777420696560102,,
1.720921000000004,175.94524428285555,9.310213277247776,-50.7079546124696,-1.1453121118200331,-0.1923027888173006,1.9567916526548488,-0.6801903294663774,0.7598000955711613,0.4842771937064454,,
1.730440999999999,167.8866467836586,9.603362654939238,-51.74070191383901,-1.305088057990378,-0.1637861271989594,0.7769910485828384,-0.9266155257836974,1.2951075781299035,0.4917718757204321,,
1.7492749999999972,148.5425076717194,9.380931570557316,-55.54368868474229,-1.7198538844922782,0.2388914880762357,-0.6649834548033788,-1.1182052019013222,1.479534793608688,0.3136161938025032,,
1.7587819999999963,138.55665513431353,8.549307159330043,-57.86480357977461,-1.7499575434205688,0.0473211506894029,-0.4715072783638445,-1.1939226511361034,1.5815786589095011,0.2695277794932643,,
1.7683119999999946,128.42783260714097,7.2030384033568025,-57.76278191755008,-0.848727416500911,-0.037208290301125,-0.5367259463868072,-1.2975169525396135,1.5567449622566676,0.2982899852000563,,
1.7779820000000086,120.19784922653464,5.3918071052166745,-56.96533953316824,-0.1854388197387753,0.0885398052453232,-0.3518614569206933,-1.1881578903785026,1.1839608318588202,0.3401838319588245,,
1.787509,113.69757576890898,3.9296824573873694,-55.81015854424578,0.236346249733948,0.0455127618041858,-0.1346287323245694,-0.9616104533234396,0.9183766100030664,0.3368407586659115,,
1.8062890000000067,106.93604290958628,3.63940592500669,-52.86599045486175,2.5654396958560857,1.2361354734804526,-0.1980854726685131,-0.1556727232304562,0.3180147796711463,0.3294545466787572,,
1.8157950000000085,108.37084583989896,4.846060581131212,-51.65238921749119,2.579108287262436,0.9538775249428082,0.0615921952213633,0.3664522888052376,-0.078626362879663,0.221693463617628,,
1.825490000000002,112.00148895225324,6.593634501232275,-50.84962530211805,2.8604872010703497,0.5328550625650577,-0.1835367959134441,0.7255603175896006,-0.3451045093500358,0.0881761623703037,,
1.834993999999995,118.06274790085754,8.1574208138194,-50.059647598559685,2.808492829317827,0.022871004279653,-0.7980460200396824,1.007500149465993,-0.7288139570491263,0.0021990807687453,,
1.844518000000008,126.97683929162746,8.890522833919327,-49.35328432625854,2.307169665604333,-0.2804390067182616,-1.1882054551366232,1.253099570913608,-1.2513740933863584,-0.123379073426201,,
1.8540200000000056,139.08538227475853,8.809494866058712,-49.56779651242904,1.0459228088498702,-1.1751975935046457,-1.5082266476644846,1.5445442999033454,-1.8307867278822765,-0.4157349348348039,,
1.8636550000000085,152.86440831055327,8.24096181535289,-51.00485689866759,-0.649159569026774,-1.6257860872378875,-2.9012533028256984,1.6560310398073357,-2.17109829409392,-0.6953111038567918,,
1.873115999999996,166.49146391983936,7.662160663933134,-53.46695083002123,-0.9235187537370144,-0.6962790303475591,-3.1679193317199097,1.5636779519281965,-2.206917968532732,-0.8680861369664925,,
1.882672,179.94746410627675,7.871877525434381,-56.48202272751601,-1.314838136587328,0.1400361069008537,-2.6811647265431806,1.5664765163071146,-2.1621791322404063,-0.9650334215089208,,
1.8921179999999964,-167.69325176959268,9.187997794024485,-59.10917155531962,-1.5561967828991732,0.4096649237417588,-1.545248833909567,1.526499827006772,-1.930879084937572,-0.891001760072016,,
1.901798,-157.2312418648641,10.813268998332113,-60.56590179052123,-1.977258289730823,0.0777443676760958,0.8920422603121718,1.3171136776989243,-1.6204041989964273,-0.6545746092021115,,
1.911310999999997,-147.45759764386762,12.169608625369596,-60.53659097707173,-2.7576214718827403,-0.5751305008797354,2.5082185186439983,1.178612194052974,-1.5364449853295403,-0.3839228350503056,,
1.920816000000002,-136.6674522119079,12.898829296554544,-59.12327180400288,-3.327104007536493,-0.8273951301683359,2.139918703011349,1.1854936170758366,-1.7497147257316057,-0.1865888352710817,,
1.930315000000008,-123.97410264414307,12.558897180817906,-56.89834504972037,-3.017959754990025,-0.3968036121918322,0.9180968696171352,1.2554350691249991,-2.138033677482853,-0.1161574900911249,,
1.939665000000005,-108.36057874029416,10.92679368578227,-54.81968032994663,-1.4490808162003186,1.0648911921228643,-1.1946744347499847,1.4486223381654182,-2.7150907788184897,-0.2225314450320001,,
1.9491730000000016,-90.36283734858378,8.239683445397157,-53.696433496928414,1.2796726287958042,2.538809595705647,-1.939368059361864,1.6423725821478463,-3.1956466376827946,-0.3769643958025766,,
1.958679000000004,-70.50549625564071,5.307665334860217,-54.02727536754487,4.429676577197294,3.672566154490215,-0.7224640544205935,1.8592420110115104,-3.531677074697978,-0.5346670922848429,,
1.977841999999996,-29.62911769954068,2.7715764605304822,-57.6735826510563,4.560064546877912,1.571027999586296,3.786590993861721,2.1722012913880406,-3.449284338599603,-0.6099452000822609,,
1.9873479999999968,-9.79303953352116,3.953453436136737,-58.6395553665458,2.914270724069948,0.4803160663586019,3.869643243630193,2.291245660338033,-3.245037414860947,-0.4244516767406951,,
1.9969010000000085,8.39692078460114,5.23002795272014,-57.790933951210135,1.3095248420302898,-0.2082927988907135,2.5840065332351188,2.1279197088533977,-2.9527927498448547,-0.123115336865253,,
2.006416999999999,25.1400593975029,5.380303444726095,-55.55460733839457,0.6363904443639443,-0.0738743687325193,0.8898521685928263,1.8591201962798003,-2.7728864758831766,0.1346294145885095,,
2.0159189999999967,40.8964349993392,4.197955028472188,-52.92939436424664,0.5051428059410716,0.6091421413789881,0.0998570045704232,1.6464344427331492,-2.6889011240896434,0.258955226376201,,
2.025244999999998,55.57306608786624,2.1280893455290406,-50.95940358624783,0.5451887690446497,1.177245973223502,-0.4049705306654452,1.4843543473807663,-2.564755989079021,0.2301586073469262,,
2.0347579999999965,69.99447683346071,0.0805930753256037,-50.03047516042707,0.7210658778256184,1.2562273205232588,-0.3692065236702623,1.5220444731341718,-2.48714127005258,0.1294039665629058,,
2.0444549999999992,84.80611091391611,-1.039673215931138,-49.75915678067476,0.5642197973100638,0.5310312212344294,-0.0122546745923117,1.7397862922885483,-2.4119733448934983,0.0788760795314833,,
2.0539580000000086,100.23357094478284,-0.8934495262899915,-49.67234348162125,0.3953776070988442,-0.8004676175315958,-0.1115408903776841,2.019083993423976,-2.337132600869696,0.069379714966156,,
2.063291000000006,116.80082500788684,0.2519169378562315,-49.52417370392763,-0.1785702229307538,-2.668736458496895,-0.9026163185499628,2.323259026536648,-2.3782375803598166,0.0480040188104819,,
2.0728009999999983,134.5346728505403,1.8940687199572628,-49.39348074677596,-0.6830565972908561,-4.067376853600498,-2.5537663466115164,2.5552397141233443,-2.4855740935291744,-0.0405565508658819,,
2.0823469999999986,152.7831201777458,3.651928386166492,-49.59118681226375,-0.7431401991522861,-3.767346607830503,-4.212632665706807,2.6356200435226524,-2.5477331374327634,-0.2160139286122178,,
2.0918589999999995,171.00686570377533,5.457989226612229,-50.54492359276095,-1.1584222875563177,-2.280416352305825,-5.204140585698866,2.609467359799664,-2.558641775939356,-0.4790901984686241,,
2.101393999999999,-172.70036050000635,7.390031222845179,-52.24323954447295,-1.6597602702656788,0.1824867855511954,-3.980199401509639,2.322980988516885,-2.293372023327672,-0.7026931348994231,,
2.1108389999999986,-159.09370427003068,10.047801292208831,-54.04145423584124,-2.4664917131114428,1.2612365538767047,-0.3170487421302347,2.039249078028738,-1.836947244964051,-0.7712530321569039,,
2.120526999999996,-146.3232790886815,13.462364169926191,-54.98455047885601,-3.277023007451956,0.7687088264388832,1.1914773221582209,2.00778772821758,-1.6430821061760157,-0.7088835913406838,,
2.129866000000007,-132.96808477241854,15.624292450857917,-55.37445078128113,-3.8484653275137215,1.0415119968963982,0.7713834427928541,1.831686147896629,-1.878658468929086,-0.7490949948688815,,
2.139373000000006,-118.15474466977406,15.514902926973017,-55.71917095033433,-3.880014031609158,1.5790242896417934,0.2133721307220417,1.5982749449906144,-2.368066764624976,-0.8646605888734153,,
2.148892000000004,-99.63636082610722,13.691471799993892,-55.5102533211405,-1.8751560470044293,2.312652343803392,-1.7054695436452922,1.7275137908671998,-3.1652585462388387,-0.8933537785274143,,
2.158400999999998,-78.05741352387581,10.570928793613044,-55.23982208982235,4.729821008979669,4.200175357453359,-2.232537851457786,1.892204945344664,-3.827039475960445,-0.8546433695974118,,
2.167912000000001,-56.49337657154676,7.514096243934073,-56.78747635649489,7.521739883782341,3.368571184236532,1.0150780736584386,1.8826926956959005,-3.8748051175851153,-0.9850113034831096,,
2.17756,-35.011931514330904,6.355832103068867,-59.4627244526634,6.732389301053562,1.4933404400128545,3.957321784568298,2.0608084939743687,-3.7481328207186335,-1.0488442986535431,,
2.1870760000000047,-13.36401857043541,7.10355349217402,-60.76393661388539,4.758140922626261,0.1030219736960321,5.987674221558264,2.273674827756337,-3.659208334046309,-0.7654562256373364,,
2.1966189999999983,8.631438841447531,8.381935601882846,-59.32020702620393,1.6129004671206577,-0.4283232711930366,6.644977629681651,2.3983306495101884,-3.654789078030638,-0.3078443821601369,,
2.206137999999996,30.881114414069152,8.058935713986967,-55.70384632257933,-0.7931206089433688,0.131462303094453,4.704803234624288,2.3143822253071025,-3.753340271263084,0.0781498029639019,,
2.215647000000004,52.24999564800604,5.285554366589861,-52.24354421069248,-2.3958694942964667,0.0788269450467476,3.5925089470487714,2.055835576840832,-3.7599956616192896,0.1876624407047127,,
2.2251580000000075,72.51858039092639,1.7042924286133132,-50.42369300718038,-3.009419325767281,-0.145661947123016,2.007065372784729,1.9772189691254785,-3.606704371855964,0.11314980683516,,
2.2346569999999986,93.475306435152,-0.836451085755222,-50.45395284027597,-3.403156868545401,-1.265073876728045,1.1347217677230974,2.284686015301836,-3.555458529144493,-0.0377050831339085,,
2.243997000000008,115.26475921435473,-1.0482953129721164,-51.67048442722369,-4.2990255174207945,-4.074340230381771,-0.6615186847870188,2.7087155659373128,-3.4191557762881186,-0.1689063078469542,,
2.253501,137.0721797931406,0.8454938078544987,-52.18311892120392,-3.859446001925829,-5.739640596161654,-4.350017175247167,2.987296445199284,-3.2059905321043125,-0.0937011274186486,,
2.263053,158.913255822036,3.129358577076519,-51.24842583324329,-2.410197684747791,-5.5727576549040245,-7.422205291164951,3.0621179002036025,-3.1502871911913566,0.0332102542461833,,
2.2725889999999964,-179.18510981500518,4.848993350622228,-49.90859394698099,-1.064243820853332,-4.01762129797646,-9.271420492094874,3.0402031858232537,-3.162743370813037,-0.0400105816647316,,
2.282122000000001,-157.32579107984688,5.87287999627973,-49.34336802597641,0.788880498972443,-0.5264982061188155,-9.69273385017571,2.976462932776606,-3.1879019760018705,-0.2970171561973475,,
2.2916120000000006,-135.6388244243228,6.347442858111314,-50.46165983383421,1.6909376635643971,3.228100340995924,-8.7836975054282,2.85252744877071,-3.241955920341154,-0.6833707456612697,,
2.301133000000007,-114.0544340037304,7.507942758581251,-52.30598513685314,2.924263582537886,6.157115906333969,-6.6323580507916535,2.8571355742292104,-3.2089082649258898,-0.8861405601369593,,
2.310570999999996,-92.37591479466111,9.39817362761936,-53.16984712897989,4.700245065617512,6.746138057764599,-3.9074173852221343,2.8973195572200003,-3.1907247946908424,-0.8089067742028107,,
2.3200840000000085,-70.65429868348687,10.967024030803838,-53.63199570254231,5.8633655619305065,6.811067379044464,-1.4551974039492204,2.8015731115023166,-3.25180713838374,-0.8602922611622287,,
2.3295439999999985,-48.85320811023119,11.347708964960958,-53.62973760495279,6.214152196178225,5.308206545639347,1.990326141162928,2.600271941647728,-3.4039071864281034,-0.8442471097771762,,
2.3392419999999987,-27.03675575468791,10.248285013188154,-53.54319655544616,6.006003145841685,2.825387557107291,4.50664760493186,2.372295139665699,-3.582497369990504,-0.8013429142488883,,
2.348782,-5.370928141528219,9.0609329253261,-54.34377569894272,4.63189983208659,1.1734112792368243,6.425701632855594,2.3277329816695715,-3.596375617759938,-0.8860624305079876,,
2.3676360000000045,36.03072731684783,7.993378486986625,-57.12793398311065,-2.5159847690623725,-1.7456067634442178,6.592170005079455,2.1252277614367667,-3.336608994701388,-0.8448014390151896,,
2.3771420000000063,53.43724477025374,7.555233221498186,-58.26872068968157,-3.787255262859549,-0.9429190709684792,4.297659196179604,1.7719781761904043,-2.9657994147154274,-0.6981734820804334,,
2.3866510000000005,66.82263306575184,7.459791865929445,-58.56012580933716,-3.4452639457743905,0.1481223666357981,1.4877133934617128,1.3755789379194847,-2.273572939993412,-0.4082697292965503,,
2.3959310000000045,77.3833694727163,7.801372179482445,-57.28497661425519,-1.9751564434447124,1.392193792934569,-0.2427836072396055,1.1708108144365743,-1.7395598188981076,-0.0261721809553574,,
2.414957000000001,93.9079976785506,8.5253927166776,-52.36860673708047,-0.5528612265116165,0.1195152521647333,-1.021234475625413,0.9102942817664345,-1.1281520717154023,0.3159205400799046,,
2.4245630000000062,100.34716045363194,8.632564235832218,-49.9426176480265,0.7236478057756008,-0.4411752132177765,-1.6174842753987724,0.8163063100783357,-0.9793738727845408,0.2929604619233087,,
2.433977999999996,107.50062560785828,8.426150221203175,-48.02895686538172,1.199743628131671,-1.0265547572494291,-1.621301730215865,0.898355748572542,-1.0957425004019794,0.1702933042579409,,
2.443493000000004,115.31945690974396,8.084439833124994,-46.95922228425448,0.9547526327819806,-1.5761424585651609,-1.7300849549249646,0.9963444442682192,-1.188166178229998,-0.0108741647113027,,
2.4531160000000085,123.5498438090499,7.862155047592422,-46.84697014083566,0.6481462611879681,-1.571332651577903,-2.162007691997132,1.082452687688121,-1.221894061288963,-0.2061130672145304,,
2.462631000000002,133.14449759505868,7.847863676718075,-47.45039142315356,-0.0425236483465332,-1.6635698657452915,-2.8569910022052194,1.292017888886706,-1.396965435018409,-0.3830632626982796,,
2.472143000000002,144.79305482330471,7.847181526228788,-48.17233501009744,-0.7314660251773061,-1.5028860058521136,-3.2783920376710585,1.5513604773495502,-1.711813981039446,-0.4624718135430363,,
2.481635999999994,158.11165026385913,7.857187563598289,-48.71335571019972,-1.2547441181389911,-1.1168268780279276,-4.2221453074212585,1.7536450124199994,-1.975156279246376,-0.4721091076169247,,
2.4911550000000062,172.70789257768396,8.163568159387072,-49.08884990576214,-0.992313144203621,-0.5343926949496591,-5.416190915100804,1.9480665642318555,-2.1403697885146453,-0.4819720183546226,,
2.500663000000003,-171.47479274140608,8.456227782345486,-49.29144913041267,-0.4008427265458595,0.1631860932539151,-6.235551052412268,2.091769205905797,-2.333390898408002,-0.4979428021368842,,
2.5101740000000063,-155.61025938565666,8.33309523565532,-49.52325521882028,0.437458715869521,1.1882073284565045,-6.124346682696422,2.025744559453761,-2.4017379896550564,-0.5097721967646109,,
2.5196949999999987,-140.9065350384146,8.05618081708741,-49.93750980131989,1.1695137723293785,1.7174342860335066,-4.284388082052565,1.841203263443716,-2.258711142632778,-0.5020673986553418,,
2.5292069999999995,-126.45949475710788,7.906172576032748,-50.608285831370765,0.8884814464358711,1.4219438370335982,-2.6570626812484166,1.8077118446009124,-2.22202736928558,-0.5351952248100248,,
2.538713999999999,-111.54760606143884,7.980013012140698,-51.46007156178494,0.6778685389138634,1.6192675065262272,-2.401506265872944,1.8709174076118065,-2.289787599725394,-0.5821550024936981,,
2.548097999999996,-96.38762762213466,8.254029003795784,-52.10144123468782,1.061905300097303,2.124314218513596,-1.5495814326187485,1.901913579234785,-2.327019754118193,-0.5562296535116141,,
2.557606000000007,-78.70219928434665,8.614354154557299,-52.34069062198959,2.459962396730547,3.4527308649003072,-0.5226230835366819,2.202398906489148,-2.724615336460396,-0.5668832739964287,,
2.567118000000008,-57.41998970121507,8.7503020615997,-52.15905736962337,5.239034062111486,5.384784179491525,1.328019082913858,2.600189560205822,-3.3142314553448973,-0.6073070231865908,,
2.5770040000000023,-35.554766128639635,8.012390019413402,-51.71404248826688,5.33688757256282,4.359414282296382,3.961910993870394,2.5555154796435806,-3.500215157999385,-0.5501549783998358,,
2.586551,-14.056981355291263,6.731280968460404,-51.69516208105415,3.676125066927924,2.171467710158275,6.160389415496567,2.4468031783013564,-3.5077950726368043,-0.5486337110322594,,
2.595880000000008,5.598163970710308,5.99865175264858,-52.16102735698976,0.9101837297147538,0.4813473366833433,6.953073753144996,2.297840513792121,-3.169086107159687,-0.5287197211009681,,
2.615080000000006,39.39190875964877,6.08130958129179,-52.29426212690383,-2.196335901297185,-0.5855074134533725,3.54286880166088,1.995825522637092,-2.5126923881207297,-0.2911802931121588,,
2.624397000000002,53.031611712759904,6.628550269914872,-51.3084448690259,-2.263596564176344,-0.5852630479623586,1.7627770494199004,1.7642560279639308,-2.0656724177813977,-0.1058477253813738,,
2.6339109999999977,64.3394548609501,7.226583675005385,-49.60310187265887,-1.322737485497191,-0.2659953549138411,-0.1170820400360292,1.523089053434137,-1.6571961893599154,0.0672667738659583,,
2.6432450000000074,74.76443495731434,7.466983009990478,-47.63276789775528,-0.5492935310383195,-0.4871169292505751,-0.7348130586974055,1.404617463716413,-1.5215274388205349,0.1265393886701664,,
2.652732999999998,84.78870312007288,7.235663543756865,-45.8627418503307,-0.0167808037136116,-0.8812223886970292,-1.0277178489582053,1.33032860025165,-1.4814227995304836,0.0967370953515642,,
2.6622410000000087,94.93220671885015,6.625236701741877,-44.56938714096781,0.4034932460247468,-0.9315342627138348,-1.383977561166988,1.3336517768956822,-1.5167649934600416,0.0132755156934215,,
2.6717330000000032,106.36810446027518,5.812223091120871,-43.98832537208547,-0.105097507973346,-1.4762902936364577,-1.4455576325382822,1.5163016082637364,-1.7052235470257242,-0.1320264155047767,,
2.6812440000000066,119.11300044715098,5.059255922380262,-43.99378232997163,-0.9419936307706464,-2.0810897926294967,-2.111172549576567,1.7231936904234912,-1.872266668113328,-0.2427795438976741,,
2.6908240000000063,133.3727193506951,4.399599600666382,-44.11582076644972,-1.5851296827393633,-2.3475123249377483,-3.2226935914024364,1.9532996832132168,-2.0727548057767056,-0.259675541956147,,
2.700469999999996,149.36313142356843,3.841182320628359,-44.17316175664833,-1.6179796050660245,-2.211839611098975,-4.4124339465100535,2.2137969431980906,-2.303476099729792,-0.2414112548470728,,
2.7100690000000043,167.0648731694007,3.509935303733425,-44.24862279660787,-1.217632444300013,-2.05025155566598,-6.28805583438416,2.4889161314249195,-2.5130916448553444,-0.2421608717393445,,
2.7195860000000067,-174.247569150172,3.215179097612087,-44.37703206682827,-0.0951929632389291,-0.9460060775908076,-7.743995968042274,2.631336091687945,-2.650720232069966,-0.2449094604643603,,
2.7289090000000016,-155.3200078984757,2.963114233168691,-44.73027045846473,1.0915961265321723,0.6320861147113478,-7.554874087885397,2.6610632453013072,-2.690102821701652,-0.2742821254615653,,
2.7384210000000024,-137.08904894490112,3.0601838832891914,-45.284713523592686,1.9530771517147392,2.034210786791436,-6.115198995041111,2.5904853483985653,-2.563881728964653,-0.3018307740113234,,
2.7479340000000008,-119.73839227566228,3.510362119821841,-45.93303763434619,1.8174535749071152,2.460066077542892,-3.8455348907951854,2.4899349325086733,-2.4155189856599857,-0.327872696952677,,
2.757442999999995,-102.01330500349457,4.212756319549928,-46.55852400659549,1.370472823688333,2.6219493453797327,-2.848403417985105,2.549431030863362,-2.460988942869729,-0.3632106150414989,,
2.7668390000000045,-83.64021094319854,4.947882342386497,-46.98433251391404,2.310438287613187,3.654911502520356,-1.6303927790445571,2.617856848318961,-2.571845298810332,-0.3782665450747032,,
2.776342,-63.3307806460589,5.605453942416264,-47.36473607595309,4.111457213792848,5.370973717972875,1.140833662192781,2.848178900706773,-2.8813193657384626,-0.4493290036540274,,
2.786054000000007,-41.584735709060936,6.065072090097253,-47.67038232958596,4.83142722579719,5.791704369392243,3.1830807691808727,2.992652483856625,-3.133267688600064,-0.503161099518222,,
2.795735000000008,-19.832865894913187,5.874768331570277,-48.06409767566034,4.2912076756438,3.918247806913585,5.437730441175575,2.878318446099321,-3.237953352733004,-0.530917205048033,,
2.805289000000002,1.015314105835526,5.759511656089724,-48.95434528664605,1.9023405021126905,0.6065629981426812,6.985601665719531,2.73462687835412,-3.126386050337301,-0.599442927021177,,
2.814779999999999,20.204299843849306,6.152885019005231,-49.771037459985,-0.2465067730929657,-1.1192506743858155,5.973260555078204,2.548367261207402,-2.849498968739353,-0.5607554220546679,,
2.824300000000008,37.54834800410055,6.574318423637772,-49.952987336134846,-1.921369711729182,-1.9099859776811623,5.288191150674203,2.289087401130859,-2.584811618570952,-0.4211103723074498,,
2.8336189999999988,51.14497095484351,6.79777007411133,-49.36566789274992,-2.1381406862971097,-1.20990723484198,2.063191286814024,1.7843445488186649,-2.032183127018321,-0.1999333455794666,,
2.843147000000002,62.02335676266145,6.604963828819494,-48.1084783451724,-1.6124182338284625,-0.3546372497740107,-0.0167956629300704,1.3978151481349623,-1.6514933374522187,-0.0031883746362702,,
2.852657000000008,71.82446395078216,5.924238594963571,-46.4710521905478,-0.9789745807397296,-0.0755690722636677,-0.3811919350558081,1.2232785584237091,-1.5255885520180197,0.1129605875446742,,
2.861936999999997,80.16837006189996,4.932038694682729,-44.78155547868958,-0.6181231540325466,-0.3793599903222191,-0.8847729664754705,1.0213831403425258,-1.3274995748272216,0.1796954415260556,,
2.871525000000005,88.20597751455914,3.748252937012287,-43.20194660295789,0.1659356309769228,-0.1034082990668588,-1.425010672168597,0.99014621659989,-1.284791306091537,0.1940242101042217,,
2.880958000000007,97.58642029451094,2.427129970784797,-42.10883770066469,0.0316754345864885,-0.7758811034633518,-1.3255642902182416,1.2004248722439248,-1.4648677747729677,0.1172640391362239,,
2.89998,120.76935640503469,-0.2303237315564728,-41.59173738091313,-0.6288634249492188,-2.312080826766845,-2.3708699898267915,1.6775446915431294,-1.8483919323150613,-0.0091279476880651,,
2.9096040000000016,135.40710490480737,-1.513267773798754,-42.11701165627122,-0.9589236400397996,-2.5468583934896207,-3.3521256692125267,2.012011225754427,-2.145439994657731,-0.0599941073713664,,
2.919117,152.7528762752708,-2.2392027966768127,-43.47596838357018,-1.654206040480893,-3.048774855495044,-5.326099432131082,2.448637792813052,-2.463802361138276,-0.1563401661096467,,
2.928630999999996,171.48049253096988,-1.7863468153441555,-45.396070351796965,-1.2413731755776485,-2.180409470235772,-6.960201670728911,2.738233972499327,-2.558981807092004,-0.2493798050798149,,
2.9476470000000035,-149.57009998946555,1.801842086868304,-48.43355091608269,0.6217388813955218,1.573573565746257,-7.82842126442285,2.954348675406317,-2.6493404057681,-0.2972308472270047,,
2.957160000000002,-131.0465147974816,3.8079232992508,-48.91803156627482,1.5297768997109258,2.9896357460755403,-5.755754857671173,2.744931218826461,-2.5187550910823187,-0.2775720017476984,,
2.966671000000005,-112.86342122532572,5.308534349447209,-49.05039637543225,1.3271348739245117,2.9056453371525923,-3.477129494944164,2.606325818433356,-2.5425312542669505,-0.3155405168055603,,
2.9761120000000005,-93.53937447053372,6.355855919936479,-49.28110492660846,2.3188589583937325,4.039311240679544,-2.854668646365888,2.673886728271681,-2.776281656363613,-0.4388639863806699,,
2.985754,-73.5743268651306,7.204129500011014,-49.92002136613669,3.9963872676248826,5.435350869679477,-0.1900285852159655,2.700853462463921,-2.914082317569258,-0.5985481326629692,,
2.9952710000000025,-52.22880743884647,8.423219973428386,-51.19088751387782,4.625530678316677,6.00309635336601,2.682885708794355,2.876958533955957,-3.1170389185417022,-0.8326032143916298,,
3.004962000000006,-30.67496552134386,10.047210916399097,-52.73997527130933,4.49712350926759,5.28535514434422,4.614913462135924,2.87845395832718,-3.1579763479257297,-0.9992356755499868,,
3.014515000000003,-9.184601375552049,11.149727188998076,-54.1745050375153,4.03959347317525,2.170638421993179,6.382227237204004,2.6944163556519536,-3.269101741447676,-1.0754739477356363,,
3.0240129999999965,10.495481617696456,12.019590688445792,-55.52746400501162,1.80390200570686,-2.121387039492894,6.688652398357815,2.364008900933938,-3.057905523996603,-1.0597522373226285,,
3.033355,28.102754866194303,13.426880497662914,-55.89171060751638,-0.1637783396465148,-2.679813070674561,4.106623823087537,2.168743776133569,-2.684123171860928,-0.8489560194524478,,
3.042853000000008,44.16759735110481,13.545446605800258,-55.37868062556396,-1.0180795461135936,-2.1195131786990733,3.220976888140919,1.7851218241333429,-2.568738077504493,-0.6481207334590476,,
3.052374999999998,55.89721359375219,11.938982968321213,-54.77421643521803,-1.7075544716705904,-1.000419923869006,0.8594378131462083,1.0486515415918858,-2.0618180653847693,-0.3973848647922112,,
3.0617759999999947,65.44365401385258,9.547468042359768,-53.615817874201774,-1.3481717973609602,0.7864863861451662,-0.487029702533197,0.7112587370300147,-1.8026294396069864,-0.1248661262989086,,
3.0712900000000047,74.0381705160133,6.892707829173329,-52.31136401455529,-1.7511201989075222,1.0506728582915137,-0.0198802249486567,0.6023972397322513,-1.6792329887028346,0.014697329879553,,
3.0807590000000005,80.71602308974616,4.6907069752437724,-51.08530785562669,-1.1384280131391125,1.0373825818095948,-0.8210857765163583,0.478910159987136,-1.3169435349311318,0.110333849140089,,
3.090291000000008,87.42483324688406,3.355108448173565,-49.49347521912811,-0.4986931365497262,0.7098713135235201,-1.1940614160520917,0.6506432836777156,-1.201469522829839,0.2241745971180685,,
3.0996999999999986,95.16456473744712,2.947198237134174,-47.78569342027545,-0.4433412892617772,-0.0549840584382484,-1.12136856849648,0.961266965887233,-1.2152168087724844,0.25627437630831,,
3.109207999999996,103.67211013687212,3.3533463889637307,-46.63429476942456,-0.1365127007520763,-1.1983971148137404,-1.634455637905316,1.2149350987926166,-1.1929140854491542,0.1365163994215885,,
3.118797999999998,113.8530014435275,3.916093956121205,-45.270338776820886,0.1001658773320199,-1.7140464306636636,-2.053284706734506,1.4950935767707692,-1.383927182882336,0.1431682885558913,,
3.1283439999999985,126.29148222153889,4.165322289580351,-43.99622686815468,-0.1982607949175822,-2.16762070296138,-2.5708839968676016,1.8025923093559284,-1.7097656113282251,0.0786538310333565,,
3.1378619999999984,140.80243658084254,4.3482554966134215,-43.8144697586782,-0.4385396246662993,-2.807114095629288,-3.77808520899232,2.112511167005596,-1.9827188076419435,-0.1794313592203774,,
3.1473670000000027,156.92000835130065,4.355428294163229,-44.73255044660687,-0.7281115966454782,-2.659401527368773,-5.315361839743811,2.304693414210901,-2.244995828591706,-0.4274658506713938,,
3.1568770000000086,173.82641176038382,4.357983062202422,-46.6660130657012,-0.8067678865313377,-1.2794700697529102,-6.41844139103573,2.3575592008044333,-2.4150934373262385,-0.6414578806215488,,
3.166564000000008,-169.02576160714156,5.30874028177033,-49.31836117672081,-0.5321281646004945,0.233341383143499,-6.421203931968424,2.4300396646102493,-2.4156435907323206,-0.8163761283658753,,
3.1760730000000024,-152.61971134916448,7.215125002982183,-51.94500763940021,0.0402037704003836,1.692865108598545,-5.754209528158321,2.3645243244327485,-2.2839513860455325,-0.8805547731310556,,
3.185412999999997,-137.28053706375167,9.071355320161768,-54.28331124288508,0.0297578781497164,2.427120228327365,-3.52421618359167,2.1206280902378647,-2.2100778375175465,-0.9003661127709552,,
3.1949240000000003,-121.19634574650756,10.6170076446421,-55.96711671860513,-0.4804613912327062,2.379213550503818,-2.578178739128336,2.0667103711715256,-2.4274240887968297,-0.8854720419320308,,
3.2043600000000083,-103.76678251569096,11.451926780438932,-56.68910181158586,1.189894246313239,3.016128858863118,-2.831012244558844,2.037165145240517,-2.7585681954085777,-0.8113467386133716,,
3.2138690000000025,-84.68170105933568,11.0522994771269,-57.19047180439793,3.2041294324510137,3.43320503144641,-1.5693410515152844,1.978094759432208,-3.1843099843602176,-0.8451073898265464,,
3.223528999999999,-63.22973075718127,9.60140010030844,-57.6207016407254,6.566073514237061,4.313253278748715,0.4296502590125663,2.034562048373704,-3.715060252431637,-0.855204843070107,,
3.233027000000007,-41.54843839798854,7.589174872163248,-58.433446443199486,7.217508220738408,3.330860428866339,2.5893044927655224,1.9355761015176287,-3.8526991513101976,-0.8097311101475341,,
3.2427590000000066,-20.013162911411023,6.375739956764907,-60.27708253757076,5.066732246208387,2.2337036885911874,5.475036615831682,1.975545428236981,-3.805635579033477,-0.8890979544320473,,
3.2522620000000018,-0.0161413799470548,5.674841412449528,-62.01343514877432,1.6899670330803125,0.3748954006153073,6.913604909355018,1.8003663621744563,-3.555359056771464,-0.7645023841746614,,
3.2615940000000023,18.15778877221189,5.553420080256267,-62.684883550834975,-1.2264822909110251,-0.3008944092310574,6.149726079058962,1.6595277308256575,-3.219501211046959,-0.4893513359884309,,
3.271108999999996,34.494417622557734,6.057633104639602,-61.86806132235616,-2.324882008021304,0.4183141693480243,4.121460638996681,1.602779835222795,-2.834210131969001,-0.168455890045461,,
3.2806110000000075,47.15950576893202,6.3390861165675325,-60.12079685197641,-2.580520304651273,0.8550155064590405,1.540738299104848,1.2716298881692971,-2.1777193235336703,0.0746239390479584,,
3.2900240000000025,57.51741905259366,6.273704595241449,-57.79506982774248,-2.0207899573930206,0.8600453095706205,0.004550428054726,1.0518958757171173,-1.772948136125834,0.2366181814867798,,
3.2995379999999983,66.89667108259417,6.168189070816134,-54.8854041524116,-1.3220734620136134,0.6759571515697638,-0.5043461602258678,1.017327188083052,-1.565635145963208,0.3778298139252614,,
3.318506,84.3802790576861,5.77232624030532,-49.7548319490895,0.0666439705373594,-0.0588783739245162,-1.28445250061578,1.0769293587380102,-1.3992493592278654,0.2655059337272029,,
3.327965000000006,94.47489699434244,5.545898479000089,-47.968837017972106,-0.0986044787729506,-0.9830606408493656,-1.1559221626634235,1.289135125277242,-1.5444407431411191,0.1574159179328369,,
3.3374529999999965,105.62847227200476,5.367305801026905,-46.54884742225335,-0.3875858245908586,-1.7185779426201238,-1.5763126694700194,1.4825124875084563,-1.656738818188466,0.0711078239416739,,
3.3469690000000014,118.25458801359724,5.185206536975121,-45.69722547262801,-0.6388529869074424,-2.3871426665711675,-2.2753709698690807,1.7184384726190969,-1.839525860406352,-0.0626022421765617,,
3.356550999999996,132.66198988591745,4.909837753957436,-45.37231089376072,-1.008339391551944,-2.9587876491279634,-3.19267829879228,1.9734130724096408,-2.088896131204927,-0.1890429428754589,,
3.3661069999999995,148.34606377612238,4.524861007496177,-45.55330840277936,-1.216644101536968,-2.990768206470411,-4.784290938693258,2.1401349201268904,-2.2842247294511817,-0.2942327311429144,,
3.375798000000003,165.05393065912546,4.162422603972157,-46.343685361980455,-0.6960821138865875,-2.3479919343595723,-6.32974121980742,2.267193073052615,-2.447179882311924,-0.4104678638060983,,
3.3853069999999974,-177.33228117265335,3.902436439579053,-47.79169581368417,-0.1785975915397794,-1.1433237570530137,-6.718128397151797,2.3581059375775104,-2.610582953983514,-0.5356258769584801,,
3.3948230000000024,-159.73534659021792,4.238036048100921,-49.77482915011487,0.4372715389080465,0.5007103504672303,-6.802498245191798,2.365700404580124,-2.599483340934356,-0.6440144482842969,,
3.404145999999997,-143.0337695974244,5.353204467177406,-51.813783565030896,1.016746001909988,1.993844249212806,-5.642275900989834,2.278194564971391,-2.4418902977039383,-0.6848810458707829,,
3.413671000000008,-127.06882633427584,6.725819534712441,-53.66783164877976,0.7476050135275321,2.5301318735224814,-3.596561145338033,2.141940342966057,-2.364659933759317,-0.7050888639931467,,
3.4231670000000065,-110.64993336672416,7.866832315866723,-55.28356134996433,0.4642232994972574,2.745630710085339,-2.804291197636968,2.07949276888041,-2.522063621865354,-0.7387606468612496,,
3.4325560000000053,-93.28915931745108,8.327096613201247,-56.62429162190889,1.5432041527150455,3.246315846373707,-2.273215252552578,2.002601600971497,-2.800374982598344,-0.7559844499776229,,
3.442070000000001,-73.92723441200637,7.899317481237655,-57.77910101570223,3.955648480837539,3.940905556848555,-0.550062539872558,2.0078122206267333,-3.272293167792877,-0.7761879207604498,,
3.4515829999999994,-52.37532388442895,6.607492807817768,-58.68023386294341,6.611776032718825,4.322312940321413,1.825487708172772,2.0368175496676346,-3.774339008406191,-0.7232209221641294,,
3.461498000000006,-30.69129667166328,4.846003284106979,-59.86462224900935,6.357883777233015,2.9930313611587684,4.104366823878996,1.9081922121011283,-3.892328288207002,-0.6676369548639445,,
3.470825000000005,-9.17658837577672,4.007608912680828,-61.68094439980595,3.2568203979518104,1.143097671375008,6.524596955450994,1.9528038886963777,-3.830033328884266,-0.691962135980184,,
3.4803440000000023,11.562540806109816,4.5047728482494005,-62.99330701913899,-0.0971250319549893,0.2702580454025729,7.210679583505598,2.010137431971015,-3.622686473875352,-0.5681350389082727,,
3.489840000000001,30.54527165141346,5.4042404036429925,-62.89785602746751,-2.3563801452612965,-0.0908645420481218,5.948005428178586,1.8814238424407408,-3.291466959651411,-0.3093683206157979,,
3.4993550000000084,46.29112095135943,6.299654720359101,-61.24501795057477,-3.330520369265652,0.0214938513230186,3.279322968249636,1.626477356648102,-2.6876995973645865,0.007391010156892,,
3.508864000000002,59.34995993874692,6.778700112430137,-58.41566727387199,-2.510644087083928,0.6542407011893582,0.7287099405421383,1.3882014035320742,-2.197881825384897,0.2663114984033139,,
3.5182020000000023,71.0873281231994,6.54035328802619,-55.30925169174463,-1.7665550190147796,0.3075812582674892,-0.1444482022460242,1.236314005892282,-1.9806367206850568,0.3473290558496367,,
3.527744999999996,82.11911460263767,5.831835989351243,-52.34579076041668,-1.0478496062066225,-0.2473506409402424,-0.5425969882751329,1.182017220676397,-1.8561532996462755,0.3535795297652761,,
3.5371839999999963,92.89551438748506,4.899581317473508,-49.90715702831136,-0.367928223373686,-0.7369949134297351,-1.0754655041800432,1.2033682466381908,-1.7892318456681704,0.2851338829228927,,
3.5466870000000057,104.83164757154834,3.862042201396848,-48.25129612624399,-0.2214253274150801,-1.488347633117099,-1.4469744377389226,1.4043728863997618,-1.9360428474123272,0.1478542489863314,,
3.5561969999999974,118.77813996802227,2.674555631468067,-47.202831487502834,-1.113505303467541,-2.5994260644821297,-2.0855366252516734,1.700075756688673,-2.221858380170318,0.049746726906312,,
3.5753190000000075,150.80485252317902,-0.01104220904825,-46.96626516763485,-1.745738205823568,-2.7596043354628894,-5.318614846284167,2.0872548416473533,-2.621038653087213,-0.0827085991823051,,
3.5850190000000026,169.12438870108934,-1.3968246716086978,-47.74025020219548,-1.4060398573442334,-2.1860288290023244,-7.382816964212736,2.282034440108552,-2.8837543327695365,-0.108595727256024,,
3.5945370000000025,-172.04745445485858,-2.488877686863643,-48.939541913265394,0.0682348137763108,-0.7094912829824059,-8.276211339554091,2.34206505004883,-2.958371346132852,-0.110199777083145,,
3.6038580000000016,-153.16266504760074,-2.750456877980545,-50.30632339510275,1.8907013312822505,0.7042703450877207,-8.13366012134189,2.406952479072783,-2.910540318302661,-0.0984156087385957,,
3.613377999999997,-134.93393409396066,-2.423159803028835,-51.65979350061957,3.229948789260498,1.9248867387715825,-6.888001259749272,2.34553793598505,-2.791467428473778,-0.1040140467381816,,
3.6228920000000073,-118.2781928201793,-1.863812269614967,-53.08251847252205,3.062994306337372,2.2733603747860207,-4.212941507443844,2.122527809305473,-2.571058756227697,-0.1581325025076294,,
3.632306,-102.41844181749282,-0.9622563080875164,-54.52743990301972,2.084301985180365,2.019978634694421,-2.603814381858612,2.019344674258689,-2.4557496775821184,-0.2091315441696467,,
3.641784999999999,-86.95222410559407,0.3349254019759816,-55.95448841729951,1.816377362895496,2.293789170547935,-1.7401624072031636,1.9776264667031351,-2.3968467563311133,-0.2669898276684428,,
3.651292999999996,-71.31240703138953,2.031115725480414,-57.410390082695486,1.8298209880474463,2.922652578985143,-0.3054717847991579,2.0019112724754216,-2.430959506559061,-0.3542800602104641,,
3.660809,-53.21255831153539,4.08182179446842,-58.56914941031962,3.6488131293201578,4.627955784654021,2.3605313400572805,2.2638636796513865,-2.853165352783576,-0.4232566096899686,,
3.6705479999999966,-32.618994529221006,6.282630402915077,-59.44099031247131,3.8396752105878895,4.903712679706072,5.053081925870167,2.488815081332396,-3.2962774683446177,-0.5451192282804487,,
3.680050000000009,-11.948989585765473,8.239210792329684,-60.33446998051215,2.618043691840871,3.0709056103865424,6.640481892011166,2.395425320970272,-3.3577537200896432,-0.7001093763141674,,
3.6895659999999992,6.579991574802791,9.675334834995494,-61.5270991378392,0.9512289028651326,-0.354095962462493,7.107769991656348,2.0301960837602264,-3.065369276337208,-0.8144755376884961,,
3.699073999999996,22.4349517586522,11.391858096219966,-62.64922061513381,-0.5857721343851919,-2.682042485350654,5.241474534007953,1.7632018477701306,-2.5987876601113444,-0.8037382134195595,,
3.708590000000001,36.12222572322069,13.139441170619625,-62.80817059344771,-0.998514772305435,-2.099339397640651,2.655216349224263,1.5368238446601414,-2.2210778759853573,-0.6140087906297527,,
3.718085000000002,46.52239709255136,13.159680412245748,-62.41640662711312,-1.498564920943113,-1.1073446574979928,1.3991171344277804,0.9364442159973184,-1.7987275600485644,-0.3955257667349746,,
3.7274290000000008,53.2263816439166,11.371173258888325,-61.569175474255125,-1.810703628022346,0.2651761347086591,-0.1941181111089389,0.3001614236925944,-1.326119501464655,-0.1156908674629138,,
3.7370130000000046,58.31795240765975,8.656968931758197,-59.752056883332514,-1.5696644032796974,1.6567706338931358,-0.7739590889807108,0.0185179260674617,-1.1413879225430033,0.1863340637201907,,
3.746526000000003,62.194305573969935,5.759481804109132,-57.215426635901046,-1.3739433144799205,1.6815224804839592,-0.7598311368559757,-0.091825245534599,-0.9597103221538288,0.4103099071314432,,
3.756027000000003,65.36136246182117,3.4732122963915173,-53.79658550151984,-0.3143047954683719,1.667269439592427,-1.512041871480353,-0.0191795890052261,-0.7802326339026726,0.6333363232805719,,
3.765504000000007,69.42045122392713,1.9188717801478896,-49.96932515889878,0.491976453133101,1.3255929929957544,-1.6223311496670605,0.2564900656251867,-0.8308527254768935,0.7278084439309735,,
3.775014999999996,74.53338855460733,0.6769304191936879,-47.20354795551824,1.3122823942579611,0.3918814711947391,-1.7174647742379583,0.490749780213997,-0.9320077778347314,0.5302746725512222,,
3.793959000000001,90.87406843914124,-1.6687683966834537,-44.30818485375782,1.7810988176227072,-1.0963530950832905,-1.516282236162123,1.2099301438505166,-1.55902547921689,0.2827713051657301,,
3.803459000000004,103.6147085419914,-3.261686131038528,-44.040135303868304,0.3107858526233831,-1.9846911247604584,-0.9204082975858312,1.606535767178385,-2.0037842416567506,0.1632148673048524,,
3.812966000000003,117.922991646595,-4.895833073760707,-45.24377889932499,-0.4127450919830284,-2.4746279683052506,-1.8547402282510923,1.8043051432295456,-2.239461073076052,-0.035961491166249,,
3.822609999999997,135.19515799196833,-6.446834028121876,-47.27314047249263,-1.76389790112609,-2.761776766286843,-2.930301088520116,2.156347984693272,-2.69906457024642,-0.0615425692240467,,
3.832284999999999,154.8451105675958,-7.099840490377827,-49.93019046528963,-2.818519878665005,-3.0495427514389104,-5.179764131792648,2.485875515993137,-3.015663805438136,-0.0629327122577173,,
3.841797,174.50902602361458,-5.978930703738628,-52.58069132151056,-1.3965077002811666,-2.1286065366271885,-6.483859192645213,2.62080401624417,-2.91098654068919,-0.0772431486956853,,
3.851130999999995,-165.7224587539876,-4.021601674261402,-54.371564631731054,-0.2725950410750818,-0.9216899120744818,-6.039940675966079,2.65815755626478,-2.9371389350296804,-0.010050816812744,,
3.860642999999996,-146.205782994868,-1.9640845071609347,-55.240962487405234,0.4987506385827686,0.6051415663394109,-5.836660937033907,2.5822351753698567,-2.953438552139997,0.0316687117669186,,
3.870154999999997,-127.769957691907,0.089740083574114,-55.3110760236446,0.4070880958250231,1.6246880572455964,-3.25961921939813,2.4372601878265137,-2.800944607044688,0.0465150684969394,,
3.879678999999996,-107.21502468990704,1.9722212167416264,-55.18609079876259,0.8969610369907397,3.3060152249053014,-3.368273209577065,2.651806948709089,-3.1681765741183683,-0.049226525422608,,
3.889070000000004,-85.42285506680413,3.584268728177232,-55.33774764923109,4.2998900939761375,7.455653593719356,-2.634390983552318,2.7454313417142315,-3.399625209962275,-0.241427278813936,,
3.898750000000007,-63.66046226636112,3.8185733952070433,-55.94600544980107,4.769845051532011,8.561573806136693,-0.3597250353938204,2.492362647683497,-3.5635485571925467,-0.4016210630778142,,
3.908268000000007,-41.99543741462007,2.6136482341086835,-58.43097508229846,6.410969809148075,5.178000605253623,2.446140821337211,2.1470845203940585,-3.770058365724825,-0.7350323206569571,,
3.918002000000001,-20.35196303842213,2.713094715384765,-61.93181821612144,5.644429781736597,1.1524431706455451,5.404029837275127,2.170405598653007,-3.747213901267535,-0.8940208288838103,,
3.927499999999995,1.3170218550802395,4.150862952008122,-64.16788687535986,3.049275008319483,-2.164384150243376,6.817852384841551,2.2169834353763496,-3.7326834150129735,-0.7021341485878921,,
3.936833000000007,22.74793767733934,5.854162537435706,-63.35997311077792,0.0001169266077961,-2.586677036501487,6.443341864551065,2.192294302576182,-3.685715086783649,-0.2143627506313823,,
3.946342999999999,41.79266503814588,4.861850070652547,-60.06029280014731,-1.8169040927346265,-1.2024365658468736,3.3729780123475765,1.6261676618804233,-3.4366859062525137,0.2985599286079714,,
3.9559330000000017,58.09182729622798,0.3090420555979458,-56.53985316327316,-2.9496496104624006,0.471932915266659,1.5925639529407571,0.9433760604198028,-3.250767907615065,0.5526466899293813,,
3.965255999999997,72.43567888933674,-5.97993026736746,-54.13658589049918,-3.182806767002884,1.8601438239943853,0.4826173295202627,0.6019214105689291,-3.0734464331308007,0.6205360058808409,,
3.974722999999997,85.98766774384549,-11.595555670440504,-52.68256894447735,-3.1678427011002177,2.135359221185981,-0.4782495340704247,0.7004999000624855,-2.821396956395368,0.7044353359420431,,
3.98424,101.0489044682728,-15.044882614925829,-51.62045717825152,-3.7684967050870695,1.028629931526153,-0.9156736951842084,1.2585967567501977,-2.739081775642856,0.9063804813651892,,
3.993763000000001,118.06857726165568,-15.68587609762172,-50.88931097814272,-4.232780523774542,-2.2954520568600145,-2.0138118941473766,1.9571695586144573,-2.6425838370928934,1.048298479178274,,
4.0033030000000025,135.79891339586297,-14.467314090324535,-49.06815006403311,-2.743039151752173,-5.137344443215136,-4.213861283617929,2.3901152345688232,-2.46970255708826,1.2852183464348277,,
4.012822,154.02718367108304,-13.864696397511237,-45.60561165718947,-0.6314416943483013,-5.169564346538661,-5.651471886319361,2.4871520279241706,-2.5220676597064977,1.580883315765396,,
4.022317999999999,172.92749121674032,-14.364820587737643,-42.395588184832576,1.2552284756913736,-4.140220687237018,-6.846414106123867,2.571863924176841,-2.6217007456034382,1.5599570522113324,,
4.031834000000004,-167.60980205348588,-15.097607560225203,-41.13142554757879,3.479641561878624,-2.117137437126034,-7.947416603772037,2.714304240130169,-2.618644332492442,1.2415704828435092,,
4.041335000000004,-147.64726753595673,-15.801113343386817,-42.82017667794442,3.864321342880225,0.4373208082043834,-7.422697140294816,2.76978740563583,-2.6793004358406307,0.7295619313891142,,
4.050853000000004,-129.3020907035444,-14.957667134344986,-46.79480819315135,2.6505360286801327,2.284237368240122,-4.875457422677637,2.6296096975928847,-2.375892156441495,0.1845149505031122,,
4.060359000000005,-112.40071403355854,-11.495661873024488,-50.61865380500949,1.4083722294662335,2.9040519136804224,-3.031164401427019,2.690655554891843,-2.020562302692286,0.0142874189342483,,
4.069754000000003,-95.61198905094516,-6.5082818159839935,-53.155642451449154,1.5417532565198833,3.777867598569657,-2.885446197481387,2.82964376176682,-2.000642458322538,0.0221822142187773,,
4.0792670000000015,-79.68716527008536,-1.582442306780322,-54.85386440621239,1.61055451790833,4.855993655990671,-1.4085685729388544,2.662712106316328,-1.9979904314681445,-0.1124618395054435,,
4.088778000000005,-62.82013360523073,2.226795721178763,-55.84304245709594,2.0040601818605115,5.330115961115768,0.4384079443596378,2.5435661350761394,-2.348115985919802,-0.2154276807898144,,
4.098469000000009,-43.291014141988256,4.142557691063259,-56.640520146436,4.223845821629449,5.392404706239005,2.849304501161665,2.485661592546961,-3.0351917706667138,-0.3753224715973387,,
4.108196000000007,-23.76522273871616,4.3466681084240015,-58.62004849013368,4.626779938069706,2.7879028026646973,5.367391239985896,2.122017897958134,-3.272005648365606,-0.6819271704335677,,
4.117705999999998,-6.151195690244846,4.250944358458109,-62.230495404176615,3.308765342617697,-0.9104605092972702,6.614428191224151,1.7199348103639185,-3.0692444137948725,-0.9816417126458964,,
4.127032999999997,9.38806106519688,5.079968826569278,-66.28260154923868,1.522931746179887,-2.8876333962668244,6.503702696987335,1.4961932420100994,-2.722872413457516,-1.0594967287489832,,
4.136547000000007,21.128755529003698,5.84585463096486,-69.28720713045357,-0.606560884605661,-2.750452594194136,4.438562095626135,1.02652811245999,-2.109312565756666,-0.8233472180517742,,
4.146063999999996,29.27731650795332,4.835162648822307,-70.44180164291602,-1.6197194458881508,-1.0504152267557376,0.5393887713301064,0.3695706667339148,-1.5949770055269583,-0.3826470760093342,,
4.155652000000004,36.198706501111246,1.7878230540574356,-69.33772988738473,-2.364436575580754,0.9383674833057504,0.5148218978766118,-0.0965180338729986,-1.5089971666250983,0.140733837150064,,
4.164981999999995,39.9727281547597,-1.7586838438076635,-66.37906909748231,-3.22328452949362,3.795877014350214,-0.0352869644119639,-0.3726895408401821,-0.9677491991413092,0.5918845704143294,,
4.174487999999997,40.573796421676,-3.661712384799874,-63.12996122523391,-1.5672983607853757,2.581570661517061,-2.055146163318832,-0.293378735204605,-0.2712844166943181,0.6562316905600251,,
4.1839980000000025,41.78683778643149,-4.395810865703661,-59.11878652883199,-0.6043831589112917,1.1876058968100118,-0.5145787460339581,-0.0116360670101403,-0.2831882536507419,0.8202043954413897,,
4.1935239999999965,41.93460744624536,-3.860150261694783,-54.14618093642242,0.5143455243941505,0.956062302284724,-1.3055393783766942,0.1059409254842885,0.0344120547365017,0.9977967763922344,,
4.203097999999997,42.63898425537399,-3.5916531206780897,-50.11474724814577,1.777911326218607,0.6117334468648142,-3.011209509713269,0.1289410552915162,-0.078069963476305,0.816386799753267,,
4.212524000000002,45.8841355499366,-3.90509540164204,-47.57567712896278,2.3691402057805844,-0.2473818127065083,-1.790864674267696,0.3795559905098614,-0.5295281981949211,0.5507691728372028,,
4.222041000000004,49.450716089210914,-3.9128329670312114,-45.99479094540936,2.959456447506649,-0.5217497047154113,-2.448541302085342,0.4867961646372659,-0.5203257295395742,0.3651386131742095,,
4.231516999999997,54.62161548100439,-3.9767893932678975,-45.64121622998121,3.3355354657891887,-0.4868255675005584,-2.9583966789643044,0.7107349243097246,-0.7496755436654515,0.1419838271649821,,
4.240948000000003,62.041182534876505,-4.443132296001572,-46.67894047799268,2.6169606552580587,-1.7028929201030814,-1.6410565669334525,0.958966886523242,-1.133283036447854,-0.0984294841717775,,
4.250453000000007,70.51284914477763,-5.00209333973919,-48.14977435571395,2.0236682089937603,-1.6832637876449317,-1.5249513995771102,1.0616692308398994,-1.3203083539000982,-0.1543121341120091,,
4.2599560000000025,80.5530604397169,-5.815056409434448,-50.14030998063177,1.4408815023274828,-1.1700486611700027,-1.181385103471425,1.1863196871426738,-1.6200235368851614,-0.2080581987353038,,
4.269473000000005,91.96947143745813,-6.740979013383855,-53.32054573681975,-0.0479231539461351,-1.56956560629806,-0.7190000434205337,1.262111333561098,-1.8983935159130287,-0.3847283333071933,,
4.288495999999995,115.60378335044494,-6.979629926185066,-60.98663781168025,-1.829285916449823,-1.078978768069418,-1.28772438856271,1.2483315068672736,-1.9870757099117875,-0.4625724278697686,,
4.298006999999998,126.09678561936522,-5.71860264681704,-64.42761739632263,-1.9058787729129776,-0.2391673432500175,-1.2228413311425974,1.1811242695566522,-1.7400695054268238,-0.4547802795860051,,
4.307722999999996,133.55788827095108,-3.589091834340764,-67.15617682913108,-0.4515174599053722,0.9052259839340636,-0.1846009725314139,0.998882273067437,-1.1833844420949708,-0.4243543189850849,,
4.317244000000002,137.9712836128624,-1.08682259481523,-69.01414104296221,0.816351118022274,1.7444582220795375,0.9935647831733452,0.7941419982026384,-0.6321822811189549,-0.3357762864199364,,
4.326761000000005,140.0523194775342,1.4802941354397394,-70.311840353004,1.4611308191497738,1.992430730506616,1.5783963146856412,0.6267531420139737,-0.2120442805264604,-0.2612456933755224,,
4.336265999999995,140.03960431142065,3.682144993449652,-71.39164501290077,1.5937948152763173,2.156980313968192,1.5506536344535553,0.4156732381146403,0.147024758318804,-0.2161111616472886,,
4.3457850000000064,137.90733258564904,5.195337731033604,-72.56605426945518,1.0752781505031044,2.711145488334017,0.7368306549621386,0.1564279890746194,0.4984462671387089,-0.2021060722385438,,
4.355109999999996,134.79175086501434,5.9010078707191,-73.9572776072047,0.0612692216966831,3.115265929384364,-0.0845827248740142,-0.043532211975448,0.6351807003519667,-0.2182009715591415,,
4.364604,131.1128524652957,5.524945263173528,-75.03191861447915,-1.4559461328595875,3.490813892277949,-0.0801609684633791,-0.2684751802559502,0.6860378306713222,-0.1417684522943088,,
4.374125000000007,126.03206427917806,4.166331507022907,-75.0727669187721,-1.068854194501418,3.4732732472424264,0.1638100341888569,-0.5241116042569229,0.9091201589821436,0.0777893418030701,,
4.383717000000004,121.13582200047142,1.8108919553203788,-73.30823899924137,-0.7527932290928991,2.96407529234564,-0.2270680252477064,-0.7202497064471896,0.8135621472043248,0.4042170952336881,,
4.393234000000007,117.51222540684506,-0.956145728062467,-69.95765020419589,-1.2487160087015858,2.079500776827446,-0.4158136741911414,-0.7543176915528186,0.5141101921952002,0.6760131039891746,,
4.4027400000000085,114.22182921730383,-3.157110663664933,-66.1948922266264,-0.6447839777163984,1.0912637903698723,-0.3724779016701293,-0.6545737496032917,0.4463523178162938,0.7295300872677157,,
4.412452999999999,111.69434898040625,-4.334496558356789,-62.93786814044404,0.6890492376202867,0.4229809769587457,-0.4474358724897734,-0.4297021416076632,0.3548464904351889,0.6189995918509295,,
4.421763999999996,111.29445658782318,-4.530611152201356,-60.537778248023386,1.2664584963140535,-0.3473937098778683,-0.4493200344188793,-0.0723257716072309,0.0517432463910721,0.4743894266375829,,
4.431194000000005,113.03795191037251,-3.984677672168184,-58.77859567682683,1.204950969813528,-0.5100329329618126,-0.3990789008202666,0.2702399972676515,-0.2451808426838055,0.3781165521715278,,
4.440724000000003,116.79213735255522,-2.66749467882004,-57.91786561561506,0.7902776161964452,-0.4584227334603407,-0.6097793380877489,0.6182289028222515,-0.5003691284634872,0.2158534510041743,,
4.450227999999996,122.63259675319792,-0.7475221830138181,-57.79202289138145,0.2695231654449351,-0.8956715583998509,-1.343413458032049,0.9471328438173284,-0.785237611455462,0.0599703157634217,,
4.459804000000005,130.9399968423288,1.015095529793845,-57.51716314225296,0.2069878258244446,-0.8572598162327225,-2.064133015245788,1.1875205617000408,-1.2166046706248406,0.0510145040502949,,
4.469307999999998,142.28385015508343,2.1716967132805984,-59.08858316414471,-0.3356359502112085,-2.019941682871179,-3.7858827158732193,1.3582674688761016,-1.833540283977079,0.0116557148003072,,
4.478829000000005,156.40951471542346,1.7086320179006704,-58.66427121090412,0.194112657675281,-3.815687540446228,-4.759449835806973,1.381840176716799,-2.4670533555921392,-0.011202163867629,,
4.488333999999995,171.11788698486967,-1.41427902962342,-58.78535263375636,0.7932107345242019,-3.939661933169028,-5.080428189315887,0.9972264992607376,-2.8397152481306582,-0.0316663796763631,,
4.497764000000004,-174.9090154231945,-3.342283234735411,-61.11361862002337,1.6396499916079623,-3.2046759984912465,-2.5440990870301965,1.0671155256638334,-2.611700602191822,-0.3477756367689936,,
4.507343000000006,-159.89490886033715,-1.0504602139374564,-65.36583076570189,1.3936326648192878,-2.913128282806533,-3.355328225243248,1.7601672174945855,-2.476841670033243,-0.7312028022792759,,
4.516866000000007,-145.80558840780256,3.649500477428274,-70.46273658750225,0.4047353068667759,0.1362577927278491,-3.574676698750681,1.92901860456366,-2.2623472978560843,-1.078704361861914,,
4.526292999999996,-133.34722624545716,10.216179356522671,-74.50875946224387,-1.3009408411834316,3.4592538702331965,-0.6219744213546268,1.9953650937911245,-1.9688996339090616,-1.1071392145807093,,
4.535803000000001,-118.19078012076072,16.55106442610212,-74.09221238995863,-0.8691753913323742,6.581144197224579,-1.2289771198356427,2.013169550759314,-2.501874639677696,-0.6196792668630782,,
4.545319000000006,-102.22108444216686,13.879598657951824,-70.88468864526497,0.2583197124027874,5.271830519485921,-0.5179347226048695,0.4213473598676807,-3.101700206553363,-0.2010288789056181,,
4.5548530000000085,-83.86004465888054,6.579720939241337,-74.01290868427174,3.989001676514191,2.820698298770248,-0.5038173255590491,-0.2900836225192284,-3.890129863833361,-1.2738240786884056,,
4.564373000000003,-63.2102499162016,3.1378865783576004,-83.16027539302426,7.332457478464991,3.3687861978394285,1.5932078862370929,0.1476020134142717,-4.179885136617897,-2.161525570910344,,
4.574061,-43.77587873221323,4.562670304855964,-90.06243894635067,4.944244324842741,-0.1694578587865427,5.334638128621027,0.512150849594209,-3.8624923396893966,-1.62989813727481,,
4.583608999999996,-22.71888991167365,10.252754226019263,-91.50035944289034,3.429006466576468,-1.3658482339007367,4.907387419910627,1.0695612640941894,-4.198540801933192,-0.8282339725860222,,
4.593112000000005,-1.6328493274043652,15.859375037736523,-86.10725962406183,2.066749025681111,-0.8887065567200314,4.931746228498465,1.1953327567248653,-4.089616388333979,0.1131022198916483,,
4.602629000000007,17.205357380205815,15.810914939649017,-76.13303442184639,-0.4375365408934362,-0.2177936185112544,3.197459898689073,0.5507470601469765,-3.5868772682084176,0.9510348747888616,,
4.612144999999998,35.648701306707146,10.3875970322709,-66.23900430735388,-0.5892687460905799,1.7053068803578466,2.506358460541879,0.1415160035352479,-3.7539350849438544,1.1261337904310482,,
4.621652999999995,51.810785120890586,2.6151587632373987,-59.68656717580165,-2.6041183130706616,2.498374936590324,3.7096568303515673,0.0857692208200643,-3.5698008088874844,0.9348856436611231,,
4.630994000000001,64.30689732421338,-3.703128229264841,-57.19066540959248,-2.615348229853468,2.7714078902997943,0.9459377847324216,0.2365120082323823,-2.79281504966008,0.5212059013875509,,
4.640498000000008,77.3350735232188,-6.080338339359767,-57.06307239381573,-1.434467232740016,1.5971689535296334,0.0623965703761351,1.012753578046744,-2.440342838482112,0.2479540946401738,,
4.650067000000007,92.04690402377834,-4.735408202291708,-56.79349505879735,-2.1603673478156336,-0.6486720846217916,0.3849133936064388,1.8247350133661475,-2.311304026426968,0.3312629333982882,,
4.659402,106.39004215271989,-0.8533378841587483,-55.29876519819519,-1.5898239307713808,-2.4323941719432067,-1.0139054901066342,2.243915168387987,-1.9477867265275888,0.4375539555913906,,
4.668900000000008,121.6918221813156,3.4311369483327985,-52.26681761779059,-0.676817074426539,-3.657154677575473,-2.500219939887204,2.498363361787751,-1.967714377908719,0.5341983161326771,,
4.678533000000002,139.0987507599725,5.944626912287923,-48.16665589336844,-1.120535492763415,-4.889624778208954,-4.867741874264342,2.606618807657504,-2.3497214616780897,0.5297308582899855,,
4.688223000000008,156.64568467034087,5.631030541655714,-44.655198065620574,0.3993834378034164,-4.058502321685884,-6.217814467186022,2.3644889100221564,-2.574227462779316,0.3434502140931503,,
4.697726000000003,174.21675000140897,3.40345737947109,-43.91522934621945,1.5969147336173417,-2.829006075194818,-6.134316614918519,2.2013450690737613,-2.7653049329101487,-0.1300532793089755,,
4.707245,-167.8378476100428,1.9692855806184004,-46.92364764403325,2.028321537512678,-2.125933377600404,-6.23649324775194,2.3164001903880256,-2.756398692477004,-0.7658373508535609,,
4.716572999999997,-150.6922602935381,2.915421149904476,-52.6339511501068,2.005482130714629,-0.6002667225955826,-5.487990359150953,2.3592939975108576,-2.4982334753025657,-1.2810925738272727,,
4.726100000000002,-134.2704887478657,7.101083374130616,-58.72170385373744,1.3947636735113813,1.3000327674007508,-4.660735004053544,2.536340478363557,-2.2374461637254326,-1.497077939887087,,
4.735605000000007,-118.51925841921584,13.861543533395189,-62.64496746160646,0.8425773305409057,2.941376860029203,-3.688353605796474,2.693459746148411,-2.047486777842997,-1.3536379620721026,,
4.745036999999996,-103.05412931008593,20.76310686276953,-63.75757515320094,0.4268450896729109,4.269368368254063,-2.09345198812824,2.560013677742924,-2.0210387990279592,-1.1429957767081609,,
4.754503,-85.71746289351387,25.197936953279925,-62.434865159331935,0.6249927062638974,6.967173187765559,-0.5568357401612247,2.231737964044503,-2.451148653706005,-1.092366567337864,,
4.773528999999996,-45.57644698498196,19.45441631474719,-61.91574906742772,6.422896988274516,4.746582484869578,2.648137027203401,1.1117649281164226,-3.8168815125584334,-1.8339495855037264,,
4.783263000000005,-25.34278957430475,15.469453105031915,-67.18049024959699,6.103322286163436,2.3444188593108444,4.905953619159624,0.9494633933387374,-3.834370081868815,-2.259799545267397,,
4.792849000000004,-5.923414883401968,12.60710897700772,-73.87476302282359,3.932293953586997,-1.6043943123931268,6.289163478255063,0.7235321081814263,-3.751534285231138,-2.27135432277732,,
4.802273,11.7990643159634,13.097595642118394,-79.79874518305688,0.1225086129238366,-2.410163558872682,6.734347778092447,0.8837002731598282,-3.3504203859577752,-1.966527521154208,,
4.811774,27.775769630090167,15.515455277764072,-82.6256293885722,-2.7167717977425725,-0.586147400194112,4.392983209533395,0.9493732856207004,-2.991590361853463,-1.3531533040665449,,
4.821114000000009,41.02287154411415,17.93698033766032,-82.07517297110124,-6.151147343832129,3.516580931649147,2.9504968416153927,0.8166220413533599,-2.45360287038516,-0.6538050907623827,,
4.830622000000005,49.35842795651283,23.28409296688896,-80.63208670726925,-5.786493218399229,4.301905790640518,0.0500198626285669,1.2916256219971431,-1.3842499089255298,-0.2996785829457253,,
4.840207000000007,55.35202553813344,27.454046482723168,-77.88846690983759,-2.123425631777476,-0.0346598275550714,-3.730012782561,1.0217851280580053,-0.9100433354075704,0.0341853264783734,,
4.849638999999996,62.74148976951548,25.63198732632637,-70.32042408300717,-0.2385473562069177,-3.1675152718604123,-2.788943342670572,0.0122659802938495,-1.372858795227481,0.8523829988698862,,
4.8592239999999975,68.28185651579619,17.43692070068728,-60.113623588661326,3.3072070750613185,-1.5206808653518995,-2.172205068305253,-1.0565176020211888,-1.626083598392522,1.6316713694856877,,
4.8687419999999975,72.34244097001027,4.4988311568973405,-52.40584784514067,3.5009966933949843,0.2014847743892518,-1.0805063597171165,-1.7101772856972035,-2.1046455936916924,1.3816156833296545,,
4.878433000000001,77.10331645349574,-9.374400767989036,-48.17305124404191,1.7057210538827503,0.0041324387416578,0.4120842138407192,-1.5262486263847763,-2.5088889641287806,0.8839748103322975,,
4.8879030000000085,81.92749430859281,-20.74998222868181,-46.01294213300567,-0.0458845588486627,1.3600987143289818,-0.1925987577590475,-1.0315765923464872,-2.234493769767356,0.6825949431316669,,
4.897231000000005,88.34616748044691,-27.19370542447024,-47.10132026344797,-0.1414942480151189,2.0457244419780625,-1.1090331146682255,-0.1280472317848889,-1.7393500818290946,0.3050513919003449,,
4.906742000000008,97.56611897357718,-27.409558631424726,-50.10634069474732,-0.6172131862084913,0.4207901436365576,-0.7426445957612561,1.0520196693028805,-1.2587912775210632,0.2460002267625929,,
4.9162139999999965,107.95454837127043,-22.602711924287856,-51.180820836966056,-0.2454686796673062,-1.1525908567201923,-0.662737537821905,1.9376570621849512,-0.8490112522027444,0.6648001748797738,,
4.925719999999998,119.93016272019342,-15.907354238223729,-49.34640371186396,0.3380805133677137,-3.000585393729906,-1.1545970431470944,2.4756190375209006,-0.8877501118003717,1.1566903963604094,,
4.935235000000006,134.22415319893318,-10.736783328730498,-45.48489038294236,0.5712431192133479,-4.546868530127505,-2.544059543577033,2.6447300016146174,-1.3545953835676965,1.4284432184312403,,
4.944827000000004,149.89516781382173,-9.056288833238533,-41.66791799088691,1.2750643654874063,-4.205172041348983,-4.383693081118317,2.47069241233558,-1.8889801791757603,1.2988270300717326,,
4.954335999999998,167.17731780277973,-10.313831444853133,-40.860790605990445,1.5928817260159691,-3.2946950421594714,-5.862246456318033,2.398870387001506,-2.4373065371368225,0.7424596726692363,,
4.963842,-174.9890452729806,-12.560768956997611,-44.50234560768731,0.8450860735603942,-1.313856756548166,-5.04381727912663,2.2695631504170697,-2.6999244273055765,-0.0154926579823921,,
4.973357000000007,-157.73650806784443,-12.67945106427796,-51.5850338173297,-0.1867134428681381,0.7987250431990056,-3.85574093001857,2.235643689386305,-2.5218606193873327,-0.6534136296556182,,
4.982866999999999,-140.6573911632696,-9.066452744578328,-58.927332230269,-0.7126381896838484,1.96711762383772,-3.850042761743092,2.5042799934444897,-2.3502799268799874,-0.8140082530201419,,
4.992379,-124.4147545479192,-3.339509348227756,-64.1135951725037,-0.9438945742142898,3.110806567999838,-3.33520725588272,2.5437664904425548,-2.299648969209882,-0.6790040173707549,,
5.001817000000003,-107.65519355248968,2.2312227993679623,-66.32133116394196,-0.9159925677861956,4.4334183898536175,-2.917804559789615,2.41268070372427,-2.583220616565355,-0.4058852287760664,,
5.011508000000006,-88.29560029222473,5.145262830474612,-65.08050301274295,0.8497322225778883,5.0415562858332486,-3.110255169774549,2.118522767533187,-3.2878321502682466,-0.0032279328159542,,
5.020983999999999,-66.87507518696044,3.218675024453276,-63.29543899683578,5.536107185624394,6.294217713946333,-0.9523476178885912,1.519244289084772,-4.016787389505906,0.0403882114288778,,
5.030298999999999,-45.08441774294689,-1.3887876846239022,-64.71551799371778,6.646535287552508,4.810199224265552,2.190913110715987,1.0934252663437474,-4.322009957628953,-0.3505663216579439,,
5.039998999999995,-23.21143672693139,-5.683754187080374,-69.25223193885226,5.459298227957494,2.3546686951718163,5.151476654318437,0.9278449776480184,-4.3570818352786205,-0.6267974189083565,,
5.049537000000001,-2.506635324711649,-6.876636717579643,-75.0938699532629,1.941081192080708,0.1811833017333619,6.535425189594073,1.0368842797921491,-3.9960646470878376,-0.703461749883786,,
5.059045999999995,17.252600014829177,-4.865429563253023,-78.93238796905172,-1.1008879907643438,-0.0038180374685285,5.6128059134540464,1.2730656767919415,-3.745847609399352,-0.3561822702265706,,
5.068647999999996,35.63057288499855,-2.5463179690827595,-79.28167891890125,-3.152311775410221,0.6173959752366729,4.0366047996925625,1.1461389604554055,-3.5194307358937604,0.1685223821054491,,
5.077967999999999,51.44768415077981,-1.74105634691847,-77.05611970833388,-4.328498599023646,2.2261728766440894,1.1242726445656477,0.8058693891944682,-3.0652133161634696,0.561234151985838,,
5.087474,64.675889243834,-1.4316731615363083,-73.79310073591941,-3.040161534843,1.46320733575076,-0.5007413943407114,0.7262060821803978,-2.5473777589541764,0.72376169539027,,
5.097001000000006,75.56393634380795,-2.959527136392392,-69.58793848008945,-2.072175163424104,0.0953394675444596,-0.8267499962294552,0.3950228899347028,-2.164622375651642,0.9229784765324666,,
5.106468000000007,84.55816554693612,-6.396006028823469,-64.63955810358651,-0.5844691202749053,0.175037724843283,-0.8911289060370254,0.0656109696887898,-1.921597361366136,1.1354760862247226,,
5.115986000000007,92.3527127235019,-10.845078658823518,-60.87947977452326,0.3457928813360723,-0.7642819649724202,-0.5772063930267164,-0.0843766100781477,-1.7798393737838858,0.9854697914444712,,
5.125477000000004,99.43556539619604,-15.356148771282845,-58.50858958427843,1.0378547404772689,-1.800276336803633,-0.2128084240909287,-0.0817045271734668,-1.6482517434951338,0.7955329619189493,,
5.134996000000001,105.61752411859368,-19.477494537649115,-56.81389686252254,1.5734781192591998,-2.801525118302937,0.2139833842936556,-0.0647342349671199,-1.4391934544184106,0.7095319507633829,,
5.144500000000008,110.60240638801328,-22.633370173772928,-56.03064971951877,2.074319762035405,-2.946049532620488,0.4800139203617731,-0.0109904926878626,-1.125405574307915,0.5153757608234913,,
5.154058000000006,114.21208730421247,-24.22284258310309,-56.196177845646666,2.2514100752803,-2.929062001899671,0.4079378752446057,0.1055680995544934,-0.7278853407451612,0.2542411434675464,,
5.163491000000008,116.6982068607684,-24.12170014688791,-56.639352828644334,2.0718327657819047,-2.279129922179011,0.1635229255877227,0.2680240154352771,-0.3670911971768041,0.115079586989097,,
5.172995999999998,118.3082313729942,-22.36645486847069,-57.198978589475104,1.5614369814587823,-1.4933460274480406,-0.1462417445967105,0.4561382476837478,-0.0563259712564122,0.0151347340909049,,
5.182508999999996,118.90875705135988,-19.51445561766432,-57.63644448677937,1.2064879639563628,-0.9483335834397806,-0.5816775323760068,0.5416922529402086,0.2129269918573607,-0.0446625115835937,,
5.192037999999997,118.69102932367674,-16.49167614512276,-57.6961853031488,1.002299702914567,-0.3891777334130517,-0.8296206343976293,0.4892821927956026,0.3587847028792278,-0.0254975863090847,,
5.211055000000002,115.80512501486815,-11.87871002915652,-57.47272738974664,0.9525107787424916,0.0151220275336982,-1.2573334753580077,0.135402809132277,0.5200698272327979,-0.0641115293376892,,
5.220556000000002,114.09405948979668,-10.76931157200647,-57.66539884674029,1.6768464954929303,0.3921609616538463,-1.1711245869212703,0.0073525773743238,0.4026383381421342,-0.1058686062561364,,
5.230058,113.69165279781728,-10.134108119122333,-58.84744942625854,2.4158311689094623,1.3538161787251766,-0.8307102235398837,0.0664566271483376,0.1342871699794474,-0.2513126891298167,,
5.239575000000002,115.4722222429421,-9.118805029078278,-64.07735861628014,1.8532570842584009,1.5107385443278845,-0.8818720657200779,0.3426506789212963,-0.2177835132323557,-0.5814693127123886,,
5.258583999999999,122.66411965970713,-4.825454963791675,-76.93312994828833,-1.7752868576805354,2.994310255281389,-2.0798386878371584,0.6903522409467184,-0.5825049828076934,-0.8555430743116524,,
5.268112000000002,126.0719788541228,-1.6640077641056297,-82.49204758334824,-1.6012044008579434,4.294369176956061,-2.0528122119142007,0.7360655021171614,-0.5683359532349972,-0.7341327814283836,,
5.277612000000005,129.29266089071487,0.7934904109067579,-85.85171806667486,-0.8439952701926238,5.112416140579111,-2.107035296741097,0.5458159298056164,-0.599918128369459,-0.318162216714454,,
5.287126000000001,132.9691360126223,1.57649249229114,-86.75153115297262,0.2045526954741375,5.396560966626798,-1.6269361273970833,0.1920643213882519,-0.7274564769180658,0.1788219168441978,,
5.296632000000002,136.79994009463005,0.8738481208722801,-86.66942156956733,0.2104143703941322,3.836309324614232,-1.9617526003773045,-0.1097807996356293,-0.7717881528678946,0.3976972312439371,,
5.306148000000007,140.1416960519741,-1.75051052623828,-86.5703714712092,0.5408278813037859,2.4323242579404987,-1.5392408113056055,-0.4976639473145166,-0.6899287431775167,0.4431651952206298,,
5.315652,142.86129297119194,-5.321493480006615,-87.26152787651033,0.9739500000710104,1.1512414820537349,-0.935391208523681,-0.6952265740242171,-0.5685179470115453,0.316510848981747,,
5.3251690000000025,145.5730535848644,-8.809534533469042,-87.00423331032934,0.4597682759339211,0.3116223534464377,-0.985764373471835,-0.6705168255103041,-0.5730889092656639,0.1183218431495019,,
5.334878000000003,147.97361165156633,-11.197208482601004,-88.05144211001992,0.7474605651137252,-0.2401635995548196,-0.4185887964835007,-0.4572186513554609,-0.4934705575747592,-0.1261004513452415,,
5.344372000000007,150.46298358273808,-12.252914125755686,-90.1008975806042,0.5703644814857678,-0.8353892061937774,-0.3835757276213858,-0.2035133778172514,-0.4912984359166107,-0.3089809026429189,,
5.353732000000008,152.67850894175433,-13.036125873961131,-92.20284584655792,0.4432931556271196,-1.618546210196142,-0.0965074939174768,-0.1655213647204575,-0.4295255589449258,-0.323693648109622,,
5.363408000000007,154.6027259560012,-14.956566355072567,-93.43765799313762,1.0274751584991195,-1.8682618977007528,1.049363696227097,-0.4024754601413362,-0.354403515275851,-0.1540023990864797,,
5.372922000000003,156.6143704818031,-17.486205791476806,-94.03329749942104,0.7296751476719927,-2.2231426870955207,1.4700313077037084,-0.5306326500991339,-0.3528758980062018,-0.0067115905376565,,
5.382434000000004,157.86803993852942,-19.267095524712005,-94.53248409524674,1.0071681315887782,-3.3273461267826923,2.3786362253871896,-0.373407892601715,-0.2108751579538339,-0.0208057811009539,,
5.391762,159.06678800915358,-20.386815923783228,-94.91520340878928,0.6379407820753643,-4.553593033082279,1.643980602138978,-0.2420511837460852,-0.2065131577470312,0.0047750394986674,,
5.4016380000000055,160.43791441844297,-20.43379149390824,-95.2932667567195,0.5108856965334563,-4.539807577868871,1.676126522571226,-0.0322592355868251,-0.2553841226117857,0.0200328178401815,,
5.411144000000007,161.6724755109334,-18.7859143577825,-95.79449195533742,0.7189284333112682,-4.012250584971937,1.405875994052158,0.3059372984644954,-0.2635972588062052,-0.0173934331177479,,
5.4204579999999964,163.4521446133551,-15.366581535234792,-97.9829639658144,0.333973299079525,-3.657184244932001,0.0953118136170914,0.6326278841772807,-0.4295981110678716,0.0034276878060301,,
5.4299800000000005,165.8736481451961,-11.217127482185347,-99.57119440084286,0.4057786087682115,-2.493788152144432,0.0404086623203879,0.7410503474138191,-0.6031033263004392,0.1011652377278769,,
5.439578999999995,169.05154306785963,-7.043714114786573,-100.480782286147,0.2200375964699997,-1.0560444585654845,-2.01876385596872,0.7035361381712822,-0.7731971117171436,0.2127176194700045,,
5.449069000000009,173.01736474844057,-2.5144776256624963,-100.94491644832792,0.3337232484349322,0.0741831694270582,-2.2924421853734995,0.7314321086781637,-0.9556388735430236,0.2697136656571949,,
5.458580999999995,177.82067277306456,1.6604439163593596,-100.85333209330092,0.4819897324406422,0.9319685165382284,-1.702800525649801,0.624451659957265,-1.1105012593545176,0.3192936023934208,,
5.468008999999995,-176.5783266375228,4.91838287173278,-100.37979126425223,0.5896469385986652,1.5891452425332335,-1.883864346670094,0.4184080331833005,-1.226109774110338,0.3312929718402506,,
5.477537999999996,-171.13304592115483,7.516383003697768,-99.86214367264868,0.8593914239039403,2.276461961011183,-1.011322621830431,0.3058787945829962,-1.1624235907597826,0.2904971867100731,,
5.487031000000002,-166.7731574469887,9.475562995332211,-99.90946551343971,1.9314210047782,3.406206954757205,-1.6709753755905556,0.2257606761886331,-0.9208625514864284,0.1692351928746955,,
5.496547000000007,-165.2540550381696,9.096094525795737,-101.4120398318426,3.2468290023937887,5.628292215960255,0.5491474349097825,-0.1340101013351624,-0.2790809186519993,-0.0370863283180655,,
5.5060530000000085,-166.10918452970856,7.116710015906672,-103.6326559707928,3.5718456623283354,5.832463775027322,0.595434588842551,-0.3466507186307744,0.25623478606521,-0.1012201224491836,,
5.515571000000008,-169.01711459907463,3.7994174575606894,-106.00621366029138,3.0078720963574743,4.028964491896674,0.3961154434799897,-0.4836713142164774,0.7369102688080726,-0.102780789465512,,
5.525082999999995,-172.70032190275955,-0.4000601251657562,-108.2023866375571,0.966270093016057,1.4338141322813962,-1.1012234604552067,-0.573695400801865,0.959675876842114,-0.1066128811300489,,
5.534768,-177.6848588686743,-5.9039819638752284,-111.31345068351536,0.5965235564900468,1.1105139967246929,0.3718818820399928,-0.6820111764485842,1.3197249441504868,-0.368679682373042,,
5.544281999999996,179.348547699193,-10.099933545197231,-115.02843442490116,1.0939608365092597,1.9852227140923704,1.044226781649998,-0.5298493771498534,0.8781450424172579,-0.5369559014885398,,
5.5537960000000055,178.77529121138588,-11.703790483442583,-118.56198367688872,-0.125147435155934,1.086086876017732,-0.0546393239633044,-0.2328319255458236,0.248305478836644,-0.4448370746147391,,
5.563296000000008,178.76626459514037,-13.618770128357534,-121.00747865798088,0.3999956403178816,0.9670711395718646,1.051942639998252,-0.3296586409946398,0.1959211058800832,-0.2200281669878958,,
5.572810000000004,-178.90168671427463,-15.34167407841866,-122.27092195676788,0.3285242020362633,0.9504432671791598,-0.2102913453426051,-0.5332818064729015,-0.197337248645416,0.14617977921644,,
5.5822179999999975,-175.16311309023996,-15.131719411182653,-122.28908975567232,-0.85797836653159,-0.1059702402074115,-2.587946043019233,-0.3577759073135361,-0.6286994377412332,0.4707779253146452,,
5.591734000000002,-171.7775358874416,-14.423310101413618,-121.41005157680318,-0.6504934327353777,-1.3727186370508884,-2.334100233977637,-0.2325701063368686,-0.6289630583458066,0.6102372190679465,,
5.601237999999995,-166.69085676626923,-14.49644800235308,-120.57137484655236,-0.468787834811925,-1.6473327392403905,-2.766309835709885,-0.5297142009958414,-0.8319445280973032,0.679666559846549,,
5.610751000000008,-160.74426352370256,-14.145369938174378,-120.060183809016,-0.4456960369553375,-2.609364401831187,-2.7707163242522226,-0.5331379644280024,-1.0253878780420027,0.6526634098589534,,
5.620169000000004,-154.38299401176306,-14.42900027379393,-120.83971924511712,-0.6602205945866261,-5.3926331100031,-2.28271082846636,-0.6855983689853334,-1.0276896624394631,0.4086018945388483,,
5.629699000000002,-145.77455583713154,-16.656732711243247,-124.47374402820633,-0.3523528437730369,-4.680704531222419,-1.447803777634228,-1.2833471186993923,-1.1435399350166096,-0.0127231887558907,,
5.639194000000003,-135.6340494035131,-15.609243125992757,-127.86451651684452,-1.560935064663721,-4.459398089047697,-1.1743555883015304,-0.9990332430422844,-1.6875676099717036,0.1189741492583742,,
5.648899,-126.58817736251508,-11.078588809343833,-129.76422393055066,-0.4381365252715309,-5.069119745703767,-1.8318762827901995,-0.4145645733199301,-1.9375167462471947,0.2194758232892987,,
5.658410000000004,-117.65207734748908,-5.456143856944182,-131.5886026824709,0.6137336424612907,-2.577537961611541,-2.155085804366052,-0.3155162982174182,-2.073564193767988,0.0397829906490648,,
5.667994000000007,-109.84735353075106,0.2784424473820723,-131.76899868599247,1.8936337755662225,0.034639593643667,-2.3312458156977423,-0.1820488482673292,-1.9287393252356573,0.0347659926927742,,
5.677424000000002,-103.69499777101603,4.79276446241222,-130.40180998685105,1.4689627807579413,2.220696687995453,-1.242271470985839,-0.1282339891663241,-1.5212408378618023,0.2189325643788115,,
5.686903999999998,-96.66132906841597,6.799824992372111,-128.93256366505955,1.3944589415091924,3.761911824085354,-0.9134030136059894,-0.5853974312399727,-1.3347041154837327,0.1515753401468419,,
5.696407000000008,-86.99362451061789,5.558104728591867,-128.25502214605245,1.902191341373988,3.701372233551548,-1.0664137521939865,-1.3943194066514155,-1.3493330967150468,-0.0730672796833624,,
5.705736999999999,-73.36693172989199,2.173104004115685,-128.43802235036898,3.6987028724233273,1.7011600937153244,-1.1412698209779764,-2.218215027118905,-1.7166831786265062,-0.2205241975927516,,
5.715243000000001,-55.84166955962102,-1.7767606330040215,-130.63520353339226,5.766965576248031,-0.9982887373432272,0.7659963455032485,-2.839570953838128,-2.20740289783029,-0.4485108832979997,,
5.725014000000002,-35.47784326054572,-4.549256192274987,-134.9638768428238,5.992487659921454,-2.589217327985343,4.244626238283676,-3.169883712712596,-2.614725262973956,-0.6323393228762937,,
5.734364999999997,-14.80536083132357,-5.559945525201128,-139.59928185390257,3.3664076228042497,-1.9045948045558687,6.209756132593038,-3.165489126581154,-2.6504486906116704,-0.5532295245251341,,
5.743865999999997,4.501309851035891,-4.654640553723908,-142.53072166218536,0.3384739330074207,0.3868329019995929,6.807339099988546,-2.8824883487818576,-2.5596011457839043,-0.2371455501045933,,
5.753378999999995,22.797944989362623,-2.1546903540012736,-141.95104820379777,-0.2340100815061355,2.4106250846789865,4.60786030568303,-2.587830478532793,-2.632217324115545,0.332634141573782,,
5.762900000000002,39.962619602669406,-1.1147453476045102,-138.30347574795414,0.2712976655841083,3.271231728614548,2.5153018884346103,-2.504813283750564,-2.361806803191832,0.8227776791630134,,
5.772399000000007,55.71512871983688,-2.7704369672336395,-133.7895844137806,-0.0772241945657397,2.9850234142655525,1.4091148197673298,-2.498902837115544,-1.951630565407917,1.0048717988852331,,
5.781839000000005,70.25118740901482,-5.509908407837289,-129.20213702694824,-0.1408016422653232,2.465029152300595,0.5384858069499994,-2.33307768125779,-1.8138289705864488,1.1235402343322125,,
5.791172000000003,84.09549961148846,-8.367146097382085,-125.6879430052045,-0.58070609614442,1.8019562834053688,-0.0062484202415932,-2.125795728141317,-1.8393266556591377,1.0349920919958997,,
5.800675999999996,98.0066933608699,-10.578573761054074,-124.10529273449151,-1.4670763005288827,0.2123546274007469,-0.5093088894758385,-1.9334277514462463,-2.0015876325909856,0.7737694112747436,,
5.810139000000007,113.298984812391,-11.820012388465384,-123.42616152533267,-2.4474347065491657,-0.5203944891269155,-0.7648932375078316,-1.8748128081787687,-2.3595731706695413,0.729855413923727,,
5.819731000000004,130.38596290961974,-11.976307055638715,-123.54137422170754,-3.8817414779124153,-0.8639685399389092,-1.731431294734392,-1.8726093466394511,-2.7746319770321666,0.682379940428775,,
5.829242000000008,149.2387799378703,-10.809364205371892,-124.50624331550212,-4.816527216587651,-1.5574081215066005,-3.5666817829067528,-1.8781587400284343,-3.1957844079458666,0.5540541743507424,,
5.838864000000001,170.09378994279703,-9.11049649166665,-125.76110620848686,-4.779661620237293,-2.2538513192673766,-6.1476818454296245,-2.0911376233414787,-3.556205963960588,0.4736144631473954,,
5.848389999999995,-167.93962623143514,-7.707587947079136,-127.38912041469624,-2.497340635956281,-2.7627821026809145,-8.550050159811803,-2.369107419833678,-3.6585286512523454,0.3211181694588964,,
5.857828999999995,-145.91289909356692,-5.410632678765492,-129.39095417851567,0.4596381583358283,-3.2738312530960494,-8.825416206635696,-2.3643234016982144,-3.715594101990165,0.1079606473768161,,
5.867515999999995,-124.36811570047192,-2.352827129972954,-131.21850974661572,3.9549653200446806,-3.237013698264373,-6.95609809478924,-2.322369352892024,-3.673432522793471,-0.0693509631962696,,
5.877025000000003,-102.84285179227804,0.8934421513631376,-132.21628430299864,5.84405077814298,-2.3818576295747715,-5.079728967368995,-2.3884023192418047,-3.644404998539376,-0.1423302490341858,,
5.886413000000005,-81.99645848744896,3.285531056338687,-131.841893101684,7.261910153868097,-2.838163244019792,-2.9012981068936274,-2.4408377884897274,-3.4155771342506127,-0.0779920105223214,,
5.895746000000003,-62.64734880004573,3.779500339117424,-131.60967217634223,5.924031688289467,-2.0367439132606693,-0.558739782640015,-2.5005097387348094,-2.9511616587154674,-0.1926456830723374,,
5.905327999999997,-43.05325737693966,2.475882549263323,-132.68117004175036,4.767682539125826,-2.273012154256336,1.1119189610465117,-2.820580067862344,-2.7314126745903096,-0.42651343734124,,
5.915019999999998,-22.400730526651508,-0.0327917114054775,-135.38392461377802,3.5473729264617457,-3.272308370339779,4.346482136691535,-3.231658687823256,-2.6277282433707683,-0.6233267583161467,,
5.924526999999998,-0.853708529021203,-2.18301968990338,-139.68941786800522,0.870311035114107,-2.1669352776903525,6.986201296406082,-3.4705163853472425,-2.599157065027679,-0.7682312982734364,,
5.934078,21.15576992388097,-2.788180202441612,-144.30872641957788,-1.473266039765233,-0.0644912710740885,7.326049695035259,-3.544011418067584,-2.616971329467463,-0.7222239299182205,,
5.943585999999996,42.945831471313454,-2.168403388904677,-147.6088085364681,-2.162425841502177,3.0718413200473886,6.436494359440247,-3.543832966583882,-2.5419316474747786,-0.4640185997039828,,
5.953097,62.4306416771622,-2.045398855553396,-149.34245766587895,-1.6083835398286896,6.273489416782956,4.038555841849892,-3.310794577858768,-2.059348022640304,-0.2002859820296741,,
5.962423000000001,78.28642944119945,-3.360670863683251,-150.33435389396982,0.5789707639562741,5.97721559318285,0.4267239217846998,-2.8734255298035287,-1.367076269771301,-0.0475407288599287,,
5.971869999999996,91.35622830330588,-5.802994612759843,-150.37013557524762,1.812911408971364,4.916801405705503,-1.2518095029476126,-2.508020134700753,-0.8672086378950371,0.2019894212696293,,
5.981329000000002,101.9376021479832,-8.871829170752795,-148.0427011266112,2.926521716606901,3.47515672550425,-1.5672199548179324,-2.1191627072139414,-0.5495754646481158,0.7351942710810342,,
5.990836999999999,110.42146694025143,-12.08753215725835,-144.02075016743314,1.972704357010396,2.9739403629555974,-1.7293244169819035,-1.7450793086036314,-0.4005049126205344,1.1125903056762618,,
6.000340000000008,117.18472537701776,-14.860861691012127,-139.13591741219105,1.122429111856751,1.4263781519036385,-1.3137945991456337,-1.377077056990276,-0.3841020101433802,1.2922369427249163,,
6.010044000000008,122.64344498392494,-16.57783913463531,-134.78237811547046,0.0846608601097666,-0.5724046033075312,-0.4679213830631336,-1.0037162334483414,-0.46721417126093,1.167001176248905,,
6.019372000000004,127.34453970710878,-17.03182848895076,-131.85158721428934,-1.0864424624064508,-2.2571168907472914,-0.0627977175256836,-0.6843027465119048,-0.5933727200648983,0.8585317516407278,,
6.028880999999998,132.4907658293203,-16.643986834770253,-130.2879720430545,-0.6501781568834283,-3.1393961118364624,0.5841891469978244,-0.5893544158698316,-0.7945158294956173,0.6112591101325134,,
6.038435000000007,139.39507411123805,-15.141788532233594,-130.6274720557184,-1.4607921805139137,-2.9148054252756976,0.2976790227737514,-0.6340120955822761,-1.2064517602121192,0.310605945992205,,
6.047947000000008,147.35511181091692,-13.350470761865544,-132.16030049744975,-2.4324901603261484,-2.4541383742525085,-0.8403311636364609,-0.752639358232768,-1.3954362622520062,0.0857669629942457,,
6.057448000000008,155.51019304794818,-12.829448544282007,-133.9363273362673,-2.0069506898929093,-1.848220988128233,-1.5430906903600854,-1.0093001951995622,-1.2330575962696988,0.0147592689669432,,
6.066967000000005,164.2910839154738,-12.709473372763464,-136.35031679406157,-1.642344554194558,-1.5490943170748437,-1.890523716759553,-1.1982883783243106,-1.22609845215354,-0.093839404046205,,
6.076479000000006,174.39119581388547,-12.21990620655157,-139.25937002417766,-1.5905189716173973,-1.6631631391281017,-0.7773566816060552,-1.3968824600799925,-1.3983572394070358,-0.1445263200684643,,
6.085994999999997,-173.695572193052,-11.443767483424471,-142.07732750255104,-2.1416477697669016,-1.5753867059279063,-1.7914906213323152,-1.707182524909091,-1.5990866004521251,-0.0731725816488352,,
6.095498000000006,-161.07078932448778,-9.2507580882823,-143.98617857716866,-2.1057085999697387,-1.5852442863508909,-2.424088630564715,-1.7233690443033414,-1.844550890150897,0.0734133865836512,,
6.105159999999998,-148.73006536121025,-5.50554766241395,-144.23019409053657,-1.5010281828274503,-2.1769638892485794,-3.3156012517510485,-1.5471799901373204,-2.0417879945004747,0.2687440794671079,,
6.114671000000001,-136.7384493821148,-1.6443965171449946,-143.1324299964616,-0.2000519047200146,-2.030882069765026,-3.5450930627162687,-1.474670005943784,-2.0400913634628,0.3686951521867658,,
6.124297999999996,-125.43607460953484,1.6009130225125368,-141.08813366372422,1.0889498614471764,-0.8256879469724001,-2.716956596752245,-1.388232521576202,-1.9010660385908944,0.4087604947173242,,
6.133723000000003,-114.33636947032758,4.027051300401953,-138.24033708455497,2.349360785366506,0.6698819407982195,-1.731780193850874,-1.3786272257099468,-1.805930813793188,0.4592079686192078,,
6.143046999999996,-102.2132168332444,4.923926894464364,-134.65738766603408,6.760636348774563,2.2903922223361497,-2.3141858318625528,-1.6306540017194997,-1.7969555990304755,0.5252277882732866,,
6.152564999999996,-92.63974227275116,-0.0468623834567574,-132.1830379505334,8.71584560636196,2.162696926390262,-0.5935224509644073,-2.038127672898596,-0.7087778454888415,0.4121432697425635,,
6.162206999999995,-85.6750582626644,-9.223577744055158,-137.17755991472458,2.957840196372701,4.799928660215652,2.5192127479325666,-2.283794744111173,0.3011629048872714,-0.8840188667289495,,
6.171543,-74.66717831731832,-15.202584674271318,-144.3237976027315,2.532237437917457,-0.0004686404426071,-1.3274657771094438,-2.424475439204148,-0.4394441295887201,-0.9588628596461428,,
6.181227000000007,-70.16537018834637,-16.764000422760144,-148.04230930017366,0.9101822493087997,-1.8323603232123449,1.856221466405736,-0.893848060069467,-0.2227195982096638,-0.4958542926332373,,
