timestamp,roll,pitch,yaw,acc_x,acc_y,acc_z,gyro_x,gyro_y,gyro_z,markers,motor_input
53.016029357910156,175.66465564320464,-23.65258610727138,-48.32693301557266,-1.5705754868755475,-0.13416649954378945,-2.092489516963491,-0.08761352448522997,-0.5976160638033012,0.4478129454267563,nm,0.0
53.04182982444763,-177.7369374843455,-29.687161456392353,-47.691989823136325,-0.7569423692054753,0.2429952330299355,-2.412678325658396,-0.028376241546223216,-0.9302816670079525,0.318117050790908,nm,0.0
53.04348158836365,-172.87181862733271,-33.488098093024206,-49.250324124133314,-0.4688010575331624,0.2457016083802362,-2.5889602805427026,-0.009577135311085677,-1.1204954549582906,0.20777781332078746,nm,0.0
53.052613496780396,-167.03799090005674,-37.7206405533617,-52.10552586915782,-0.07536817943429816,0.19520767222470398,-2.61835847458457,-0.04470176296296266,-1.2660475080182143,0.11918821660055608,nm,0.0
53.07733631134033,-151.02804718052772,-47.294119497185,-61.335123585688656,1.2661231093975291,-0.4689281870493943,-2.239633416645514,-0.18163951098252995,-1.5884568082773534,0.2306758443259123,nm,0.0
53.09867334365845,-125.77974154141602,-57.00557597435545,-76.808001162081,3.3963809779498804,-1.7826862211655126,0.20004279772364142,-0.390321025831847,-1.8373267433616594,0.5611435104529098,nm,0.0
53.10667586326599,-106.36723384477521,-60.264330898477525,-89.83855545687787,3.3554035671440032,-1.8580482725434377,5.243079906826683,-0.40691981843952313,-2.069852378555206,0.7290560036424665,nm,0.0
53.123857259750366,-76.75964519927615,-51.99496342849783,-105.47968742220048,-2.5377128565245535,-1.040911691886814,7.010917141443934,0.8269406622846924,-1.238453133350248,0.9949084300294562,nm,0.0
53.12669849395752,-69.43348969007366,-49.37443944625149,-101.10757155176552,3.555201090998467,-1.8306903937497407,3.608003565363525,0.2883155408270915,-1.0226119919307086,2.021422266455115,nm,0.0
53.149200677871704,-53.610761520631435,-50.76755409226239,-98.82975005140501,1.6925825573605355,1.1373087153113306,4.775030227717134,-0.5202397412107702,-1.1625356111731737,1.453527154227576,nm,0.0
53.15383338928223,-40.917764354557505,-52.52093103931766,-100.74220882218485,-0.17172694475384556,0.04237832389697045,6.9485439930654245,-0.6244006631719574,-1.493611622456035,1.618876831529227,nm,0.0
53.17769694328308,-27.2980795630546,-51.00480712920126,-95.70687346476964,-0.7923227593266358,0.28644410782482804,5.955640415669488,0.1445955365458648,-0.3063569300495106,1.4675942263083863,nm,0.0
53.18335509300232,-31.67133066258258,-49.53464977363282,-85.40142130841788,-0.7826853589420881,0.5364840324711175,4.395327753239864,0.28774368527663796,0.5522939606354655,1.3961051750750424,nm,0.0
53.20664024353027,-42.54620335465784,-43.76558354097964,-69.10656414221245,-0.6201301362937461,1.221119237181203,1.0585340391466493,0.3424273631187963,0.8418826044776665,0.5467057946937502,nm,0.0
53.21101355552673,-45.40809578547313,-41.483025564659236,-67.31455090156005,0.23673609947305305,1.5539385423575458,1.3634661380182882,0.2581490841768102,0.5543440208439179,-0.020903075682056127,nm,0.0
53.23451590538025,-52.651921325200675,-39.19261705307979,-70.76116592054458,1.1892581801742788,-0.2343091093428215,2.0593086525871596,-0.08989145831818014,0.6890070265776227,-0.9456843076381245,nm,0.0
53.23983383178711,-60.371919095829846,-38.553326381486244,-70.77419977541034,2.254110514726295,-0.8639658857695895,1.888117541386163,-0.2847582311911626,1.1740242072470746,-0.9623459615256552,nm,0.0
53.262850761413574,-82.3719624593393,-33.89975877985107,-65.45913682708428,3.2449988921845256,-0.8358253130665235,0.10223388629562907,-0.12592758037982885,1.9290056491935568,-0.5941521659073005,nm,0.0
53.268390417099,-94.46622530967204,-29.063260270726857,-62.00460558079931,4.316557942718909,-0.27862287709296163,-2.288413695303539,-0.05219974226292663,2.2757523227310714,-0.561395007093873,nm,0.0
53.29949927330017,-119.51742817942667,-18.842235417971136,-59.2098718032008,2.1280883997360283,0.3970265332215921,-5.4299908491574955,-0.30899649943261726,2.413180733133394,-0.7237913265325459,nm,0.0
53.30119872093201,-131.795047144049,-15.337727966254475,-58.79090531563909,0.220259319123137,0.3999067028900567,-6.491815165915985,-0.605609204522859,2.37266301226669,-0.6254174787528708,nm,0.0
53.31103801727295,-144.78534927234682,-12.794248049308651,-57.59852156934245,-1.489114029302819,0.2800051449918775,-5.979414928609409,-0.8905629928324439,2.4103708813800764,-0.382256454489043,nm,0.0
53.33017039299011,-168.49313477001,-8.380894011887717,-53.549802003667466,-3.3056308502134826,0.024374805834445776,-5.040447560095154,-0.9255385368691571,2.0937668802073905,0.0559290662212281,nm,0.0
53.33642315864563,-178.81471378608506,-6.1829336389992875,-51.958660471744636,-3.609343345869293,0.04684836930733408,-4.457680350837971,-0.8780684306942946,1.8988468820687159,0.06183474593183409,nm,0.0
53.35754704475403,165.2654511502865,-5.402342148500564,-52.19205529287678,-3.401646111141322,0.7746693078413741,-1.9034901015613954,-0.9332540628998303,1.0489589578822796,-0.26642076359674977,nm,0.0
53.3819739818573,159.45197754529806,-11.017090903776056,-54.57239247988494,-3.3733072051578614,0.7341144644267545,-0.9060019911358648,-0.7302634522026465,-0.11085596971370214,-0.2619765318055198,nm,0.0
53.40391802787781,160.64902010627543,-16.278264295781568,-53.23801273871693,-2.861294554905938,0.2843541808612597,-1.3168899144827406,-0.2268033728574918,-0.42507063859430627,0.32438785610658144,nm,0.0
53.40613412857056,162.64686394384725,-17.97929257667208,-50.97001099892532,-2.112527184616444,0.04975778946659424,-1.5996865252805947,-0.020242009945607414,-0.5082482261128164,0.5754970455783145,nm,0.0
53.41153883934021,165.7360610617208,-19.88546507136246,-48.58596825504115,-1.5214542960814637,-0.18632670497261397,-2.1649420518245814,0.09972556053804148,-0.6897987994065103,0.6823592300676214,nm,0.0
53.43664908409119,174.07761305455364,-26.296030494084157,-47.26762175758408,-0.46176858856413466,0.2655085259551301,-2.3198847874136934,0.04389150675850246,-1.118017317002486,0.3496358557000393,nm,0.0
53.44525957107544,-179.90997753002543,-30.775759902261978,-49.62552761507199,-0.31142096266753366,0.3704839605042916,-2.320488145404606,0.04190419492165626,-1.3813513238670487,0.11159682509933326,nm,0.0
53.46231722831726,-162.79005270097625,-40.475195099610616,-59.893872435344335,0.2826035858361058,0.21581370247280945,-2.0732825986364327,0.017492123909833557,-1.7904511538801322,0.014230711814023895,nm,0.0
53.46792411804199,-150.76522633038957,-45.157601329905404,-66.77304475923307,1.0123345757637994,-0.44055376641018107,-1.8820688642838503,-0.036068889623853205,-1.9911899878842199,0.2744487449927265,nm,0.0
53.49692940711975,-97.25765018540781,-52.97848621815816,-95.71091977543844,5.068370775934244,-3.18303905104676,6.972183455935257,0.09493976824966242,-2.6041330268769265,1.1671268685682945,nm,0.0
53.521729707717896,-79.55033428228394,-41.00939794757181,-93.04770025228589,2.7810169440571126,-2.3208310823136498,4.688728521943086,0.977976090869058,-1.0493275228848686,2.1156080301411087,nm,0.0
53.524662256240845,-73.23154509182082,-38.644310053716815,-88.43905181918399,3.806551163067896,1.3930939657830512,2.1481724256075285,0.45264123193286243,-0.9787424572476133,1.7445728530889937,nm,0.0
53.55465316772461,-34.36819886083292,-43.95570090216929,-92.20078609533552,1.0652637350884757,-0.33656870805527134,8.492811654586689,-0.06337574562270314,-2.134398846578509,1.3357150060794711,nm,0.0
53.57796835899353,-30.219261591222047,-40.39974148116364,-79.51949407599714,1.1142732865508609,0.4553012941411815,5.109942121780061,0.33585637795935763,0.32311591360602626,1.6989884244874467,nm,0.0
53.58172845840454,-37.000662191438394,-36.55587328295902,-69.35308630459926,-0.831300318963254,0.6571970808370083,2.0824271165683155,0.4456296916787263,1.2223205941371864,1.1951490820340345,nm,0.0
53.60557246208191,-44.5542867665713,-28.297855803389314,-59.06434890487853,1.4063487566987596,2.8882661842224064,0.9202275059619212,0.3170200680460247,0.8769597828680397,0.3083428880548483,nm,0.0
53.61062812805176,-51.116960387228325,-25.56493467387754,-59.89810264367028,0.12639577651056105,0.4841452470302222,0.7430657111350657,-0.1314829847138847,1.2779029581241228,-0.7535893896076454,nm,0.0
53.61953663825989,-56.76744703831496,-23.636853736174423,-62.756827182706516,0.8225870153753055,0.16357392863873801,0.4715207172523015,-0.1625148674711825,1.0796841341957053,-1.0337891434855853,nm,0.0
53.63017010688782,-64.82681755688417,-23.342793686882953,-64.05327882735105,2.597800310380672,-0.20070054518313513,-0.27481503639423366,-0.6169237044754261,1.3426180382037838,-0.8920429363379867,nm,0.0
53.65484046936035,-89.51776917803006,-21.537182324875474,-59.586322555740324,3.1443449737670264,-0.36749961144377735,-1.3347717327806776,-0.8009938780627239,2.1925102668527474,-0.36217640241797133,nm,0.0
53.66009306907654,-102.9814663288648,-17.540472887729752,-56.05107191850561,3.2088961900297686,0.8191515330289079,-3.983929609770911,-0.6789502308958659,2.569982425926381,-0.18300909692949346,nm,0.0
53.679423809051514,-132.2043541572409,-7.572573774915146,-52.169034962285664,-0.3024301288824837,2.0987085118962514,-7.512378016639477,-0.9793042717445564,2.8330830056947724,-0.2915781057363077,nm,0.0
53.694966077804565,-146.54888986230375,-4.290945678342708,-52.03672741320061,-3.2726237044193773,2.150685602091898,-7.961512494754753,-1.2295179973687747,2.6546891536303394,-0.2594378117403729,nm,0.0
53.69672989845276,-161.68418006528978,-2.1899097403795125,-51.746799814264044,-4.939816378822393,1.0298173971921534,-6.515298599196202,-1.5263013704016204,2.6386553554725785,-0.10493611152316598,nm,0.0
53.72049331665039,174.1902903582568,-3.8561222603695584,-52.63553365858314,-4.145473477089664,0.3061323383899337,-3.390017726917285,-1.4382966734912637,1.3204897240166364,-0.23512137733521274,nm,0.0
53.72942757606506,166.87429310916113,-6.263118762524046,-52.97951307806602,-4.4755956140495465,-0.801028226314984,-2.9489300401748695,-1.251375211915693,0.8729271334813444,-0.1948110523864934,nm,0.0
53.74961042404175,155.03738757346736,-10.694785901366386,-51.17139711768301,-1.967225383772056,-0.12947632621482316,-0.45574139049656054,-0.8772001544796889,0.44116968315813027,0.08702996523177547,nm,0.0
53.75516057014465,153.9358909266076,-12.30434882733799,-50.30613679151957,-2.5627210072415187,-0.7850430173845204,-0.9106293898427894,-0.37206326042991505,-0.03438453591736487,0.13041922599741507,nm,0.0
53.78580331802368,160.16127083040632,-19.16996285300498,-52.1239211170239,-2.3674074067721937,-0.13096208945844592,-2.10403274366945,0.02181584100118979,-1.0939129219271373,0.0034230703818197645,nm,0.0
53.807697772979736,165.28679171514435,-23.061840161968313,-54.20883969189517,-1.9088418165930972,0.44942539896141287,-2.2544911965153065,-0.03599535535889409,-1.2308194843377018,-0.04264046825781901,nm,0.0
53.8098566532135,172.094764693451,-27.230782295382024,-56.763054221288506,-1.3741411596624735,0.5432080303902953,-2.325605597532198,0.024782526968123567,-1.4867239639168885,0.07491194653469822,nm,0.0
53.81160640716553,-179.320424376029,-31.9425683175348,-59.399466864408005,-0.8686622869279121,-0.134813174152906,-3.0619852621570125,0.002474535418687416,-1.763725442074984,0.3300983631896157,nm,0.0
53.83331227302551,-158.9859928536078,-42.744338272545434,-65.48470672635536,1.376444065450481,-0.7610909777830652,-2.054630847448029,-0.23290717968264357,-2.0133820060398864,0.7604753422788884,nm,0.0
53.84213185310364,-144.670997510326,-48.41488103421629,-70.96240234926341,3.1303497402151743,-2.080421699323582,-1.7713983021273352,-0.29937799648803104,-2.2749187527652657,0.9665281371746343,nm,0.0
53.89448070526123,-103.3800808407136,-55.09802355533131,-94.1783647101692,4.234730835946555,-2.195824518697229,6.552537224816652,-0.18925169661403188,-2.749046327043696,1.0822678997204165,nm,0.0
53.896366119384766,-76.41373872533883,-42.90621939745278,-101.38732666975643,-2.123828334794765,-1.5767274719025415,6.413090149165727,0.9880648447686861,-1.2325000626504243,1.612150955905934,nm,0.0
53.898475646972656,-69.11513168104965,-40.934726672609855,-95.3500701345474,4.4257968567720285,-0.7555546433193243,2.9520307865821653,0.22323800863556936,-1.1337733339033633,2.1957647419119533,nm,0.0
53.900068521499634,-61.29861488653111,-42.111430621937714,-93.74795945901229,2.4370937813538047,2.076397482104617,3.2548356316643132,-0.3374770414150527,-1.1495852981226944,1.3684983623561828,nm,0.0
53.90596532821655,-49.65041051455226,-45.30997106035698,-95.5035739541744,0.8692608626536096,0.6756959092606407,5.314976825471581,-0.7832345161245938,-1.6289634713026215,1.2699617038963418,nm,0.0
53.92843723297119,-25.068173776296693,-45.941702189848996,-100.33973153745718,-0.3385104149142477,0.017191918166555988,7.519105745518777,-0.055154169342305534,-1.3028350563615427,1.2496978972289636,nm,0.0
53.95125603675842,-32.20756271850373,-42.48897163745841,-81.69405189775448,0.6657073990607124,1.0307089144595765,3.4361356448895544,0.4184126503147229,0.9373259283708272,1.3947343711443312,nm,0.0
53.954862117767334,-39.82342787092069,-38.67592208236026,-72.31865505944585,-1.0986564077904988,0.7549077172465949,0.8841487622644377,0.4721309973383105,1.2927677822258692,0.8901277813770266,nm,0.0
53.963085889816284,-44.043708157976496,-34.897482098694326,-67.12652159467832,0.2255517806148274,1.8152150448405069,0.3322668230253254,0.46550114509525053,0.8890792931870813,0.5407303751140906,nm,0.0
53.97156882286072,-48.47456080874155,-32.27519172593404,-66.33528853790835,1.402803250988358,1.8871458799566214,0.8423470043668705,0.18123016606425174,0.8786044079107687,-0.32405828820669025,nm,0.0
53.99031901359558,-59.56791965763303,-30.951077178694355,-71.00203936446572,1.7006045777710452,-0.42794144597379474,0.6608177206173189,-0.3383825209461456,0.8951205335340038,-1.0411005557417683,nm,0.0
