timestamp,roll,pitch,yaw,acc_x,acc_y,acc_z,gyro_x,gyro_y,gyro_z,markers,motor_input
36.009915828704834,26.674199469544536,-38.811695690645756,-97.03641737526475,-0.578030514635611,1.719306703024552,-0.8576176564915864,0.495981713241919,0.0991974195589045,-0.39237574744705905,nm,0.0
36.01711368560791,25.195125507600725,-36.801004224831885,-97.81551661821912,-0.6143846338980878,2.17911795548019,-1.2626617883689166,0.4195202138003009,0.17061940946571125,-0.3892692576870127,nm,0.0
36.04155397415161,21.16013467908716,-33.68400751339812,-96.91101333101948,-0.46565956523442836,3.0070366691475177,-0.6317942047295381,0.3176391238823021,0.3475606914659036,-0.13989104733494281,nm,0.0
36.046507596969604,18.292200199083375,-32.85956244684236,-95.2400484595615,-0.48187143461361076,2.1536280023411853,-0.9755575154892796,0.2039778651028419,0.4504871362449102,-0.02606834888222208,nm,0.0
36.06919980049133,14.214637229666213,-33.28437246967091,-90.70443732152357,0.2262737328623755,1.1532198739166961,-0.468730422387751,-0.13425466686218782,0.32035529522057027,0.19216631134624482,nm,0.0
36.08016395568848,12.888415258144493,-35.471648111548284,-89.03035467045898,0.32094657775317825,0.18581044989923667,-1.0300082417639629,-0.4489146483410087,0.20630782939585676,0.11349904857912835,nm,0.0
36.08412408828735,13.101156653627289,-38.93326324460309,-88.20438366776325,0.6233783040960208,-0.2940180811576592,-1.0863959416352662,-0.7015560054939239,-0.0643492041391433,0.09303610913178317,nm,0.0
36.10750389099121,16.863566355366697,-47.435775778065754,-89.68912473107325,0.8610397380042483,-1.8037537423561711,-1.736340849209222,-0.8766311485781727,-0.37638919168232604,-0.03233551507822616,nm,0.0
36.11666941642761,20.197670413737942,-51.28880204604354,-91.49673127580698,1.093278822981601,-2.717702328989605,-1.2944378980672446,-0.782767591635828,-0.44214283115498043,0.020880037160332737,nm,0.0
36.123875856399536,22.41617834055136,-53.35705938194798,-92.61067017243305,0.7019913166142577,-2.9450315390173585,0.5188680161237437,-0.43167971270026606,-0.2694613295787964,0.03355566020222833,nm,0.0
36.131032943725586,22.11091421353148,-52.73219045156144,-91.55135372299466,0.2510728113420355,-3.8229414105622608,1.5823426741296578,0.11742604960242801,0.021060501514068856,0.11587379735776765,nm,0.0
36.157939195632935,19.34243443286959,-48.553436292466564,-86.34367345833773,0.4912462139964862,-4.166018927506416,2.516591067954658,0.44075447297206216,0.1980444730880187,0.25191121249267434,nm,0.0
36.1630642414093,18.973447869899186,-46.394113838405254,-85.14703337986828,0.5833287719176217,-3.5125075530959573,0.7839779171405183,0.4193188750924316,0.07070619416907868,0.14205794295760726,nm,0.0
36.185261487960815,21.432450726560756,-40.83828951920118,-86.83219599333054,0.17924287155313637,0.0683947383989267,-0.9818445851440917,0.6598202465875653,-0.1578146498138486,-0.14747489418519144,nm,0.0
36.19376754760742,22.350917999611685,-37.22717227993973,-89.06881154183311,-0.3228094113163797,1.361674244619923,-1.8503118970162247,0.7197602041724651,-0.12621045189541732,-0.40193153626048966,nm,0.0
36.21231245994568,23.187159402219788,-29.761335387742584,-93.08008027671589,-1.0983581256311992,3.289379858638844,-1.082205948761172,0.7801035598425244,-0.00237149613683425,-0.4067122517725431,nm,0.0
36.21807789802551,21.524390105120162,-25.078076851034506,-92.59951788405637,-1.5654694524993027,3.3315102811946393,-1.046007122982074,0.9415057923842719,0.240982442007449,-0.11572141687462781,nm,0.0
36.24083185195923,17.819225807414444,-18.714887366812032,-89.09827058632014,-1.1122299652350258,2.493394288049199,0.5377145834576047,0.47799488503003223,0.42111890394361556,0.18097641405631693,nm,0.0
36.24649000167847,16.18098973716952,-17.593116635480655,-87.22383599458476,-0.884147872131634,2.128869302832585,0.519389436869288,0.20491586240868237,0.30922316660201044,0.22603140303807223,nm,0.0
36.255213499069214,15.344705591193426,-18.50766639652071,-86.02758713005937,-0.40729548520640874,2.5066227628983286,0.801613105888403,-0.2015105806415107,0.13746881256610274,0.11938915083267099,nm,0.0
36.28105926513672,14.865705742951151,-25.81994534073308,-86.5401764525159,-0.36132657812491126,2.023483165421562,-0.4707937314566506,-0.83640798090579,-0.15846726225014895,-0.19995896792775392,nm,0.0
36.29817175865173,17.854938453339994,-35.0464613553918,-88.17025566167233,0.3621943119954631,-0.32907203628864684,-2.0659678832073824,-0.9434823505384246,-0.30357405665923987,-0.1351135338707774,nm,0.0
36.3041787147522,19.72075817538465,-39.38531793707756,-88.22006583314709,0.93402088301888,-1.978245847134062,-1.9403974096271326,-0.8662445228844198,-0.3399275606702119,0.11591538063882456,nm,0.0
36.31354784965515,20.60922595314492,-42.699562226832946,-86.9712806574891,1.3252108560725544,-3.1527708234480047,-0.5812147718842492,-0.6652399110259408,-0.17577531051526957,0.2950150563618041,nm,0.0
36.33480191230774,18.007010087368347,-43.806686905004305,-80.5179934784125,1.3261704582384066,-5.08650242087006,2.892711810571633,0.003175507028259573,0.1865493435604128,0.49422759881807415,nm,0.0
36.35835886001587,19.32798042319907,-42.636288494313554,-78.47467132631644,0.9112555937034262,-3.888249172406404,1.5593885604308904,0.1979288948803469,-0.2255599961713648,0.1625239092783782,nm,0.0
36.36320090293884,22.51227138194119,-41.00669614695231,-80.37181017699471,0.32258589536290183,-2.1432131232488416,0.9559078121221839,0.4025760523055076,-0.4187471588915246,-0.023510344393737975,nm,0.0
36.38386058807373,26.089932180141133,-34.01002979936277,-85.33181947310355,-0.5626859481533201,0.15161592027207144,-1.0320062671283752,0.7965818655084431,-0.14564883329700706,-0.4167337674054017,nm,0.0
36.388911485672,26.679431993776085,-29.719337073671184,-87.31050142787142,-1.0409927825225203,2.076639917311638,-0.7146449849512446,0.8566643930901265,-0.05442186831372525,-0.3922032811238897,nm,0.0
36.39826822280884,25.191061052512396,-25.526085083899726,-88.50451578081645,-1.3005732497035798,2.642033729127171,-0.44168142981361647,0.8211414915959554,0.28511171776479555,-0.4213205945945241,nm,0.0
36.40930461883545,22.348224499107257,-21.388385152860703,-88.58340110765678,-1.1935191392409363,2.90534190089064,-0.6968522790744006,0.8060567187366076,0.5335695695077678,-0.2686570234315321,nm,0.0
36.41926050186157,19.3556023654667,-17.466678512537523,-87.67853478597907,-1.1269494406732472,3.3378995863042067,0.38744493985188805,0.757398322666291,0.5808805550762732,-0.03380320635654906,nm,0.0
36.44209051132202,13.469464366147285,-12.083505346178798,-85.50047099458986,-0.769218898630751,2.821252164207247,0.2683866216851734,0.35372512828189123,0.5490405498459429,0.05700252714402717,nm,0.0
36.44582724571228,12.41243722201198,-11.753590493659777,-84.97524636926859,-0.3949426500571941,2.6419782050273524,0.8550552551001875,0.03914395062612055,0.2023466056367736,0.02224422163451403,nm,0.0
36.47666335105896,12.832251828519292,-15.837910884084476,-85.34846729624347,-0.2675951412889307,1.7697527942823486,-0.3758102733442078,-0.5649233371979526,-0.20550537479211445,-0.1353334937733146,nm,0.0
36.478615045547485,14.974187481879268,-19.854163891759598,-85.68010508125386,-0.0355862167741167,1.075185473110539,-0.5689822616999983,-0.7763087879189414,-0.48412948031056774,-0.05383753130726367,nm,0.0
36.48724985122681,17.540726565499938,-24.317245611170737,-85.59230557422146,0.20693429243930345,-0.09098759069219861,-1.4369618518293656,-0.8604652984872208,-0.5580969620306484,0.09004624450885727,nm,0.0
36.50798988342285,22.671846760030974,-33.47305865891322,-83.13410114381217,1.2071564823077972,-2.514367718661824,-0.830875454930137,-0.8598234751980885,-0.5057109897136782,0.4981101874592657,nm,0.0
36.512792110443115,22.757012554198013,-36.469839885780104,-80.11858432498724,1.147916875294344,-3.4417874297158084,1.1421128835111922,-0.5980127586066857,-0.11476992084375165,0.576940456250373,nm,0.0
36.537643909454346,19.16935359967849,-37.30069986258964,-73.17516387198103,1.77236947257556,-4.900477292483595,1.6083060549719355,-0.06472526249065017,0.23748685193685146,0.39092082638130016,nm,0.0
36.545713663101196,19.48420294927763,-36.41287963715697,-72.28245356788868,1.4699625116868287,-4.35393339443858,1.02040510423167,0.17953119374536194,-0.008402855759892764,0.1841880603060085,nm,0.0
36.564274311065674,22.95851700160316,-31.490496260667776,-75.36732636938339,0.21061493406763096,-1.0450441481377206,-0.17553810188462365,0.6326089420793751,-0.10858140314435907,-0.29746397671484776,nm,0.0
36.592551708221436,21.244675669011297,-19.43571533109623,-82.79530885631888,-1.0628625738211128,2.0550064018624643,-0.6065932016991438,0.8013821773957981,0.49468118691977875,-0.6024559142960157,nm,0.0
36.612284898757935,14.100261792693514,-11.604815550416605,-83.92996391935043,-1.1042337541717606,3.1322775135306693,0.7247604558445837,0.6440852523151613,0.8257444383802112,-0.1825711067198434,nm,0.0
36.61745858192444,9.86286565793691,-8.250408229200463,-82.85339035194096,-0.9403723817631411,3.0912252967942755,0.8378351200735323,0.5620980211959008,0.897743162852961,0.07728734874079884,nm,0.0
36.641337394714355,4.80603791239438,-5.1728878644993035,-79.94295481459733,-0.20282477414718122,3.3526682053171757,0.8341066587808933,0.03999732876177554,0.3799148969765762,0.2114324529070175,nm,0.0
36.669002056121826,4.626724548789915,-9.079117869776693,-79.51096454914433,-0.14673202359543347,2.6696953041015576,0.21810536049786056,-0.4920050111722968,-0.2451036000167756,-0.11940867390237657,nm,0.0
36.67494058609009,6.572655368817289,-12.663463484772286,-80.35385282447466,-0.21310380959724748,1.9137976051132923,-0.4188942928318683,-0.6461480642546517,-0.5159773875160014,-0.22199656185251607,nm,0.0
36.679255962371826,9.596513637896415,-16.791107393469538,-81.30420069929859,-0.2631422196124059,0.708970764722875,-1.154828734344287,-0.7272489389475207,-0.7245813091082908,-0.1709719013242853,nm,0.0
36.702524185180664,16.488989000806008,-24.609360816901656,-80.78875652679118,0.5370339869934772,-1.7837166084061622,-1.8649285549374126,-0.6635014302426414,-0.7140437537389963,0.2991360846180924,nm,0.0
36.70568799972534,18.813892996388173,-28.14550229328114,-78.68454851602027,1.2692216086219266,-3.0498048635023,-1.2059675598131343,-0.6272329029018914,-0.5511313922073816,0.5371755063891681,nm,0.0
36.72744345664978,17.840282794806047,-31.524762889537183,-71.79369145545158,1.7139352646008565,-5.075507108759572,1.6605592388364379,-0.23925134988194552,0.16568018200533322,0.5789813106003847,nm,0.0
36.73470067977905,16.814302733427624,-31.556711406615683,-69.37070808737806,1.7510468211718921,-3.8648777907102128,1.217090320280999,-0.06941820169007937,0.14975235806681647,0.35763068511518514,nm,0.0
36.754650354385376,19.082035827715988,-29.05097827144651,-72.05407701264011,0.49900517775525627,-1.865307334513794,0.020090494440699328,0.5028267113585974,-0.20738577666357788,-0.302661974222662,nm,0.0
36.76104259490967,20.650722554072658,-25.518493439349392,-75.19496480939792,0.1352538236001539,-0.6002228703738094,-0.7436135811603833,0.7516438420036089,-0.07930574182853813,-0.5341979802357932,nm,0.0
36.810389280319214,21.53983985289273,-18.295804848879015,-81.25348206353559,-1.5140383714970898,1.1685816997131095,0.3143244741889254,0.7137909620586821,0.060105968826931956,-0.5441530873085778,nm,0.0
36.8123037815094,19.679630484985086,-14.623117434399036,-82.3982890021718,-1.5178340940611403,2.077918041525777,-0.03458907207436343,0.6691740328357867,0.4482120286852389,-0.3548050355372715,nm,0.0
36.81499934196472,13.49497410936614,-9.47870035750462,-80.62397857694343,-1.2580804320545822,2.874659670937447,1.0250067479181928,0.36027801820825783,0.6537684146700915,0.21425944041097375,nm,0.0
36.830368995666504,7.200523744118095,-6.4726970917461335,-76.37936603385296,-0.9490915061429693,3.1496163018587957,0.6327933103200604,0.052295372388096735,0.5942895359694053,0.3470660569138748,nm,0.0
36.85750937461853,5.279285247604273,-11.244443760470762,-74.88959918276916,-0.3605874916232816,1.9801907964260357,-0.4253013775976105,-0.5328141232841894,-0.1945369332178839,-0.1134959128436028,nm,0.0
36.880592823028564,9.556973659067907,-18.885788213103396,-75.26470606273159,0.1342722225204634,0.039611082839339846,-1.6423120177155859,-0.6540907457919479,-0.6701946259137699,0.04590932041012259,nm,0.0
36.88265132904053,12.416545464445813,-22.824127087826895,-74.46877333098845,0.6035251759203313,-1.0777677485254005,-2.1896241518649813,-0.625827258717887,-0.7367609942174069,0.2759576554377706,nm,0.0
36.906556129455566,17.05951645123872,-29.07461613287049,-70.08786356970552,1.8060501760679764,-3.225044005405499,-1.0520925112789659,-0.38882623890914897,-0.5015860105108272,0.6541767541749273,nm,0.0
36.92975997924805,19.330368039337696,-30.332007046407647,-64.12528965981245,2.23249277241988,-5.104696247627405,0.8140145558202314,0.01479192267067301,-0.22457409339230155,0.6437631045042999,nm,0.0
36.9316201210022,21.18431836481707,-30.35599610493725,-62.69268759931768,1.4831993518295157,-4.063668028230378,1.1460050397789288,0.13650198511901368,-0.3022473455842535,0.45739775639963837,nm,0.0
36.957828998565674,25.419539593778367,-28.208116757991977,-64.53249149815079,0.11783383542123486,-1.0375649731401202,0.0466494353781623,0.4459821707100996,-0.16770744101898583,-0.15641582880397195,nm,0.0
36.95960235595703,26.244799258123766,-25.209735926045408,-67.35406266082943,-0.4100984126964822,-0.4793745156809769,-1.390818602220521,0.6051690545190854,0.09749088750085477,-0.5152868733213323,nm,0.0
36.98574471473694,25.62731036901244,-17.14417095678546,-74.01126173446201,-1.694957191859291,1.6999431695318823,0.5429961608219318,0.7167381227450568,0.5337712969957032,-0.7578391438758771,nm,0.0
36.99071979522705,21.59877250988343,-12.94857794501426,-76.28471441089638,-1.8568278894183872,2.1400463685093882,0.09677351054654863,0.6066738789683213,0.957005776780575,-0.6507070146573884,nm,0.0
