timestamp,roll,pitch,yaw,acc_x,acc_y,acc_z,gyro_x,gyro_y,gyro_z,markers,motor_input
46.011465549468994,14.051473884554351,-58.816229258641734,-162.01511068558798,1.2126003789279176,-1.0534534229622774,3.7435313842725972,0.9726782422853252,0.4895904941221549,-1.6110621560047529,nm,0.0
46.05222797393799,-14.902411248248972,-61.276780081300124,-146.58557928277511,0.6670117863938205,-2.606798403006009,1.532690174598236,1.1915691619575521,0.860184068777387,-0.7393688039728638,nm,0.0
46.055306911468506,-50.384453738477724,-60.888854267466684,-117.53246098840795,-0.45745281599696014,-1.4769886834739452,-2.5674696374373642,0.4596663751207229,0.742599668895295,0.0722004016724716,nm,0.0
46.07313108444214,-56.81491585262408,-62.54359446969545,-106.74448749352948,-0.3431659231486045,-0.4758294792741591,-2.8440681470532803,-0.1783994887418159,0.2007617613188664,0.654090106967845,nm,0.0
46.124167680740356,-55.243766697581776,-63.81277769070513,-103.70153072514674,-0.48206493019800817,0.053965063764029736,-2.669586800356367,-0.29241178619721003,-0.06578871071976464,0.8701676710925705,nm,0.0
46.127400398254395,-34.448947697096095,-65.42882252125578,-100.25236849494438,1.060963779076174,1.9515970733376775,-2.313556377735149,-0.20240360085748518,-0.720291543786163,1.6928316095169431,nm,0.0
46.13106155395508,-11.471593806047945,-67.17636060592167,-105.10724743227757,0.21505245355312755,1.8401080652092814,-1.2401757470840338,-0.4556021369435041,-0.9472185418622038,1.597529168716084,nm,0.0
46.14761137962341,4.077061743093993,-68.13186582275127,-113.17885653738293,-0.0512222260158539,1.443954144665321,-0.2036255094653583,-0.5800225963156888,-1.056568417418121,1.2705696326014013,nm,0.0
46.18261528015137,51.83087231798119,-63.694291971084795,-163.56879345084465,-0.7736041718132057,0.6856560650928315,2.2477514179379017,-0.2834976435267671,-0.6298304684402755,-1.2696893172249548,nm,0.0
46.18451428413391,52.7776165706039,-61.241656283150704,-171.36251999207147,0.949029193253113,1.9676792863351693,2.9966045691941847,0.007921034276658946,-0.4980249672269632,-1.4303747287235236,nm,0.0
46.20130252838135,47.42240544071353,-59.699214540413,-175.7210344795504,0.9499490810971071,1.0675924033312263,3.2374182142523904,0.5469619056724249,-0.2434518555906292,-1.8497762357646839,nm,0.0
46.207045555114746,37.59229912469916,-59.77536919005764,-176.25324125211392,0.8856840992796727,0.2924596481707414,3.824955273843946,0.9751198878436443,0.09166259599053367,-1.8518381814737197,nm,0.0
46.23741102218628,7.9563924541811835,-63.8564753381682,-164.4378125250319,1.0723696585317197,-2.6952646818044728,3.623504240603542,1.3889044555232752,0.7719839761903557,-1.4062429907544263,nm,0.0
46.239129304885864,-9.741335602711445,-66.04160117497408,-153.77464161360655,-0.6869118819489375,-2.614019441909136,1.330825566359575,1.2301442290018065,0.949794234210879,-1.135048661020344,nm,0.0
46.24085521697998,-25.335702484414686,-68.2255002689377,-141.01051565256552,0.20378338273069294,-2.2389734531792054,0.4216118973125262,0.7740043010615578,1.0267298118228454,-0.351110947019006,nm,0.0
46.26714539527893,-57.02096872239585,-70.06228018100512,-113.38714358923933,-1.5909265688019638,-1.036960907036158,-2.771018716916252,0.4441608637307702,1.0063007731276503,-0.31105657494110134,nm,0.0
46.2688570022583,-67.26935813983916,-70.11698161202408,-101.38926314894786,-0.6178837422806313,-0.7854722701534875,-3.389927877915609,0.18955484947200388,0.6759207773890747,0.47079276558629046,nm,0.0
46.30653524398804,-71.7082849575404,-69.99675032013737,-89.75810715989779,-1.4668008347427626,0.3122019967636198,-3.627857401520839,-0.010844820641117662,-0.011550136003420149,0.6938178990127567,nm,0.0
46.3084614276886,-65.60362894307933,-70.01780850987669,-89.36542053750615,-0.5055568665719183,0.5098424776841887,-3.335557634452179,-0.00970995773200509,-0.4128862841958309,1.2017929686382414,nm,0.0
46.310216665267944,-55.80143308217905,-70.03752495391952,-90.9887501483494,0.5839563340459276,0.7289094109820833,-2.7153488012636062,-0.015377195680983299,-0.6662661018201651,1.4925025298319288,nm,0.0
46.376137256622314,-16.95229037246026,-71.41259665352162,-103.71621419906225,0.32445210924395873,1.7804589188757418,-0.49144685825099355,-0.3852739562414723,-0.888852903521332,1.6852879338407085,nm,0.0
46.37852382659912,16.782297730837502,-73.44487788400446,-124.14235302514211,-0.8742458794396604,0.9566703340684014,0.16790096243772765,-0.6355445513184828,-0.8466754061764146,1.0069309005169584,nm,0.0
46.38085103034973,48.297927227629614,-71.36988574756812,-153.5030673167901,-0.7105583399487189,0.7229338953272111,0.9211865729287392,-0.506620348394193,-0.7536911808095853,-0.3117671110990672,nm,0.0
46.39882946014404,53.43156462100809,-65.1006523716102,-169.48650710025402,0.9012818967552901,1.8651249063119444,2.379166668282163,0.22448138091987732,-0.6147754123218537,-1.3918775962702212,nm,0.0
46.404377937316895,46.32260656795155,-62.65206293707452,-172.42520841860136,1.238850724273319,1.528149745691565,3.4056359701001253,0.6832980211079432,-0.3817644441121574,-1.9118481159926535,nm,0.0
46.44109845161438,5.723911928458214,-64.48006265752458,-164.2660308503013,1.7137966452407074,-2.609206263199413,3.9797952765773763,1.2723849028010297,0.681790977649681,-1.733363085503708,nm,0.0
46.44370436668396,-11.339474208632678,-66.67696046702868,-155.90727294515602,-0.386260451100277,-2.3986138248433404,1.6261738906200085,1.1639581030432127,0.9022436683796772,-1.5023687811682984,nm,0.0
46.46157670021057,-27.918938320419795,-68.7526245396751,-144.11189972960312,0.5326045074732897,-2.3923346039514457,0.5132934399457998,0.8720745367540558,0.993188576374073,-0.7076768390841577,nm,0.0
46.464362144470215,-46.26430214445141,-69.58558095812577,-129.4931434441776,1.064873366178274,-2.7349883514807662,-1.2446236297267401,0.827361327549625,1.01960167065368,-0.5028808461728642,nm,0.0
46.47018885612488,-63.90353941285281,-69.11530277317641,-115.33146911482775,-2.0600827944641895,-0.8819179698777183,-2.4972014191391487,0.7350609077724822,1.0071125098687042,-0.5012184913132709,nm,0.0
46.515174865722656,-82.00535576840153,-66.18639109927463,-91.59783981102355,-2.1652326459585476,0.4556285141549884,-4.091337535165917,0.08178796390011696,0.1416140049203465,0.5131857786181462,nm,0.0
46.51783633232117,-69.8048563890618,-68.02631216164097,-91.00722284486567,0.00807982194186919,0.4859959188042837,-3.9371811481570194,-0.2844378198943982,-0.6433411303161136,1.2205174317829521,nm,0.0
46.536359548568726,-36.6382442392154,-71.29846925507697,-108.60922044354854,1.0076771014363848,1.1278925249117,-2.138169151644357,-0.574725274670135,-1.2006313179451977,1.362441002252777,nm,0.0
46.57776951789856,22.874983005219867,-67.61132286642828,-150.42617029845235,-0.08982176220598435,1.1872233253406488,1.512559490708999,-0.6401215749112307,-1.0776005820247476,0.5463915573021355,nm,0.0
46.57953858375549,32.17449454963858,-64.74198593925615,-159.25571629320496,-0.28273954342671437,0.9735565257459483,2.5065315632854532,-0.4489967942374332,-0.8366725368037266,-0.0970609229129157,nm,0.0
46.596855878829956,35.86830835388199,-62.04998779141305,-166.2347933402166,0.20281554674207294,1.261730452726546,3.4765626346310627,-0.16896140842061044,-0.6103302181150834,-0.7793394928868693,nm,0.0
46.598589181900024,35.159798791304596,-59.54077302843575,-171.9724790619145,1.2321495181607958,1.2445794137132034,4.061318475944911,0.15088200378927066,-0.4757544477505521,-1.3282055677381737,nm,0.0
46.601869106292725,31.563663896917795,-57.766143851826314,-176.77014836428074,0.6123226251357923,0.8362741530328431,3.8656687084240655,0.39653724030010506,-0.30914456971970056,-1.6657500664161462,nm,0.0
46.64613747596741,4.024633462756856,-62.03001866266866,-172.84379409578915,-0.005420402489376704,-1.3625390093861887,2.9453776206718163,1.2456622739612566,0.6505328402090933,-1.2217206423720328,nm,0.0
46.64845299720764,-11.70114497161588,-64.36527481805444,-161.604287845207,0.7225576442727607,-2.13390400580299,2.0401208906508943,1.2694163407224073,0.7754066221448349,-0.5594764148266208,nm,0.0
46.65004062652588,-29.59596214392799,-65.0888190284265,-146.9082356319636,0.8623306752726482,-2.6714679141417492,0.16993512698136276,1.3006153676338479,0.803084897201614,-0.3396024065548602,nm,0.0
46.66825723648071,-46.14848129871341,-64.62632390552862,-133.3926957767125,-0.6125702419612383,-1.6049006908453176,-1.6496816545187056,1.1285844572501513,0.8378725310766538,-0.2901886096452024,nm,0.0
46.670085191726685,-57.5212042458682,-64.11201057675586,-122.57563299496998,-0.7490240642172332,-1.3122787002836047,-2.498188083573501,0.678615558882316,0.720026143701231,0.12036476671194926,nm,0.0
46.67838215827942,-64.72913880599141,-64.38867557890825,-114.63093723602408,-0.925499048443267,-0.8905021393720938,-3.0851132639833616,0.24336263094411623,0.584450228837579,0.26546861958459883,nm,0.0
46.68896770477295,-69.26617574485897,-65.71209992667978,-108.71501522921278,-1.2353087086359038,-0.17319673509967773,-2.987956465691639,-0.11249557460226453,0.46100868097684883,0.33042464094619417,nm,0.0
46.70356631278992,-70.57870224898949,-67.55310589234811,-104.3292398001866,-1.5011172256068037,0.0077974170611731135,-2.965261963729083,-0.3316424568437362,0.21129294503403787,0.5916729615482044,nm,0.0
46.72390556335449,-65.23256662487987,-70.58345316502188,-101.02639504161772,-1.2174604367853865,0.6301637955903789,-2.9199433663167054,-0.3098708205044923,-0.21494714010757046,0.8151998627895181,nm,0.0
46.725728034973145,-57.274823157026304,-71.18655605341482,-102.80877484875224,-0.7074893761918903,0.5451051649886943,-3.060459704316099,-0.23349505177023588,-0.4797471694976689,1.0903090089244523,nm,0.0
46.75179123878479,-33.02406032309866,-71.88340245666784,-114.19140796967959,0.28970411249707445,0.9451457614647872,-2.1379600426140777,-0.3715236103448248,-0.759659925127091,1.0379507600861095,nm,0.0
46.756184101104736,-15.493730840328656,-71.9531124437251,-125.4376819085514,0.7505500412675931,0.960001626546535,-1.2391670397238972,-0.561539913117878,-0.9323683200211044,1.0365832006403812,nm,0.0
46.76399517059326,3.9279932842011887,-70.97865009375181,-139.93457014736032,1.4610993215475627,1.404888304980186,0.15339598346389632,-0.7028211966355583,-1.033440493314386,0.7333767010632415,nm,0.0
46.77372431755066,20.11386946004377,-68.3319289339829,-154.21225688780078,0.7554686759525205,1.4113064271673341,1.0633671140743066,-0.6676141755181081,-1.0496967724099946,0.12580187779686136,nm,0.0
46.800108909606934,34.325505143271016,-60.42258898207727,-172.34155134730727,1.5161902394137479,1.565391089639106,3.5013899115113336,-0.20105447371446078,-0.860203324080934,-0.8644645337162872,nm,0.0
46.80187153816223,32.38780855111707,-57.23326820381584,-176.9798105888672,0.7084219404520715,1.1166047903914622,4.097498155591413,0.24963404286401308,-0.6102269073055949,-1.3652886946511378,nm,0.0
46.83080244064331,19.01059053850592,-55.90934388962939,-178.43543737162742,0.5436420009209855,-0.6388653639091761,4.851330610754424,0.8781082282536853,0.08662991723944986,-1.2833583873391772,nm,0.0
46.83275079727173,9.038563343129514,-57.69698926993678,-175.25892985391351,-0.3214165101520402,-1.3796068144140006,3.9237453678385794,1.0596826335579437,0.4295974522988311,-1.1071188024084642,nm,0.0
46.84193420410156,-1.3971163020947786,-60.252413872790264,-169.13654944899432,-0.5121999647484025,-1.5287281157015855,2.8180495893998723,0.9854571951853611,0.6635902644558812,-0.6173364430543863,nm,0.0
46.850223541259766,-13.13535948231853,-62.86518586420915,-159.55624059207832,1.1532679826911805,-2.3260809678690753,1.6684859429556882,0.9249559975466031,0.8143533910333087,-0.18434207804481256,nm,0.0
46.87535047531128,-42.1972757828205,-66.36963041594274,-134.2424718577537,0.0558131107821244,-1.1335941641034177,-1.63058521671519,0.7216204314844384,0.9458204095479644,0.022870894767551893,nm,0.0
46.87710380554199,-52.79143190971189,-67.03434275188366,-122.93345902449212,0.3894233271897958,-1.1644864350533468,-2.494330178654937,0.4100702320078945,0.7459253974553087,0.3042128141619257,nm,0.0
46.88896441459656,-60.452428687955226,-67.69563843047102,-114.55381807815832,-1.2551372404870884,-0.3225966875564612,-3.0553250983221396,0.1591130973103783,0.5885995213703191,0.23795914158625636,nm,0.0
46.896597385406494,-64.6372421865501,-68.60578077468028,-108.14764110526085,-1.0938780206614929,-0.013747837975450096,-2.844218030653509,-0.06463406935737037,0.36386902341492117,0.4744314181562962,nm,0.0
46.92129421234131,-64.54546819958591,-70.34640338279912,-101.32463143518689,-1.512690482490137,0.31432633355005857,-2.8199221654413376,-0.18321015611061203,-0.025679714146797743,0.6572291312951317,nm,0.0
46.92416858673096,-60.813453301881815,-70.94759042568523,-100.24040152537225,-1.3991219379442925,0.4233937436105442,-2.868920172975817,-0.17319515693912754,-0.21489463641136125,0.8810139762013544,nm,0.0
46.95061635971069,-44.69312538651116,-72.29698317377056,-104.96615847081654,-0.1384207310363542,0.7219864336938712,-2.827702891299046,-0.2972115312368557,-0.5237378393566202,0.9631744849517254,nm,0.0
46.95567774772644,-30.48719967839459,-73.06749547495245,-113.62382613618706,0.20016782962748436,0.847756351609696,-2.284652914816455,-0.43388102809583706,-0.742939632639196,0.9463241121557333,nm,0.0
46.981168270111084,6.708336542878015,-70.89458202352111,-142.96693300838297,1.0343278672242615,1.3737032345543247,0.37371225863598184,-0.5331211625044544,-1.0743172234974714,0.335138950911201,nm,0.0
46.982871770858765,18.991286530364533,-67.36584450870191,-154.76542682291915,0.6808870072381457,1.3674020922875019,1.9339671443733004,-0.3954663524666898,-1.0513311005423553,-0.11591057758322819,nm,0.0
