timestamp,roll,pitch,yaw,acc_x,acc_y,acc_z,gyro_x,gyro_y,gyro_z,markers,motor_input
37.011574506759644,10.736884960335356,-6.9206330794226725,-76.6238781146831,-1.1314586648682023,2.9827671195696737,1.4442916806538322,0.22341359574076045,1.281561730899543,-0.025603917161383584,nm,0.0
37.05743408203125,-0.01588705094601634,-3.5394396808128947,-71.88865527784594,-0.13397066716069725,3.5553729898909823,0.3879235875303022,-0.15979316570706173,0.4223553011275272,0.22532604361577438,nm,0.0
37.060025453567505,-0.2596697990373064,-5.291272690877339,-71.74954199343983,-0.10347843719555133,2.7659711045928086,-0.36491216131967785,-0.35671437888208885,-0.07472036157933495,-0.01363271322062735,nm,0.0
37.061824560165405,1.732682195926195,-8.225458113350198,-72.67111042500325,0.21745335652946676,1.920491866520043,-0.4704174643789336,-0.4447143563019818,-0.5693403453487458,-0.22015025844455255,nm,0.0
37.069833278656006,4.901913807186836,-11.943420306363961,-74.21332363811375,0.09253223226489737,0.45401173099301506,-1.4519285338263677,-0.5397107629084819,-0.8247727636040963,-0.30957443383186084,nm,0.0
37.07759165763855,9.518857628577306,-16.018944638227186,-75.53794177856125,0.306267168806827,-0.9034859194571112,-1.7734256056761355,-0.5560564954076597,-1.0929038937152118,-0.15249811893503615,nm,0.0
37.08465027809143,14.491860698174811,-19.99600358842011,-75.82784638001397,0.703523889787427,-1.7987593873580499,-1.655953988656368,-0.5396476712979056,-1.1283759897808274,0.1556126601926918,nm,0.0
37.10992765426636,20.8024839696156,-26.60938062588,-71.77135246772082,1.6110789853058618,-3.3636043164196616,-0.2648602794406798,-0.43840884238301175,-0.5788306747781491,0.7337747892645575,nm,0.0
37.11696004867554,20.788425731824645,-28.043060612078143,-67.69239683193457,1.4637900695614168,-3.3355678194580007,0.6953273769043828,-0.27430054863280645,-0.11036248018090607,0.8111605306961454,nm,0.0
37.13565635681152,19.565280804056776,-27.49004048515912,-63.20875645485203,1.362667846754554,-2.199453207060348,-0.30769078969627994,0.13546429169615018,0.10624266261330169,0.19191418672083568,nm,0.0
37.140971422195435,20.549933555501294,-25.166904496470668,-65.10015902943324,0.5383376294454452,-1.6879055467807547,-0.40900269500162867,0.4920582418461454,0.030467244718026865,-0.28968750090069484,nm,0.0
37.1631805896759,21.178468796167856,-18.287910566575093,-73.44644215301568,-0.610373043170304,-0.10146649391757001,-0.0023137703854803925,0.6093584377684642,0.3279264545264071,-1.0050442499357783,nm,0.0
37.1773886680603,17.64298550764913,-12.819322210652208,-80.39934545054032,-1.4704239587841754,1.9972226500081438,0.49936461732153187,0.3845441857002457,0.4814902682778373,-0.6580379216610773,nm,0.0
37.19295263290405,14.068494396159114,-11.085245304109927,-81.1091085334161,-1.6651300397802051,2.8029488516994943,0.910738454699965,0.2224069830848661,0.736635596000698,-0.2775504116413291,nm,0.0
37.1958281993866,10.147590931923569,-9.421260012968762,-79.8965881353082,-1.5424316002277525,3.3897221066740704,1.0097512946710394,0.1940607295660333,0.8064612656047377,0.14387837693280023,nm,0.0
37.22514367103577,5.18430917146327,-7.447892624416613,-75.22079011300107,-0.6135568496603923,3.4125750497828746,0.8336601621437225,0.014508897605411889,0.39452390331408893,0.4024204833483025,nm,0.0
37.22684454917908,4.4838722517592275,-7.9191331649895975,-74.09071341425336,-0.42754318075386233,2.843643626862438,0.6233872032208498,-0.13603932523087223,0.0982422854914523,0.20268550460859086,nm,0.0
37.25384163856506,6.777720752169429,-12.950418793942235,-75.58764841737992,-0.23132908624095838,1.136267039795231,-0.3375976038600082,-0.5335312567841746,-0.4934876544400063,-0.2555166315008585,nm,0.0
37.26024031639099,9.398434056996095,-16.688220076714867,-77.02662340380463,-0.3508556794761268,0.2350735357026688,-0.7601034055848226,-0.6126567708207958,-0.6834571297544676,-0.2400995013993652,nm,0.0
37.26492977142334,12.656792352677984,-20.46183080400551,-77.66489668667256,-0.21452596563248616,-0.4823637340400423,-1.509269609360513,-0.6067149668125397,-0.7824858969133859,-0.000798840581393195,nm,0.0
37.27577066421509,15.802585869042947,-24.162012131404005,-76.84629674314402,0.2686100314665801,-1.2998590473750586,-2.1057038370152457,-0.5993691162586102,-0.745154396602257,0.34892801970044857,nm,0.0
37.30361342430115,18.311852571535358,-27.38514581361546,-74.32169560985118,1.131313280037095,-1.9966967383434326,-2.0294290684275924,-0.5179591329523034,-0.611977204925646,0.7021199426903089,nm,0.0
37.30568718910217,18.60324965344519,-29.320857337891482,-65.57952375957619,1.9422761189420013,-3.4334398056850626,-0.38953716740946753,-0.050348563064235144,0.07762734805995332,0.9089167684570411,nm,0.0
37.32135987281799,17.949688591226852,-28.79030617372178,-62.15324028366669,2.057115310437443,-4.005240916970296,0.6832853398035867,0.0419669204117321,0.13585084690591842,0.647666558677262,nm,0.0
37.32353234291077,17.86579774856605,-27.942906271348793,-61.311981484026326,2.0027533297569073,-3.7948781473874296,0.7568440281179187,0.13939515093869767,0.07974089017086179,0.16551524139301282,nm,0.0
37.3329701423645,18.194853844351453,-26.881658660835484,-63.48263211705498,1.0563939675451037,-2.6817120779167833,0.18933143384352247,0.21180670552111583,0.03326309745354811,-0.4083501829122266,nm,0.0
37.35443139076233,17.670744931411058,-24.0007538001321,-72.14154848861192,-0.4008638845284807,-0.06717055388091511,-0.113587164869267,0.2630570292991441,0.26123887389841094,-1.0302121390882126,nm,0.0
37.35850930213928,16.25571828322907,-22.254987815672138,-76.17800283249197,-1.2259512232479337,1.0105411435062988,-0.3442891168568782,0.25804932476937614,0.3346130873370391,-0.9442381487825398,nm,0.0
37.37985038757324,11.767665901749048,-18.911682669968137,-78.76065353699083,-1.2800525194782026,2.3416331821609297,0.3067785581457584,0.25876268997941126,0.6078571201950612,-0.22598645258370498,nm,0.0
37.41572952270508,8.216486307303166,-16.13926613958173,-76.96962984676912,-1.246650670429424,2.2694375222803767,-0.18913928302408067,0.39321492071839537,0.7678579819851289,0.1809060714381792,nm,0.0
37.41759896278381,4.489496476801562,-11.308041208817558,-70.09724749928985,-0.5778143099561235,2.491695771538686,0.4919009151756773,0.06989248163821951,0.06824976670800048,0.28075312140077624,nm,0.0
37.43471097946167,5.6138085273899865,-12.51149520541989,-70.0265420537856,-0.6464232077097151,2.7429139771772,0.7894085944956956,-0.1582988340279885,-0.3011726033840875,0.02958905976953523,nm,0.0
37.439494609832764,7.450514804692693,-15.344788118785182,-71.0982536066702,-0.9832925291367361,2.4066598867314237,0.4822914671379794,-0.4220789988739754,-0.5382488116162466,-0.18485823925920358,nm,0.0
37.467268228530884,16.699010503541835,-26.18199227169107,-72.75179453130443,-0.3752225309017811,0.12250087633693313,-2.0461703629899977,-0.5711910597220219,-0.7620308306472975,0.2632599860299454,nm,0.0
37.472840785980225,19.471673113002442,-29.874260045530182,-70.8997725205964,0.7424671801211185,-1.132397873184815,-2.2145764466553826,-0.5530030389713645,-0.7106141523531622,0.5778593422812831,nm,0.0
37.50513410568237,21.154272561342545,-35.31239493891548,-64.60246088167598,2.406635502189355,-3.664934921252276,-0.46874194918314527,-0.4213822217858306,-0.18002771156320682,0.6776095753060546,nm,0.0
37.50738286972046,20.594853843046263,-36.345517934309164,-61.51974207312578,2.5186377111751375,-4.4588945162971605,1.2146661124149574,-0.22803774042497915,-0.026558349621539235,0.5735379411537807,nm,0.0
37.510451793670654,20.510314788360734,-36.50455787335263,-60.18233559883082,2.5395892452209323,-4.558933406237315,1.3376839931550768,-0.03658252060951605,-0.017665494455930818,0.2717261998875174,nm,0.0
37.536640882492065,23.765799536379603,-36.567007890510766,-65.39718841116378,0.4270869870754721,-2.6559314380372445,1.0533968028351228,0.1647613397549275,-0.32258418109435116,-0.506437309531996,nm,0.0
37.54409193992615,24.98973728964565,-34.93730771979731,-69.41263381373855,-0.0748513537335727,-0.8880358223462782,0.03238680111194637,0.37417649680349335,-0.07120977414639917,-0.6981115540951307,nm,0.0
37.55137324333191,25.18873670323875,-32.46306915346838,-73.41720999350096,-0.7394598713629192,-0.1993724144919245,-0.7951110474344312,0.4755634890235626,0.11387442677312873,-0.8043126595358827,nm,0.0
37.570576906204224,22.532068288141893,-27.321259405964316,-78.15670796354144,-1.6483207639286452,1.646400104853708,0.11465904038851056,0.4046792516939017,0.49869509846527105,-0.5283366840820873,nm,0.0
37.60110926628113,9.38775413529252,-19.943187377913908,-71.91965155049104,-0.7737938820854838,2.2859412643245425,0.709647296126901,0.1695481371454801,0.853456570022425,0.41290218002796514,nm,0.0
37.607277631759644,6.263028920292492,-18.509303576701313,-68.66254638577092,-0.3796803099647017,2.8122171267770155,0.7115645391404154,0.06513742018619235,0.6406565640953505,0.4715588289999762,nm,0.0
37.641895055770874,4.089114862171715,-18.478017820141034,-66.43632105525238,-0.41263240487724323,2.9807534449849884,0.10960022528211538,-0.1583507856143494,0.37141977993984376,0.30444328722853553,nm,0.0
37.65312147140503,3.4987028916791796,-20.2927529083427,-65.67998993228133,-0.4660914517276482,3.146524821554351,-0.08291640627824998,-0.3837107216124755,-0.05847065148568322,0.09387825293809675,nm,0.0
37.656261682510376,6.376589686689082,-27.373396227219136,-67.37730095441363,-0.5886093077094567,2.299906939287044,-1.1734510639151923,-0.5804636656631621,-0.6590610265736353,-0.11840264263224,nm,0.0
37.65807294845581,9.390476992855284,-31.531854188240803,-68.25305844252168,-0.337886950059797,1.300281919307186,-1.5986307297224807,-0.5759072209147366,-0.8158571529258548,0.048174945930203196,nm,0.0
37.672794580459595,14.488581420630045,-38.696805905451704,-66.56216541836555,1.141289420362675,-1.3595582698785666,-1.968001613972472,-0.4847307471743531,-0.5844541510088208,0.546863396117138,nm,0.0
37.682321071624756,15.649260613580132,-41.54272956482257,-63.72600056509998,2.352533087763991,-2.6350452085870275,-1.6573453307223662,-0.44633017609821146,-0.4147604211195171,0.7223533802051308,nm,0.0
37.70935106277466,15.778613954845861,-43.785614731077565,-56.47252461545141,3.4385442965120543,-4.90378080882981,1.7632073874658787,-0.08098105102293532,-0.05888891018240787,0.7348073637544479,nm,0.0
37.715184926986694,16.841730257189575,-44.40270913092066,-54.26550081388802,3.063432544663302,-5.112440841662579,2.661521564350145,-0.01615236119825357,-0.21047562574535117,0.6107337092592238,nm,0.0
37.735924243927,22.554705987174646,-47.669731353805204,-55.30573846066355,-0.04571590919808456,-2.413992107758446,2.1647703777628946,-0.013243662415488758,-0.5859894215528872,0.20110398430080703,nm,0.0
37.73899984359741,24.740173328411682,-47.72657144287534,-57.67267712629385,-0.6313826886343803,-0.7055602497981447,0.05776951515930705,0.152761291571204,-0.26607516283193444,-0.17584478872305517,nm,0.0
37.76501703262329,30.623128374837673,-43.171951292383774,-65.84295557528172,-2.5577135894639316,2.0673127836476937,-1.018130406804868,0.7079862503824569,-0.17197376967829295,-0.44844849713687995,nm,0.0
37.7685923576355,30.511717040983203,-40.06225523443285,-69.79973783722362,-2.715647050473096,1.8761230506631985,-1.2283198882941393,0.5677543035310059,0.23698700509083842,-0.8192263683132046,nm,0.0
37.791444301605225,22.733902046463015,-35.68830711863288,-70.8171104474653,-2.7186266075285475,2.9108780361217765,0.630616783262961,0.03880604405478644,0.8542428631739901,-0.38351020551490295,nm,0.0
37.81294322013855,14.682596543539146,-35.34490819985791,-67.66841913633517,-1.7067771786749015,2.444587047989057,0.6592543893058082,-0.40133420291288047,1.2390436116702548,-0.22880820342980823,nm,0.0
37.815030097961426,6.4502947719791255,-35.465608762937876,-62.85178231289493,-1.0152893995318595,2.365528617099516,0.2490662462650741,-0.5842712328595426,1.1986471052169068,0.09919934822931159,nm,0.0
37.83049988746643,-5.564160250448647,-37.92893668035445,-54.90605427853237,-0.009532457719495029,3.17930901915912,-1.0469700498221444,-0.7982687693753273,0.5149928667931035,-0.05099103555956665,nm,0.0
37.83440089225769,-7.868705285368183,-41.34087483474575,-54.605181966926494,0.20965792758578214,2.3043617687264515,-2.06531955579899,-0.7680190109587417,-0.11908404143936116,-0.2874725729653979,nm,0.0
37.84386229515076,-6.014426674034616,-46.16538549737563,-57.435571610101384,0.8088958922152394,1.534234516253574,-2.352708669856291,-0.6541544855365118,-0.7777733864002686,-0.3910397090703398,nm,0.0
37.85301756858826,-0.8762241769606769,-51.63322314340338,-63.19287691142644,1.2394003930963322,-0.33835366421609253,-2.283261614596233,-0.6174413326579327,-1.1446781115584437,-0.46634496136724907,nm,0.0
37.88091540336609,14.345302997126028,-59.45018617329339,-77.41209605301174,1.754213422901967,-2.6515092713298034,-0.19211626113144104,-0.38421356918715716,-0.9498056288670886,-0.13707398695898992,nm,0.0
37.88981342315674,18.004849682704897,-61.21497292417332,-81.18247752098289,1.81619376047448,-3.9509575744049545,1.0201265351618358,-0.28710394300327496,-0.43417890859851577,-0.13143329520577285,nm,0.0
37.892276763916016,17.978513897714848,-62.47261671931903,-81.45175183194006,2.3977567883703936,-3.9357537228885926,2.8763939379124537,-0.2570146443898837,-0.04735818531763484,-0.03409440348576121,nm,0.0
37.90548229217529,17.58720311540974,-63.41304435605396,-81.49404766733404,2.70473728955133,-4.673567332995645,3.348040414432945,-0.19921891710501952,-0.004369653511426078,-0.04596664538317849,nm,0.0
37.9300696849823,26.526922182295355,-63.52077944496822,-89.60478104192381,0.21017205905776132,-1.6590099872830846,2.598631498243338,0.09507918575412908,-0.4902048496300459,-0.026744758861447147,nm,0.0
37.93200421333313,30.286841356256165,-61.45301137620917,-93.07887915353261,0.20426169147441148,-0.5048132918940911,1.4376294645463172,0.3978555372784699,-0.36920993336698876,-0.025744291622509102,nm,0.0
37.94106698036194,31.35545717665619,-59.072685157813815,-95.35776671391663,0.4369729652990348,-1.2308855737197708,-0.4265375826910349,0.45951090337347195,-0.15268020527169662,-0.2691412483201851,nm,0.0
37.94813823699951,31.745340800529533,-57.39029706839556,-96.95575850479173,-0.3016599547846407,0.00999250728101958,-0.7286631718789836,0.32217770531169415,-0.08862919840163642,-0.2527527099973578,nm,0.0
37.95682692527771,31.23178854633576,-55.95141680166582,-97.07574195773967,-0.8530151920349905,1.340438451004675,-0.42580328170010295,0.2843949348650533,0.009041005814841742,-0.0918276482353061,nm,0.0
37.967100620269775,28.998902239896843,-54.03944631677328,-95.15114533035195,-0.896777940913345,1.750079962467969,-1.218364757536892,0.39982022947907636,0.201945932494876,0.05279057667656201,nm,0.0
37.993167877197266,26.10034960537168,-51.615150879275284,-90.67491133577936,-1.0790420577126238,2.2501165956480698,-1.4379757097219938,0.17189953557439025,0.07982193954582945,0.32233385385511265,nm,0.0
37.99897003173828,26.391935775535014,-50.58155790176417,-89.18945118642426,-1.1352648658527837,2.599284787895746,-1.1771946428359232,0.19927049533302382,-0.04907698422628095,0.3869488658698232,nm,0.0
38.006186962127686,27.53452690418773,-49.647275869063876,-88.75739404004172,-1.5462707558672795,2.5294834573139804,-1.2787680186430803,0.18206642478744606,-0.1559906227353977,0.29281678026980623,nm,0.0
