timestamp,roll,pitch,yaw,acc_x,acc_y,acc_z,gyro_x,gyro_y,gyro_z,markers,motor_input
21.510842323303223,-104.53678260130091,-18.98714299294354,42.21682359206106,1.8026164429977753,-0.030719605297542547,-0.7224632188255479,-0.6893357821825813,-0.30602094337489866,-0.1360285808116103,nm,0.0
21.535714864730835,-111.32869809796676,-13.733916873954026,44.40979026907072,4.126097031372083,-5.492937411393785,1.584319053902503,-0.7904219131288122,0.055074121295994594,0.11665518870219926,nm,0.0
21.537800073623657,-112.50866555159315,-10.74950203778389,46.357576124987034,3.3451070829432936,-6.626925108423286,1.840992666293639,-0.583542558307027,0.25950656299641117,0.3835726318336402,nm,0.0
21.54412055015564,-110.2870323485122,-8.744362473436922,48.792870365006586,1.8744125292147487,-6.691577487122681,1.0760375304928065,0.004939221082411236,0.5980477016037622,0.6266456269143046,nm,0.0
21.568583965301514,-98.78865748152738,-13.875817497258792,49.00230043802427,-0.7228263642483178,-3.7872337084191114,-0.9528738297152951,1.436574125615481,0.37431666104817163,0.07899040635668038,nm,0.0
21.573336601257324,-91.43338786718982,-19.589569075438042,44.872212021512084,-0.7026073604041893,-1.0040353760836949,-0.20564775766043894,1.8035219585699482,0.24986897300063263,-0.39204711688499094,nm,0.0
21.600277423858643,-72.66243755385337,-24.685879430767795,33.42873652898864,1.1745664127279782,2.654276638177232,2.0014037345102498,1.5644034721602655,0.8850841522779056,-0.27921728053575334,nm,0.0
21.602094411849976,-66.39791363647247,-23.00031009139531,31.097659060229145,2.318378439453245,3.5556715678364554,2.3853561389238243,0.7990876774571958,0.8904260253260575,0.08353138065868179,nm,0.0
21.625869274139404,-63.39434841412642,-17.786043062640047,34.76437408182207,0.047929685878945846,1.925273507363712,0.8564246183763269,-0.14345795513664233,0.46724579413780837,0.6591023125772313,nm,0.0
21.63047695159912,-64.47201852889553,-16.45523757779229,38.337208597024556,-4.852144187343489,5.177192679878843,0.2806066792116815,-0.31453975373122667,0.08740002875614253,0.7030172029136504,nm,0.0
21.654191493988037,-79.25562450830644,-17.040963819449626,40.42617135062095,-4.342179244608174,2.0761585499128987,-1.3142768805895084,-1.0098847223236909,-1.0934573134744243,-0.5090557476631627,nm,0.0
21.658570051193237,-85.6495056621957,-18.759542829084655,40.786884275082365,-4.8139099510127075,4.178634093351893,-2.8207776995524654,-0.6888817758532926,-1.0599170109253686,-0.43428468201200926,nm,0.0
21.682411909103394,-101.42343629205305,-21.210900403013667,41.807320252038785,0.3624692504955197,2.3583228030353434,-1.3190718664929524,-0.929206964156965,-1.0305923707994231,-0.5819204852489466,nm,0.0
21.70700216293335,-112.11797270289443,-18.07754756634623,42.971571132188366,2.635755144681104,0.021898689725431127,-0.9654807568511867,-1.086482008286558,-0.39155399950471315,-0.21095096199026897,nm,0.0
21.71317982673645,-117.45315399792483,-15.346923248301962,43.94929270255532,3.1982193192991075,-2.502867850256618,0.44537048542169616,-1.115913912777984,-0.30483690315314527,-0.11655884909336665,nm,0.0
21.71674346923828,-121.71472742708313,-12.582353740089111,45.374108245973595,3.497925900830726,-5.276099941278399,1.5830756405666986,-0.9757935935506327,-0.18447622542515107,0.08329471258637029,nm,0.0
21.73455262184143,-127.7392866151916,-7.646277837877634,51.037954745546735,1.4222270482511465,-6.61690809702519,2.0242345536477275,-0.5923530677141686,-0.028175040947466264,0.566557546097994,nm,0.0
21.75915765762329,-125.9677266404332,-10.03865418715961,50.41608501630206,-0.32301187621926475,-5.310282295130564,-0.18997848081532068,0.5661245691409357,-0.04960795899732772,-0.2450365546477275,nm,0.0
21.79424524307251,-116.5081829648583,-18.572100287378365,41.75329953551367,0.3485797024577193,0.033517001945103445,-1.9270886298276937,1.4039691913580168,0.12027661597343886,-0.6065095705064797,nm,0.0
21.797342538833618,-103.84634885468456,-24.84630389475716,33.9905664287259,2.3371383550948925,4.10026397602402,0.09060979303171585,1.3130964486154693,0.3496737067615739,-0.11820225411258646,nm,0.0
21.81360673904419,-90.86396144238111,-24.1032603498492,30.42517202808088,0.2823462908436139,4.2140897281071865,-0.3909519627489901,0.768867337868838,0.7560128844637638,0.39364050610929857,nm,0.0
21.82015085220337,-86.92299634525276,-22.15550356976058,31.896800074315276,-1.9853178689053652,4.115149528703922,-0.5929247527663876,0.42626388260893966,0.7047961242160816,0.6724529481530298,nm,0.0
21.845945596694946,-81.86147917544118,-20.32494692974358,34.42670690634861,-4.6990280876028745,3.0695522569394575,-1.182215266826814,0.22645338561749007,0.2307573193581316,0.35636349840275866,nm,0.0
21.854694366455078,-81.79151685940833,-21.124688930201444,34.78727401605538,-4.058194072882622,2.2267499906097923,-0.6435427648201766,0.1079437883134316,-0.12812632699500764,0.11427390307564861,nm,0.0
21.85805082321167,-82.5241985489068,-22.359314809462354,34.60376538050201,-2.8315999125359577,2.6355259732174625,-0.2740780435100699,0.03479370494407625,-0.28453404984432706,-0.0879604078258047,nm,0.0
21.88204026222229,-88.92126372305923,-22.82077225313928,34.411531454890216,1.1833414027233704,0.3918534586898682,0.36353082300184086,-0.6350614042583393,-0.3652325595603649,-0.26189915678415826,nm,0.0
21.88760495185852,-93.47584824355711,-21.117560431384273,36.32790144348741,2.8164996899058226,-0.7823373979080106,0.3942316969448966,-0.8817703859966806,-0.21488366196153683,0.019312655543872372,nm,0.0
21.909672498703003,-101.14219176310048,-14.70589851957418,42.10456224258005,4.2563586727721106,-4.362245448314425,1.2644864170144856,-0.8929921484730091,0.17033281929210758,0.4711739432765538,nm,0.0
21.91548776626587,-101.70606814653065,-10.96053205025519,45.44779848081127,3.011814411048606,-4.891649707737322,0.5705496480901272,-0.5919970710571822,0.4683820161386106,0.7076653146182503,nm,0.0
21.929030418395996,-100.50220954976646,-7.976368178587243,48.924532141275236,1.434700624879498,-5.37420532518894,0.4875981340771874,-0.2693735011891887,0.5836430894066866,0.8057426179459783,nm,0.0
21.934374809265137,-95.88351032355888,-7.357476632414724,50.56327143474714,0.013162937310887048,-5.271963468635537,-0.8061209988128761,0.5062380035127411,0.7804063564525507,0.5165814559891797,nm,0.0
21.959482192993164,-81.9857590385591,-13.906968941773245,46.271171945509224,-1.290384334046573,-1.5307942128137348,0.11467617218384919,1.6244005138237345,0.5516066385295552,-0.3070810755481807,nm,0.0
21.96328067779541,-72.42639089753426,-17.497035671324436,41.573555325840886,-0.6876361439113567,1.0855082046987239,1.1254968055389571,1.8333974508656234,0.7585058419841113,-0.4092103872162112,nm,0.0
21.97639775276184,-63.94745636209428,-19.15449348297345,36.45628281792822,0.20537941353638622,2.2918001604892635,2.2356498771679534,1.469824696364522,0.7521967073295327,-0.4791647437855071,nm,0.0
21.98655915260315,-58.58177415830285,-18.959139650617796,33.72151594292658,1.9943060366102696,1.7533562949490056,2.243308768606934,0.8183122665038268,0.6094392326735728,-0.17476120877856416,nm,0.0
21.99618887901306,-56.65995088076808,-18.014555229048014,34.58627129259899,1.051867682709535,2.6568673939151197,1.8180600095958792,0.20611053330419474,0.35550241787743997,0.31897735452631315,nm,0.0
22.01422929763794,-60.11187734014238,-15.38641952011438,40.24556133786754,-4.001899482048358,4.085487202595479,0.6673354495289665,-0.5675129665811712,-0.13287756515558027,0.4830617348622775,nm,0.0
22.0200252532959,-68.32109861364947,-14.864627732254787,42.668534636167806,-4.656806134366151,3.4070188139411393,-0.677132194583884,-1.246543223358644,-0.9780601332453472,0.019342496894176144,nm,0.0
22.043482542037964,-85.90522235457722,-16.271866048597406,43.49931560527961,-4.588550474482667,3.5515633833551514,-2.9578705330112327,-0.9633200389623573,-1.2457566515245224,-0.590474473604611,nm,0.0
22.04847812652588,-95.22715740658158,-17.80007597761589,44.09359672431293,-1.9244057576572888,3.1359285376399195,-3.1939981079788575,-1.0612353767965776,-1.463523753125574,-0.576339505237448,nm,0.0
22.058659076690674,-104.01016961188583,-18.785481315233188,44.811358889587886,0.5925774398695869,1.8994059795570921,-1.868593415175976,-1.0409731993416291,-1.3165922225631863,-0.5559235873730121,nm,0.0
22.084161043167114,-115.93946451270534,-17.377013048833128,45.71794411227479,3.260144953576995,-0.9286276405803674,-0.46226280978889317,-0.9452367702551281,-0.5907754722503021,-0.28416278683199375,nm,0.0
22.086875915527344,-121.04759838112085,-15.09411137955623,46.926414953295044,3.9476928223654766,-3.158754713619901,1.4924935949109395,-1.006530915803111,-0.39173363243107606,-0.05263910883508202,nm,0.0
22.09886074066162,-124.22485699511856,-12.304538141425027,48.576557716340304,4.015744557721182,-4.860331525836649,2.310510962632571,-0.8275880538975111,-0.0762327123364011,0.21727529999615652,nm,0.0
22.104907035827637,-126.30870243781426,-9.570081102099662,50.78139947926401,2.540611222423625,-4.768719816302603,1.7440952685977644,-0.6811014839612348,0.049345929694655816,0.43065210743552385,nm,0.0
22.12345576286316,-126.37653823557578,-7.75466937000743,53.06457088288337,1.6882161043056423,-5.731906570104713,1.912406729660489,-0.2925524501804179,0.2205718691728728,0.5294718787107773,nm,0.0
22.140777349472046,-121.36906341490203,-10.677601040627717,53.622159498462906,-0.08399633312156779,-4.165471239198967,-0.023774956415995422,0.7802274898260121,0.14447463089586873,-0.01521650181319949,nm,0.0
22.143160820007324,-116.01984836258929,-15.13219496971498,50.74934025972253,-0.4385467947971672,-2.001422702001958,-1.287595379905288,1.3466591764522777,0.28060286003833396,-0.30210679093815695,nm,0.0
22.16965103149414,-103.1331061708313,-21.786427280338767,44.31900771551889,0.704560614403579,2.2819835579063272,-0.09402969394004237,1.2611469218939153,0.5510791069234008,-0.12352806304736567,nm,0.0
22.171858072280884,-95.4078856537647,-22.359861562968867,41.317292580488775,1.3305363209371504,4.081608110729975,0.31826050350369345,1.1350656686205431,0.8866363795178763,0.035376165810317835,nm,0.0
22.181684494018555,-88.83250644313851,-20.90742381000026,39.657410900115885,0.7096433358930165,4.332110392409266,0.20497360487782063,0.7496488370005274,1.011831284020568,0.2119464585090074,nm,0.0
22.192673683166504,-84.57648445869788,-18.332391201340478,40.53484173798175,-0.49039558284179174,3.712307123578598,0.08346984431055983,0.2908883818615711,0.9084232513751004,0.5254258694960755,nm,0.0
22.21581745147705,-81.18950009793218,-14.663858315283635,44.33701311079733,-4.261235126024862,3.2197112576104905,-0.8223068707974429,-0.07697264255273067,0.2645422275552096,0.42381751338276263,nm,0.0
22.218566417694092,-82.51169100938428,-14.933783091279436,44.83525101804439,-4.2744092926374355,1.823035676031795,-1.1240227993469463,-0.13673996818264658,-0.21956030069017995,0.05579232783209619,nm,0.0
22.24406909942627,-88.61717054747118,-18.573348860056026,44.18399132520216,-2.8789489102444312,2.6988848476217906,-1.20174534904968,-0.21263990868036622,-0.7955075357094331,-0.4037895145782139,nm,0.0
22.25319504737854,-93.51178430621908,-20.014703128782713,43.57466800296142,-1.0830897575400458,2.490771953945779,-0.9144434134812901,-0.4582676441199243,-0.8520350857514473,-0.5245828884615271,nm,0.0
22.27265954017639,-105.74152000741402,-18.526299399998553,44.4105233448315,2.301785257897474,0.17854641035697635,-0.427348155619753,-1.095827097846483,-0.6486234106352766,-0.37472308107337415,nm,0.0
22.277525424957275,-112.48089700080497,-15.99594108960948,45.33751502683146,3.89979642919456,-2.8890344573041777,0.9360629549577831,-1.2652489773099205,-0.553054199836216,-0.2904816244157457,nm,0.0
22.304733753204346,-122.85282298056703,-9.838695805833694,48.95074579412472,3.490455209675712,-5.34649943220085,2.3692168016441837,-1.067752634708111,-0.24239172378976181,0.26236532021564957,nm,0.0
22.306403398513794,-125.51285329474379,-7.537180357189551,51.04920653269325,2.6944636521783982,-5.954010376704426,2.498383364711367,-0.6897130445216136,-0.10096488320621765,0.357075862605171,nm,0.0
22.314056634902954,-125.37420482346432,-7.15049499082152,51.93272525683027,1.4132368256387566,-5.661297962004864,1.440617459051444,-0.04171036908273217,0.0758963589891502,0.21356932607077642,nm,0.0
22.34078621864319,-117.96332859793318,-12.766652117551269,49.824813743179256,0.03596458244007764,-2.9658870468308014,-0.7890083850721047,1.10788423729115,0.22888639519498066,-0.08508986924991971,nm,0.0
22.343392372131348,-111.87408179765596,-16.782938422261605,47.95985590405899,-0.17640603461534665,0.05314857878102724,-1.3840786854587104,1.3834392956908275,0.36146464915984744,-0.032025571405182536,nm,0.0
22.352606058120728,-105.17341945618938,-20.405641658131437,45.225916672310774,0.3512794347756531,1.6321953726916596,-0.5641733004047892,1.4038310596099879,0.4250538208482906,-0.08069651285237087,nm,0.0
22.380584716796875,-90.74970515389752,-21.508281206078802,41.163145689089625,0.5880140229519707,4.791277714151568,0.3803557348937486,0.8741133693004466,0.971530835510901,0.30605388341870093,nm,0.0
22.382296800613403,-86.18773938673903,-18.649295614862364,41.23582425666567,0.10149042319084056,3.7442531451888774,0.4975060235341731,0.2779641088468757,0.9928634778616225,0.4067231164809729,nm,0.0
22.406302452087402,-81.11305621342488,-12.428484139418591,45.16080680907661,-3.520247377901611,2.936767132016581,-0.8062710715100329,-0.1036300244636546,0.6214974415536356,0.6403155699984069,nm,0.0
22.410955905914307,-81.59347923275863,-11.537891387673728,46.58697272807477,-4.316204157907861,2.3367630272262607,-1.084127883187102,-0.1849882754894044,0.056246137317604764,0.3313704873627755,nm,0.0
22.433337450027466,-85.74366996716225,-14.36838856171412,45.47361845175999,-3.4034643149589265,2.470492464830305,-1.3327039071759876,-0.030821173920569336,-0.6122138602292702,-0.3287543337552991,nm,0.0
22.45205044746399,-94.33409508221357,-17.057287096688512,44.78074692697789,-0.09210964105888512,2.840517533754362,-0.5270853422812966,-0.5315123083664365,-0.7395577696838693,-0.3691782858011817,nm,0.0
22.468202114105225,-99.2359306636837,-15.88809912381698,44.91208894436201,1.4568210258383494,1.5448879979319543,-0.5056300398203961,-0.8259526172945835,-0.4996569379365494,-0.3025778151342388,nm,0.0
22.470020532608032,-104.46120803250808,-13.079289185700489,45.724699828547784,2.4848750501522883,-0.21537640236213781,-0.3547283829553423,-1.1067055656575189,-0.3255328986538811,-0.13155709394030374,nm,0.0
22.478059768676758,-109.56177640641096,-9.501207617798716,46.83964620927278,3.278300915757598,-2.746043534491939,0.4030153721380101,-1.2051483777159804,-0.2270384028689585,0.014236749101423923,nm,0.0
22.500011205673218,-115.33122814253757,-3.379410143201468,50.67623202322937,2.803754289426918,-6.58092802367295,1.9669469725903732,-0.6341525310693295,0.08754758837487263,0.4782504865314422,nm,0.0
22.505590200424194,-114.3170498813706,-2.546824962805944,53.39127660971166,1.1882204214123897,-6.519242904973579,0.8340946226835275,-0.002266057258645534,0.26797416923099965,0.5971570242655115,nm,0.0
