timestamp,roll,pitch,yaw,acc_x,acc_y,acc_z,gyro_x,gyro_y,gyro_z,markers,motor_input
28.02673888206482,-94.83276214128372,-21.472370356686003,57.26171297274379,0.26695665665477664,1.7367363094252142,-0.8102851117474184,-0.6889876061329928,-0.6579465579788809,-0.19392461754761212,nm,0.0
28.034798860549927,-99.5789244552567,-19.14772181099367,59.31358351621066,1.482200106063336,1.2349718706653452,-0.7995950506864908,-0.8579920177840283,-0.5158653385111298,0.006196686427508823,nm,0.0
28.057772397994995,-108.27924387638862,-13.114361129567438,64.23980625596347,3.4629512369136473,-1.730832524741603,-0.118567475066282,-0.9042393528305023,-0.43533468034660106,0.2993349882282704,nm,0.0
28.059494733810425,-111.37638315630969,-10.393519048655401,67.5525621769878,3.8409215476924765,-3.149849078459714,0.391967171379587,-0.7422742961636654,-0.32825132837487436,0.5214947400163898,nm,0.0
28.095930814743042,-111.03531555068314,-7.576237269222682,73.8041788025907,3.470178064473616,-5.913345651915219,0.6411540729899737,-0.04481123278852351,0.36505751612193255,0.6544838762687974,nm,0.0
28.098185300827026,-106.44925971409228,-8.682077377152632,74.7123381093292,1.8783087277825727,-6.206295902960847,-0.4117643805116496,0.46464997836867705,0.8185710814117181,0.38069232783967477,nm,0.0
28.099962949752808,-99.54628872698389,-11.850844077385544,72.79353375256686,0.3391086678525896,-4.75501764187802,-1.050674457232742,0.9958237506924744,1.1298651030821416,-0.0721347822103995,nm,0.0
28.105552196502686,-91.67276338753267,-16.37212977738288,68.03458072299915,-1.261294210093128,-1.9723846657838566,-1.152562812346913,1.3719126473318488,1.1373070883894172,-0.5147940390159111,nm,0.0
28.133498907089233,-73.92944872849723,-21.901999414836133,56.40971779718661,-0.4297555290157032,2.1991986267398254,1.0688206809756986,1.2509014531337665,1.388449962792296,-0.3911321119848124,nm,0.0
28.13748073577881,-66.79053326411649,-21.988334672649458,52.478401961189384,0.8498199116721413,3.556453060440642,2.1035773878926913,0.7967499293573872,1.0641411031608652,-0.1894428084075747,nm,0.0
28.157799243927002,-63.26890424688058,-20.70033704110316,52.27620265048743,-0.03435992837168576,2.1716618316473246,1.3711464151460075,-0.030949352400460605,0.08479508791017103,0.2465173080433037,nm,0.0
28.163820266723633,-63.63739313768262,-20.913007037119133,54.12167520096365,-4.049788697383075,3.0919646840758976,0.9830239805477368,0.0029139830927592675,-0.083025500480682,0.367162644374649,nm,0.0
28.1892671585083,-75.30856544400577,-22.243751719389643,56.259503416584565,-3.5517116185985653,1.1851642758732814,-0.49813865448059885,-0.6188644391164296,-1.1753663354451382,-0.47932187736296106,nm,0.0
28.19323492050171,-81.02244254400574,-22.476479810054087,56.94550606652043,-3.803646837881071,2.0226495512775924,-1.1656600716250625,-0.5339580890367438,-0.9115900756317671,-0.34394303728220005,nm,0.0
28.214552879333496,-93.37116705746385,-20.07541662777769,58.66502875649193,-0.1401917376607161,1.7266743232241535,-1.1234472218815386,-0.9039037161908512,-0.8113937980652022,-0.3545256801519042,nm,0.0
28.22032070159912,-97.03947870959367,-17.404523242476557,59.22092989174433,0.7972341987911211,1.2621795224379866,-1.434291751550598,-0.8108576390228083,-0.32162847546479256,-0.18889254100356814,nm,0.0
28.23182487487793,-99.94274580582693,-14.466957703094144,60.359812241199535,1.7092124113250513,0.5281730511547579,-1.569753885008967,-0.784550992852781,-0.18609341822555941,0.050878498880545006,nm,0.0
28.254129886627197,-103.96365808273951,-10.155785675366518,64.66759002971556,2.967627746116992,-1.783981738890472,-0.5235262511279746,-0.4242703792131478,-0.052057168618209367,0.45094883822142606,nm,0.0
28.260390996932983,-103.97673042823703,-9.087804824547336,67.6602187672196,3.2682027225270587,-2.934990981334336,-0.29267050758432883,-0.1925047213630846,0.0883878876255265,0.6312729220534468,nm,0.0
28.284284353256226,-97.81094998559533,-8.828440107302947,72.47935847019733,1.6964641229025346,-4.769456848131079,-0.67900903191223,0.3471415885513597,0.8767258904386274,0.560815422721487,nm,0.0
28.296459436416626,-83.12905646466423,-12.700164276840097,67.80074458817552,-1.5808615233375853,-3.135257061927887,-0.9191961508134182,1.033496794387806,1.3108366874393584,-0.3441004375364231,nm,0.0
28.306554794311523,-75.38282849549127,-15.03191583469866,62.68230771948464,-0.27346969010531397,-1.4320025855425942,1.0184842302730532,1.06511777860574,1.1709390767554286,-0.5978095993566707,nm,0.0
28.33208966255188,-54.953514949965104,-14.907037122219943,52.412879351091526,0.6376980204078767,2.3042571641614082,1.7798189791067192,1.0179690763793265,1.6714080441551513,-0.3144835001322358,nm,0.0
28.340330362319946,-48.46062277504251,-13.905331437947277,50.465430091713365,1.8263019402466998,2.7990520451422407,2.0175671422335024,0.6435256090645471,1.105327552223331,-0.0007929664239353021,nm,0.0
28.356948852539062,-45.64663400406117,-14.483702083649545,51.75725594460612,0.42740432011795704,1.0547776192094436,1.2075750625579824,0.1675311007959072,-0.08060385568778015,0.20745639447609404,nm,0.0
28.362987518310547,-46.7464827150039,-16.219776728244895,52.547630644927736,-4.194259354453931,2.0214957343959603,1.8526480185932697,0.15704323812048673,-0.3832813171248315,0.09187944419407847,nm,0.0
28.387237071990967,-62.198488337475325,-20.26650969058163,52.72969722810535,-4.190304645249955,1.4475649822166545,0.465123063843677,-0.7060412242923423,-1.544020422895295,-0.6896611751452864,nm,0.0
28.40166425704956,-80.135263517311,-20.29299910603187,54.990422451328946,-3.083006321809929,3.6596337905988214,-1.5418781044607979,-1.1519848226790672,-1.3744093229049692,-0.4296197959508718,nm,0.0
28.41550040245056,-88.88827340220928,-17.97616907476057,56.50124168595698,-0.843673182411485,3.1258751478081677,-1.6479136510457748,-1.299012936552787,-1.1187841354388295,-0.4505934449593107,nm,0.0
28.424277544021606,-94.82194308613934,-14.928287902649346,57.168351102757335,0.2010320449083026,2.4782948816686887,-2.3745880698176713,-1.1243920899989077,-0.6258589938034836,-0.3283346394428668,nm,0.0
28.429741621017456,-100.00344279501273,-12.258205180478981,58.5251787341287,1.259982682487361,1.2023947179668613,-2.486875545441283,-0.9814896134568779,-0.571324445534547,-0.059864317175282865,nm,0.0
28.452545642852783,-108.4602347072468,-10.153986617344334,64.30987036615083,2.722023689029276,-1.2792101201364812,-1.0429165483650442,-0.4085251007021289,-0.5812463215433156,0.4891815348909494,nm,0.0
28.45846438407898,-111.15829815757759,-10.195479731939496,68.20301786085074,3.4636563850396356,-2.6770242380018305,-0.07048929422406378,-0.2036779837883619,-0.48571245348545883,0.6843697498325125,nm,0.0
28.481115579605103,-111.5999480405349,-8.940304366108473,75.42133216637004,3.193395334869218,-4.345288155930467,1.0433615767155844,-0.12570214219050893,0.23458480372721482,0.6869304249265625,nm,0.0
28.488031148910522,-107.6380648318957,-8.044476958172316,75.66603823609086,2.7104381772665485,-5.246739353127373,0.5979368388566222,0.027486202729033838,0.8094694327161767,0.252121378393266,nm,0.0
28.551095008850098,-95.7460842043395,-9.116815902560447,70.70673773679117,0.9310386120162571,-2.90559470577394,-0.3062012417146224,0.553119281085704,1.0122482989004513,-0.34707843671320354,nm,0.0
28.579664707183838,-53.80028080296819,-16.505613805746187,63.543649268606885,-3.291995853422098,1.4918868522173658,1.1458272827494755,0.1715658772080103,-0.1751700875330668,0.15546507446459085,nm,0.0
28.58864164352417,-58.009228858699146,-18.013281845097183,63.68860508295692,-4.560987520166185,1.735196317265459,0.8392049160313226,-0.0747372400245466,-0.8553962089024427,-0.24446233265847256,nm,0.0
28.60941505432129,-72.53612656615155,-20.80228444319488,62.08015625927312,-4.359494978391541,2.4420502811810016,-0.49409508089698995,-0.41894223227558647,-1.3984880631587147,-0.7676719205481282,nm,0.0
28.611202478408813,-80.75281337956444,-21.6672961921282,62.69446018399558,-3.882802640725716,3.4065286834995256,-1.3218842002557654,-0.5398602087100769,-1.4433259777541316,-0.6237422017734472,nm,0.0
28.62017273902893,-89.24177349471104,-21.608122239747445,63.621447616328496,-2.144561204633638,3.2975887376142667,-1.7117859218079132,-0.7079944995362922,-1.4092981387386152,-0.5920370642637869,nm,0.0
28.644562244415283,-103.29812880622626,-19.011984902091232,65.51185960426314,0.6564001647605131,1.336042416803688,-2.2648073368116846,-0.8167437448187256,-1.0061692431220126,-0.3299496162893444,nm,0.0
28.652615070343018,-110.08117028701072,-17.16136439417323,67.23257283120013,2.010802002947811,0.07546441864121678,-1.5481353337149661,-0.849045256864267,-1.0359065755923513,-0.18123786599171376,nm,0.0
28.670867681503296,-121.80907342130281,-13.25137191645763,71.39863211868095,4.068153332760172,-3.0841762533218215,0.6754173532076219,-0.7553583973007177,-0.8722115002030048,0.11492558030812097,nm,0.0
28.678671836853027,-126.47379802557963,-10.490169659291617,74.44017266338216,4.003447080048502,-4.136265099646075,1.6359881753578085,-0.795572637043258,-0.7083639871926042,0.35516621224789874,nm,0.0
28.701045751571655,-129.25215760138317,-6.2013575360801765,76.79016526441708,3.6486501017396837,-6.00059388292633,2.2381161290099,-0.3015696248714146,0.054864940875270024,0.04645442512520931,nm,0.0
28.707212209701538,-126.54692413560367,-6.7161612210402835,75.20502243577566,2.729839199374749,-5.497180192064908,0.8643630522434771,0.23005194325239406,0.5032216310768912,-0.19899446995419787,nm,0.0
28.731481075286865,-116.95054053032592,-13.84528119652008,70.27338301026116,1.6441136039100124,-1.584845553097833,0.07677953522678663,1.1107598337801998,0.7179862926476084,-0.20246405867269793,nm,0.0
28.733737468719482,-108.65187710361354,-17.788427824920813,67.92160150225007,0.8155694081101457,0.46790477380648615,-0.9133648610546474,1.3122765910947976,1.211331899548681,0.06032853513690933,nm,0.0
28.743706703186035,-99.84038374210839,-20.904267064797306,65.59188950640124,0.14456991968072128,2.8369473318470204,-0.5211069566290183,1.2366934946296322,1.281156365710132,0.2025655137371226,nm,0.0
28.7662250995636,-85.07092853081066,-22.232339174026983,62.51814264196667,-1.0372438998526654,3.016014554142905,-0.030744631661675886,0.5302151278730339,1.1289890268808467,0.4349609645126237,nm,0.0
28.771668434143066,-80.53270739672449,-21.12203200624489,62.9995552057517,-1.6114720562162665,2.047904067510515,-0.0074071210471902465,0.19889966340725274,0.851689250812877,0.5089755554829716,nm,0.0
28.790244340896606,-77.02125759306165,-20.08022345517883,63.97736099659713,-3.1160580980596015,1.8430183406535823,-0.3489620012576875,0.11692033474179193,0.6817356587630758,0.5047421302753804,nm,0.0
28.805248737335205,-75.80071705202094,-20.308070954149112,64.36932571118265,-3.8424980967569753,1.6870098457388514,-0.16811997533826628,0.07845167446255576,-0.1054313113143975,-0.031000279969448288,nm,0.0
28.826786994934082,-78.69566455580502,-22.327161223050258,64.03684664859084,-3.1980259082634115,2.86753860670546,0.09614578204633786,0.022703694755685795,-0.4185421428909589,-0.1432061680941249,nm,0.0
28.82854676246643,-81.84819955402038,-22.573331944131816,65.07805349873458,-2.0448280940908066,2.880570376167357,0.2995884435812729,-0.1979164349191211,-0.5485674468570562,-0.06249012566375871,nm,0.0
28.852274656295776,-89.36899959705073,-19.53969071605842,69.30393186135362,-0.8146692368617411,1.80682857308988,-0.6544966811511027,-0.6625184460832881,-0.5530150534918908,0.16113569284459972,nm,0.0
28.856874465942383,-94.16132866686652,-16.796895076245004,71.96876998257011,0.017005553854724475,0.627006706338306,-1.0338206472047642,-0.8126908131694383,-0.6786408861971077,0.1712572516377219,nm,0.0
28.883482694625854,-103.84206047509369,-11.3951187186033,76.30373689129354,2.6667771465984815,-2.533695784373753,-0.5678181872001813,-0.718949050307256,-0.7513124802393278,0.11687678192248015,nm,0.0
28.89225196838379,-107.6380148380996,-9.255511758417486,78.18733204067416,3.5664479079696054,-4.034844833546726,0.3805075879588022,-0.5783443736988924,-0.6316054026335397,0.1821806361028083,nm,0.0
28.90858268737793,-107.83333589630487,-7.534669842739299,79.57823210807666,3.2674825014758957,-5.852832746046823,0.8181122358229767,-0.0033231954764364273,0.24561208735972126,0.05592180706285794,nm,0.0
28.934187412261963,-98.07932357626744,-11.940820525996845,74.64175525264804,0.7579566093979108,-2.65986017232754,-0.4135615817598135,0.8492079713269313,0.9507336151383086,-0.4146096750814512,nm,0.0
28.936004161834717,-91.36325053348158,-14.766257343537601,70.14487785207793,1.7952271949680352,-1.2689441917933837,1.2797442129935033,0.9419842109818445,1.077184148884949,-0.5396498862293794,nm,0.0
28.944804430007935,-80.75797501897877,-16.26926163347001,65.322444775774,0.053867621582106666,0.9559421216843013,0.3917285022358762,1.0655729288733227,1.7777482923890175,-0.32038372958921274,nm,0.0
28.951890230178833,-71.28201236996782,-16.697297721715127,62.14982700702308,1.286330869265885,2.4268292359215504,1.2349270310429854,0.8960856266815942,1.590815980138655,-0.013290450743571578,nm,0.0
28.985791444778442,-60.78154134502692,-16.167589012009355,62.70539879675396,0.16270835157234206,1.8139191587126338,0.9567817515133402,0.29922831993996185,0.6267412600786046,0.4903210044780317,nm,0.0
28.992616176605225,-58.63472346708465,-18.686777982156254,66.27899399716048,-4.210271296380782,1.2607465640829552,0.48907545809124575,0.32443815761486217,-0.15103101765560734,0.3805470323883193,nm,0.0
