timestamp,roll,pitch,yaw,acc_x,acc_y,acc_z,gyro_x,gyro_y,gyro_z,markers,motor_input
47.00827193260193,24.662781189097316,-61.642141325348824,-166.36977571168404,0.3624711864387715,0.8425037106642771,4.136953448474753,0.07518443555514376,-0.40046959552521116,-0.9221673554856543,nm,0.0
47.02202129364014,16.285292479984523,-62.249987714965734,-169.25163683489606,0.9364834899184324,0.25450713488830135,4.310380840265501,0.4787729744322933,0.2228915469739817,-1.0553076681962477,nm,0.0
47.03932046890259,-1.2398952655395945,-65.33508197847964,-161.04394855253148,0.3063387898017338,-1.0563849446867175,2.2088204827177305,0.6870936897233071,0.6616260779054839,-0.7133003561419284,nm,0.0
47.06697869300842,-27.54245262890107,-68.24473710015755,-139.8921132010562,0.5750442781861882,-1.4657968764584455,0.21795616494904352,0.7635968013761909,0.7603333891834412,-0.2455253410511539,nm,0.0
47.070876598358154,-41.74030047514401,-68.5468904110426,-126.96233482619161,-0.320557798209964,-1.3060624646385115,-0.9773855601237108,0.6641176471348379,0.8077438524805216,-0.06513763820880221,nm,0.0
47.083829402923584,-54.20202547023991,-68.44015811609232,-114.63007407066178,-0.7762781371762026,-1.0580201411089456,-1.8131028553573947,0.47643291803638116,0.7805397173052664,0.1456367250993428,nm,0.0
47.102996587753296,-70.62577067860178,-68.46539139928385,-95.72006351733754,-1.2055722616647517,-0.23499770063868314,-3.053910279294195,0.038769257299185615,0.5024355460358683,0.4382821006418277,nm,0.0
47.106769323349,-74.3834184683482,-69.24665671064818,-89.4060936617887,-1.5142754052940295,0.04524699905214725,-3.69386352022464,-0.15256693424389806,0.28379696139548966,0.5577872542699982,nm,0.0
47.1329710483551,-70.80513241891157,-72.5554814185619,-85.23076911857225,-1.1202848993982988,0.5747290677760163,-3.970038757400565,-0.3595318821447805,-0.3040588539611689,0.8189982365656677,nm,0.0
47.134703159332275,-58.949985205052165,-74.5290752291408,-91.84628713010562,0.26843354665149277,0.7285481664801405,-3.8254321744633892,-0.3848211601121874,-0.6765803761831736,0.904818704415515,nm,0.0
47.15957546234131,-15.610414538888772,-75.41911258480685,-127.32980286228799,1.2641399447708277,1.126914567453597,-1.4208237942584805,-0.45665286602131827,-1.1062550897266012,0.5098589650306778,nm,0.0
47.16333317756653,4.53641014358622,-72.45877117858674,-145.79208000523454,1.9855586269452041,1.2024415101048356,0.4002147626364383,-0.4125579239708551,-1.1841599055435152,0.12298586573472474,nm,0.0
47.18420171737671,19.99489106791986,-63.74646048860413,-165.90021835014065,2.1565313728209587,1.3023163872837962,5.2010022692505995,-0.06169652795530302,-0.9497723091156982,-0.869325950357756,nm,0.0
47.20091414451599,19.10569638668497,-59.54610445781912,-170.17026509792146,-0.419161194474059,0.17325530450630738,5.921151496052614,0.24940236798575105,-0.7974950459447249,-1.1316569160474115,nm,0.0
47.202675104141235,18.594336993220278,-57.73765097830548,-173.77460699063536,-0.6878568861078117,-1.2338524301231528,6.455459701186759,0.0934833735986292,-0.3428681856302202,-0.9296786383153235,nm,0.0
47.21170115470886,17.855230031671113,-58.781365104309785,-176.3553803360885,-1.2683007979614245,-0.03456798500181797,4.532864649186934,0.04741381558035816,0.22384760687133956,-0.7324583105870736,nm,0.0
47.22259068489075,13.067492036466906,-62.014805558442745,-173.72822200337976,-0.13657595668920378,-0.27016999397442715,3.7187051358315246,0.40347513207807006,0.695258820041801,-0.3456420795078593,nm,0.0
47.24563431739807,-17.517676358993324,-68.35226210475464,-145.22565183440258,1.1182867653391586,-1.287847483330578,1.3651847676576352,1.1371681254602364,1.0826875483097291,0.1316040094867901,nm,0.0
47.26958894729614,-59.51681656834722,-66.70131098119951,-104.79228209338244,0.8248431569892264,-1.0454625683307754,-1.7884107342724023,0.8904000172152966,1.1795556879138536,0.17212598764353249,nm,0.0
47.27489447593689,-71.5970844690715,-65.12980469642655,-93.08660749301127,-0.674104562634999,-0.6349391439784354,-3.3368033269042976,0.4545659211408936,0.929746705994818,0.1549097770716378,nm,0.0
47.27805805206299,-80.67129211431788,-65.28182500927966,-83.68509336061754,-1.1734773467039394,-0.2177423864088818,-3.9400142380347005,-0.05914114812112211,0.7651141272810011,0.2543559667168988,nm,0.0
47.30159020423889,-92.7583650236719,-69.097174586217,-68.3419109949099,-2.1807894150587344,0.3391977883523621,-4.289867658514665,-0.5358213324421766,0.19394004571048357,0.49335104951143616,nm,0.0
47.30562424659729,-92.27985806931183,-71.19324508959761,-65.67603510429888,-2.2960786761875918,0.8779393795467226,-4.465101388512425,-0.38162133240557833,-0.18881475600726688,0.6119654420453465,nm,0.0
47.341286182403564,-70.80236260338731,-74.7106979305696,-78.06466513956383,0.19908258889227026,0.7432638117392962,-3.888262240378051,-0.10945139468500288,-0.8174278413944441,0.7490113419136563,nm,0.0
47.34316372871399,-52.177443749224395,-75.78467213067482,-93.37520291229902,-0.40884785361028125,0.8082306241062186,-2.7173476441171878,-0.14989227628038357,-0.9532902225494735,0.5005160569357449,nm,0.0
47.34485483169556,-27.876391400815137,-75.48882851575917,-113.51329676591652,0.9995798874791189,0.7997955193508343,-1.6517559081709001,-0.22986711183053404,-1.1742417717995697,0.6272087198116795,nm,0.0
47.353522062301636,-4.53701678828175,-73.49124701686357,-134.47217426856108,2.09174263379836,0.9714247390938444,-0.04455820054486657,-0.3765207028829101,-1.2449394017149218,0.25021533890838027,nm,0.0
47.362542152404785,12.104289436911666,-69.68323552202537,-151.99183000966633,1.8654689484819522,1.2084928272413415,1.6395032073401665,-0.3966296098173788,-1.2296139490418834,-0.40637522273217214,nm,0.0
47.38697528839111,22.662833359941423,-58.89462688169469,-170.6239951161474,1.577742855848105,0.7327087983820286,5.077382447961911,0.10278320351966418,-1.1077455653961048,-1.2651471222983413,nm,0.0
47.392741441726685,20.322354140638904,-55.07460867377303,-174.65627642998555,-0.31664872337226196,0.000719456939639633,5.555464868377296,0.343545352823793,-0.7166654427053931,-1.3240225887586856,nm,0.0
47.41966724395752,13.429867182641939,-55.546599474300976,-176.62064779031766,-1.6767165739083663,-0.9723942668878136,5.0375896146471755,0.3674625779590664,0.33705810352934784,-0.6495251907378562,nm,0.0
47.423248529434204,8.513991521163522,-58.94649675670203,-172.57556611061474,-0.6513820164953181,-1.0369321328088787,3.821032258774013,0.45365341653233104,0.7377205881529473,-0.06441755807101125,nm,0.0
47.44477462768555,-16.162089093230513,-66.14652845817355,-145.76233168576485,2.2238768982490202,-1.2482262261290518,1.2326421015801097,0.9283240509170001,1.1484177177066384,0.5217592833478347,nm,0.0
47.46848821640015,-51.023112790754276,-66.63629553945292,-110.09914027301278,0.9101672303753958,-0.6145354997996836,-2.3805753615257434,0.6514286341376077,1.0263020411798132,0.4470188166218646,nm,0.0
47.47035455703735,-61.52701664991635,-66.50417748952049,-98.88987689696076,0.09607677931944998,-0.3463203655017085,-3.31614105154621,0.22611221318158903,0.8067323012815617,0.3528227947845457,nm,0.0
47.47767186164856,-68.2224804607041,-67.68486816904071,-91.32142865859556,-1.146782181141841,-0.10509819677018332,-3.4402949764764865,-0.19760759270414519,0.5455504720709597,0.3020582417734435,nm,0.0
47.502381563186646,-72.41248022378048,-72.38736323096084,-83.0678033916991,-1.4153738385760382,0.191821635784028,-3.139290458386179,-0.5136050106659766,0.02410655328308473,0.45375642034343056,nm,0.0
47.50526309013367,-70.74179017502388,-74.3215853117747,-81.90863691581919,-1.993101426451841,0.286367465788845,-2.9169061374791685,-0.3813285340030925,-0.14071841032128526,0.543456925514347,nm,0.0
47.53191804885864,-56.77100553059768,-75.48892012122803,-87.89531665771773,-0.7039353994055181,0.5181718813611353,-3.004545077169304,-0.02913001000653576,-0.4142128685046316,0.7075849126831777,nm,0.0
47.535134077072144,-45.576619753252096,-75.60420964782546,-95.11418675281433,-0.7170280458880807,0.5182008522913735,-2.720491651710517,-0.048452715455857914,-0.5536626695645174,0.7199208604793711,nm,0.0
47.557761907577515,-8.984268894462842,-75.0857024613426,-124.58539406365233,0.9526459287241256,0.8935616710647454,-0.8513267755705632,-0.3442381516668545,-0.9752638273728372,0.39052922395118567,nm,0.0
47.58183169364929,23.62265056286867,-68.1007876827665,-157.8144253303415,1.6134188673008334,1.3987056018976851,2.2744318902578393,-0.3335795515148349,-1.1859165478851796,-0.4935758740913496,nm,0.0
47.585278272628784,28.19594910244622,-63.34243831212595,-166.41154472411154,1.607635378813032,1.484670457624589,3.952374490359384,-0.07419617734039557,-1.0182040086830746,-0.9866623842135137,nm,0.0
47.6000018119812,26.759661363138353,-59.8674017544812,-171.11269389773733,0.9882747846759631,1.3960019610847634,5.061745363355473,0.25989942697120644,-0.6493442498297619,-1.2885334308149172,nm,0.0
47.60248160362244,21.974981607645415,-58.29638615348606,-172.28667543994612,0.21429746510788306,0.30510415766843724,5.3866860845649205,0.5210686401726929,-0.23135409180411293,-1.1335822789039416,nm,0.0
47.60925078392029,15.120334830742499,-58.55410449654577,-170.3747706058185,-0.3374208137122804,-0.8160991646610238,4.747965656798621,0.6902063961289336,0.16872206636126602,-0.840637875948859,nm,0.0
47.63600778579712,-1.4157427347103029,-63.88401622054963,-157.703330193119,0.18961553038895354,-1.1774086605544332,3.211503339283558,0.5635430282123188,0.8506858897789797,0.08473470420208293,nm,0.0
47.64167094230652,-14.15620609547925,-66.56793178506226,-144.8793823078399,1.827510402881768,-1.3600803973026743,1.7445120577512667,0.6684414071073078,0.9881348184376915,0.27148455922942677,nm,0.0
47.64980888366699,-32.12912407008531,-68.40141507889791,-128.00999935226665,0.5957941738965791,-0.9816351669512463,-0.20901474811237628,0.7353402155003373,1.2148843957861613,0.08307362783829907,nm,0.0
47.65699219703674,-49.70432473515445,-68.6305253078196,-110.36428550509063,0.7980990675863192,-0.7630350757611409,-1.2478847282050929,0.5779528650105863,1.1480316167733333,0.29666704888374035,nm,0.0
47.66624593734741,-62.80696089251567,-67.64497003917654,-96.83551770713838,0.007150328545302805,-0.733570941414261,-2.579163812110704,0.4118558184367597,0.9057778032822852,0.315968802361973,nm,0.0
47.69721698760986,-82.66623333050771,-67.25830430020407,-73.55011556082647,-1.89698639030756,0.044765229279912375,-4.2701846334683236,-0.18999681155620318,0.2701402396263561,0.43350974058058744,nm,0.0
47.70643186569214,-82.63511371751491,-68.51491363277665,-71.10220902400752,-2.063168090475534,0.45467593781993054,-4.398333314815842,-0.2476927693385043,-0.07422227762836127,0.5062136045465223,nm,0.0
47.7299599647522,-63.88502297112956,-72.49641701171078,-81.64770855961449,-0.2759561763634342,0.6919308786782709,-3.8118258868501416,-0.25616927576564047,-0.8538998674871452,0.7113217100206605,nm,0.0
47.73637318611145,-45.04502257772211,-73.99784763925516,-96.33443205733721,0.15664111380677473,0.8754072955227642,-2.545363038860914,-0.28681577357074434,-1.0839457963406152,0.6348499403221212,nm,0.0
47.74423623085022,-21.401760791029368,-73.56797144707024,-115.93984705166643,0.5210250601684526,0.8824058834266725,-1.3750748364688392,-0.2926215167427782,-1.2815391582180344,0.5785908921728056,nm,0.0
47.75353407859802,-0.6397094580565038,-71.29171966837936,-133.76522267455977,0.8984376269641903,0.9182062522040796,0.033808242343611676,-0.3547101957179351,-1.2785296484218234,0.3565016976037838,nm,0.0
47.761781454086304,13.292301621661176,-67.89261388391044,-146.94309616573543,0.9977431038675671,1.1554293029386768,1.6611062834243733,-0.3244646240587675,-1.1380765563847652,-0.1053701137608515,nm,0.0
47.77070212364197,20.27057156072889,-63.745029093121,-155.70553526785554,1.335750596408148,1.197087332445358,3.2708182794190446,-0.11330063129756497,-0.9991548676317357,-0.5661185737041149,nm,0.0
47.79465627670288,19.38244749408335,-56.665964485011315,-165.67630257547592,0.5097065041621149,0.6063020328451647,5.075623110879004,0.37208931080121593,-0.497891492948288,-1.2663333091927906,nm,0.0
47.801536321640015,15.978020166674016,-55.30480446640237,-167.84120126770927,0.009946523014622724,-0.33255669277459315,5.348690655965289,0.42193275427694044,-0.1695956409597475,-1.0676112595134164,nm,0.0
47.82461857795715,5.885653237097807,-59.044613095404124,-164.30827433895547,-0.5375355513022867,-0.9650685638308535,4.06350625191383,0.43099988012791884,0.721120395333891,-0.29192950175416343,nm,0.0
47.82867789268494,-1.5563448940496987,-62.68035152180237,-156.43881978096127,0.3075095929837899,-0.9420170258038024,2.983925740704054,0.4277268662941861,0.935500844394979,0.2905822506465232,nm,0.0
47.85588359832764,-32.618564797760506,-68.22607073717111,-124.83435585722087,0.7477385433395783,-0.5635212595824508,-0.6291126115502981,0.675891056010654,1.3204635766655848,0.2538760620053309,nm,0.0
47.85765290260315,-49.26226882104318,-68.27999179830027,-107.49731315424938,1.1958630791961986,-0.275909702062751,-1.9372132255371717,0.5245883112190339,1.1133156565855924,0.4247081418445678,nm,0.0
47.88324451446533,-69.47105156726217,-67.6658901528133,-86.25677552658729,-1.23651171545491,0.07840828684819938,-3.825695375939456,-0.01521333811559683,0.6438413860501241,0.2575805186824818,nm,0.0
47.88708686828613,-73.88250522978961,-68.59448935957651,-80.26696999494689,-1.0504160117211558,0.22174167202285036,-3.9911050505423304,-0.23198005955849257,0.3093864666600278,0.4153901469727861,nm,0.0
47.91015338897705,-73.47835149146451,-71.83846168836095,-77.67838936807658,-1.7981498579389787,0.1063920842415827,-3.7272960234841883,-0.3236621045198137,-0.17124620533134863,0.23082225328714867,nm,0.0
47.91469669342041,-67.63015497898219,-73.23784763048916,-82.04341789417192,-1.4968749739502147,-0.008196634144872757,-3.3393836085190496,-0.22321375193914159,-0.39022655226791403,0.22197686760922614,nm,0.0
47.939321756362915,-44.99131971802039,-74.12882902616026,-101.77868862846624,-0.17221243052541688,-0.10236154166254949,-2.1618815915471408,-0.10867318082075489,-0.6789936997199296,0.1412934461235328,nm,0.0
47.959717750549316,-16.95664780688798,-72.59661665743799,-127.79546417710236,1.0042649358222158,-0.08916781323005246,-0.13584470330913112,-0.24409936820555078,-0.8129602398341053,-0.026807045292501913,nm,0.0
47.97614526748657,-4.0279236864691415,-70.6777632424563,-140.19764046022513,1.1141698432481524,0.025160936204338527,0.9208819692993236,-0.29786727514123273,-0.847258401189094,-0.13430664899616324,nm,0.0
47.97783184051514,6.46936593376577,-68.20887817729243,-150.29238363938305,1.004849182032648,0.17884564117903012,1.920017522303245,-0.33366330797777427,-0.8211501728888465,-0.13966195569580198,nm,0.0
47.98347353935242,14.154306267987186,-65.68040666228488,-157.3474585896944,0.7570315709763774,0.33901015501645254,2.5507674378449643,-0.32754130402736453,-0.7152935739096488,-0.07513514000642853,nm,0.0
48.00650930404663,22.109795783431636,-62.58807122096469,-163.10771013131188,0.22689050577373457,1.0000696260741853,3.031504677237658,-0.19843659715122441,-0.28515743786813796,0.16727606157139333,nm,0.0
