timestamp,roll,pitch,yaw,acc_x,acc_y,acc_z,gyro_x,gyro_y,gyro_z,markers,motor_input
55.52687048912048,-126.4507764340313,-15.029394252218065,-46.85823944923179,0.5526915398271999,0.574950247981198,-3.7151369271498855,-2.098380414009976,1.668059738519928,0.8304770042830929,nm,0.0
55.528947591781616,-138.89451720658062,-12.441970233721241,-40.335748822610334,0.4639033089183063,1.08167600332192,-4.633479452457568,-1.3898434384096803,2.0435062114782747,0.7220745013547771,nm,0.0
55.54387617111206,-149.7495468076609,-6.845434829050997,-38.4798800817637,-0.8383477554694837,1.064084467454386,-5.688591360046735,-0.9372500126781832,2.2256436521254406,0.017024933337432154,nm,0.0
55.545818567276,-160.26494414651768,-1.8233721196253394,-41.87890592654986,-3.197490986885892,0.9474462860591291,-4.743205877029991,-0.9461207948710126,2.1232945918445796,-0.8285917049478428,nm,0.0
55.551671743392944,-169.3434695536869,-0.4117443823746432,-48.313144860105005,-4.510566231244524,1.2775243425101945,-3.5525062465378237,-1.070998808632329,1.4883095116295668,-1.3139660543713938,nm,0.0
55.574318647384644,177.9357752246382,-7.997214673857041,-56.31613783783381,-4.295529054230889,-0.012992914598813667,-1.7913481817841594,-1.4933610363028724,0.47651160110447355,-0.5925725298077803,nm,0.0
55.583595752716064,173.46732450539898,-12.175097934339703,-55.86628355162372,-2.19564506911789,0.42109669512892545,0.04818280719118798,-1.1719644295794405,0.2658853814188211,-0.06151201476039458,nm,0.0
55.588380575180054,173.48796513554498,-14.97001537930652,-53.69669890978953,-2.4004854716188517,-1.5165840765272818,-1.650980729975082,-0.4417176947952406,-0.3240606351826825,0.4408026148388408,nm,0.0
55.613208293914795,173.49726439276512,-19.061073205765723,-48.85396445430538,-0.26918974622992703,-0.39489544608701554,0.3650357128327051,-0.2283294102114715,-0.3323709422622453,0.4227403560247676,nm,0.0
55.61666226387024,178.3883951765953,-21.475196330100356,-49.50783251471388,-0.8339145289011551,-0.9466103867847905,-1.3982885281310964,0.246896689445032,-1.0074181267218134,0.21544312570895108,nm,0.0
55.64216899871826,-167.51656790015963,-28.646634112500987,-59.06303641995037,-1.2589960884979492,0.9590544010667151,-0.999833365365079,0.15468818761490963,-1.6225200731852123,-0.48269283154109344,nm,0.0
55.64748454093933,-155.51302907185098,-32.32887913550632,-66.41364145218166,-1.0328976699772587,0.5612344615564384,-2.5740312032553048,0.30815786866357764,-2.173656599085657,-0.2848344160001577,nm,0.0
55.670769691467285,-126.81497230458662,-39.25374662595707,-80.58377108274472,2.4125013702400864,-1.250547802265467,-1.6652696907531903,-0.16725858366211122,-2.47520218174903,0.4983463380524199,nm,0.0
55.67409300804138,-109.04466197618616,-42.84606225019658,-87.44095030014655,4.360217303057459,-3.6363142879761683,2.6849200969156226,-0.4302143801460161,-2.7360913729131373,0.9842534456564749,nm,0.0
55.70086169242859,-78.4022174667371,-37.75026352779053,-98.50448959096488,0.1950347035369132,-3.197188290649772,7.24974816638943,0.7849121417547706,-1.8274344203079882,0.971208795898794,nm,0.0
55.70302891731262,-70.6960301828977,-34.529638589428586,-94.32341082428164,1.086981346963797,-2.5005115421380872,4.990187096252064,0.49242060586775716,-1.3117258422516624,1.7580410787452958,nm,0.0
55.727147579193115,-55.75072156263337,-36.52645139058749,-90.15128841566907,1.1754677842964711,1.289630973419265,3.3951089782811024,-0.555279966967403,-1.3333244589666586,1.045862371606804,nm,0.0
55.73167634010315,-43.83369009565921,-40.96427102863213,-92.96970828332768,1.7188378502348294,-0.4968953774591195,6.18483527320926,-0.9472150661746337,-1.8381684337126036,0.9388167511310477,nm,0.0
55.742294788360596,-31.790461510189594,-42.78033912375617,-97.89916636566531,-1.6563030999428259,-1.8365704339652886,6.815811164003682,-0.5431132887801904,-1.7546755529737033,0.6310787754909223,nm,0.0
55.76389503479004,-31.07563867718818,-42.45224529185739,-89.17848812739895,-0.330728967064528,-0.7521238173512297,4.497170836619976,0.07712171572192231,0.756255217005332,0.9343538186736133,nm,0.0
55.76925468444824,-41.30808606431805,-39.72530694443754,-78.47652282171815,-0.6990685262765302,0.06357840449658177,1.9432274600770947,0.36421210907327745,1.5875678619085294,0.8000780663305923,nm,0.0
55.779137134552,-49.597152039881166,-35.09790313575142,-69.86957160742246,0.8166788637166397,1.6047386582109133,0.5109194697559971,0.5206829943656853,1.5139224733802912,0.7207741065965032,nm,0.0
55.80091571807861,-57.88373651653825,-30.678851362627423,-65.09454455625766,2.219605671968074,2.2434609460762713,-0.3490079787611501,0.2740457055351068,1.6183082619435627,0.06322048825083966,nm,0.0
55.817429542541504,-74.73940011789637,-26.207200097283984,-66.25080844749142,2.0909816045515335,0.7309269340294136,-0.8854600339912024,-0.35065666226919173,1.3788200062527716,-0.9777935152231861,nm,0.0
55.819176197052,-84.53517169437104,-26.66475343051822,-66.61436652417652,2.8862772375973305,-0.2944647504474395,-1.6034956454199596,-0.7856909302992579,1.571742919677476,-0.8576310078242118,nm,0.0
55.83484125137329,-97.44237715530552,-27.2371678157277,-64.642641691937,2.1921709295766614,-1.2679644702185995,-1.297763976721183,-1.0481709888903412,2.0525174623889972,-0.6656154749841142,nm,0.0
55.83658957481384,-110.05366062388345,-26.207845583387495,-60.78394401263554,2.476235615844669,-0.8423210966184276,-2.1424605623114252,-0.8513572806434673,2.09609926932594,-0.3508202448722707,nm,0.0
55.85609769821167,-122.08931794008267,-22.931807100880466,-56.53703146930058,2.452620449838675,-0.2652479407569609,-4.46549320969488,-0.5789198562637942,2.2103540411197433,-0.140140234399006,nm,0.0
55.87173628807068,-145.0733284169881,-13.097414181811692,-51.93531908800538,-1.1640051770670874,1.1640937004855383,-5.652559260835609,-0.4505828566543321,2.2550196828132636,-0.28747749514936743,nm,0.0
55.875025272369385,-154.66491567043533,-8.786891080787724,-51.96140488751444,-2.971193447404522,1.1998481290103664,-5.929677289561674,-0.4741421695348032,2.016032603024251,-0.35928305309081904,nm,0.0
55.8891716003418,-164.09361316119913,-6.267399909096893,-53.11009059527698,-3.6250700015184636,1.2496856143713295,-2.88044923110977,-0.727269696356999,1.7922066342131788,-0.4680046051853373,nm,0.0
55.893834352493286,-170.53787974685036,-5.975529774671205,-54.841379000131774,-3.4543372975227524,0.7844648203126239,-2.5068434463503357,-0.6949166466638753,1.0723515399626873,-0.47630566395047264,nm,0.0
55.905882120132446,-174.52952232497515,-6.965463219469728,-56.30800482434197,-3.3972095208563835,0.5640236784974701,-1.8259290375698394,-0.5996800057316934,0.5434374262548628,-0.37665415820904263,nm,0.0
55.91230535507202,-176.94906332904844,-8.017849511688778,-56.58473333799749,-3.2061206033570113,0.06628318534448988,-1.7891925191922209,-0.4281925054111017,0.28437191708158654,-0.11195177077031436,nm,0.0
55.940887689590454,-178.66177669611048,-9.884931805934048,-54.03889902133952,-2.2803956329909885,0.14648147495924743,-1.1032403751609072,-0.1411008345566682,-0.09713020243396843,0.31769784975269444,nm,0.0
55.958959102630615,-177.3939555536128,-10.824499321098664,-52.73769389006983,-2.138537229434862,0.19267619319686333,-1.836267329108184,0.010495880569102624,-0.31087061810312316,0.31297870503863195,nm,0.0
55.962116718292236,-172.53895406642548,-15.38232199962913,-53.16111328875452,-1.8820807610522394,0.912306707445944,-2.0310832621130634,-0.09239608284482397,-0.827870880062191,-0.006024793703572348,nm,0.0
55.981292724609375,-169.2994411452021,-19.451076519020617,-55.02675602614619,-1.6103835530212587,0.647805858845379,-2.2285864287035544,-0.28577971033664323,-0.9769244228606211,-0.17011383839463207,nm,0.0
55.98592734336853,-165.4834274792206,-24.117845388582644,-57.89754593976946,-1.0719685839354847,0.7963633362435272,-1.0751755069220463,-0.37648389697049806,-1.1054064686595915,-0.28078038335949196,nm,0.0
55.989795446395874,-158.96068389323136,-29.204293501799217,-61.686722659935015,-0.6015436826906237,-0.03716966331853346,-1.9810016130113481,-0.2831792492016349,-1.5182718129622788,-0.1603492595859727,nm,0.0
56.00881600379944,-151.24982712095417,-34.47340707311751,-66.08322938688771,0.21739237810358322,-0.6984546113404594,-1.8519462677558531,-0.36139916991589144,-1.6386374601229166,-0.05205041584813735,nm,0.0
56.02467918395996,-129.49459479377748,-44.38684879811663,-77.70928918530176,1.9892992382763417,-1.9133267157785865,-0.059594811875692336,-0.40970439425097516,-2.051263330964561,0.39413338642793094,nm,0.0
56.02877616882324,-112.66962631071927,-47.95065410573314,-86.69644878063471,2.61214655081917,-2.8775199524860553,2.6568048094395422,-0.3851558720970196,-2.398854801738151,0.6509821645450429,nm,0.0
56.035590171813965,-93.36084960521032,-46.971289264666986,-96.91699096396104,3.560606268513593,-3.982621827136075,6.522856332713824,0.10789961836998312,-2.607974648529732,0.8244562918677826,nm,0.0
56.059242963790894,-71.28086745661979,-32.96166058162934,-98.2166694083817,-0.17147764578529195,-3.5119300926066432,6.527492463606481,0.9829864422538311,-1.559302333310873,1.7600873043079432,nm,0.0
56.08311891555786,-62.8049842162331,-25.68618886262766,-79.94525092862321,-0.6558076562438672,2.022256799848225,0.8193178340665194,0.016131114534145233,-0.14427934848623608,0.9968409192771195,nm,0.0
56.10699391365051,-49.330004345287115,-36.22140026198428,-86.77111586130596,1.523947396704159,-0.25913416342949175,3.7351791133186305,-1.0088260340459918,-1.3285613326000199,-0.4635293518527367,nm,0.0
56.11479687690735,-44.814914025608154,-40.48077668484468,-93.3723756968478,-1.1025693063724018,-1.0800854354385943,3.746734281706045,-0.865102607911195,-0.7101067285314372,-0.7516496634639039,nm,0.0
56.13610649108887,-54.53153552974812,-42.09739887034441,-86.81798570713238,-0.7740189927296965,-1.2872525669564168,3.6772252659513773,0.20532053079564713,1.1685639914293504,0.2964326475246086,nm,0.0
56.139835596084595,-65.4220663555838,-35.9463217136773,-76.3965662568767,2.768099101034262,-0.432822803015517,2.0449631230891794,0.9582142643163302,1.851646735083558,0.7186144882595004,nm,0.0
56.16490149497986,-87.29765550307978,-15.70196156558773,-64.31263395057105,2.9881517996925187,1.175826896703277,-2.497353801795547,1.1014228108611774,2.5758147127953563,-0.027136965948454266,nm,0.0
56.16824674606323,-96.49996527080744,-9.070415995286393,-65.47168374557197,1.4479292167043503,2.05480744658532,-3.688813908756728,0.44365602117145964,2.184515211630733,-0.5213628636133345,nm,0.0
56.19524908065796,-116.977366149213,-11.339531473347954,-64.14528851256773,-0.00036059652669779484,0.5391814252643713,-3.702475572085279,-1.4784884910869707,1.626175238366883,0.07683448655296918,nm,0.0
56.21049356460571,-127.9613156671509,-15.759044525102585,-58.60268685655527,0.17962930101678065,-0.6416751759447205,-3.132501126377355,-1.794450155634091,1.452447925239814,0.6042135871485524,nm,0.0
56.2209906578064,-148.36616843134166,-14.729577072830152,-43.97919648672861,0.8930284676274383,-0.6982067216809967,-2.3147276521710594,-0.8057491160114629,1.7044927488372414,0.8576372421145678,nm,0.0
56.237504959106445,-160.75766833433602,-3.1060156277532687,-42.804836395905085,-1.565843082360965,0.6238519821645246,-4.2193641644144595,-0.0163226179672825,1.6368942646081868,-0.4402796083172785,nm,0.0
56.24671506881714,-166.1270954152726,1.8834659631558477,-47.0795479103536,-4.088401246077058,1.9804360807072843,-2.950646805159585,-0.043368878979833984,1.467614960126782,-0.8588771857836206,nm,0.0
56.25389122962952,-170.70467090156086,4.181686508762627,-51.161488470221,-5.918782323985366,2.620191798195718,-2.770426775775062,-0.23816335729952326,0.9935252260125403,-0.7620826524239874,nm,0.0
56.275657176971436,-177.6886076920346,0.13652460405447,-50.87940474598197,-4.788936732923004,1.330677214059267,-1.980649434992629,-0.7967705865451593,0.06698112867105938,0.3711635348635764,nm,0.0
56.29145169258118,-179.71332953875017,-6.095997447601383,-44.242919539997324,-1.5592778446353184,-0.36261252413189754,-1.7189159357928332,-0.42378434950302346,-0.42994781840202023,0.6436163794085249,nm,0.0
56.31625938415527,-177.39906959543606,-14.99008948914109,-43.59342648529137,-0.6476335401820953,-0.18424932042335337,-0.9152920817003121,-0.4540979337718012,-0.8793660044878477,-0.11990393354281237,nm,0.0
56.32188367843628,-173.34654463687474,-19.31801165444964,-47.29567847186057,-0.7804421036149307,-0.38184882971223877,-1.4376246445074772,-0.06215409895073174,-1.1566864828240355,-0.4930128554847541,nm,0.0
56.3443865776062,-159.96972768814814,-27.534148073109325,-59.098719530258485,-1.264455856546886,0.3532123770506993,-1.7821934271649273,0.062054175533400965,-1.5502122051624685,-0.5995173153535811,nm,0.0
56.350390672683716,-150.86125881794163,-31.399903494364363,-64.59229350798142,-0.6583426163176791,0.1926369178962943,-2.231927546997421,0.07536402106629499,-1.7617460267678318,-0.18851107829411204,nm,0.0
56.37233328819275,-128.64610745177598,-40.61562419188257,-73.92218524167251,2.222818283293891,-1.5184450430620775,-0.6468108416432857,-0.35786458613690003,-2.093838129147939,0.5133968614884419,nm,0.0
56.377535343170166,-112.73831431315178,-45.47948924218409,-81.24655481255269,3.7842190305592514,-2.7654874184573615,2.459549729106263,-0.4446833850889106,-2.4745343286882258,0.7274363938072984,nm,0.0
56.40387558937073,-80.53697912748531,-37.14696933276932,-95.84953851594076,1.1140283494262813,-3.9006819618051565,5.002924129851152,1.5333995634933242,-2.046701561568481,0.763349986721719,nm,0.0
56.40631055831909,-73.31517415331199,-30.79093354716723,-90.76691170641946,-0.7330329873179957,-4.020503930195833,5.416929928565772,1.1925727641397257,-1.2738035520190645,1.8362960073508692,nm,0.0
56.429826974868774,-61.26252892264861,-28.706736454945837,-82.04945463092093,0.3334296476829117,2.1206472943937364,2.2631059644287514,-0.03723301673270183,-0.8303985827058668,0.9238738116931446,nm,0.0
56.43869090080261,-51.98566449481288,-32.8726837106254,-82.59249296298609,1.5805601685560244,0.6039877365086617,3.7228486923847885,-0.6220937631448523,-1.697344624712444,0.851261653887286,nm,0.0
56.44761657714844,-40.517764615469645,-36.367988825733356,-87.11699757141906,1.0705157604530409,-1.2147265483732947,5.388482817403014,-0.5366511187163862,-1.9483941730527348,0.4083199867270504,nm,0.0
56.45369863510132,-33.319937695465875,-36.95016238459371,-90.84924559443684,-1.0411417394507083,-1.3854521254336516,5.527380374347853,-0.10812227264891956,-1.1623035213725845,0.11997898777673932,nm,0.0
56.47697377204895,-41.77964000384144,-35.149613277216154,-78.8455400280411,0.09003207585114169,-0.9433115035525622,3.050013382853284,0.19628845422646113,1.294736044818153,0.8173172466404858,nm,0.0
56.48477602005005,-50.9022597931324,-30.345414830496736,-70.11389543297852,-0.4164302767102353,0.21656403922979375,1.2308042766070413,0.5044388742553283,1.730146935807292,0.7650869979598652,nm,0.0
56.505794048309326,-67.70459402362306,-20.343714422833607,-60.17260713686202,2.100469596412198,1.7643038084842593,-0.974939545620879,-0.028857918821837237,1.9240964875842954,-0.06814888445286826,nm,0.0
