timestamp,roll,pitch,yaw,acc_x,acc_y,acc_z,gyro_x,gyro_y,gyro_z,markers,motor_input
41.020233154296875,23.89993946302325,-68.81460668662726,-87.02723636900848,-0.06476560477715666,-0.27474088379991635,-1.085553615356482,-0.7307114314735712,0.13724395305531115,0.11339054842977873,nm,0.0
41.04011106491089,29.955834520284018,-76.5731324713242,-99.8412280681128,1.1839691167357391,-1.9565950695725913,1.4173577756866662,-0.37959759465314,-0.3137887028116481,-0.7123970883822233,nm,0.0
41.04880714416504,40.025169569870755,-76.06463856007385,-114.10394447401237,0.5364248049161573,-2.3240144239124274,3.2413242258211783,-0.05086099541057982,-0.4932449351321023,-0.929243496088581,nm,0.0
41.0569953918457,48.11718046204544,-73.67501256389743,-125.92308620922041,0.12163156185858999,-1.8902193796978117,3.6704053283114,0.1934899735709588,-0.612444525105461,-0.8465556413354276,nm,0.0
41.080732583999634,57.46132911432612,-68.62810072280826,-141.16016264227935,-0.5982018354038022,-0.7393864161756447,2.886513340770019,0.2326551144156301,-0.4824364413770813,-0.5932948816976404,nm,0.0
41.085824966430664,52.37249767177373,-66.54734233395027,-138.5355857063235,-0.07922930614667295,-1.069756228754023,1.3448743800057823,0.5530737736232952,-0.07490485096699791,-0.42611439680791413,nm,0.0
41.10883545875549,33.47809673090657,-66.42571479368367,-124.2516274179457,0.585069931476517,0.10900204972224745,0.6324196074051662,0.4773081737662984,0.7149990703916498,-0.18584637426176306,nm,0.0
41.117838859558105,20.274751348504665,-65.6582812439982,-112.61886491518284,1.1903343197879108,0.29632558523972213,-0.4022853135598691,0.6338971702216029,0.8609835798154847,-0.03772978602255359,nm,0.0
41.12332773208618,9.343630196440714,-63.741681109376565,-102.58767419170236,1.3061292462358205,0.7959713757151192,-1.5158111386683681,0.6361662836773364,0.7664619770777902,0.07196131509066343,nm,0.0
41.15081739425659,3.145169004928812,-60.468622315272576,-94.12665226892224,1.0139538650271371,1.6512589973211516,-2.396292225361992,0.2814751948027841,0.02026206185865639,0.396086964602142,nm,0.0
41.15984869003296,6.073032453797103,-59.037290298058124,-94.46039914219467,0.37732755276666113,2.005690814711901,-2.5992641815759785,0.25232507872057214,-0.324258197512283,0.4430299316356781,nm,0.0
41.18167757987976,18.032743422792343,-58.25401771397989,-97.78189843106408,-0.542846496890332,2.57643096973259,-1.8511462188487737,-0.10483227309450338,-0.6879664282087824,0.7675402047463643,nm,0.0
41.18339467048645,24.02255352319025,-58.9464515299592,-98.6314503924235,-0.7369899483101632,2.2758020007859647,-1.8024931414565994,-0.23633390859885012,-0.6090358002785071,0.8554100997438326,nm,0.0
41.209025144577026,33.374943418205504,-63.37326422829763,-99.02355062621058,-0.4918317723624198,0.3162223591668354,-1.5616056613302491,-0.6249924282740994,-0.3397866993694181,0.7600004416977842,nm,0.0
41.2112295627594,37.95323910207717,-66.87391561222034,-100.02570840360318,0.21855416412277962,-0.8741205387147316,-1.0572654204339103,-0.7635578047599731,-0.2751532959359495,0.6635744787944252,nm,0.0
41.21976041793823,42.85641947039492,-70.48494769591977,-102.47789790810809,0.7555765002221957,-1.7686757112337872,-0.028533307286914292,-0.7869391695623937,-0.21946633502177507,0.46496202171112955,nm,0.0
41.24284744262695,52.24724459113593,-75.59048902407291,-111.43604113535413,1.162014442345583,-3.1172280279471827,3.136426780035837,-0.4866421032016395,-0.11231325348924731,-0.120426678607461,nm,0.0
41.251380443573,58.66502637225006,-76.54141681267666,-119.25856349662469,0.44859255646227003,-2.207867186374172,4.81041939969681,-0.31261274658012994,-0.20816443136751772,-0.30469510960046586,nm,0.0
41.27094531059265,73.70107543425739,-73.54476609206667,-135.72092377374636,-0.5714596082171719,-0.7716772576283718,3.270965410746091,0.05668386693231166,-0.5878458804938003,-0.11701227800809474,nm,0.0
41.27661371231079,73.80453368385987,-70.74679802194917,-136.5548640731727,-0.7848666981995209,-0.8851599077723052,2.3107547818274847,0.3754837268674076,-0.419435368156122,-0.16174841555354838,nm,0.0
41.28588509559631,68.46011384122991,-68.07199956631932,-132.32853729756468,-0.4340322988169979,-1.0299149623240076,0.7606662225863103,0.6364967286385884,-0.11755194072608054,-0.1541395647630807,nm,0.0
41.30817270278931,57.41242276944661,-65.24770281797156,-123.66264021571651,-0.597439441013903,0.15529020099183022,-0.027897403837240924,0.4282643689431284,0.25453818756663543,-0.11240832639044389,nm,0.0
41.317054986953735,49.32106864938876,-64.21531029582232,-117.06533010767923,-0.5521370741151628,0.5788076675026139,-0.4614346932694746,0.5186734115359046,0.4800086691365344,-0.10563242335684415,nm,0.0
41.32420611381531,41.42970804266844,-62.9565928633852,-110.43890312713691,-0.24874579843903497,0.7724427401300056,-1.2733057174180935,0.504716543817179,0.5296290030616702,-0.04635634893665761,nm,0.0
41.33355212211609,36.06619811687895,-62.007212931962194,-106.12321072921944,-0.23506732459550253,1.6590639461387893,-1.2700345207580495,0.3271170644112729,0.3999890316232092,-0.05179497049656063,nm,0.0
41.34668493270874,32.41989841018685,-61.066630898872255,-103.78368015105059,-0.3265612073274376,1.9530873247815268,-1.2790228499354144,0.26239440798143515,0.27654391547807305,-0.14701274205032655,nm,0.0
41.367358684539795,28.882726880770896,-59.3254282457728,-102.89777085249433,-0.1984119792945603,2.4227923679634293,-1.6205173444087821,0.13020232162564968,0.0796688828905399,-0.23520100230618596,nm,0.0
41.37260675430298,27.938988017014132,-59.641725164905836,-103.67208542419174,-0.3180936351941733,2.207090964069613,-1.4849998455903008,-0.04996738446084962,0.09798339278379244,-0.3232635306243466,nm,0.0
41.386353492736816,26.67928099973684,-60.55403520359804,-103.78873563774135,-0.2686248857193343,1.5353733533510283,-1.657965246885239,-0.1582379035575851,0.15575020068050552,-0.24663284033456814,nm,0.0
41.39496731758118,25.386545088025112,-62.2645783905547,-103.0870238244342,0.16224739084363196,1.415995918751095,-1.5281384453373086,-0.3150440102422993,0.19046251249190171,-0.08476981794188905,nm,0.0
41.412513732910156,23.194045540479422,-67.82519372396516,-102.00243552092086,0.6921518933008923,-0.31882569689534884,-1.1934764903778836,-0.5768443473506347,0.17439889226139607,-0.040941834612908255,nm,0.0
41.41984987258911,24.404855982368865,-70.7202904731701,-103.43792907833085,1.0874847053282748,-0.8648872620533946,-0.768615830486905,-0.5955151260505107,0.03562662355211173,-0.038829198312960195,nm,0.0
41.44539976119995,37.58799391548652,-74.97747136545782,-118.97950647114965,1.140340512048874,-1.9235279680277901,1.2648237944240377,-0.4998956810145639,-0.30596022948586477,-0.3844411941339722,nm,0.0
41.46500825881958,55.28659464246,-72.90471227969417,-141.17553792268635,0.21359540224182788,-2.0545234674034196,3.0418630684208074,-0.07519168587742336,-0.5782048120381177,-0.5446054383702156,nm,0.0
41.467023849487305,60.69489801867781,-70.39963345101201,-148.1028585971092,-0.23894642003747057,-1.537465506075269,3.062193476685728,0.001465592518579204,-0.6124319699093606,-0.4041482483028665,nm,0.0
41.5117883682251,60.10437891914713,-66.2763794763889,-150.09225510972738,-0.27637119835718454,-0.7438761950718473,1.5273966739664964,0.3403976596132957,-0.22725441673133048,-0.2725960704378287,nm,0.0
41.51473808288574,52.571861242202765,-64.69704056937003,-143.28830895510578,0.2078377622271446,0.11275017531192039,0.07670930817622315,0.2945373083912975,0.09814510205574012,0.07938426225445849,nm,0.0
41.51643943786621,48.06501562276954,-64.28817901386239,-138.87356869172774,0.06942402264629888,0.18859413589782983,-0.6135454874047229,0.340654994061859,0.17396842720117606,0.07056169928971508,nm,0.0
41.5295250415802,44.28450571461555,-63.42955228560498,-134.23342849264833,0.11295642184809329,0.5775450325456863,-1.4685498044066638,0.34746390789718995,0.09772161617643249,0.25053249297954827,nm,0.0
41.533257722854614,43.21123869666867,-62.490742122849625,-131.19403998034457,0.17127098773786903,1.297796704039542,-1.7805638298283317,0.19189463660285705,-0.06287446573144101,0.4057506245280007,nm,0.0
41.55906629562378,47.945252415871224,-60.73866773919296,-130.33845630281502,-0.5069128570979383,2.6101189391130535,-1.2825724679107873,-0.05223066452094643,-0.3515621283474035,0.5448732524780381,nm,0.0
41.563737630844116,51.11264441900816,-59.967487415906284,-130.57065639320277,-0.825263951234943,1.9356109189535706,-1.7822712588457406,-0.09770058834687126,-0.34754102629200206,0.509321204100486,nm,0.0
41.59243941307068,64.35473388725876,-64.1877776947833,-135.89501014577084,-0.8595022174118134,-0.1540197705289078,-1.192761359391406,-0.6093602475882606,0.06731880689050944,0.39087577109129895,nm,0.0
41.607701539993286,69.09235675961044,-67.4866778559634,-138.60675200570964,-0.44311344037809997,-0.8564579736665922,-0.5208365414861454,-0.7433367127339554,0.21305361665938305,0.36693595876131135,nm,0.0
41.61446976661682,74.6120246970582,-71.25004965142361,-142.94716168587917,-0.1332882225952282,-1.3737020884643003,0.5751369919843796,-0.7871409260303659,0.32998880044133416,0.230617386473491,nm,0.0
41.63349485397339,80.78075213962063,-77.46714588100464,-151.1613951731372,0.5843904284013383,-1.962784002917991,2.5410578172007154,-0.356783021567634,0.4097157898814274,-0.3454615037870575,nm,0.0
41.640361070632935,82.80359528187755,-78.79845290507771,-156.00288739953302,0.7106348591520627,-1.996306560423547,3.1663498228286606,-0.20330225034381946,0.19449960306513456,-0.5393998399406723,nm,0.0
41.660911083221436,80.6508612551369,-76.6488439030217,-159.6141812879918,0.02174837977110962,-0.4820708654666078,2.4052615379894586,0.18315659512564905,-0.30688978943607664,-0.5393367275923274,nm,0.0
41.66968035697937,77.15669965858393,-74.66612147697343,-158.6321265772484,0.15306776541226488,-0.09271638616661544,1.9605108490277292,0.2920856600142247,-0.3167694040599829,-0.5063430650317065,nm,0.0
41.6960027217865,60.46413941262488,-73.0111084920594,-148.5057556709503,0.04019328599903615,-1.036264115445352,0.37343899868430325,0.4900388942304473,0.19879280369114086,-0.559869922241328,nm,0.0
41.69776225090027,48.9378903081926,-73.37151838152504,-138.8701708502692,0.6033022334251801,-0.1368046041708427,-0.041792817101406296,0.48143924088447404,0.4457033410995577,-0.27064232805435484,nm,0.0
41.71985173225403,21.142947649173617,-71.70470565324975,-113.27421775439937,0.9111950868234642,0.22757777367768306,-1.4852977215879724,0.627798547981121,0.5393884964434966,0.006447270352652599,nm,0.0
41.72455620765686,14.008172264751721,-69.70467113527864,-105.62988551537374,1.058370472448127,0.972460259222424,-1.7718436926102807,0.522628051402568,0.30397057923131265,0.20521822565706632,nm,0.0
41.746055603027344,14.931714587025855,-65.6544553696542,-104.08059250711342,0.41087592270421275,1.6616790767264293,-1.7029045730224286,0.3317327148891853,-0.29472218149149226,0.262082353305437,nm,0.0
41.75202536582947,19.741521804956353,-63.95432768549244,-106.85813885975962,0.04280478141076056,2.0634924560118306,-1.4574584532735642,0.2069467421063644,-0.4936658171061399,0.31878778900996735,nm,0.0
41.76445937156677,24.93406551497602,-62.811721402565325,-109.70800519743221,-0.5048032569923037,1.8313493140728638,-1.3743720815921714,0.059424269415166445,-0.522147860383735,0.361707149124908,nm,0.0
41.79371738433838,32.93022887939612,-63.04274620266575,-111.34670819873945,-0.8204039433415389,1.7936546108996856,-1.234477697110115,-0.24011175459555184,-0.24505559445093023,0.5724778394356673,nm,0.0
41.79782295227051,35.026626884085154,-64.87186535011266,-110.69256536951812,-0.8948101908178794,0.7923782840095971,-1.3853257832072738,-0.41874991043092696,-0.04994142135075622,0.5344024435176737,nm,0.0
41.81395101547241,39.842844742742706,-70.72752018847089,-110.62465974069714,-0.047074195775194394,-0.5372023886199359,-0.7782420675296418,-0.6650334526370872,0.029540781468583226,0.41314198981358136,nm,0.0
41.81958723068237,43.998577806066876,-73.68525464854926,-113.87290744849045,0.3043795459757807,-1.7065803066349468,-0.23281548681160116,-0.6544245542136943,-0.020480462322187882,0.15729560640614182,nm,0.0
41.84894347190857,58.3813314088828,-77.08704156708981,-129.8845208999816,0.4784594718513603,-2.441830263176313,2.268157855282144,-0.3995481715747194,-0.17374609760913678,-0.3621360583508696,nm,0.0
41.85113048553467,65.537498999868,-76.98710737339894,-139.56268312416944,0.20055296489537447,-1.4693607509606395,3.2530207242850926,-0.22161304053551506,-0.25032352255717083,-0.5485407917095025,nm,0.0
41.876704692840576,70.87189709916505,-73.94061559363172,-151.5496693984026,-0.258662382052624,-0.8693746689417717,2.627856414517565,0.13036589343183708,-0.35598250327061465,-0.6983561838490616,nm,0.0
41.8784384727478,67.71636213461782,-71.97421477943185,-151.0978074694697,-0.039067140928034996,-0.17340825983730615,2.070607218541013,0.33999941557738395,-0.2634735421185198,-0.5560099421787528,nm,0.0
41.893314361572266,59.954732229453604,-70.45043439449074,-146.92075507989097,0.31653601148700894,-0.644977522777199,1.184929083212003,0.5730889483806283,-0.009969073096916312,-0.65666058838078,nm,0.0
41.9071524143219,37.86781775618535,-69.23072597200827,-131.4269393679572,0.636258110587525,-0.23262641302138715,-0.11540764290007342,0.6465524271325295,0.5035574273917317,-0.3738174313511503,nm,0.0
41.92212414741516,24.99053270046714,-68.09781193067685,-120.1931609254465,0.908330240377126,-0.46629270192249245,-1.0271721809433991,0.718481847068897,0.6203348978050605,-0.130115675673913,nm,0.0
41.93462371826172,8.182353556875768,-64.38011370098938,-102.8919847759336,0.9055211276727831,0.7322170158451072,-2.08096672850816,0.49290793938230987,0.3795828380002034,0.3294707756264595,nm,0.0
41.947274923324585,6.887267823991729,-63.09721802637616,-99.22189307165097,0.7114486074025709,1.3551544619062124,-2.1774999457872144,0.26232319891658856,0.055848084934085114,0.5137854282610291,nm,0.0
41.95493125915527,9.774054856734928,-62.46081942014168,-98.70586126550141,0.33082419662584606,2.147062783343038,-2.011296121050724,0.0731755744903435,-0.2889581036069526,0.6121751283381525,nm,0.0
41.97438931465149,24.10248610151975,-62.61488957446458,-103.78060639373099,-0.6299289489109979,3.0257679052931685,-1.2972297534964037,-0.22370549872561774,-0.7383551468261912,0.8059429026548949,nm,0.0
42.00042009353638,37.17651444329601,-64.33351664682063,-108.85374991714288,-1.5421262302645748,1.3308234579942202,-1.3444845302288495,-0.3926304836300118,-0.41833078834420884,0.6152847789475745,nm,0.0
42.00222897529602,41.42656943191354,-66.6676617553962,-109.87434451760643,-1.2856387634726256,0.8201066013206972,-1.0143666960111004,-0.5675111438620372,-0.18845165306682823,0.5816368263156858,nm,0.0
