timestamp,roll,pitch,yaw,acc_x,acc_y,acc_z,gyro_x,gyro_y,gyro_z,markers,motor_input
9.517197370529175,10.812434943832288,-23.754174237211288,-10.972628985072133,2.326199265815512,-1.7968055242491026,1.834542651624098,0.12962392791438165,-0.30137252070550125,1.0755059344821098,nm,0.0
9.526668787002563,14.86267198856662,-25.614787223637403,-5.1273718092051,0.8951787428254,-1.4581519696911247,4.260323808644813,0.6870906055979344,-0.4829597327973743,1.5107499179673756,nm,0.0
9.547057390213013,25.85884490075275,-30.318608538304346,1.4712237786195264,-0.637625707751945,-2.57977580597087,2.306198267281389,1.143402681484675,-0.46913706582036335,0.9628368441137826,nm,0.0
9.552581787109375,34.4280328986337,-31.31002762650849,-0.8442639458692621,-1.074169874472058,-2.5768213526607155,1.9296768818269898,1.4864010107227945,-0.1948178740472578,0.3804199419153878,nm,0.0
9.580179214477539,50.481183378099885,-24.71388395778568,-12.453860576264564,0.38491869416003854,-1.5759950164849323,-0.4116391970143179,1.4917596376264415,0.6992827160040277,-0.5684030009880411,nm,0.0
9.583012342453003,56.074382661448375,-18.985246708880762,-17.837813108634247,0.7452442189328682,-0.7968407078424883,-1.2433171857562488,1.3134821492426567,0.8286595246637094,-0.6579655575823645,nm,0.0
9.590431213378906,58.970305387412026,-14.436946459162003,-22.12753545314037,0.7521102322941653,-0.1046877033936122,-2.1967916599918285,0.8427389557890956,0.6599865299626178,-0.6832150638870438,nm,0.0
9.60235047340393,59.745490979040746,-12.56591025999266,-25.231014117441138,0.15882425826813698,0.20275626745046837,-2.3728411210295377,0.29706378903316827,0.2770113918867459,-0.595597783312811,nm,0.0
9.621906042098999,55.1822326149534,-15.95617618333055,-26.807273037994353,-1.5837887445026522,2.154029667065526,-2.045620480517319,-0.8049789419218398,-0.1697815291027283,-0.22231299664075488,nm,0.0
9.6438148021698,43.01526160785125,-20.040450554699703,-23.7023603281837,-2.140156747490021,3.0573433742706144,-1.4744010359140642,-1.280473860574609,0.25777426443727425,-0.0820283934607639,nm,0.0
9.659478425979614,27.815940573944406,-19.96620461328253,-22.04044444310391,-1.1340492493810472,2.5298701258253993,0.27116592620309116,-1.3327868669281107,0.6117435203434187,-0.4550828743594292,nm,0.0
9.667522192001343,18.97120664058343,-20.262622708736956,-23.041631762739325,0.6461848242013798,1.5749788565311282,-0.6733081546987885,-1.5496255630264897,0.5801396016214144,-0.6741335612158147,nm,0.0
9.678421258926392,11.662600799584125,-21.847615483166095,-22.89270814472267,1.9058454486448133,0.46573484551581124,-0.6989238893801276,-1.3760985992205128,0.22936828647996582,-0.47891148856825366,nm,0.0
9.685646533966064,6.083890546717587,-23.9780248046582,-20.769192646357745,2.8206551766258747,-0.31147905346932103,0.6572195883161653,-1.1087523178265077,-0.027847166138224386,-0.04295043282182819,nm,0.0
9.713429927825928,2.57759037871306,-26.582343005006393,-10.027322043442483,3.069698521147616,-1.3338429100674494,1.940960264788555,0.00027749406937825155,-0.23985025924091685,1.295098293834458,nm,0.0
9.715362787246704,6.34276724582368,-28.22519552335814,-2.916597982393017,0.69421699374138,-0.5784132272587095,4.128218339813536,0.6375430526725953,-0.4139646345414246,1.7753089556620723,nm,0.0
9.724409818649292,11.919355669851889,-30.720032670044322,2.265368650448575,-1.4507946851576776,-1.7125355155901,4.519987766304208,0.9803251871977944,-0.5152935999814168,1.597915969775373,nm,0.0
9.748013496398926,32.92065254289333,-33.71661056817446,-0.8034743530902482,-1.8050524467731166,-2.762546612040058,2.758979851646488,2.051282957676376,-0.06948765304492029,0.546414704716654,nm,0.0
9.752417802810669,44.748085928309926,-30.737065915803075,-7.7013260312609555,-0.6624374599495663,-2.8032926914642875,1.2952942573354413,2.052670718652092,0.4378989015053729,-0.12055659228544562,nm,0.0
9.818191051483154,71.65387438321379,-13.705569671001792,-26.74868329951748,-1.1317118533261048,2.8817807364892314,-2.678519875124094,-0.22604376156984496,-0.4500627451451482,-0.1963428321411197,nm,0.0
9.821146965026855,69.83521735441161,-16.161109720026186,-26.50207606407809,-2.069928518534612,3.4173788826621605,-2.3039894773855734,-0.5242150427660858,-0.2874641567449635,-0.12480357852543932,nm,0.0
9.844285249710083,60.005237778789564,-18.245027707079622,-25.725126359463996,-1.1887265917923602,2.6378862860974355,-2.442724683972098,-1.0354004743771534,0.36349509535678454,-0.22642603463971864,nm,0.0
9.848218441009521,54.38362122646005,-18.74156257381719,-25.063283049066186,-1.0403098828005413,1.0810179776044817,-1.1522949775258187,-0.9969391421745151,0.3642585619259047,-0.1627223304967941,nm,0.0
9.870686531066895,39.515340596155575,-21.403065742747035,-22.534516718576793,1.178109100208691,-0.6213670547434234,-0.3092718932053134,-1.4957077341418703,0.26948728964194374,0.01127180330438399,nm,0.0
9.876845359802246,33.08900718899833,-23.82316846479143,-19.127354352555816,1.4860580705364794,-1.3957990972291852,1.3324922414157105,-1.274472826963644,-0.025085351485334553,0.4457175617316037,nm,0.0
9.89772367477417,24.38300879764574,-27.601754981036247,-5.492309756391283,2.4276315755497824,-2.0200328307630024,2.737004241441476,-0.6332103938495396,-0.24480782588834832,0.9959835600797035,nm,0.0
9.904378414154053,24.443983389414953,-29.960412048918236,-1.1051707159823343,1.3404523901475018,-2.3561196492347616,4.148086504968891,-0.0042786717416783,-0.4807096480427137,0.8180933455854875,nm,0.0
9.926437139511108,32.99335448078678,-32.45799837741006,-3.3137624693982954,-1.3382525063793262,-2.6526862127418673,2.872035975853253,0.9657030057572401,-0.16655679311390229,-0.07938405021260955,nm,0.0
9.93315577507019,39.32922814542558,-30.981711511061363,-9.0587848289458,-0.6392506252613191,-2.366561080331052,1.6305319714290523,1.1151771043215533,0.17260417171633274,-0.546029192959439,nm,0.0
9.942273616790771,45.77006461276204,-26.9659361221344,-14.948341256747971,-0.5820702568422149,-1.8219085508493054,0.2646803255085533,1.280321383272778,0.5456299009289578,-0.594252463259654,nm,0.0
9.956605434417725,51.70059047527777,-22.003808950851898,-19.941391109561252,-0.13615951780790525,-1.1946172457158406,-0.3031775504752056,1.3382202361508222,0.6167858739384153,-0.5250154430900343,nm,0.0
9.973767757415771,57.928175446814365,-14.492197863106622,-25.591560303834687,0.7782563263919291,0.46705756623671973,-2.083981199548985,0.6489679804939589,0.3715718317840623,-0.2938786607474924,nm,0.0
9.98258638381958,59.349915420339414,-13.233208819602597,-26.30140667421846,0.6619770175277758,1.8972929402319558,-2.359848253502065,0.3670846631785224,0.10026567450646294,-0.10174620569442605,nm,0.0
10.00313925743103,57.83849892066153,-14.118170694035333,-27.023520412438245,-0.3934368399801636,3.4855461646455095,-2.7282166579674088,-0.3271752422851199,0.010459133766732638,-0.23099100813251974,nm,0.0
10.010174989700317,55.715734246101285,-14.680475635813044,-27.80288131056643,-1.7146759829647031,3.700287150112797,-1.8245327588332205,-0.4094497933920991,0.08206819572598234,-0.31351901315183184,nm,0.0
10.025421142578125,51.47194024411611,-15.403457524709937,-28.819133841013656,-2.165684571225305,3.668810157285411,-2.1659828340489464,-0.7839617655642216,0.25301566361181504,-0.4640751583467096,nm,0.0
10.0278639793396,46.34735638183587,-16.824593694420813,-29.345703174334968,-1.5612838013947026,2.8964549104725634,-2.3805999331785226,-0.9926338998445449,0.2222057844230471,-0.39135384285987784,nm,0.0
10.038756132125854,41.732643146036224,-18.843068358342087,-28.127348730743563,-0.9996922298693266,1.970364002352487,-1.7892042362851852,-0.9585186456568583,0.059192381931981605,-0.04746229470774719,nm,0.0
10.060266733169556,30.642792797357565,-22.86583567487985,-21.82507924917427,1.6029507806047176,-0.19279231669828661,-0.8801973370002077,-1.1803284458710341,0.08415048929040063,0.26892294533978744,nm,0.0
10.0660240650177,27.90368455278442,-24.973241297431922,-17.356383221742224,2.460024614107821,-1.9010166367951569,1.4634913141884942,-0.6055401707623176,-0.24061728760802958,0.6403218512425891,nm,0.0
10.077535390853882,27.84614067812689,-27.779551992443785,-12.459148828190939,4.051921283309439,-4.19702616584583,5.183441970784397,-0.14399972541324566,-0.550762967758616,0.9132291129707376,nm,0.0
10.098615407943726,28.218953109462053,-36.91517189158911,-3.190879453462989,-1.1034368256030098,-2.513729439574697,3.1299396942156945,0.09274315913751577,-0.9264996983858723,0.8018350622125802,nm,0.0
10.107919692993164,32.0107094148282,-40.0331008095167,-4.102220161949484,-2.2287420593627076,-1.9549299012339145,1.3718763909370626,0.5677695432863253,-0.6664158644833563,0.20100671141757465,nm,0.0
10.116333484649658,39.2636381726567,-39.89455375033291,-9.987301805206698,-1.691990794599416,-1.5761361468821231,0.6422423215851552,1.1196078453689964,-0.11418657500962376,-0.30239172088825506,nm,0.0
10.13905668258667,54.11903171767339,-27.395627661492686,-22.959287783745324,0.0542103720492293,-0.8271812301088843,-0.41189137893472905,1.5961348999195037,1.0446235012752432,-0.4874696049165684,nm,0.0
10.146592378616333,58.70245393159368,-19.88830411313276,-27.455653042937836,0.9924644736781748,-0.7630174015142075,-1.0782196256840217,1.4120789566890573,0.991959978155878,-0.49737109842187394,nm,0.0
10.165844440460205,61.421282722622344,-12.571883532090526,-31.2990375770172,1.1755233196281623,0.5235812951073584,-2.5312253446116815,0.2697341737553877,0.2971460194172617,-0.20356325616863422,nm,0.0
10.193171262741089,54.63728383540768,-20.924736212917818,-28.61541188856953,-1.6051068339111347,2.64893202550108,-2.008922017902475,-1.004005874362714,-0.2560735218808188,-0.0193004250153178,nm,0.0
10.202313423156738,49.83450805758431,-23.11873010969612,-27.218137031607952,-2.0850589162884945,2.7340184444617357,-1.8787003320662805,-0.9847106260017082,0.020461492161119747,-0.10404498581750932,nm,0.0
10.230210304260254,39.25603826672645,-23.247393992128124,-26.842216370149533,-1.1385748814879706,1.7095043115019048,-0.9388278935395432,-0.8464218605844566,0.5179590878915006,-0.4417923261921217,nm,0.0
10.240305185317993,28.76193742508077,-23.10958652580238,-26.752889011408605,1.0199037784755707,0.025857904403324285,0.16295263793621223,-0.8509082650650651,0.35367580538707516,-0.28192271949514847,nm,0.0
10.254929304122925,24.344000048977712,-24.310592703813914,-24.98804135350799,1.7880058899140674,-0.5279841372069348,1.052336790539574,-0.827315828473349,0.12665301853896085,0.03212210789803026,nm,0.0
10.256584405899048,20.714885630464778,-25.808487310743665,-21.49307567381259,2.1101931128681786,-0.6867238384980636,1.432442010008843,-0.7166790246249362,-0.027549037103503916,0.3946785442195163,nm,0.0
10.279075622558594,18.03681270749794,-30.240561634927598,-13.412448174008237,0.6505011612041053,-0.38185204960040964,1.5443760228153036,-0.1979016302373763,-0.4713689232254925,0.7011064923962658,nm,0.0
10.284958124160767,19.021070530821163,-32.419594465236685,-10.865172392988097,-0.509718185499655,-0.31313162476440964,1.515634138724756,0.08233816068910131,-0.472889583082697,0.5812411441555666,nm,0.0
10.31676435470581,29.00474991828683,-32.91800942569267,-13.805386477690927,-0.81621732581281,-0.9732147083212132,0.762621864268114,0.6846505078219185,0.05472580175356429,-0.05929896168144159,nm,0.0
10.323039054870605,32.11732705492325,-30.966177226457724,-16.11604959260245,-0.11460895601919263,-1.334325046450972,0.42409788523985037,0.6210754725211463,0.23105439623367863,-0.1378450237026207,nm,0.0
10.347793579101562,34.976065503642026,-27.845681179525823,-18.204552293353682,0.7081548806471242,-1.2678818816691368,0.20127048363524186,0.19084605829986928,0.17130766200612657,-0.06275193606575873,nm,0.0
10.352509498596191,34.58667778884451,-27.768020856488917,-17.931281450778886,0.7008910643712714,-1.010319599502205,0.13622789169392197,-0.05180654285938916,0.02647531030868334,0.012436776917507934,nm,0.0
10.374682903289795,31.332088669467918,-29.457913062911235,-15.838676256512423,-0.11744812274769834,-0.04593662594987681,-0.013542946067595889,-0.39063375542372714,-0.1002800239531658,-0.020820653784904254,nm,0.0
10.380416631698608,28.811950410248986,-30.249753969295067,-15.20471299700165,-0.5069746701351148,0.2874765511891148,-0.23730102466754538,-0.4550508219341322,-0.046730653259718896,-0.17198645824415126,nm,0.0
10.409142017364502,24.745514978564696,-30.27894726017204,-16.36402087526489,-0.7134003663615516,0.6689250892345493,-0.2744055737404182,-0.25735339000014246,0.1122754139004301,-0.3911823964186515,nm,0.0
10.410884141921997,22.942782443609484,-29.741512445973708,-17.798473710588475,-0.3694627799238631,0.6378607357169149,-0.20007308577126953,-0.25951507315484784,0.18314594112748878,-0.48256675546638594,nm,0.0
10.419244766235352,21.091227143754264,-29.09875948101676,-18.991798628851363,0.09796811738964231,0.41696622402126426,-0.20578432829286636,-0.2586676293471171,0.21213168383841446,-0.43563627779067,nm,0.0
10.440550804138184,17.81431805692234,-28.345942347548828,-19.035589248947005,0.5415164498623685,0.4834467755967879,0.12138826079281176,-0.25859141426808124,0.1283663173546453,-0.08688895198602392,nm,0.0
10.463632583618164,15.580644778269692,-28.598931256135852,-16.60063735314865,0.34282977849156593,0.7226346916666749,0.04469053248005796,-0.13629006319735953,-0.012255557544106305,0.19139296152161953,nm,0.0
10.468244075775146,15.37463247102754,-28.944239869846275,-15.531883172779912,0.10475717510912545,0.720389863954467,-0.12091846473705879,-0.04649955954627767,-0.06847047768008395,0.17862227305322684,nm,0.0
10.478107452392578,16.01048236232117,-29.295974161526274,-15.146419095923367,-0.11039975272652738,0.5608955784547428,-0.19994135189505163,0.09621918839348156,-0.10917943960846462,0.1207051667831319,nm,0.0
10.50304651260376,19.382662328255513,-29.19452012439152,-16.14239832142322,-0.25150155715340095,0.042511066315744056,-0.04687772241386608,0.3342007609482273,-0.05675687856578767,0.024080838434654788,nm,0.0
10.504677534103394,21.310851505809495,-28.73339802937628,-16.735435741780556,-0.10813317299949221,-0.2853930756695689,0.03898534465837199,0.3578870811384154,-0.018204993065886643,0.04456921960154892,nm,0.0
