timestamp,roll,pitch,yaw,acc_x,acc_y,acc_z,gyro_x,gyro_y,gyro_z,markers,motor_input
24.008976936340332,-106.36447240842415,-16.48212016939339,57.61675971809247,3.0491368960794443,-0.6300981441447829,0.4690572474452156,-1.074780891084874,-0.41359392823669155,0.014950816486920432,nm,0.0
24.030025005340576,-112.43468130285778,-7.801583963551237,61.48243054332751,3.829938144560473,-3.2246567128141357,1.3425467116827783,-0.9775762121774991,0.08030175496821351,0.3876732785689326,nm,0.0
24.056628704071045,-109.04217611372125,-1.8226012972887045,66.28431761168608,2.344955097624154,-5.5178501862978155,0.9377324236505508,-0.06429186187659584,0.8294998871980732,0.5890768084589819,nm,0.0
24.058435201644897,-102.9641022892875,-3.2278218501005815,67.03727789676155,-0.14516801989933195,-5.719936068907962,-0.4746564795114378,0.7474535023943415,1.008046333428016,0.2820848471898742,nm,0.0
24.066523551940918,-95.67721630245487,-7.908453710559629,65.83431247555079,-1.208844757341396,-3.589053581117908,-0.48684367960646113,1.4461651323460174,0.9581891128512593,-0.04511851819875687,nm,0.0
24.089557886123657,-78.52430282379167,-17.855602944333324,56.78495891493207,-0.7938553709749053,1.029915602081558,1.7557363463773807,1.589516206186801,1.0626204257917857,-0.579129562630276,nm,0.0
24.095691680908203,-69.70137393517948,-19.022176369845543,51.661297853562765,0.09118979042343153,2.656664729542716,2.2190171888496786,1.179679968153988,1.219681002172669,-0.42467108197486386,nm,0.0
24.11662793159485,-61.59800696478429,-15.70737182291989,50.87339459935383,1.0915195162676474,2.904988198344371,1.381544992702747,-0.035132484347532085,0.6089443508089354,0.4236971947857639,nm,0.0
24.125540494918823,-60.59627337339439,-13.798254979792464,53.47850833546979,0.3818076997409114,1.591770269002877,0.9623783501260031,-0.1711134291530481,0.386407527181812,0.6188211084672229,nm,0.0
24.147836685180664,-65.88168511384627,-12.812116929553603,58.77666705254734,-3.7067523952128,1.6209862061974711,-0.33529731875169705,-0.5433877580950615,-0.8710614787725439,0.15640974293591173,nm,0.0
24.149604082107544,-72.44793836532588,-13.40884961807656,58.79216958686059,-3.180010035615981,0.8145821241267623,-0.5768577138077836,-0.5484405551962976,-1.1585748987021998,-0.3529700727653582,nm,0.0
24.17613410949707,-85.21026027505718,-15.84091498142114,59.4555988424874,-2.2671284456484866,2.8204327418869353,-1.6601826551834602,-0.47844751910642636,-1.3008769629634518,-0.33408840891838065,nm,0.0
24.199580430984497,-96.95195455941135,-14.682099278336219,60.96994204304677,0.24420583301706364,3.0048755789794406,-1.691420101024172,-0.684044832462419,-0.6932361637149244,-0.22438687698797014,nm,0.0
24.20470881462097,-101.56246459215652,-12.180848370671995,62.40806943666111,1.4808200895655148,1.9744713626835577,-1.4638285963683606,-0.8600111674446785,-0.5532562812929259,0.005011261250817474,nm,0.0
24.209181547164917,-104.99884157071223,-9.051856889077742,64.19459962289046,1.7551141496540814,1.106828777479332,-1.136977737249326,-0.85852419268849,-0.32094452692465136,0.1862021495528645,nm,0.0
24.23100209236145,-110.14456058225244,-3.224446561018328,67.37335223079724,2.954601036626815,-2.5798379676732117,-0.034517373394318096,-0.7077470431574806,-0.26690791865216934,0.2953925857395736,nm,0.0
24.235509634017944,-111.38474401744377,-0.9385995149169467,69.36188308091262,3.1221203305135443,-4.0466247330328295,0.8135339741237504,-0.513873133652862,-0.05540388852119739,0.4016352919693885,nm,0.0
24.26015543937683,-107.37598413625274,-0.028070914930336994,70.75491289947757,0.5398719878235381,-5.770100544931952,0.06937445452585833,0.2826882609341519,0.5250513505330499,-0.009578622453341987,nm,0.0
24.264140844345093,-103.32288021108728,-2.521531814170267,68.79973937968056,0.26928236102819236,-4.790980993014075,-0.11905462404331607,0.7536182298557815,0.5941030802277673,-0.3510907217673635,nm,0.0
24.28497552871704,-92.89252834891936,-9.278251416972653,61.93713286274095,0.8520449506550046,-0.9821705695750605,0.5000683071518757,1.0708856983314663,0.752503933858878,-0.5798410345649477,nm,0.0
24.34444236755371,-72.72896528957739,-10.927469111544864,54.654449189953,0.5747580333843232,2.7655001415521943,0.7603316296030778,0.564872630565975,0.997573846843764,0.13567896876123978,nm,0.0
24.3477623462677,-65.89568852382756,-9.92721405651258,57.04154417277771,-0.35380053215467067,0.6154828508486119,0.21169233696639989,0.2962470741824,0.5068567455049087,0.45297425736955504,nm,0.0
24.36408257484436,-66.59672106593494,-12.978432209470684,60.73264701323445,-2.423945875156959,0.447510502858517,-0.04562104562781759,0.030276244783423507,-0.3518619360026227,-0.04879511555736145,nm,0.0
24.368807554244995,-69.31885399813683,-13.218748640009146,60.64500093437354,-2.60612950202126,1.2831066947994831,-0.30841593875277956,-0.2066323172226669,-0.4867200712820692,-0.1859142277124299,nm,0.0
24.393091201782227,-78.15225453697414,-10.497891261591482,61.87146940963524,-1.3292344003497731,2.9008394906769084,-0.5163061991407876,-0.7495857364701329,-0.5555434068923161,-0.03815991520759324,nm,0.0
24.39954686164856,-81.89800274672595,-7.637865618177948,63.1579361563595,-1.1921720327628191,2.876380868889175,-1.3624858997424163,-0.8398655820554358,-0.3932692861132132,0.07668336080979549,nm,0.0
24.421626091003418,-89.30227279322999,-2.965948459319535,67.5958982042941,0.09790529638758122,0.6653081691688694,-1.8829492231832614,-0.6248337206449508,-0.48888498839476274,0.4016958197858006,nm,0.0
24.44539475440979,-94.1791300764363,-2.254385714645605,72.00735670675061,1.7416228838957755,-1.6103497050958215,-1.1176275914778078,-0.1125414742024939,-0.3917316028951006,0.34888963324105776,nm,0.0
24.44706916809082,-95.21438220845886,-2.490232209625621,73.73863695663665,2.460159787753289,-2.54516757279848,-0.4408255192107708,-0.009838222411384996,-0.20635074874285536,0.32537020758472696,nm,0.0
24.47127079963684,-90.48290826043608,-1.4379552646141827,74.82215259950303,1.8126468725381386,-4.393904144272451,-0.09789398659099192,0.06267293235443254,0.8150392998572458,0.014070445154658667,nm,0.0
24.47312068939209,-85.10610339828301,-0.9948814283740103,73.56073398600822,0.32698701370423516,-4.986360140536925,-0.08190598593581251,0.21675351337628873,1.064772033890888,-0.19480396375231268,nm,0.0
24.487656116485596,-78.63422825087247,-1.836488882903857,71.98832279921893,-0.6439720655700965,-4.019773820364603,0.12470824797889278,0.5549295329851472,1.19130459718026,-0.24244162664442992,nm,0.0
24.49453330039978,-70.83933160546314,-3.783921418467391,69.73236577515085,-0.5105839656448188,-2.408620032133013,0.4207882423261528,0.8912643678674285,1.3472644106379181,-0.3305083508152971,nm,0.0
24.502622604370117,-61.324760091644634,-6.049442489164828,66.31011058883774,-0.84757749309014,-0.4643669941984929,1.2155310675181523,1.1448021175155763,1.590888460816596,-0.46885424306298895,nm,0.0
24.528393507003784,-40.22228230916615,-7.617714351977366,57.15172160706586,4.30723900404629,2.7605371618372248,0.998041270254834,1.083859960767156,1.8453731366154238,-0.5701566762784231,nm,0.0
24.530349254608154,-31.18202201748951,-7.309207227503185,55.926218879208946,1.0001881493906202,4.015829812515253,2.5961930031968485,0.9560066253930307,1.5281549341730198,0.04707535062499715,nm,0.0
24.54509997367859,-29.147317696571584,-9.12520680924358,58.29898856469306,2.4287383447288518,1.5251462205603377,1.5551727143308223,0.5390503802614218,0.1393081718666775,0.6002005026374315,nm,0.0
24.557440757751465,-28.99201206502141,-11.255646036508914,62.218317810081004,0.21420673501553597,-0.15331730796787824,0.6873668853513613,0.399723177312236,-0.18509941508441366,0.8211501032321152,nm,0.0
24.57457423210144,-37.52753429574226,-14.16307124725515,66.0444721754267,-3.8079219002626523,-1.519698363361777,0.1972347540935588,-0.28240958762218965,-1.2306026740471714,-0.19881238908362955,nm,0.0
24.577956676483154,-46.111413848648375,-14.776592505719314,64.99800002291101,-4.470611494448177,0.5199991840595422,0.5670867075232056,-0.5550681801454493,-1.5688636732646704,-0.7800531581683066,nm,0.0
24.600308418273926,-56.52992301903124,-14.633079986597524,63.003213710194004,-5.618139601414288,2.9587373732209765,0.250508014653074,-0.88261085509619,-1.809573526415094,-1.1252840517426375,nm,0.0
24.616795301437378,-81.80711057495085,-13.89167489301597,63.24941007556298,-2.777277080875549,7.532296023069063,-3.329991433238241,-1.20855597388733,-2.1772889762862064,-0.6798575891159044,nm,0.0
24.61861753463745,-94.22337727393418,-14.254320912652402,64.32670529554093,1.3462609565279624,4.462495818602304,-3.2205873217238263,-0.9744514375399865,-2.202296227718584,-0.5851887314151469,nm,0.0
24.628065824508667,-103.28059861955016,-15.055823173645633,68.22629689844298,2.908414145339382,1.9406962449361755,-1.815869573284535,-0.5442698208169684,-1.6713476652596198,0.18062485516405502,nm,0.0
24.63521409034729,-109.06341005307507,-14.306846789868715,73.92016783008589,1.5372174794525413,1.314757376100821,-1.88564360322814,-0.4993293927345136,-1.009049113077115,0.7804323451273987,nm,0.0
24.69893217086792,-122.08935440153613,-0.4488512954951677,82.54248818466273,2.9376471200660967,-6.999450259236377,0.8742364435475563,-1.326124355285562,-0.27466097509850884,0.15096991027762902,nm,0.0
24.70069456100464,-121.6860595865686,4.091341968084084,80.17578564286869,4.028752766839628,-8.448137142809333,2.536838455934402,-0.8872359599129828,0.22409691314970656,-0.484097949155644,nm,0.0
24.70248007774353,-117.87249838016177,4.323932357532392,76.45279621561691,2.72069857870893,-7.871911171255372,0.2440963624757727,0.11063819671276223,0.7633988344295669,-0.7606103264014743,nm,0.0
24.709510803222656,-114.24165712911524,-0.5108704342197619,73.16302032242147,1.0833769209802968,-5.049804801674256,-1.8499789875954404,1.1269158681138451,0.4539091696798059,-0.6516623044222309,nm,0.0
24.71262788772583,-110.93096803523648,-7.741009669405036,70.64854378457984,1.8936085579932656,-1.9441310649974275,0.47611630961791973,1.583795703200047,0.18447468952814616,-0.44182442776117997,nm,0.0
24.714956760406494,-101.40475363458903,-14.280763317367835,67.58292406600494,0.9029654629092956,1.3535313235873176,-0.8005476411456829,1.8942628551749252,1.2843916771557318,-0.20028015159471646,nm,0.0
24.7404944896698,-79.48940785409083,-19.021003540494178,58.999424393255175,1.2705230878837914,5.429392403030561,2.1650122498190543,1.0056045108564169,1.6771433131454279,-0.040145792029116716,nm,0.0
24.742268562316895,-71.99180986712925,-15.192180436416447,59.13811060845401,-0.38377670764835503,4.5705896345729755,0.8070997507101272,0.099083771603459,1.62391927246515,0.6017533508431547,nm,0.0
24.76750659942627,-65.00728976100271,-8.526781528858528,65.81991628289367,-4.058298472392559,1.1784837810674558,0.0991895770234407,-0.15371608719974078,0.7195169047037511,0.9543913642726357,nm,0.0
24.76961064338684,-64.83230757920603,-9.026862824481016,67.52503201880599,-5.537422202242761,0.682071908104492,-0.2006597354342299,0.11666900310206847,-0.00613666194418477,0.4139004470453888,nm,0.0
24.78757119178772,-71.98327582927138,-16.525247828544266,63.83492299345882,-4.938518950263604,1.9970095259751084,-0.6227476890046041,0.4851737444853081,-1.1341427452348223,-0.7643237824861956,nm,0.0
24.80421018600464,-78.63635039541954,-20.91201590303862,62.70909897136626,-2.9869650526302243,3.1898062121366686,-0.420008614832344,0.23047019603203903,-1.5213407432908175,-0.7381595486190045,nm,0.0
24.80597710609436,-86.44002663637404,-22.874251105115082,63.58382111008917,-1.3829780916440473,4.233960230220315,-0.21741282869514494,-0.29101915764360164,-1.4725074256759518,-0.5130257403099101,nm,0.0
24.831458806991577,-102.30328430327475,-16.78522702083174,67.16349339659537,2.8065110696936033,2.0626764814947838,-0.715245755567534,-1.4092762751778587,-0.9975514762574132,-0.23492218428040118,nm,0.0
24.834905862808228,-107.62747006162876,-10.723790250893575,68.5245395407697,3.044757094106732,0.2978451280279488,-1.3223492058072979,-1.5089742210985562,-0.5034320345156271,-0.053023577642071315,nm,0.0
24.859069108963013,-118.02458807904875,0.16911252565866688,71.24856886720222,4.97311374269947,-6.317377711427811,1.7573683680063017,-1.2615206273860615,-0.6229899979299288,0.28872884409920235,nm,0.0
24.864161729812622,-118.9015829040042,3.069899925695025,73.87891474897782,3.4271412271090695,-7.806872990083951,1.0561293929478086,-0.6055442764367372,0.01529948098693839,0.569582387713771,nm,0.0
24.886507511138916,-112.27939835973045,-2.679073293469215,74.33960461804601,0.9112774923073177,-6.3835738486143985,-0.4810286314854968,1.1917823411687978,0.6508690150735166,-0.15892717597157666,nm,0.0
24.903619527816772,-96.55226289595652,-16.70286417629207,64.63275384730446,-0.8516983225965784,0.9096493715593824,-0.6292623597304824,1.9061139044685056,1.045331148305225,-0.6545764906603209,nm,0.0
24.918332815170288,-86.81996831723043,-20.869486301000727,58.9281537847568,1.0244989262414166,3.0419393007751863,1.432382378660097,1.6137857030741602,1.2296078238600823,-0.4662543625074307,nm,0.0
24.92025923728943,-76.73955436936394,-20.923006133917728,55.03586751234069,1.9377423355675163,6.7395480450473135,2.89091774936297,1.0463992034659881,1.5720242546750287,-0.01419586377989112,nm,0.0
24.945327043533325,-68.90976596364547,-13.82001458289878,58.352215012991,-0.18002195908708324,2.0628163735065317,0.4741632581130587,-0.286087718436722,0.7928441520129708,0.9123617021646999,nm,0.0
24.94932222366333,-67.03671881404767,-12.511480354342467,62.618305701089895,-5.3840835227484805,2.2542625896714648,-0.011677051648014771,-0.035504548679819815,0.4478287103515645,1.0503213511750502,nm,0.0
24.97616744041443,-75.94229997793212,-15.567046884672427,64.85614215006385,-3.985376957008986,-0.18669868373517878,-1.0058993605703987,-0.01708752814422492,-1.1427268241954878,-0.36391479332168813,nm,0.0
24.978633642196655,-81.1711853584305,-18.776179936893943,64.90808490663625,-5.05811757941273,1.5658708363696106,-1.6197827216693421,0.16956737420946338,-1.1772493403690507,-0.3868565441629271,nm,0.0
24.98797607421875,-88.73499881240616,-21.265004847206704,66.26171822390292,-2.8184853381392125,2.7953663805527924,-1.2347037953359459,-0.12190406341210107,-1.5015538891977498,-0.34363142747982944,nm,0.0
