timestamp,roll,pitch,yaw,acc_x,acc_y,acc_z,gyro_x,gyro_y,gyro_z,markers,motor_input
43.05151844024658,5.904069460379431,-59.235168862783404,-107.2704461099574,0.7068201259892506,3.353111337992617,-2.6379265877644498,-0.3131050937057432,-0.4329600403416403,0.7685556123914332,nm,0.0
43.05412721633911,12.864445449803952,-59.93030332776924,-108.9106161155747,0.502731393089713,3.5607592194792725,-2.8483166959703263,-0.36347952111915693,-0.6341062421854653,0.8590370097441656,nm,0.0
43.05647110939026,30.018031662539734,-60.28266402939712,-116.38939268681959,-0.5495605192470538,2.078523068232428,-2.0664844448267816,-0.3720256426036468,-0.8164462944477909,0.656354384612891,nm,0.0
43.05893278121948,48.574612018518906,-60.3743067628387,-127.79913817600331,-0.7329966723271438,-1.7519217952136292,-0.34744435006810587,-0.5699129908163867,-0.7307685857829157,0.33926479218417427,nm,0.0
43.07453536987305,57.084448854729864,-61.36579851800406,-134.77401278815483,-1.0759225886613804,-3.2782673139275387,0.8797125726037914,-0.7070356035178891,-0.5008161924669791,0.08562447206883064,nm,0.0
43.11550307273865,64.83301342868143,-63.32802053252779,-142.62179653496932,-1.0723590410452806,-2.654132433072633,2.4447605378100454,-0.8111335164963394,-0.18807392732449305,-0.18478084338761533,nm,0.0
43.11751103401184,71.03255806895434,-65.57023298652231,-151.20852851020214,-0.9851487279000677,-2.2301133324191067,3.132603639677543,-0.7051141292586351,0.07681245130082286,-0.5827542158853339,nm,0.0
43.11925005912781,75.5271979277841,-65.30519571972461,-167.14782065322277,0.06402699086098468,0.6217470451039887,2.5289296197021636,0.26878846502502773,-0.24923475496161593,-0.8672565674590776,nm,0.0
43.13434171676636,68.77391565761374,-63.10325562912701,-166.18689733594746,0.393859289082864,0.5452429645469348,2.337043479204082,0.6610576468359092,-0.29534893192708256,-1.0842485992479467,nm,0.0
43.13688516616821,59.286288730066104,-61.2909458442657,-163.78092012823203,0.4627492669426957,0.14683491180354177,2.1581075303059016,0.9353939971763777,-0.1205307439181411,-1.2565667653864314,nm,0.0
43.22209882736206,-24.08044776701322,-61.04874579266039,-92.69123733465402,1.409839538264114,2.535982171502154,-4.320139257293929,-0.31989244887901797,-0.12677733211228076,0.6055815905261848,nm,0.0
43.26450443267822,8.956167903966355,-62.59867140119976,-110.4758987749974,-0.33923175424892094,2.5275137202199507,-1.5720097309578933,-0.14783839388825246,-1.144867888146803,0.7732270200500737,nm,0.0
43.26787757873535,32.80738419616087,-64.26247720800347,-117.00729884260792,-1.2885526107012755,-1.573277721016279,0.7309990172055473,-0.7467815121082628,-0.2795204305999979,0.8942285473044171,nm,0.0
43.282886028289795,39.895237154226706,-68.912978852696,-120.50452747540885,-0.754800904240387,-1.2965935999810452,1.0254766004907614,-1.0982888443003795,-0.054457175893029945,0.6188370873424248,nm,0.0
43.323904275894165,72.76369478234443,-76.48394558361919,-151.7928074313633,-0.3114798742806052,-1.8841098061166819,0.9299281242663592,-1.1762264297573841,-0.2581144847827038,-0.06458703345110721,nm,0.0
43.3278329372406,96.32918735135452,-69.40957765267073,177.9950256364301,-0.701483139188144,-0.3572730316313987,2.124162865062568,0.12521120900186897,-0.6583637276446297,-0.578954078385671,nm,0.0
43.34838271141052,79.36205448541608,-64.7192018785154,-174.07763952168116,-0.7866335403073148,0.0025296929358619357,2.363737654013213,0.8257954535322892,-0.3249657196484141,-0.8993262581745691,nm,0.0
43.42509841918945,5.739786152696694,-68.58114335289254,-124.66104066227822,1.7880544965871206,-0.5137324686669986,-1.4641898282344907,0.7863146566688541,0.8546417554705733,-0.3027515188417042,nm,0.0
43.428828954696655,1.2925116495475155,-69.54071746005495,-114.26865250406385,0.9804916902281878,1.9384290901065042,-2.6362011466577218,-0.3699631574158887,-0.4480212961915789,0.657895973462288,nm,0.0
43.48669743537903,35.38461636065713,-69.70478274688813,-130.35744641828435,-0.7707832492033725,1.6879968448509226,-0.8562845078237126,-0.4467240716229304,-0.5825081522357548,1.0232248853465222,nm,0.0
43.49040770530701,68.451215705999,-73.70147382770989,-150.18919646368596,-0.8743435110017838,-1.0693440554024005,0.14407912031794032,-0.7906050872856804,-0.13574926175866683,0.48873018422242737,nm,0.0
43.52192401885986,98.07784804302821,-71.87027740277746,177.40186098860994,-0.4717710329354883,-1.1745321941151359,1.6879568863254562,-0.24971532186413084,-0.39314773505349376,-0.5470259835791138,nm,0.0
43.52409648895264,95.72913838925206,-69.42552700014701,175.88542706576263,-0.5663900009200825,-0.7100400679334433,2.1765245946620797,0.11486748159528855,-0.503340327099311,-0.788178682148957,nm,0.0
43.53758907318115,89.8137336472475,-66.85291238092235,176.8606417454477,-0.5946335454019346,-0.03324484946319517,2.5045954529196717,0.3952715788773722,-0.5451730956961913,-0.9624581641131753,nm,0.0
43.55922269821167,61.103362550434774,-63.51251659661553,-173.69770815945063,0.37140323208766496,0.08426655763501516,2.201644325910126,0.9608991841212948,0.09794459307635443,-1.2246061326280064,nm,0.0
43.574665546417236,48.13206128263056,-64.83601698406606,-167.64055593061903,0.7621509533091629,-0.42098759083114823,1.724649271024366,1.0570247836309603,0.4458699518738256,-1.1633451771375343,nm,0.0
43.578179597854614,32.952385020779744,-66.50876364003159,-158.24169808147866,0.8474280600119181,-1.0386144505154,0.8126670074712594,1.081739694944645,0.6870999954723207,-0.913629459566356,nm,0.0
43.61947512626648,-4.813144179605757,-67.5832257062583,-125.71988364926891,0.9353200809873169,-0.8184180331946767,-2.6682883043209107,0.4134232531840876,0.49372762208114407,0.16086551505469285,nm,0.0
43.623136043548584,-7.174026231474969,-68.06114598213098,-120.91343611065201,1.099154344637903,-0.014864160714246918,-3.145804252531384,0.004377861384269548,0.20238723001423298,0.5161056283076899,nm,0.0
43.63590216636658,-3.1067178744730484,-69.02254414443081,-120.60090870633499,1.3594024221449625,1.0653898139437834,-3.0212478222053005,-0.33125847336289005,-0.15779241322657359,0.808320645606593,nm,0.0
43.649054527282715,21.506613593921188,-69.6933129807802,-131.3522993017614,1.0755260158942883,2.85984516271956,-1.6154280186264893,-0.6087372644303107,-0.8003402238419676,1.3506308350747511,nm,0.0
43.682276487350464,57.17539537194328,-67.75048353715277,-146.30413737742342,-1.4687638644807992,0.380085319157226,0.041165404288704605,-0.6283247651160344,-0.45845151793746325,1.1258960037434784,nm,0.0
43.68419551849365,66.10738434862338,-68.76136013131136,-150.80524020579523,-1.4538776761650622,-1.055912526534998,0.45562497058679335,-0.6828757429975724,-0.17866247054099008,0.8004892034993838,nm,0.0
43.69753575325012,75.32519526230604,-70.41099658891962,-158.02943643218782,-1.0781010152732091,-1.6236609710288263,0.8320840086916752,-0.7343579932801242,0.014264549696720355,0.3301581386298173,nm,0.0
43.70171332359314,84.59217610595839,-71.50560427576166,-167.7290207249176,-0.9793852200017845,-2.029166446803449,1.2205489327488301,-0.6540211215600851,0.02607508097165596,-0.13843507304726715,nm,0.0
43.7262020111084,92.67108726456104,-69.79104693826083,179.92402074321018,-0.3913521500992102,-0.5046357334083513,1.5985886530011384,-0.10555945664847517,-0.30506510321564567,-0.5692541609809707,nm,0.0
43.74207067489624,89.3469248525878,-67.51895732019112,178.65354668634058,-0.4586771834814314,-0.06091287115670659,1.6348898724917995,0.22388790078215084,-0.4625315022742837,-0.9041236306426377,nm,0.0
43.74793219566345,82.74890253126513,-65.15666445997618,179.4810233459946,-0.1721054278632705,0.5246833533937857,1.7194619710861034,0.5094594398612035,-0.48373744690134857,-1.091544842171127,nm,0.0
43.77023410797119,64.0123463308681,-63.0445723149186,-176.6222723149438,0.46653296497578606,0.40948934284061517,1.7605229805791458,0.8863708350774175,-0.041165550208749874,-1.3973566596026363,nm,0.0
43.773439168930054,52.347925752988516,-64.02932084408904,-172.21565696712958,0.7107149532775698,-0.17136310835315877,1.7953825526054172,1.0005481531315177,0.3003906813977457,-1.2716616690681215,nm,0.0
43.83157467842102,5.32130452340019,-67.69486986323756,-138.69917051853406,0.42247536529526253,-1.9086929615533497,-0.49241832120421275,0.9178957885120502,0.7906304769415868,-0.24136304890003463,nm,0.0
43.83394241333008,-13.842381246500642,-67.95445638033253,-117.48385290632329,0.876493292758472,-0.7770319216176298,-2.034484967362329,0.23139374445392652,0.48815257357266256,0.49948147118032504,nm,0.0
43.83563828468323,-15.815247375393572,-68.86730501014343,-111.44351664293819,1.0396973120652948,0.20921720321398138,-2.58007041161228,-0.11955690052799682,0.20822757023529337,0.847767059179759,nm,0.0
43.837302684783936,-12.599887706824665,-70.16336634692645,-108.69644022655625,1.4693128448772155,1.5986333657217624,-2.7777573636416464,-0.33455289591884657,-0.12347240216267724,1.1589969320908955,nm,0.0
43.85298490524292,-4.706769156494693,-71.13185155194303,-109.42650028697834,1.149147703832534,2.6455848726665723,-2.8300620128862657,-0.36739308196380477,-0.433787730665986,1.3510046688544686,nm,0.0
43.89195394515991,25.81139574963691,-69.30316292336028,-118.29075143600006,-0.8971316116877915,1.6308456321356357,-1.0217471390079194,-0.10648336002081578,-0.6372327050426296,1.1295038559619093,nm,0.0
43.89400243759155,32.98474222649726,-68.79140905556267,-120.5187118705411,-1.037355600319194,0.2286344314870019,-0.12798931273423264,-0.17535107643195808,-0.5046768337600246,0.9138706344589413,nm,0.0
43.896549701690674,38.67793811830623,-69.04161827504223,-123.25643737862933,-1.1671038761594943,-1.2849080004647642,0.8026411361008398,-0.27116858008835515,-0.3290437722299749,0.5334513240925551,nm,0.0
43.91127395629883,43.99533092446061,-70.12246603150366,-127.93377041838663,-0.9209052536725437,-1.6179706725619918,1.4760822635756279,-0.40410425253615634,-0.1829353202363781,0.08865747762534751,nm,0.0
43.96942210197449,69.37742938217824,-66.63952633032504,-166.8984478497404,-0.05811387547432515,0.4989582388220454,1.757878129317649,-0.07515723611621258,-0.6318396387297082,-1.0555289246813313,nm,0.0
43.97266983985901,55.00642705320618,-61.36883151765733,-170.2846819192577,0.36605292517447763,0.3083174613688513,1.7635767154452138,0.7119399854071798,0.056608169709720345,-1.0490125419964482,nm,0.0
43.98651361465454,43.44279309697775,-62.60170551949802,-164.47707331017494,0.06093355738452912,-0.5889643576099424,1.5498322010638894,0.9911704083316683,0.47977026084184327,-0.9182342092779521,nm,0.0
