timestamp,roll,pitch,yaw,acc_x,acc_y,acc_z,gyro_x,gyro_y,gyro_z,markers,motor_input
58.03522086143494,-150.21558280858343,-4.607831059343091,-62.94337484554802,-2.249041809521714,0.9943497002157864,-3.510030313606038,-0.9675841087204449,1.6413264327826722,1.0704457195168344,nm,0.0
58.037036657333374,-158.7022863416558,-4.602277101307745,-54.25950535665948,-1.2375818903544389,-0.37293408781563814,-2.43383084155428,-0.8710988031612519,1.446839356805226,1.6086068060872931,nm,0.0
58.041988134384155,-165.20549840514684,-2.6022402003881298,-46.26512364747537,-0.46636180001324623,-0.7438212077693284,-2.5178196473076833,-0.5115396679680003,1.2573999676789716,1.5251943155801528,nm,0.0
58.06838130950928,-174.48022152719176,6.923560844306905,-41.12155832591863,-1.0433789442675525,0.3578555431492707,-2.3872920036777545,0.10436052983181748,1.3270441575252534,0.13921380032224062,nm,0.0
58.07949256896973,177.09225898099373,13.270252527895721,-49.619082536881464,-5.446503966583218,2.840164555369232,-0.8400922377240828,-0.2664008925370045,0.9183938535472136,-0.8117584135924336,nm,0.0
58.09430551528931,173.1056655901597,13.018995190984725,-53.12269075771169,-6.184670575012738,3.324076065418699,-0.23576453560679858,-0.5101692373432339,0.5764195873518195,-0.5179185944333279,nm,0.0
58.09898328781128,170.43195747127294,10.58054540132964,-53.24367273014091,-5.3349932957675765,2.4228352223550575,-0.3196924855558376,-0.6905006108758849,0.12780843814361978,0.08693420925991295,nm,0.0
58.12272644042969,167.8700342701114,3.6991181595239193,-47.471592202597705,-1.664991456547333,0.1123067625642798,-0.7975203360505754,-0.5949957816352232,-0.2649657298851751,0.6341774900184158,nm,0.0
58.12836933135986,168.95242211244945,0.30717404462280257,-45.71427288465247,-0.8435217328914042,-0.8113999715004384,-1.5152906542032347,-0.3307729549096853,-0.620961169652502,0.3469389829898028,nm,0.0
58.149888038635254,172.9378825450375,-8.650729350421091,-48.97389710668013,-0.46753683715934513,-0.2516853944149174,-0.38836451922141785,-0.34205921076084755,-0.9507714007108423,-0.5299930120508438,nm,0.0
58.16200351715088,177.53259784967852,-12.41096600488162,-54.1793144666635,-1.278749807444082,-0.06360850496646155,-1.164711697012266,-0.014498211846066877,-1.1748665300370733,-0.8672516300221591,nm,0.0
58.165395736694336,-176.82771133117708,-15.945052825143367,-60.2470409101109,-1.6869902529048615,0.410022554106275,-1.7277085273848842,0.010704873911826458,-1.3029191192651448,-0.9296473975060017,nm,0.0
58.18915915489197,-162.6235807943412,-23.462112841873118,-70.15256799924124,-1.03877157833776,1.0187819974636116,-2.280670496324117,-0.13340422678191008,-1.6304617062149542,-0.27552738822238093,nm,0.0
58.193379402160645,-153.9078166969078,-27.80234057881578,-73.44418600079115,0.21274952432409677,-0.02041764589229856,-2.3198643376427452,-0.32423647499751984,-1.7650692253259124,0.10895119185005828,nm,0.0
58.20339894294739,-143.64179355242248,-33.14552698535062,-77.28199584730469,1.583825191178847,-1.0457512317884792,-1.473163788822923,-0.5784461146416288,-1.9822706593096986,0.2891076692876893,nm,0.0
58.227559328079224,-114.094366361008,-41.35099145918961,-92.52790558430995,3.973047407557827,-3.4593935627543275,2.496776363159868,-0.5057459316958277,-2.5048873425601226,0.28223339927371555,nm,0.0
58.23243045806885,-95.95802506443643,-38.62010010292913,-102.56846711558671,2.532731152675821,-4.334398295874352,6.228670969470459,0.16875284456255185,-2.8220997606201315,0.34760141856024557,nm,0.0
58.24342226982117,-81.46419242645945,-29.12413417482638,-107.00902476899417,2.0036380319186917,-4.806109426888529,4.218829773527976,1.2056213970725074,-2.812540439503233,0.7489126686843487,nm,0.0
58.25492477416992,-71.81872517836801,-20.240454333770263,-104.65121526697686,0.7749487009209914,-2.0923135256082017,2.1558424790137427,1.219575163462218,-2.1763276769295485,1.2891141667732542,nm,0.0
58.27020788192749,-58.81794544087995,-14.91521224933884,-92.21057589983043,2.8722693152403247,-2.4440074979319384,7.432145308368816,0.3463884573730768,-0.9121156161153198,1.6027645691607284,nm,0.0
58.284953355789185,-59.1688033572949,-13.032258521349723,-86.62827663379831,-0.08158635106956853,0.6811200099180205,3.091079180648568,0.3665642600170105,0.06578422704433838,1.1093135202756519,nm,0.0
58.30743217468262,-60.266211962905544,-18.73796890030454,-86.66217321624292,3.710365652072113,0.903178621399743,1.623334631998072,-0.8940363312269566,0.25520937847379477,-0.474493466396487,nm,0.0
58.30919671058655,-63.58574811021575,-26.06495811730158,-91.6558902881752,-0.7304087317709733,-0.6739594009627015,1.6215613817762384,-1.4859137790898096,0.5907740162882739,-1.241663044153238,nm,0.0
58.32884478569031,-75.37179707440622,-40.79030853636584,-91.7083083138747,0.6002819132294516,-1.9971935116232415,3.5135852621813592,-1.18114557718831,1.439480080272623,-0.5144701263491571,nm,0.0
58.35666584968567,-106.92764454833292,-22.74827460452332,-73.31174975421314,4.20174982407292,-1.360749196414941,-2.8747485947911997,1.706387599953115,2.3207369187560176,-0.17038363063156156,nm,0.0
58.380661964416504,-125.46849312851825,-4.76193539904207,-75.71039728161692,0.1737727022761074,2.0015440725792453,-4.851571969928905,0.9164245281809432,2.0327962154494483,-0.644116934941089,nm,0.0
58.385833501815796,-134.40452654768168,-2.456660476955765,-76.00569100478756,-1.1694655127444349,2.427453597752942,-4.8003767590027175,0.0163667128692296,1.8383453346825351,-0.15964674795158756,nm,0.0
58.40787863731384,-151.77067073393474,-4.638441116532118,-65.76900638739379,-1.3692620717746586,0.07061188700786623,-3.086188075475349,-0.8067248595049087,1.425134655924279,1.2509917484466524,nm,0.0
58.41684913635254,-159.26715944376573,-3.803851189545054,-57.94409683679671,-0.6581531859149115,-0.7315181561845687,-2.779794668972499,-0.5481207775901602,1.398210574465666,1.463280419658729,nm,0.0
58.44070529937744,-170.31715775818714,5.020721594801948,-50.27851063974997,-0.431955547707822,-0.008506507902810153,-3.616117420691615,0.2211507116566103,1.3732868224389947,0.40338134744163623,nm,0.0
58.44370150566101,-175.5695286821678,9.654219699343825,-52.7978821605996,-2.339800559634581,0.8804582240796454,-3.6166448716789192,0.09091936447700481,1.393545017282164,-0.3649675521477887,nm,0.0
58.45128870010376,177.86413114385476,12.795608195652981,-58.085568906054164,-3.7701835080200903,2.3108505483827404,-1.5555305831978556,-0.19986664627656311,1.4177272556158187,-0.7986569266152175,nm,0.0
58.47399187088013,166.43029585792394,11.22670615354949,-65.57106231121364,-4.892738729789997,3.3000361938118634,0.4379800565437667,-0.8106753089794989,0.7708370499544037,-0.23144563076676491,nm,0.0
58.47963261604309,162.69063931489674,8.718161197934593,-64.52777519593072,-4.432451882210503,2.1696119390203115,0.005772291987223958,-0.7519865220344462,0.45525124338026274,0.33877131744164923,nm,0.0
58.51021480560303,159.47009927944927,5.200103384685179,-58.74735225798009,-1.943783895538744,0.18492915259267131,-0.52170307076281,-0.3082322270197822,-0.08475389344513364,0.5957133818818539,nm,0.0
58.51203012466431,160.0432389438916,2.731579736617103,-56.654956333149116,-1.9011166036787324,-0.8615353336703162,-1.6129069219512424,-0.3422351510725833,-0.360301790116396,0.4114962114581317,nm,0.0
58.52937436103821,162.66443024842135,-5.514791706976448,-58.45373337660078,-0.8396409058059313,-0.5785252137375453,-0.5566097331389769,-0.4911269680574489,-0.8779305443567424,-0.4034734026060903,nm,0.0
58.545679569244385,166.83075896318988,-10.549696433882943,-62.66120344318024,-1.5057000359796762,-0.5533784338653684,-0.9528211942096049,-0.4576729232062553,-1.215496859322079,-0.7213405183821735,nm,0.0
58.547351360321045,172.28308606690862,-15.695116186314308,-67.93117067234525,-1.421271142685497,0.26961453471632996,-0.35906074101067587,-0.47771236047962057,-1.3978093676772985,-0.8005389282394687,nm,0.0
58.57006287574768,-170.01029655498706,-23.692913324187877,-78.09065663683457,-1.1134929828754119,0.22902529803123414,-1.468084882128084,-0.231496275904291,-1.944477239807725,-0.20045397356149758,nm,0.0
58.57439303398132,-158.49367092609498,-27.376882739626836,-81.96414625446302,-0.13589529482493615,-0.4402781259586279,-1.3521910386964182,-0.35469226132844395,-2.177076380097188,0.23193258703204217,nm,0.0
58.604071617126465,-125.56939927760334,-35.34389283469592,-91.87503735296218,3.984605289717485,-4.700032809611431,1.6196046713562011,-0.6868001328125345,-3.0707835570167363,0.8749364366197069,nm,0.0
58.6058292388916,-103.93903028247516,-33.25356571421361,-100.22271400720332,2.593983996863752,-5.394872778429327,5.611142521778443,0.03246805945917841,-3.59408800503171,0.7972527729082497,nm,0.0
58.63141894340515,-77.59930711796808,-8.753494088785033,-98.12892185723844,0.7829728500233051,-1.4597667918345545,0.7986238225584606,1.9751279217993218,-2.4568656651506786,1.714272356120312,nm,0.0
58.633626222610474,-66.61625053186307,-5.850245357341298,-88.23352154214733,3.3907883109992407,-2.9068261040144465,4.271807019561321,0.4491677776945805,-2.220644110577609,2.2635254312110353,nm,0.0
58.64197254180908,-56.80184276915488,-4.791265313954104,-79.92868728581963,3.8692544534622293,-4.63011025569082,7.983969651478706,0.40335592105980456,-1.9351127967545836,1.848286792593325,nm,0.0
58.667799949645996,-56.68511693477947,-0.5947721851946961,-68.61254316353217,-1.7786447684363644,2.5725660644195605,0.3365539749715685,-0.24489072075560792,-0.025644808356559617,0.6038246235984162,nm,0.0
58.669596672058105,-56.527030337314585,-8.335238818489483,-71.7606605449124,3.893085482483492,2.6163462894283125,1.2761223258246799,-1.4555795112182788,-0.5644590694757694,-0.6194371993852241,nm,0.0
58.69350290298462,-60.26480456870855,-28.623523802046325,-88.74071676662817,-0.5687004722217648,-1.46710178567208,1.8003786878985752,-2.01422246558837,0.10048822950478753,-1.761145049307286,nm,0.0
58.69931244850159,-66.7009173017816,-36.04481676126663,-88.30139604656374,-0.6260980788214427,-1.6927649015707094,3.15923079484678,-1.521295605083538,1.049601130440854,-0.591254807637352,nm,0.0
58.721020460128784,-90.90185622949609,-25.82735119361026,-70.57802715720504,5.855913057500229,-2.146356922573773,0.29944803963972405,1.4357350782495044,2.480745333232467,0.4485654865540283,nm,0.0
58.73813581466675,-115.94092475749152,4.962180062465373,-68.43781973695837,1.969605822497461,2.098228326067554,-6.582798086062968,1.7201133277295004,3.574301624908469,-0.3955599508116082,nm,0.0
58.75680875778198,-141.04283067102764,11.019011214638544,-76.36016859913248,-3.488912389871133,4.796554931083254,-5.335639539968962,-0.8172668136807106,2.2093738223845194,-0.029342305512939214,nm,0.0
58.774476289749146,-152.18238006854097,6.929744199900472,-71.0627230017896,-4.607351426178876,2.803614823582335,-4.311066325571142,-1.3923294424153976,1.8813492393087663,1.4136697552520079,nm,0.0
58.77799582481384,-161.90053374166143,3.9029166514468754,-59.75199955299626,-3.787514831762824,-0.19782207675412355,-3.2210449065379536,-1.346603513614234,1.5102484386835466,2.4502529400896624,nm,0.0
58.806750774383545,179.8839630273014,12.722156771572578,-35.52338633445106,-0.3410473959601823,0.06062384158408186,-2.4011479107053115,-0.04011078127875784,1.2991823719651079,0.6807378707692541,nm,0.0
58.81264901161194,175.30773343386068,15.30511011287205,-39.5956820803614,-2.163070496783491,0.35004525917999885,-2.182191784856531,-0.3757426367430511,0.9555122662903638,-0.5910779377901213,nm,0.0
58.83193039894104,167.566244600125,11.357113181933528,-56.127512861104165,-6.233182447518641,2.1732701630724867,-0.5868689040630187,-0.8373637398209274,-0.005191372594120246,-1.498340809653694,nm,0.0
58.846572399139404,165.4033253530771,6.477716961516015,-60.118167959983694,-5.542983532871911,2.445183882569287,0.24948275737052375,-1.0413916723924148,-0.15312077206063673,-0.7301219050293678,nm,0.0
58.86028337478638,167.70289276479846,-0.5649441038262918,-58.32397697844473,-2.2578496162049744,0.35384950347537614,-0.4305122076692264,-0.13562984650200777,-0.8301650890624559,0.36509753575330595,nm,0.0
58.876946210861206,172.44531920107414,-3.2844851736589638,-55.60412021195207,-1.5392854563007776,-1.4083582779417343,-2.469595511451219,0.0749486024731021,-1.091552812475281,0.5800024008895129,nm,0.0
58.88035321235657,176.2639752486637,-7.022165027977456,-53.58022779285264,0.1930696614184679,-0.8931475895367245,-1.143197340725072,-0.1551840411536885,-1.05280025753559,0.47878764913709515,nm,0.0
58.9024612903595,-170.55941249495828,-14.35985050244579,-58.142277783945666,0.06569275918305534,-0.4672733772345395,-1.9834061634723354,0.2537377777423903,-1.603664354871843,-0.4501207630624461,nm,0.0
58.908896923065186,-162.63156890788667,-17.732563877919514,-64.82166890826036,-0.2050023841544514,0.3933195084549827,-1.3911299033128746,0.14624722054619935,-1.6626875308321998,-0.886332394887922,nm,0.0
58.91703391075134,-152.6948904615869,-20.744771868079656,-72.8498529210967,-0.4465150032537489,1.0119554190024966,-1.3806428953130352,0.12562133062707534,-1.9700922498236049,-0.9363918119593605,nm,0.0
58.94042778015137,-128.17893813971492,-25.91945293534003,-86.02075387931357,2.171560446148062,-1.7039847614852153,-1.0662449123747955,-0.27419793763627087,-2.3072060540826422,-0.1134919463602136,nm,0.0
58.96378135681152,-99.11951009770719,-26.334604978457122,-97.09447679455509,3.4194032984243603,-5.811393406972323,5.36214821079629,0.27451593416152864,-2.6122497487620273,0.24283209488409496,nm,0.0
58.965550661087036,-89.79514903629068,-19.270504647843314,-98.54497846630696,-1.0041827930227671,-1.7900118484134193,2.373079861968683,1.1584463176183175,-1.9003436770206887,0.44798101453585903,nm,0.0
58.98853778839111,-74.03667469648647,-15.728341781559228,-91.39113386277684,2.308199302498181,-2.374288585182972,4.34335342771812,-0.21206398709592333,-1.4237499658566084,1.0462076531740363,nm,0.0
58.99427652359009,-67.05400299038342,-15.856018561421587,-88.79692161762803,0.30955527516977177,-4.521811713280573,8.385281289689903,-0.03677208041228783,-1.3506108076085663,0.9094792244337928,nm,0.0
