timestamp,roll,pitch,yaw,acc_x,acc_y,acc_z,gyro_x,gyro_y,gyro_z,markers,motor_input
48.009435415267944,22.102850643911808,-61.56274539333199,-161.68951525335356,1.8689148417425288,2.5339762458677417,7.162352305740793,0.04931436323938957,-0.19099938296648564,0.26770259142595215,nm,0.0
48.03458881378174,15.087962538538918,-62.71374684511874,-155.35961011154083,-1.9405568967158233,-1.3059811143811078,1.189662420139267,-0.008728361887056266,0.6384658895812944,0.006241938236556439,nm,0.0
48.043739795684814,13.712352456839524,-68.651672621175,-153.85662467705373,0.8904731184644866,1.1543316843036995,1.7661769457125023,-0.4192938339786798,1.12858112028784,0.0854386666436856,nm,0.0
48.049684047698975,10.246215463817473,-71.94365541109518,-149.87078099719326,1.1909282680139048,0.49935179678956376,-0.8695571219050713,-0.1168216790316597,0.696467160000728,0.18304698484403464,nm,0.0
48.07149648666382,5.578211600126173,-75.60259937731568,-146.52759747116247,0.9329970762358236,0.3905065403157943,-3.3271624400666715,-0.21774409468298797,0.3840808912276149,-0.18137953286331773,nm,0.0
48.074859857559204,7.7287346124215714,-75.39288813001795,-149.32223113020123,0.6746692379804268,0.13702931747065256,-2.114148012400624,-0.08121980273351219,-0.08785661530220956,-0.13658976155790387,nm,0.0
48.10033440589905,10.200939575178069,-69.63732852370079,-152.885509279009,-0.7403496829490911,-0.3328114174405528,-1.111036587297878,0.17686640080257893,-0.48183391171670126,-0.1408881869351129,nm,0.0
48.10542368888855,11.365619533666255,-68.36887898325486,-153.38852031084969,-0.6327079264426128,-0.35969972436297215,0.36844176577204024,0.027690600463154955,-0.25966518428529806,0.09770114478998454,nm,0.0
48.12889647483826,12.10070627519657,-65.77018727354965,-151.92999704200858,-0.8093040980527462,-0.2211696964125897,-0.42383504620457285,0.048773885504634414,-0.20753109060746988,0.21838734097434037,nm,0.0
48.1333065032959,14.881387372555329,-64.91279403722287,-151.90459596926243,1.2775305136345927,1.8295975339313288,3.5003422594521725,-0.13755683324539908,-0.25724947227915024,0.5041827075789221,nm,0.0
48.161027669906616,17.108844395173783,-60.87232190968376,-152.0676141125729,-2.905081208770924,-1.345086414331339,0.6159794144187523,-0.01722331816152828,-0.19369715887460037,-0.006876617239273046,nm,0.0
48.16278672218323,19.739451929217516,-63.25446275830283,-153.9351205687053,0.1395112955795164,0.5033711182065252,2.4316688745968156,-0.4500957155598695,0.31662838924920284,0.10685449574166205,nm,0.0
48.18692588806152,20.956229978903195,-66.1514330336335,-155.09598066291298,0.19892015269915264,0.26288860253194096,-1.3105655731180403,-0.17817439744628347,0.19361449533875183,0.10356932953438239,nm,0.0
48.1952064037323,23.06719711160313,-67.84533222203981,-157.04049951414083,1.1623472076121624,0.6207404913889567,-1.8570569051446357,-0.3020093564697679,0.24693215179913927,0.020503123610214363,nm,0.0
48.21382236480713,25.298891947564712,-67.13755705872673,-160.02570309201045,0.8071051451551314,0.6394636963690988,-1.5335474471268964,0.06635281056000351,-0.2899270687499412,-0.014018850370228474,nm,0.0
48.22014927864075,24.39501148038227,-64.88373150499585,-159.57045528899909,0.4766848196666132,0.4027941214274925,-0.7676780110450221,0.2118618533415811,-0.3944454365630122,-0.10184287644558228,nm,0.0
48.246474742889404,21.414787737314743,-61.67216375229119,-157.85380557138635,-0.38134414232069674,0.017590511155558375,1.502923272308175,0.24410641027219154,-0.22121561588069927,-0.0561140308543478,nm,0.0
48.248632192611694,18.793641876600493,-60.244546164107234,-155.97980097321843,-0.639045582737606,-0.5386512085221542,1.5635860465467397,0.3328043283863737,-0.15912831512689557,-0.09544342171446392,nm,0.0
48.27296042442322,16.486589759671613,-60.636747581251385,-155.40251356886262,-0.5064829928166876,-0.2927507790460032,0.8671424919967585,-0.059753643370744174,0.14280330379286324,-0.08517893541464072,nm,0.0
48.27629089355469,16.94625410362897,-61.3993768707718,-156.39421794456715,0.6635280745617245,0.057368288468223984,0.3863296079774483,-0.11660066354140287,0.1256013072027635,-0.11535522060133951,nm,0.0
48.299535274505615,18.644618596056905,-62.073310988325346,-159.7219167553894,0.7293563694493054,0.2580160214453681,-1.1518056066162292,-0.14602449287198965,-0.0050779359675898845,-0.12797428407541458,nm,0.0
48.30737280845642,19.62023934132683,-61.688619766308626,-161.0369058591892,1.080791944153828,0.4749645658099347,-1.0138020794197986,-0.07404604571540446,-0.09862548552630372,-0.11279807813726972,nm,0.0
48.31264591217041,19.34937158561291,-60.43825081400046,-161.2102975575302,0.49856685977301074,0.4238323130902785,-0.9164410817152043,0.09274461787299475,-0.22343403417279678,-0.10252645736790252,nm,0.0
48.3257839679718,18.39341528537639,-58.64560271749056,-160.16704672128617,0.5234146030104951,0.3202504404080616,-0.27163499800377067,0.1971686160858115,-0.30172106720806563,0.022710772955703687,nm,0.0
48.34943604469299,14.852836796924667,-55.20291895575185,-156.54481943501776,-0.4955577959672757,-0.1295068450099589,0.8255018224163605,0.3004406596768981,-0.2199268980190939,0.0651567729398608,nm,0.0
48.35255575180054,13.36396356156446,-53.905137674727555,-154.75035091190298,-0.5271638650760919,-0.31676249673804474,1.0117104226524412,0.25120628125891065,-0.16074503259053602,0.09043184744004976,nm,0.0
48.379257917404175,12.151662596737596,-53.69256779737284,-153.34480712946566,-0.2916499874196337,-0.23212160066010154,0.6163541188845799,-0.0177202243815126,0.06660485369360698,0.0023828204913663746,nm,0.0
48.38125729560852,12.490558100373715,-54.29927388723647,-153.74228967401214,0.1328006567166324,0.0298838958303355,0.2081586650654378,-0.10356440331287446,0.09536670816327554,-0.03872000919158789,nm,0.0
48.404499530792236,13.822151076858017,-55.18244434344512,-155.1077345957897,0.5753800088508928,0.3515153524371986,-0.7161495695370782,-0.11422042049530558,0.028603191217414437,-0.016297393624549166,nm,0.0
48.40869927406311,14.097236652567817,-55.12097087485425,-155.1747578401027,0.6617299419661082,0.4766649878130752,-0.7852317107001098,0.0,0.0,0.0,nm,0.0
48.43256187438965,12.842035690904432,-53.41062390647248,-153.03649582066572,0.32722770763160713,0.3398912044135592,-0.2750720825713806,0.17934090509670056,-0.14875129939995752,0.13065307765637288,nm,0.0
48.43810987472534,11.702194438987043,-52.13206768813074,-151.29735029997886,0.010586218864786693,0.13914578894136365,0.059183305137079895,0.22790513740870302,-0.15793798401572143,0.15333343090023294,nm,0.0
48.46229410171509,10.124724696934177,-50.2671159427308,-148.5729094570237,-0.46333610830140937,-0.20399178315727315,0.6924288669696546,0.13248221966163526,-0.09068460147397651,0.13054310477825432,nm,0.0
48.46565818786621,9.990659299627596,-49.94258662180552,-147.99464693578105,-0.47272522319111276,-0.2522144960634343,0.625712891469291,0.03482911377811459,-0.04283647652799175,0.08738186026482384,nm,0.0
48.495465993881226,10.911133137958998,-50.883333847210665,-148.68485273848432,-0.05960564400055617,0.10931328692801479,0.2094520324766232,-0.14859919578949504,0.07770976586847021,-0.027974167546455844,nm,0.0
48.49861788749695,11.602057181259209,-51.56514339268782,-149.43949350591774,0.19778595393127146,0.3508553615526757,-0.1353151509346623,-0.15847358565441103,0.07607981685143309,-0.04187651478001639,nm,0.0
48.52069163322449,12.302566511122487,-52.26925680381138,-150.19060554350145,0.45763482726307697,0.5236230488608857,-0.5896041457027701,-0.05152565486978261,0.031284228615221135,-0.009419797870982861,nm,0.0
48.52436065673828,11.985473201366425,-52.09180730833499,-149.85868321314072,0.4339198634975236,0.5062036239648916,-0.47443738575090405,0.0,0.0,0.0,nm,0.0
48.552924394607544,10.506403811477513,-50.68255772304229,-148.24291433719281,0.06460295345451834,0.1347158187384288,-0.0035894151646342493,0.15560530021758018,-0.08245796515663148,0.050774073789432765,nm,0.0
48.555071115493774,9.865253331669573,-49.98275373216368,-147.56079379238196,-0.14304524360845186,-0.07475857973866744,0.3134969573928588,0.12987820659807053,-0.07188717058497862,0.038953954742890325,nm,0.0
48.579883337020874,9.45470271932833,-49.46981771678366,-147.28570137669203,-0.36895272635634585,-0.23699348528229702,0.5128832512328129,0.0,0.0,0.0,nm,0.0
48.58260941505432,9.703933767690325,-49.85387804920848,-147.70318159430863,-0.26898119972438617,-0.1700219509785115,0.37727111042992967,-0.08256899023247125,0.050892789322690445,-0.04429948963243958,nm,0.0
48.60986113548279,10.570896644970508,-51.37147840851321,-148.87911444468128,0.16396109989421273,0.21589282290703102,-0.07700490753195274,-0.14353495704954566,0.10893636371196878,-0.055757749830923915,nm,0.0
48.61232376098633,10.869059436102376,-51.989463778068036,-149.33105570105064,0.31973263608278457,0.316884289848808,-0.35754710258086525,-0.10921467040187709,0.09082642534384146,-0.03721129790898467,nm,0.0
48.629395484924316,10.716123069279977,-52.32914112699014,-149.26181220888225,0.37225547109689006,0.34811537523197894,-0.42800883696704267,0.0,0.0,0.0,nm,0.0
48.658323764801025,9.913599118635089,-51.366340673382005,-148.3576614785004,0.05089586881919107,0.09974162830751522,-0.03003516280666036,0.09175309880116281,-0.06997142641691279,0.0320696531519446,nm,0.0
48.66510605812073,9.59108771658443,-50.81055575432459,-147.9906857327988,-0.13970116810396702,-0.037366624245692225,0.22918052622844287,0.07920586327363993,-0.06972160674888622,0.024627063108721377,nm,0.0
48.67893314361572,9.391880053763277,-50.341082764400944,-147.728062664777,-0.32600255969790953,-0.15865002010106535,0.42433340613351844,0.0,0.0,0.0,nm,0.0
48.69627571105957,9.67883887234882,-51.109928483070156,-148.06629137941133,-0.07171255478577336,0.041465812990901386,0.1518535052851381,-0.08821373667107528,0.07934471640477118,-0.028074138973984492,nm,0.0
48.7304630279541,9.920915299050115,-52.11499698195581,-148.4367173395241,0.266860954311317,0.2715013406146342,-0.2986949905550845,-0.06831250485893127,0.07289119175875702,-0.010031230477058829,nm,0.0
48.73227286338806,9.884402523085495,-52.31467550341163,-148.3935271499094,0.3369008001308476,0.3053173091437357,-0.402070412252226,-0.031045362870985277,0.03995766806358766,0.004506315582598769,nm,0.0
48.768383502960205,9.506038391804633,-51.83553266090321,-147.88390270894803,0.21894885213290222,0.22010217187512546,-0.19886480338311097,0.049858969695279275,-0.046929703026479745,0.028322851292513013,nm,0.0
48.770209550857544,9.284811158732682,-51.294638798302444,-147.5501471558242,0.05529349199182148,0.10395101661798123,-0.0013103574299538432,0.06718101887152599,-0.0734591859275693,0.03364786716897867,nm,0.0
48.771970987319946,9.04615055906777,-50.45740768168116,-147.09515246461095,-0.21843892407725748,-0.07591607962523007,0.3502514816870894,0.03000765522767659,-0.04667373743224266,0.025090846596825183,nm,0.0
48.787201166152954,9.054284966771734,-50.38512361930054,-146.89738574666995,-0.2465783335637372,-0.08920411876276677,0.3627590664592152,0.0,0.0,0.0,nm,0.0
48.790725231170654,9.14358461080477,-50.602007230120996,-146.81065514177527,-0.17416131290885226,-0.031548338187366305,0.26758582446001833,-0.04731273173259144,0.03337990518113978,0.008693556457608137,nm,0.0
48.81238579750061,9.444360309609532,-51.53048987115095,-147.08109560366182,0.13223971386626662,0.20802561606553063,-0.07385309913707351,-0.0840633828879564,0.0748495909744207,-0.004860252778212706,nm,0.0
48.82766151428223,9.580838279307208,-51.910865454495074,-147.2300571204502,0.24362248919370985,0.2827735240673458,-0.244673731105692,-0.06951552808613833,0.058134132931907896,-0.0067628268195565255,nm,0.0
48.82961559295654,9.661427481059524,-52.09046550136202,-147.33791696803377,0.2860047377172093,0.31079275405344314,-0.3189511260178315,-0.041767830175657605,0.02822006568774169,-0.0072484537667835275,nm,0.0
48.83900856971741,9.662879115666593,-52.03658401312084,-147.37486736428724,0.2547182135704442,0.2930084833222757,-0.26940995320518096,0.0,0.0,0.0,nm,0.0
48.84858703613281,9.581445325961102,-51.770390425039984,-147.32602187452326,0.15798709052981807,0.22349672143458507,-0.13375502783906534,0.0,0.0,0.0,nm,0.0
48.862027645111084,9.438565364960317,-51.39722549963162,-147.21041656048664,0.02460398250086181,0.12059937980724995,0.02984773612942291,0.041386157803872774,-0.049942912359344775,0.002262279906052544,nm,0.0
48.88323140144348,9.151345011616645,-50.89980216297805,-146.92803004752597,-0.17109577821720964,-0.044873639451106805,0.2905647234533271,0.0,0.0,0.0,nm,0.0
48.886646032333374,9.088514622756959,-50.95051861496641,-146.8724962842034,-0.16717548496758228,-0.05478618475496757,0.29092654844868365,0.0,0.0,0.0,nm,0.0
48.913989782333374,9.451514974964034,-52.14196921060799,-147.4968878230056,0.14217794962103864,0.1659365612820521,-0.07800483160850327,-0.08506335035775066,0.06930454316598778,-0.025466001297795058,nm,0.0
48.92910408973694,9.661921418908944,-52.5221173746982,-147.78090333244552,0.218497706944639,0.22815860118788867,-0.20218324023735468,-0.07643028334010654,0.053978499056451607,-0.021803243937493475,nm,0.0
48.950525999069214,9.898700002724759,-52.785204533605985,-148.0521575671382,0.20884889431569575,0.23667848065606323,-0.19750178893301606,0.0,0.0,0.0,nm,0.0
48.95228052139282,9.86942345965084,-52.67584624552224,-147.98075474272613,0.12619483601774864,0.1862431607999435,-0.08784837365627846,0.0,0.0,0.0,nm,0.0
48.97755217552185,9.573107563521308,-52.30421624423058,-147.56423546974506,-0.06771604019730078,0.04088779128137126,0.16909447142190248,0.0,0.0,0.0,nm,0.0
48.98027729988098,9.57121280337632,-52.32057460934131,-147.50937237262474,-0.12068623237432538,0.0047819467164156,0.23595036910988487,0.0,0.0,0.0,nm,0.0
49.00519847869873,9.925262763174576,-52.88468950940353,-147.90993967877168,-0.06600682337650277,0.06020879297423586,0.15183103899742031,-0.07764356685894817,0.05028980629011122,-0.018867474961198488,nm,0.0
49.007158517837524,10.07808409669938,-53.27042862450568,-148.20786726871412,0.005930293607080336,0.11966563378485816,0.05080373593119419,-0.09707802024082292,0.06251552087353447,-0.03333644980851701,nm,0.0
