timestamp,roll,pitch,yaw,acc_x,acc_y,acc_z,gyro_x,gyro_y,gyro_z,markers,motor_input
3.0124454498291016,35.163010348053895,-2.1063576085820284,-10.184914598657183,-0.08962078187248168,0.2079929622143687,0.028175137975458814,-1.0980611931550226,-0.24852539926939,0.0645024359900485,nm,0.0
3.025240182876587,30.62865356381334,-4.569489791949941,-8.191809349017417,0.660427794307391,-0.20123994397279174,0.09730157591256125,-0.9665080863984067,-0.350164581658745,0.33650788423996414,nm,0.0
3.02842116355896,27.452563198309022,-6.898360990590791,-4.863729900345934,1.3177785175224983,-1.0661605917581072,0.5313833488792293,-0.67396735092991,-0.3996937584617725,0.5939048377955227,nm,0.0
3.0481226444244385,26.76233593654002,-8.753386499145373,-0.8319611102999828,1.4573002625368279,-1.6091498718890793,1.3295455760582167,-0.14656254940788963,-0.37220056435332793,0.7800849433044879,nm,0.0
3.064008951187134,31.678738771680113,-11.897030201809706,4.163758707827565,1.1876096807699383,-2.557498401144812,2.3370650653020477,0.641492608666271,-0.2498982620184364,0.4370361275233176,nm,0.0
3.0676848888397217,36.33021605034636,-11.702656004758346,4.17212686776067,1.0987364514700229,-2.79585410063808,1.9718881366253214,0.9163393966905785,0.09960893937715082,0.18309085894576643,nm,0.0
3.0919926166534424,46.56759914642909,-7.228223642912335,-0.23152608304467245,1.083553766892296,-1.8936054874664532,0.4047155294152243,0.9351319018075788,0.5648433561367192,-0.4352357647434508,nm,0.0
3.0961761474609375,50.846245901401204,-3.670950749185249,-2.981514000210781,0.9235311313789264,-1.3831076789613583,-0.24295806637565848,0.8806424141848286,0.6841076125768386,-0.4803904568491385,nm,0.0
3.1214418411254883,56.46946140145246,2.344750873796913,-6.737683600995023,-0.04704617512382074,0.46425285909757036,-1.6941063257745612,0.49896999105501555,0.44059940066917125,-0.33055299185623616,nm,0.0
3.123239278793335,58.39572202330526,3.4443295238844143,-7.522835510656945,-0.47578215858985684,0.8878226434184312,-1.427225520638215,0.4159409829586904,0.1681140056566553,-0.18941785645314999,nm,0.0
3.155337333679199,57.97059217009159,3.1300138521963285,-6.283286573946601,-1.7506851927595986,2.32863078600208,-0.8398357243574817,-0.12464417984908545,-0.061474481785785094,0.04851566893450222,nm,0.0
3.1779074668884277,52.11471826990484,3.8210806280506033,-7.131162548848489,-1.5686317116628912,2.488223558408781,-0.9416872019048983,-0.7204932365356609,0.19356748411689823,-0.10004061029295053,nm,0.0
3.201320171356201,35.569172861541766,1.1069930519010334,-10.205655523221616,-0.42041402015183754,0.9858114737021509,-0.19369985358748845,-1.2792718595327555,-0.13679816901731487,-0.03665946122517033,nm,0.0
3.210686683654785,29.753029777390132,-1.2528177202616062,-9.099094604506362,-0.020683155923357014,0.7321987529477479,-0.10595589832595811,-1.2210088675921573,-0.2786078439453398,0.21007224108517858,nm,0.0
3.233149766921997,21.63424342763803,-6.069507460004233,-3.672771244990249,0.9719444362636274,-0.4460506527530595,0.27518190650491625,-0.666956120013469,-0.38391879981116545,0.5558880847228977,nm,0.0
3.2407901287078857,21.473479548496506,-7.624329788725156,-0.6542780061538038,1.2101889881377954,-1.3016238882709334,0.8573207367028276,-0.035274260978111115,-0.31872776891088256,0.5927904634028147,nm,0.0
3.2645647525787354,30.834374661961768,-9.844292269112712,1.8711402649281814,1.3321658799570495,-2.8091773799613025,3.015777295010409,1.1552628167408565,-0.15276005795587788,0.28209621623792264,nm,0.0
3.266324043273926,37.2058271543705,-9.649124165043172,1.091980064520752,1.391434152050848,-3.6752093282576026,2.3365298938252614,1.265171801984478,0.06571075869919904,0.05064741900141849,nm,0.0
3.2771124839782715,44.29445023610012,-8.203958098098862,-0.3701630958387652,1.330052819930202,-3.4878002737349494,1.6595767374208197,1.409309806778976,0.2931526872544324,-0.08252111079042601,nm,0.0
3.29606294631958,54.507004612695745,-2.732402853957698,-3.381621795635037,0.9423458232328085,-1.6413314919780668,-0.8429882394232191,0.8766605171242532,0.5493986379888477,-0.2378516761670296,nm,0.0
3.3116214275360107,58.04270730458579,-0.10541300474705852,-4.755104372466065,0.47290906718700015,-0.5132435792519316,-1.245159026533378,0.7505956283197311,0.47196284244013964,-0.26968346800373133,nm,0.0
3.314948320388794,60.25920472907296,1.8554436439384108,-6.007319778493805,-0.15344845930405535,0.18909403738510966,-1.2274706931441348,0.48548111810053635,0.3472448308923461,-0.2700834777142697,nm,0.0
3.337960720062256,61.11588390668073,3.787409973690393,-7.408144944444396,-1.5174244477400654,1.7306363502844333,-1.377244823938817,0.052824509355323054,0.12354643151124209,-0.11493517923404699,nm,0.0
3.343557596206665,59.86965309057672,4.0011885689094,-7.7637516025971225,-1.925533095062844,2.1733527408200897,-1.1800718749594565,-0.2348375346741611,0.0730777797600929,-0.06708262763321472,nm,0.0
3.3658862113952637,53.58454722661182,3.7931036966314253,-7.957687879696514,-1.9740376385737686,2.2892131611964324,-0.7746837614607529,-0.7083769602339853,0.05473867352523024,0.026343306871081187,nm,0.0
3.373030424118042,48.347083522887,3.1773936731416117,-8.150647308043377,-1.6800005889739424,2.0672243197058844,-0.26291963581305233,-1.0475681887462778,0.01997442627355506,0.012943128800239706,nm,0.0
3.3959360122680664,33.99621915843939,0.3034801768032724,-7.9486273534039675,-0.6880123199489284,1.5559712237852015,0.04026069129590202,-1.5107682577105348,-0.13706068642286495,0.023018457408247876,nm,0.0
3.400416851043701,26.63048833806178,-1.8184716766292262,-7.494331200834362,-0.2306684958835473,1.438614505709347,0.14115807364765207,-1.5117955022097185,-0.23164566669362532,0.05416582338044572,nm,0.0
3.4242701530456543,15.704945432247566,-6.110776008119244,-5.464181536123292,1.063684958219625,0.31647573064216533,-0.21871342711826805,-0.9005092531378649,-0.3083867876977714,0.13127997081861714,nm,0.0
3.4285244941711426,14.377370804384427,-7.44933350712433,-4.169418549926502,1.4158687719809777,-0.7873174524457638,0.25111113995087747,-0.2778046670279353,-0.2553806594715627,0.20847774190204713,nm,0.0
3.453415632247925,24.031235774940946,-9.090782939806111,-1.872205062842663,1.4639631934717168,-2.2923706742619077,3.2538314469067067,1.3369548751130957,-0.18469062186556617,0.4172093796587912,nm,0.0
3.4577224254608154,31.612605313562185,-8.894082418889953,-1.104291101607207,1.2465476710472918,-3.4986552249370204,3.391241688509193,1.50875339380194,-0.007524818936080746,0.39281841512827953,nm,0.0
3.480780839920044,47.54025517280892,-6.467968090831657,-1.1524386306424483,1.211239640269268,-2.850219105965747,0.9992562552384584,1.609977432672227,0.27001327509327044,0.12390483116870055,nm,0.0
3.4847004413604736,53.413358276977625,-4.1792402843729715,-1.9832876608436598,1.0484195652810324,-1.8546621491195643,-0.36788834506581913,1.1912437913964071,0.4226664909442646,-0.06866305978318277,nm,0.0
3.5109927654266357,60.68244281937267,1.0608682713813684,-5.289167160304383,0.015021046935539245,0.464089164852905,-1.5025428687071585,0.6702890653913286,0.45646445180968415,-0.4032084110977944,nm,0.0
3.513775587081909,61.758884819307404,3.090816954842849,-7.548188652127242,-0.5421804156636973,0.9667972294164264,-1.7301475051911182,0.26605739347103724,0.3780062785821016,-0.4728913341846179,nm,0.0
3.526339530944824,61.531946105330825,4.373658759648895,-9.496572077639309,-1.2774551575625293,1.7168638947513142,-2.0022786515127957,-0.00048640904466435244,0.2587015812100362,-0.39138106984768833,nm,0.0
3.54606032371521,56.70741512988552,3.7855690419382984,-11.98019725349211,-2.3582696238460197,1.9855624676761439,-1.2970913471561218,-0.7425121149904944,-0.018395207612794024,-0.13970463660422375,nm,0.0
3.552011013031006,52.19969136200674,2.240785359893614,-11.55325939066238,-2.381580272890734,2.0453901706597084,-1.3252852419572165,-0.9391546886807605,-0.12412475188954342,0.09708518984652117,nm,0.0
3.5615732669830322,47.31687881377345,0.3117572312053942,-10.229179462915134,-2.3686398624765483,1.7167551491506483,-0.08336137560016212,-1.0261758020116676,-0.20043189273411394,0.25649740856429937,nm,0.0
3.573885679244995,40.678889982098895,-1.3637267903195016,-8.75910135215094,-1.7537871655355972,1.5352335216892636,0.55497438238231,-1.3594064761887799,-0.1184358716770966,0.25849469767822597,nm,0.0
3.5821597576141357,32.83856388402819,-2.3173380165160924,-7.550485309582855,-0.8480144813538018,1.3639333451470428,0.09470210222898633,-1.573404872604124,0.028550708122575316,0.21663042236779723,nm,0.0
3.59769868850708,25.8555264520265,-2.966668603174928,-6.512535565759467,0.024017719697356003,1.0407208287041771,-0.13523285539805407,-1.39519803141292,0.03520716942477509,0.16582522904729385,nm,0.0
3.6124649047851562,17.16017115843883,-4.9207933043750005,-4.2591043364379075,2.3350021432015216,-0.6891113250478501,-0.007525637109023236,-0.6585536910454927,-0.14177622379824747,0.18852741876879045,nm,0.0
3.619161605834961,17.775583876262086,-5.558748381323435,-2.3392105461139447,2.800553134642567,-1.7175924026897365,0.5763699681605478,0.12295994925973631,-0.14417635774684764,0.388194286030642,nm,0.0
3.628514289855957,22.53062233922248,-6.772101944929485,-0.022196136254445525,2.3032815983440296,-1.9430654794848212,2.8550296763458873,0.9499630829682858,-0.27083627710280483,0.5578955065836491,nm,0.0
3.641606092453003,28.10234230357812,-8.338846365880459,1.8075340989198116,1.629834342408312,-2.7332970637531195,3.2814671401079596,1.1198454769401902,-0.30356889596533637,0.5041941607278699,nm,0.0
3.647037982940674,34.48942110490801,-9.187060902599857,2.5470530894363246,0.8897848833952394,-3.2317432482360418,1.9627620274828115,1.278862834653168,-0.1276132933515564,0.33353286923289066,nm,0.0
3.6677958965301514,42.35757405214951,-8.869454856071421,1.7475962651710681,0.25778503737179315,-2.865316604565947,2.0153316409715756,1.5616865257684076,0.11702872847004814,0.07730306147624787,nm,0.0
3.679703712463379,53.11220671860361,-3.049620929050572,-2.684588528644751,0.27174207102405606,-1.1772829674850336,-0.8880656618854532,0.9478369977361175,0.7125696180374151,-0.41622200707726553,nm,0.0
3.684890031814575,57.1064453129505,1.0706522654074473,-5.072520956004224,0.09417446411268979,-0.1564210972440522,-1.2083546340481626,0.8608039850017386,0.7661693827442136,-0.4764197634742444,nm,0.0
3.709209680557251,60.45892534507198,6.442590728987897,-9.062302495311595,-0.3800680404199351,1.1805572342048871,-2.0607874870457077,0.26814220778506226,0.36141877563348945,-0.3284761875233258,nm,0.0
3.713836908340454,60.90649737788212,6.864199608855225,-9.624420509621599,-1.051085864987206,1.8240453988635024,-1.7137142139144912,0.10717635794529667,0.06671908161842724,-0.1278542629296356,nm,0.0
3.728048086166382,59.94236486632046,5.990182594022939,-9.709586959502946,-1.7507861998083238,2.24112193297836,-1.356844889525937,-0.21272792017402345,-0.14264517048219788,-0.00846609570136081,nm,0.0
3.733473539352417,57.60874889358665,4.513896481899333,-9.632082944098487,-2.268875854627264,2.5495453644743997,-1.3072195905760693,-0.5023252863619075,-0.21607829224242062,0.0455035289827256,nm,0.0
3.76041841506958,49.092695203783045,2.0343476968708596,-8.383883245042863,-2.4779425388318796,2.255694088945865,-0.6956665564965183,-1.0208619404054275,-0.07293653644126971,0.15425438752823403,nm,0.0
3.7628250122070312,43.238963973987794,1.0819696256109173,-8.1412123419279,-1.7098941226108417,1.577044884395996,0.21416032494120513,-1.1804907302138736,-0.025109573185626878,0.08522441087935677,nm,0.0
3.7851738929748535,29.106792348161015,-0.5607327139001492,-7.587027688847404,0.4734721017794095,0.8115969099456133,-0.6818233819895024,-1.396996787511185,-0.0066935619772840755,0.10316675875195411,nm,0.0
3.790480375289917,24.281918543098953,-2.2792100821421624,-6.643402702095044,1.5731238238622829,0.0959362393297277,0.0035023412481773185,-0.9942664446092099,-0.23072368438750143,0.15595384113445648,nm,0.0
3.809041738510132,22.289496866292104,-5.8314365998087485,-2.905443601242985,2.6163354207306453,-1.8592948957713804,0.8016701274510173,0.14150406445474673,-0.35782760279300974,0.4082476613254244,nm,0.0
3.823012590408325,27.03038697631609,-7.953001465341928,-1.1288473961846905,1.889611270973176,-1.9881316057800007,2.7679370443537747,0.9355546864699379,-0.4654915078915882,0.4609351812592791,nm,0.0
3.8282177448272705,32.3535530307769,-9.84882670802554,-0.4804232992229809,0.9326973907656247,-2.773265517931519,2.814372504315577,1.0567078391103697,-0.40106504360781575,0.28579056940699754,nm,0.0
3.8510501384735107,45.331376014778535,-9.278551751611209,-2.8545472241531513,0.05212766676110079,-2.5950102893680858,1.632617714498537,1.3769115343612084,0.19424212181071016,-0.10842940735144796,nm,0.0
3.8600831031799316,50.17988867888955,-6.355533016493692,-5.288798356517123,0.46222075705310894,-1.6839593706025946,0.05584791668141238,1.0093768530828926,0.5109766863210162,-0.36607970454322475,nm,0.0
3.8659486770629883,53.61098466277934,-2.51464716339491,-7.829247545763067,0.6176304011729177,-0.6930547462579212,-1.1547830442686122,0.775957659216534,0.6818512551179524,-0.4670730436169828,nm,0.0
3.890693426132202,56.867895697023044,3.4782552056446647,-12.022618124707094,-0.1910064591341951,0.7905750510828088,-1.8281506547012285,0.2396724638882468,0.43187248450659965,-0.41007744791717265,nm,0.0
3.8936877250671387,56.38496498466611,4.056959532965358,-13.561332696220484,-0.8985338390074297,1.1630875295720815,-1.8858254984641318,-0.06243671146286637,0.13085966762800316,-0.28843083599540864,nm,0.0
3.904740333557129,54.97561261617334,3.1781581397727106,-13.952310369171968,-1.858636597522829,1.7083236877285732,-1.2544118850020982,-0.30939329516919567,-0.10807400432013271,-0.08642355891042085,nm,0.0
3.9288880825042725,47.483288928350085,-0.1423883027943788,-11.881845238198943,-2.582390669171235,2.194382417926037,-0.6611874087021925,-0.8773080426869454,-0.1499905008057375,0.26559924941109875,nm,0.0
3.9380953311920166,42.19764890097367,-1.3665686389671334,-10.150067245309938,-2.306804135899437,2.3767587161780583,-0.789215407330191,-1.0789570472080898,-0.04449019337649762,0.3214301915414696,nm,0.0
3.9554154872894287,28.558017285528962,-2.5267439509010723,-8.575378899203372,-0.6081170843998004,1.8948978478517755,-0.1871483810604137,-1.492804978291483,0.1312310987854032,0.000944188085446016,nm,0.0
3.9634182453155518,21.409761051389996,-3.528720842970313,-8.9726225073809,0.4717749486043342,1.3904245235782695,-0.7470426385362041,-1.4367422821780977,0.010145537741413175,-0.1633846344311255,nm,0.0
3.9715771675109863,15.92430384943216,-5.271298097155767,-9.553428719397477,1.5601195733277298,0.6791292451141691,-0.013741938933097487,-1.1306503931284666,-0.1785735810923907,-0.20769810711649342,nm,0.0
3.9798107147216797,12.310366752645574,-6.942098672327212,-9.544339401075334,2.3544990521296496,-0.44672641996864165,0.17561037529318918,-0.7584251837567038,-0.22238889310002555,-0.10267731220866808,nm,0.0
3.9894227981567383,12.342163044262287,-8.284071412976255,-8.736998827530641,2.616969981370262,-1.5865765336734712,0.7922399909235021,-0.02962218498670072,-0.27747652168586745,0.1511037236153788,nm,0.0
3.9989662170410156,16.66778179537706,-9.752001645928967,-7.068123690552972,2.1553989485533838,-1.888420919920078,2.551657552805071,0.8145418753141709,-0.4189061423205375,0.4586337746360943,nm,0.0
