timestamp,roll,pitch,yaw,acc_x,acc_y,acc_z,gyro_x,gyro_y,gyro_z,markers,motor_input
8.027421236038208,50.41748196096737,-21.641003160680743,-13.33640023899183,-1.1281069284969214,-3.9695011720509727,2.1865909467089777,1.9886002418057198,-0.3712823370609173,0.4016537399516676,nm,0.0
8.036585092544556,58.12151839892964,-19.03496012258278,-16.029202326082515,-0.450692664278208,-2.9187374606051675,0.1106906990544408,1.541316589020045,0.13264627266917808,-0.011472060080817102,nm,0.0
8.040424108505249,63.57145908711941,-14.694012518316352,-18.368521924105632,0.5011682810660375,-1.4170104562388897,-1.762729839824551,1.2639018624219585,0.5178668017305635,-0.1759002025963296,nm,0.0
8.067272663116455,70.6044883229483,-5.477010560653931,-21.658644247325416,0.12495788847461015,0.7785685294603456,-2.062316932294546,0.7244182744494635,0.6465146585149063,-0.2590172026693962,nm,0.0
8.068979263305664,70.9700385490877,-2.724435747637742,-23.201055195986804,0.08128553148543129,1.576981104317268,-2.6507834903206704,0.2855416491492363,0.4794300316475009,-0.31561540783620134,nm,0.0
8.079413175582886,70.78475097418698,-1.7975083867354282,-24.046801456856603,-0.5216841978477796,2.3876000872193,-2.1833522144615887,0.047938211309721465,0.18264839937667712,-0.18295922263984946,nm,0.0
8.088064432144165,68.67543898730652,-2.51225669704012,-24.200673742485016,-1.0634693430292672,2.8951647659871496,-1.8463426250109325,-0.43619550700152654,0.03913831824519178,-0.05872889755240809,nm,0.0
8.111766338348389,60.37532568323449,-6.821658895221258,-22.086555793079143,-1.430746938093277,3.1725951597659154,-1.6074566422790342,-1.0091127787386738,-0.10120723757485175,0.13576660800903428,nm,0.0
8.11669635772705,54.69917527929056,-9.035421675101233,-19.937870604544322,-1.5677742739049703,2.431221972444016,-0.6741248658352255,-1.2017241288180853,-0.025066785577354877,0.076046041061101,nm,0.0
8.128114223480225,47.26929483120801,-10.648938723510835,-22.170337058082318,-1.0880381560479633,2.1604603783637746,-0.4414388438151254,-1.469975140374949,0.2583442274384033,-0.09034750670206433,nm,0.0
8.149162530899048,32.09111798935825,-13.858709418315959,-23.613083618907556,0.3418945460399533,0.7969136366382977,0.024085724973023866,-1.4171578223845531,0.22764188519750597,-0.3081581983704496,nm,0.0
8.155624151229858,25.929720453653392,-15.86916966545866,-22.526927943357702,1.2077208512874655,-0.13374163977613168,0.32876971970241914,-1.249272811284357,0.08010544289668681,-0.21694036228965285,nm,0.0
8.164951801300049,21.758289612538334,-17.639572352463656,-20.539241914547407,1.485194562130683,-1.4371316323384629,1.2864756390262908,-0.8678619245593181,-0.05025114759026969,0.0804409503555082,nm,0.0
8.201764822006226,23.778771986740875,-21.105239484984,-13.621638031943093,1.6885770252757406,-2.2776988617580667,2.7623445013349888,0.42895883583614325,-0.5164429485651316,0.9220971049508756,nm,0.0
8.203497409820557,28.00938637395855,-23.34880775946692,-10.269337141174098,0.03436585958803623,-2.976165952915488,3.926529838819907,0.6844487802385155,-0.6103356940418019,0.9554292599613176,nm,0.0
8.208686590194702,33.121856989788505,-25.394495253171687,-8.986757165443171,-0.40725186664670987,-3.427653446914395,2.7971328518032608,0.8609993885091966,-0.5680184786880216,0.6729231952176239,nm,0.0
8.229821681976318,46.775194577288595,-23.921142749490247,-13.120239957077551,-0.6712450790672106,-2.50781474820797,1.1995511069040834,1.2653166895810464,0.1380634125855612,-0.08567343841905341,nm,0.0
8.231502532958984,52.22583799492834,-19.723309041438696,-17.22392201754328,0.4288618288295241,-1.5188215944009518,-0.42269647639783936,1.2075379091315839,0.5392915970725233,-0.4239520127916861,nm,0.0
8.240549087524414,56.88158958930584,-14.2187509756763,-20.82912420505029,0.4483276092383047,-1.2713795277435767,-0.5260206900834928,1.211384727056504,0.7448756421858947,-0.45328510077068435,nm,0.0
8.26276445388794,60.83385099152374,-5.546293115381404,-25.899984022106253,0.29338237209132056,0.7042016969279249,-2.090268888596335,0.5047902468501402,0.5201222971313535,-0.4260435818042153,nm,0.0
8.27153754234314,60.82794907878861,-4.477197984267941,-27.38610797354882,-0.06072541151939461,1.1867787111825174,-2.1604623138793273,0.10186754430478911,0.1869826304891744,-0.3042029859278388,nm,0.0
8.291658163070679,57.210094506950526,-6.781099114357507,-26.464685324792125,-1.3280567448912397,2.985780801194773,-2.0508210770032083,-0.5923284233048399,-0.06771704541852643,0.10179591325050077,nm,0.0
8.29758358001709,53.556576647777135,-8.457225850966344,-24.975035506453526,-1.7111298976473106,2.964284310013764,-1.2545695241074326,-0.7917609204878594,0.0051507355359584365,0.1618180881312641,nm,0.0
8.318135738372803,43.11846902098932,-10.44449638851978,-22.32451950320083,-1.252658715691286,2.459459884665018,-0.5603432752473777,-1.0425710351856468,0.2656292461257413,-0.008385587085547506,nm,0.0
8.334179878234863,36.36985718088033,-11.126589319959256,-22.265632125045784,-0.5154695349519153,2.1097629043686603,-0.5779107898535778,-1.2727346028688846,0.37117326989338323,-0.1959930804097112,nm,0.0
8.335896015167236,29.31108987046558,-12.438239600837365,-22.292983479122665,0.4603734971033026,1.448563477778509,-1.0313640162205038,-1.3736634816641538,0.2729209634453513,-0.27732782360785485,nm,0.0
8.358295202255249,17.96007556667523,-16.98300207639657,-19.290958448065542,1.6415593818590561,-0.031029999759936578,0.11071857476778808,-1.1111635258661396,-0.1125964451657316,0.06820946288776594,nm,0.0
8.366204738616943,14.566613308665973,-18.991191513570893,-16.156669325409478,1.971147433365828,-0.9421224730060194,0.4237388137487117,-0.7315990282485283,-0.19813585725739172,0.4126571455658124,nm,0.0
8.376640558242798,14.488033225165442,-20.693487478745816,-11.99871043377301,1.8697729285607676,-1.5160886784554142,0.9785779611342083,-0.08940117660255265,-0.3387283892779998,0.7927381064208419,nm,0.0
8.398179531097412,23.50659246430475,-25.61782402930715,-5.301583800706595,0.385505293721823,-2.640266802287918,3.7064029372333396,0.9321874616944082,-0.6588922303579645,0.959865861442619,nm,0.0
8.407392501831055,29.972220413065784,-28.304720628577726,-4.959617987995496,-0.4250773998854956,-3.3058367216237494,3.040883151996426,1.1129896763641731,-0.6450899335841116,0.6147818821050254,nm,0.0
8.426748037338257,44.94031226444745,-29.530263889645106,-12.177443104726727,-0.6164604129413611,-2.581813853596198,0.9566762249744494,1.2890192703533467,-0.12060883176918119,-0.23002045700567852,nm,0.0
8.430370092391968,50.28429753526999,-26.73228740051404,-17.258253632085417,-0.32207612744716807,-1.6485594955091134,-0.19971139257733372,1.0653787203967056,0.2949005045115576,-0.51943567593684,nm,0.0
8.454166889190674,54.88046011798138,-19.720116861266565,-25.31559682652658,-0.40089650822248957,0.01816696417192669,-1.7933172994956017,0.526840047444964,0.4686518872837726,-0.6155726646299808,nm,0.0
8.459825277328491,53.92526898671903,-18.097151782610144,-27.808385299209544,-0.990442985609138,0.3223866988947036,-1.7842980547920988,-0.008225843940733626,0.3642410801314945,-0.570350585205072,nm,0.0
8.482720851898193,43.8186870285199,-19.028001890185255,-26.981517166322565,-1.2673431675092683,1.7414372655362003,-2.1108000184532907,-1.1604187097281804,0.3914638515488317,-0.04621525499003724,nm,0.0
8.487165451049805,36.65967869739446,-20.0685256427636,-23.437450548583417,-1.5971106343811594,2.1105550878527812,-1.3212362007765182,-1.3023568624700024,0.38072257247454383,0.28137837077667677,nm,0.0
8.553311824798584,9.334796807527994,-17.88214112292135,-16.72030329965596,0.26437761913304975,2.411604962524325,-0.7739896383072186,-1.5970191291662574,0.7140525352460739,-0.23783216065581514,nm,0.0
8.555025100708008,1.4793638954833987,-18.077229570238135,-16.360660354621377,1.3124621938591867,2.2532860979400735,-0.5232101396453289,-1.4395851434242481,0.3773811667507712,-0.38412243430693166,nm,0.0
8.557127237319946,-9.488375588802265,-19.790226491840944,-15.501148759915614,3.2946071852767935,-0.6353103240096414,-1.1800262241356343,-0.7422569748176006,0.01786527301278832,-0.20336701205622243,nm,0.0
8.558685302734375,-8.958240752074063,-21.01758482389861,-14.029702757791407,3.319730058740471,-0.6229747122043645,0.6617551755533183,0.03904412947679957,-0.2765404744561542,0.28413807960907106,nm,0.0
8.56495714187622,-5.157547505942648,-22.55145085211292,-11.746679777420573,2.6510956270992914,-0.7274655701759488,2.6487713448371673,0.6268653035518293,-0.46952097010939975,0.7128891120694282,nm,0.0
8.587598085403442,14.204550886816508,-27.131164592937655,-8.147288035855016,-1.6110482664670496,-1.4071404192976027,5.24045874409789,2.01173609587094,-0.8707453053300248,1.2309183311985292,nm,0.0
8.59209680557251,27.483619626842092,-29.561346840367065,-9.243737495560678,-3.309883644930295,-3.341642132602439,5.247571570394932,2.250425987061623,-0.8399838768924731,1.0182282423197695,nm,0.0
8.644274234771729,61.569583947864764,-22.14310285194202,-17.45905789212395,-0.6152115450809578,-2.8049703366535854,-0.49378103400001155,1.9348250069006234,0.4230649268326784,0.3046554646988285,nm,0.0
8.64728045463562,72.1924603999183,-11.747033537073134,-19.063274499734213,1.1409209519483743,0.2952578164130362,-2.474211332836413,1.1023792710745273,0.6542314848534734,0.12408614397982938,nm,0.0
8.64907193183899,75.06531733041369,-8.461018919846115,-19.63963834781736,0.7933861928212296,1.28023181458049,-2.624951743425178,0.7619260435053801,0.43121271481973894,-0.008627294009286437,nm,0.0
8.671253442764282,77.11285696797822,-6.504123446178212,-20.252228885676555,-0.3913331656146375,3.3064457571957107,-2.6188392477942353,0.12245654898119139,0.030286995613094468,-0.026548667998880275,nm,0.0
8.698080778121948,75.1356480878065,-8.039493121659145,-19.450934284109128,-0.8543357820746106,3.5333250186803085,-2.376981252596667,-0.34642564305491486,-0.0937537387965095,0.07302952652214688,nm,0.0
8.69982385635376,72.97300512134082,-9.46346696663102,-18.549352520628446,-0.8214360515166044,2.556569147277834,-2.075968734893334,-0.48815500519597055,-0.13177031202313919,0.1037204833285433,nm,0.0
8.706385135650635,69.68315946405635,-11.244632184242471,-17.54290755657186,-0.6496293331290616,1.2968337202875486,-1.581824663483794,-0.7171094342986977,-0.1404349278892743,0.07240732520973482,nm,0.0
8.734231948852539,60.249444338338215,-16.823721408660422,-10.970319621953372,0.5391032673130971,-1.2056155813496638,-0.6580737450937681,-1.041276219273213,-0.43128808487488945,0.10802736032529846,nm,0.0
8.736133813858032,54.91759910945267,-20.53726644543106,-6.029698632442023,1.1242909633024902,-2.3513605357127427,0.4716161034478322,-1.0891896886122416,-0.607705027229762,0.24744792448831707,nm,0.0
8.745195388793945,49.175222593098766,-24.295037674061966,-0.012633264574995277,1.5297892614856945,-3.564187783168774,1.9050178068826022,-1.0778496482176756,-0.7165345546033002,0.3754766474563056,nm,0.0
8.766042709350586,37.489631833010186,-29.71394539027951,11.527304837176743,1.7418314338121175,-3.0280605972705237,4.153838036676218,-0.9447192267887935,-0.5979684128079371,0.17933825930193495,nm,0.0
8.792469024658203,31.703463863572278,-31.28319530700233,11.18261616255635,0.07345825983906278,-1.889142985937619,2.5136445498952886,-0.1512814069055689,-0.14334317960542553,-0.5420683336918463,nm,0.0
8.794723272323608,32.29181463790878,-30.723008907837766,7.100180658931141,-1.1091767230342573,-1.2158854016111302,2.351819659592487,0.09388655382253887,0.12157447390879896,-0.8254055287178984,nm,0.0
8.81961178779602,36.40600339059653,-25.97367426624962,-3.5106678358958425,-0.7002361307677867,0.2079320717885508,-0.5950752426320162,0.6229956889076798,0.542045491230744,-0.7197276027290742,nm,0.0
8.821534395217896,39.47747794300708,-22.81803256030727,-7.688630857240659,-0.8351882526140981,0.7236977590697155,-0.20960309925631054,0.6302526307295027,0.5661924161862558,-0.5569114589501422,nm,0.0
8.843519926071167,40.15640590629213,-16.981351455973627,-11.36459674507,-0.06637133930636575,1.6118612642523058,-1.6225134208664809,0.13298570707600887,0.5079312413549512,-0.1644216215334329,nm,0.0
8.849105834960938,39.68874116547247,-15.558761750052888,-11.741951841123402,-0.10608363520836954,2.3177297734060143,-1.4528686837894915,-0.021727637621085698,0.2896876910489725,-0.07098608166159685,nm,0.0
8.871894836425781,34.989177216231155,-15.266606552071583,-12.738498284189184,-0.46117719936796003,2.705040309407465,-1.6286226786681477,-0.4983729885849017,0.08556879330024952,-0.23909921527445438,nm,0.0
8.878227949142456,31.54918271511796,-16.06404746706494,-13.922010629719713,-1.1894497572266143,2.8503671631607603,-1.170527767583783,-0.6742503775937703,-0.011301220314397361,-0.41904458803277683,nm,0.0
8.90027379989624,21.620994336072968,-20.350919212004374,-16.834319593719954,-1.2857288196099963,2.0490561949322577,-1.1509846627354172,-1.0625139395188818,-0.20492176244438126,-0.609475762458695,nm,0.0
8.906201601028442,16.33430104129302,-22.67729141400699,-16.426087683491776,-0.9165516848310414,1.698903279019034,-1.089240567578312,-1.0698135982720507,-0.1779085796379267,-0.35069457177019686,nm,0.0
8.931362867355347,6.468799781732113,-25.837853095493617,-9.784276757847964,0.8994879067372149,0.1603371895924881,-0.8148846701719998,-0.8159848433642103,-0.07411554960831555,0.512669707555254,nm,0.0
8.934709310531616,4.76048040021969,-26.00516986798714,-4.173259064188918,1.2916320618996522,-0.4508507854784414,0.22203393543377406,-0.30102198386008217,-0.006676657007311583,1.0249377195162457,nm,0.0
8.957086086273193,13.866168589263706,-26.640478933567373,6.650196051952134,1.6007626575218004,-1.5657624694856376,4.454988642948837,1.2083898926680032,-0.05967573525707137,1.6451964568801087,nm,0.0
8.964117288589478,21.015524845484197,-28.708031246063094,10.081781808923976,2.2644317098652658,-3.449062371365496,4.94730292020043,1.3268743363697453,-0.23407217680552653,1.392825025406527,nm,0.0
8.989237070083618,36.102404171148414,-32.559359255321695,9.180367128386111,-0.4169910110021359,-3.0590918252215418,1.6797489272588835,1.40145057784347,-0.02865414543944393,0.36633311887585496,nm,0.0
8.99523115158081,44.444230915877384,-31.335089826755674,3.0254942188474816,-0.1621608061175996,-2.472779336140735,0.48033086451237483,1.3955070107736987,0.3899290334524234,-0.3530377392063906,nm,0.0
