timestamp,roll,pitch,yaw,acc_x,acc_y,acc_z,gyro_x,gyro_y,gyro_z,markers,motor_input
63.00946760177612,-53.41456564522904,-21.38409665954102,-101.78708667587756,1.2362984363242373,-0.9258517566788013,2.5552861752308442,-0.4019180522312384,0.15076216928839536,0.38938747008001057,nm,0.0
63.03269171714783,-62.352108411724714,-24.293064267237096,-96.07542469564487,-0.23930553898649645,-0.6259065218689527,1.84281457891483,-0.059472654146110915,0.9605109509074221,0.20208554490608974,nm,0.0
63.036561727523804,-67.80261237636465,-23.73739517929426,-92.18932097288832,1.8969047052192796,-0.714683604730719,1.1392823125102192,0.1735589679501106,0.9832369266039609,0.3442803335400931,nm,0.0
63.05867910385132,-84.46567678379866,-19.108877174077964,-83.67377380671435,1.6132692244417508,-0.3714355856334038,-0.38824846001016367,0.43461437904697703,1.662716095892388,0.21033210597218535,nm,0.0
63.08373284339905,-111.14848003492256,-12.63927720327815,-74.83093931667992,0.5195626498056585,0.8767710391006833,-2.490607051205254,-0.2061178787984464,1.8237314571229726,0.15367374834806827,nm,0.0
63.10968852043152,-128.0331975149242,-12.043761205101337,-67.4226641274313,-0.37285224259274385,0.9040213140609055,-3.1698956718993396,-0.5454678736930462,1.5810212924577658,0.4548660462349689,nm,0.0
63.11180830001831,-135.93831851210584,-11.237035025916898,-63.26947408203146,-0.8647724470409673,0.8148413268332833,-2.420028047388512,-0.4936650387128717,1.4736426379937766,0.5237456858887869,nm,0.0
63.156004667282104,-147.49399184740085,-7.553919735199295,-57.892263651363734,-1.4731863938543384,1.0881730938003171,-2.7818722158434697,-0.1855150169970495,1.1219958204394007,0.2534991248983037,nm,0.0
63.15789294242859,-154.98748282220532,-3.944664005315825,-57.7501829867339,-2.6485183976469724,1.6853909273031322,-2.0737387582472193,-0.06489313340545864,0.6866179966155733,-0.13459769973906135,nm,0.0
63.16102075576782,-157.1329594267972,-3.49839970380759,-58.59027994169198,-3.0161126124392177,1.8447311772885016,-1.7658188151672525,-0.13930286938776498,0.40986536651418615,-0.18658751163710732,nm,0.0
63.190515756607056,-159.51677122573875,-5.3251828011186,-58.92458570944799,-2.4653836096144777,1.412704927468817,-1.567187126024529,-0.31019822663709207,0.02493732290465603,0.014651541803491226,nm,0.0
63.19230318069458,-159.6479911773374,-7.227671916124741,-58.74469393781159,-1.9175449892409924,1.2089863119192077,-1.4399498997550453,-0.3286578294843107,-0.1755547259018386,0.04264396506010108,nm,0.0
63.195908546447754,-158.82612503530328,-9.591792127911345,-59.087188670113854,-1.4429701412307436,0.9996558714596585,-1.8780421642843017,-0.31086991757136206,-0.38432193263709497,-0.03463976733528552,nm,0.0
63.22225332260132,-155.79430242975639,-14.95751239146579,-62.91385862377375,-0.7445109322041137,0.6638277606623434,-1.6142479475203197,-0.29782319444299815,-0.5719436710264802,-0.4073733404911719,nm,0.0
63.22687315940857,-152.96944649139397,-17.55339407898308,-66.62816289831868,-0.6204597125240091,0.43148423981834905,-1.6065418945494663,-0.2298842467171787,-0.7134131159478967,-0.573778609872255,nm,0.0
63.248480796813965,-144.66033871066514,-22.167223337161374,-76.38685997996623,-0.4398593947898502,0.06735480342379599,-1.1382861489654181,-0.17517438501572727,-0.9620312540419342,-0.682769756528566,nm,0.0
63.26437568664551,-131.27333088529264,-26.149870180656148,-87.70841129108952,0.22744099570171478,-0.7217854513242365,-0.7325689408110702,-0.25674747902317535,-1.3802651560601589,-0.5196348502939697,nm,0.0
63.29379653930664,-97.54568091530768,-27.236021728308565,-107.66418806259342,0.9294791674551081,-5.44876113616517,3.924432036213497,-0.322928312466395,-2.2825202120046466,-0.1264348313037608,nm,0.0
63.31608819961548,-79.44240245853477,-11.689193357198144,-111.69935328011387,-0.503433753725186,-3.1541015849363188,1.5210235646358023,1.1614577014568905,-2.0098526748857073,0.4534893529157815,nm,0.0
63.3214328289032,-72.22273609014185,-6.603744024219876,-108.39653433612068,0.11443062338731666,-1.6629727467188722,1.0977297940518373,0.4561593384712935,-1.6935137980988106,0.900043441655846,nm,0.0
63.34576058387756,-57.077233053238714,-10.648559357650292,-105.4667708052776,-1.472920720131288,-3.480016361497775,4.607515611269683,-1.0120534462595625,-1.269210800697006,0.15924328331379367,nm,0.0
63.36166834831238,-52.522212141061416,-14.814145286094927,-102.85372314453346,-2.283760254027517,-2.0183034819723984,2.9722608863993014,-0.38514751575401074,0.05443415940264291,0.3451441601958465,nm,0.0
63.38272738456726,-55.82907285423388,-17.941690559558733,-98.1201618918373,0.3874855741127321,-1.1868323532413836,2.350570876508589,-0.21004186165002514,0.7442975073469842,0.3497626073869963,nm,0.0
63.38629341125488,-61.039823360547224,-18.408567914616672,-94.9976707215979,-0.11992186713244664,-0.9910603621649494,2.0689824796738905,0.010067375031494831,0.9916802977450428,0.30875058596804317,nm,0.0
63.41035175323486,-74.9954208911927,-15.92536035205319,-86.63560704332473,2.220128729444932,-0.690705442391149,0.24489989919891988,0.2981403424656331,1.6051196732678743,0.43845475738103745,nm,0.0
63.415560245513916,-84.29373009894876,-13.427472977640894,-82.47662608393532,2.0908550540787454,-0.2444986786798204,-0.4858561814159802,0.3203886135467158,1.8347846918203292,0.3714542242063983,nm,0.0
63.442299127578735,-103.39204456999742,-8.855779008575194,-76.14386942791594,1.674645369389198,0.9776091998426921,-2.8774155889184754,-0.05022703406113024,2.0293969095844293,0.26551035640521353,nm,0.0
63.449830770492554,-113.60188713284909,-7.783364815673592,-72.90571165850113,0.6852991236317597,1.175049560636502,-2.7826553541085652,-0.33174130575490357,2.0009744787035455,0.3642248288585425,nm,0.0
63.47327780723572,-131.95300735041346,-6.717057665635096,-65.0455056655725,-0.7262917327668164,1.1838118135502183,-3.4204881099232347,-0.6132200560152641,1.7342146392483313,0.6172715876015419,nm,0.0
63.47503614425659,-140.4747044658372,-5.539015238694268,-60.87545661692251,-1.0747034064526775,1.2366814677153253,-3.005815140779107,-0.5536265363967,1.6152559119463958,0.6630900591625087,nm,0.0
63.48124694824219,-147.23321185328624,-3.718851434720668,-57.569941537991234,-1.536119249985632,1.3432544603643177,-3.2090414143074733,-0.36803486219200293,1.343067633343048,0.562718315078032,nm,0.0
63.5113525390625,-158.5855872453465,-0.20255721061884066,-55.24633734363925,-2.6766895792929994,1.6137332686352572,-1.673538118465536,-0.3532172635198558,1.0565385965335092,0.06422778789548349,nm,0.0
63.51496243476868,-162.15317978485942,0.3617909237517764,-56.10224624976818,-3.1192641718664715,1.5923390862264566,-1.8603291966890134,-0.2975888758509349,0.652495978725378,-0.1621098785338341,nm,0.0
63.53127479553223,-166.5568921156842,-0.9076777958836463,-57.94456441422553,-2.913329747152873,1.1257129437968998,-1.449178189588383,-0.33715820215525655,0.18136780763570892,-0.13003164337863138,nm,0.0
63.547199010849,-167.6970749202029,-2.331563153239059,-58.00362290883465,-2.461766603016299,1.0244343245144327,-1.016804491184213,-0.35046941030016654,0.041519010344904975,-0.010656705980818436,nm,0.0
63.54900884628296,-167.71129514755557,-3.989216997637647,-57.84966133249998,-2.0581463365997896,0.9268965119991281,-1.2484524919681206,-0.2706479855121222,-0.1743527411567006,0.03848474501780753,nm,0.0
63.57304906845093,-165.81072494285772,-8.201993598413129,-59.24388371238604,-1.197146399633221,0.7543073816103898,-1.4400269029913262,-0.2593004075497375,-0.432781211173881,-0.19781587610262225,nm,0.0
63.581698417663574,-163.7130420042333,-10.696871692000933,-61.72964565184693,-0.9645501134073697,0.6629588445027688,-1.4455895027422538,-0.2195516954957658,-0.6072219197388491,-0.4194341781292319,nm,0.0
63.60029888153076,-156.75035715292822,-15.51156482816252,-70.06556327761095,-0.6774092454160952,0.3458252476610974,-1.1817650670889523,-0.13548070038016027,-0.8827405059548306,-0.7167397074453346,nm,0.0
63.607470989227295,-151.62755631797555,-17.653246806677178,-75.09226397769295,-0.4895175248270543,0.1530618194866398,-1.171155223267232,-0.10621405354976908,-1.0682333287848496,-0.7014980632752829,nm,0.0
63.6318678855896,-137.7941117061879,-21.838498256523323,-85.34899368331557,0.21825320786094413,-0.6226006441752928,-0.883427606246829,-0.2402097587435267,-1.4565002836321235,-0.48260612799711916,nm,0.0
63.63362765312195,-128.58148336776821,-23.939936817713335,-90.73384278435735,0.7199955286019777,-1.4255278238122873,-0.763075472014542,-0.35830176819590037,-1.7142087270183346,-0.34476872634666855,nm,0.0
63.64244604110718,-118.1318338514447,-25.721883592046293,-96.53883259047879,1.4279193699623138,-2.6059093363386236,-0.10551809813817593,-0.4745295959015055,-1.873204447662112,-0.2666565822651789,nm,0.0
63.65246891975403,-106.20067515728755,-26.33208062105484,-102.74495992932019,1.1875123191647023,-4.200163394231435,2.4090918444921265,-0.48107469955989113,-2.0957460607473464,-0.17647234168395692,nm,0.0
63.67898726463318,-86.36095130117636,-16.49478734130002,-110.35642571200255,-0.48329003300224854,-4.414517484967472,2.612708842509617,0.8101168512382046,-1.8724834164133948,0.1181326854644163,nm,0.0
63.68298673629761,-79.57663875892023,-10.718207533256221,-109.67711973152552,-0.07261451491331826,-1.7503713053440015,0.643282126858097,0.6250872427205498,-1.6392522381139092,0.4670987322601189,nm,0.0
63.706159591674805,-66.9123713393376,-12.685164466724732,-107.30682223110249,1.0660975033115896,-2.9265004986179513,2.4007693643644314,-0.9160539820213041,-1.0154779143326922,0.2659056411259103,nm,0.0
63.71088218688965,-60.51259713350502,-16.830859251863323,-109.40428332385437,-1.126619272717604,-2.404870071295127,2.7984944119311197,-1.1883631175959517,-0.9165414495213514,-0.08376305236550605,nm,0.0
63.73681020736694,-52.078136657967164,-22.037325430555416,-110.27422036063571,-0.2866615016070769,-2.381990057545436,3.6834894869898536,-0.44647922735455164,-0.3271099944183811,0.25878128465033073,nm,0.0
63.73905158042908,-51.89178705393786,-21.148731807026216,-108.12223922305321,-2.6265071341324475,-0.7980627435097035,2.301628394487884,0.1446795251240802,-0.09245802906510243,0.4526966789669385,nm,0.0
63.76583003997803,-53.61653966914965,-16.478810034691676,-98.29862921228823,1.1882178698930088,-1.1551183779872993,1.5157890643762608,0.5946971252512694,0.3894019009813168,0.9229969373899171,nm,0.0
63.76759624481201,-58.6922438919542,-13.420629849972801,-94.08361599192277,-0.3894173318846133,-0.5727780500118865,0.8594593963377617,0.7037276743970062,0.9055435453131083,0.5896800153721505,nm,0.0
63.793981075286865,-68.9810222861395,-10.919476544169566,-89.0145536889359,1.9728947956172536,-0.23024249198980146,-0.6600148624686717,0.047166986416149644,1.2046481208879416,0.1946715235437934,nm,0.0
63.796910762786865,-77.34743949075919,-12.518043134947929,-87.24537692367169,0.5809528024890104,-0.20415637566353192,-0.6810900331184793,-0.3800799282360802,1.6235083126304082,0.02462404844072181,nm,0.0
63.824645042419434,-93.96288319744411,-17.473636342168486,-80.41027860783079,1.524030477478945,0.22432477170251508,-1.8069373749235669,-0.6902429314398196,1.6022780522102977,0.36485890851075103,nm,0.0
63.82656288146973,-103.82007819041088,-18.303575691906254,-75.17805828865862,0.5572768029278631,0.6417535673992096,-1.4412371790424403,-0.5605099853066038,1.7967934763306617,0.4529475925339067,nm,0.0
63.83647656440735,-112.25790932979481,-16.932289457576715,-70.29121216110713,1.0080311527699808,1.2700480809016936,-2.5786047576047877,-0.21539795508780313,1.6154158348035548,0.47958774944476823,nm,0.0
63.856672286987305,-120.28984743637959,-13.966962059892333,-66.84395766372522,0.2399228359420607,1.867755519035494,-3.6247847628531944,-0.01170967568852902,1.6560630257901823,0.27448076979459485,nm,0.0
63.873974323272705,-140.32805038062187,-6.869059434605962,-65.87607928122574,-2.676008664619761,2.2128217068917415,-2.893892748986958,-0.25103108334662,1.098049671934142,-0.2958143155912579,nm,0.0
63.88255786895752,-144.69778844828267,-7.05382483210901,-66.57178885956773,-2.802497366937464,1.8669819219948933,-2.1967871052148644,-0.3756936781598142,0.7767314997409336,-0.233774600136632,nm,0.0
63.9071204662323,-149.98223224732604,-10.087339752660942,-65.92424080393764,-2.2557118519134827,1.036176191677641,-2.2075528478705904,-0.5314612272455883,0.28580294275718077,0.06345129820730305,nm,0.0
63.90887784957886,-151.83916678845526,-12.28427756169264,-65.30948636705034,-1.774247570309607,0.7886982593235154,-1.4938542203958656,-0.5421426787528217,0.14905809741871018,0.0620463104444943,nm,0.0
63.93629837036133,-151.12444236645823,-16.595108602316973,-67.72818416200084,-1.1014053692050325,0.4494882813464648,-1.6560460071423215,-0.30978156406520485,-0.33442115461481775,-0.345451691809312,nm,0.0
63.94816040992737,-144.4020765784172,-20.205553817561423,-76.82166313690597,-0.9486345116541527,0.47797381493310526,-1.5951495335226673,-0.08621727673552529,-0.8793767553109098,-0.7481906340447245,nm,0.0
63.96334719657898,-138.71597741464296,-21.511741070552155,-82.63378080452658,-0.7106046452704318,0.32594769159361425,-1.5751131309637787,-0.06185792990165754,-1.0954170921328543,-0.7443582412224329,nm,0.0
63.96649217605591,-131.7422904508131,-22.709313454117037,-88.39301813213855,-0.36883078822535065,0.018755550371532606,-1.3642095536224161,-0.13362299531314925,-1.3103551494068215,-0.6126404453343764,nm,0.0
63.99137783050537,-113.63846335597684,-25.298777391000826,-99.26270126534396,0.6479059098964828,-1.464477610709821,-0.6370922717333108,-0.4616530730760509,-1.7257998389214122,-0.25054437854307154,nm,0.0
63.99528098106384,-102.55062710687962,-26.199116566983218,-104.83620731448288,1.3025854016171876,-2.6340304497170366,0.11971391045021947,-0.5955180265782878,-1.9178954185428791,-0.13449485898410243,nm,0.0
