timestamp,roll,pitch,yaw,acc_x,acc_y,acc_z,gyro_x,gyro_y,gyro_z,motor_input,markers
0.0,-15.837185467676917,-8.747109199159816,-24.569631997240254,-0.0005786347468532011,0.00913202129267903,0.028098534668793976,0.0,0.0,0.0,0.0,nm
0.019008999999996945,-15.831825020384862,-8.76597791146737,-24.57073191300345,-0.0005982532087993875,0.009291425953419198,0.028583662848273635,0.0,0.0,0.0,0.0,nm
0.028524000000004435,-15.82590140224108,-8.770818780120358,-24.571592242216287,-0.0006355472440891343,0.009812822246017979,0.030193520577013255,0.0,0.0,0.0,0.0,nm
0.05706899999999848,-15.806775140161967,-8.755382539192135,-24.57246780749461,-0.0006446447704449522,0.009986319573012119,0.03077063283443688,0.0,0.0,0.0,0.0,nm
0.06657699999999522,-15.801283700260196,-8.744821018582732,-24.572043657409182,-0.0006640370041711135,0.010341340219945098,0.03188235792925603,0.0,0.0,0.0,0.0,nm
0.0759919999999994,-15.795854703184972,-8.737494013537404,-24.571075023995586,-0.0006465685689465757,0.010097563695084072,0.031145588841631856,0.0,0.0,0.0,0.0,nm
0.08559599999999534,-15.791892136465716,-8.736117809895207,-24.570438717223354,-0.0005935266402737145,0.009261063084709463,0.028572494375375058,0.0,0.0,0.0,0.0,nm
0.09511000000000536,-15.787888174787403,-8.737411259078577,-24.570888522428092,-0.0005801556536025533,0.009029138157208063,0.02786200471923206,0.0,0.0,0.0,0.0,nm
0.11413600000000201,-15.780034850034047,-8.75123757538493,-24.5714730670038,-0.0006270813039062183,0.009629621881863303,0.029717135271676385,0.0,0.0,0.0,0.0,nm
0.12363799999999969,-15.776277214250122,-8.754946654449899,-24.572493168269563,-0.000668724330418631,0.010227722223053059,0.031566254856540764,0.0,0.0,0.0,0.0,nm
0.1331469999999939,-15.775986038994937,-8.755921753063642,-24.573015202261193,-0.0006593769994193118,0.010077773017916278,0.031103165523598836,0.0,0.0,0.0,0.0,nm
0.15216900000000066,-15.776053564412404,-8.749502647794186,-24.571826509202765,-0.0006364859646780528,0.009770642882669264,0.030160054367012402,0.0,0.0,0.0,0.0,nm
0.16168500000000563,-15.774423890397257,-8.747286837392739,-24.570468697141823,-0.0006211019257267364,0.00953975161509221,0.029451590297886455,0.0,0.0,0.0,0.0,nm
0.1711999999999989,-15.771112818773595,-8.748048596759789,-24.568706297997096,-0.0005732060337238395,0.008782554700999064,0.02711827788961614,0.0,0.0,0.0,0.0,nm
0.18070500000000322,-15.766000357947537,-8.754518633974289,-24.568196730131167,-0.0006214901335392307,0.009455761096161181,0.02920023614977015,0.0,0.0,0.0,0.0,nm
0.1902120000000025,-15.760458590989845,-8.762813908899968,-24.56843062192945,-0.0005617565367931442,0.008476579741485468,0.02617874771541844,0.0,0.0,0.0,0.0,nm
0.20923500000000672,-15.755116977410811,-8.776508801030365,-24.564789484368507,-0.0005995877900030092,0.008930922869442021,0.027580448821767665,0.0,0.0,0.0,0.0,nm
0.21874800000000505,-15.754234912667556,-8.775884695651314,-24.56264211480412,-0.000746104924905911,0.01110789175681044,0.034305601668282774,0.0,0.0,0.0,0.0,nm
0.2282689999999974,-15.757620317341434,-8.771625872651938,-24.56170298686131,-0.0005822813132828847,0.008705321637141059,0.026883535777238267,0.0,0.0,0.0,0.0,nm
0.23776900000000012,-15.76499984090318,-8.767488319040735,-24.562315899500355,-0.0006992483538840153,0.010519177875368437,0.03247555192930075,0.0,0.0,0.0,0.0,nm
0.2472800000000035,-15.771777780130602,-8.765589302344734,-24.565305748269957,-0.0006517390638019122,0.00985376366711357,0.030411545838146495,0.0,0.0,0.0,0.0,nm
0.2567810000000037,-15.776755383712544,-8.766005910913538,-24.568192970932188,-0.0006904183211344106,0.01046549181909615,0.03229046678372959,0.0,0.0,0.0,0.0,nm
0.2663090000000068,-15.780458432272077,-8.771143048778443,-24.569724792288106,0.0,0.0,0.0,0.0,0.0,0.0,0.0,nm
0.2758139999999969,-15.779172210550557,-8.77821146798295,-24.568638524085223,-0.0006318167418348492,0.009504576446058621,0.029312856044432636,0.0,0.0,0.0,0.0,nm
0.2853250000000003,-15.776857844031635,-8.783795521411896,-24.56595592590643,-0.0006455363578065449,0.009656214495863978,0.029780129347705582,0.0,0.0,0.0,0.0,nm
0.29483600000000365,-15.768859425158151,-8.784577714870066,-24.564060827764397,-0.000687808768219029,0.010243401097730889,0.031604005939861,0.0,0.0,0.0,0.0,nm
0.3043480000000045,-15.761060871518927,-8.782818634139744,-24.56317371648457,-0.0005718402894383655,0.008497215522249578,0.02622862162959006,0.0,0.0,0.0,0.0,nm
0.3328810000000004,-15.745034637159147,-8.75056806018144,-24.564850240161118,-0.0007024177586076129,0.010613043823262865,0.0328142448340148,0.0,0.0,0.0,0.0,nm
0.342378999999994,-15.746080817066215,-8.739353640262372,-24.565555510302765,-0.0006415234677669038,0.009778007669188453,0.03023921206314896,0.0,0.0,0.0,0.0,nm
0.36141899999999794,-15.758656280393266,-8.729200034450939,-24.56353273254346,-0.0006443313263199214,0.009942052661540563,0.03073372026572089,0.0,0.0,0.0,0.0,nm
0.3709209999999956,-15.76727795757973,-8.728661232008564,-24.56165471222562,-0.0006430433124662192,0.009958102313411736,0.030769596136575084,0.0,0.0,0.0,0.0,nm
0.38043399999999394,-15.774592644869488,-8.731481371681292,-24.56034117107422,-0.0005806305930453874,0.008998153920575883,0.027790628158315105,0.0,0.0,0.0,0.0,nm
0.3899470000000065,-15.7803551074066,-8.732971665432208,-24.560247964436773,-0.0005757832162539843,0.008935273157111264,0.0275868789729946,0.0,0.0,0.0,0.0,nm
0.39944900000000416,-15.785395666086549,-8.734781705987448,-24.560969109311035,-0.0006049502908393289,0.0093977107247387,0.0290054458564214,0.0,0.0,0.0,0.0,nm
0.40895999999999333,-15.789637357010387,-8.736371421195516,-24.562520606171688,-0.0006000817016609547,0.009332222842864498,0.028795585165469702,0.0,0.0,0.0,0.0,nm
0.41847300000000587,-15.79258392336105,-8.737962539671315,-24.563970977955293,-0.0006292513286682743,0.00979072746228951,0.030204333777613397,0.0,0.0,0.0,0.0,nm
0.4279820000000001,-15.797623546940425,-8.741520102957898,-24.563666235261458,-0.0005965660612098956,0.009277282542230186,0.02861010246808776,0.0,0.0,0.0,0.0,nm
0.4660329999999959,-15.821845225304425,-8.773143855785799,-24.550629522759284,-0.0006311154501370302,0.009656327549782984,0.02971740959863889,0.0,0.0,0.0,0.0,nm
0.47552500000000464,-15.827676987409538,-8.781196137883608,-24.549852509666565,-0.0006445234067660801,0.00982651185022596,0.030225677953830216,0.0,0.0,0.0,0.0,nm
0.4945639999999969,-15.837836682585793,-8.776923516664231,-24.553411168051714,-0.0006843051453900569,0.010520910613709678,0.03234738131037451,0.0,0.0,0.0,0.0,nm
0.5040759999999977,-15.84436064419311,-8.764695741286038,-24.55596746912511,-0.000632226130065163,0.00984211005331861,0.030258980482945765,0.0,0.0,0.0,0.0,nm
0.5134869999999978,-15.850712453701755,-8.751080359616703,-24.556825339391573,-0.0005951932851673941,0.009387879197730077,0.028862484630379173,0.0,0.0,0.0,0.0,nm
0.5230889999999988,-15.85745288579029,-8.739048306690592,-24.555181041951226,-0.0005789496933645007,0.009237819801046127,0.028399509620644046,0.0,0.0,0.0,0.0,nm
0.5325959999999981,-15.86075711600342,-8.73056950932818,-24.55249244951447,-0.0005934735189573312,0.009537507553465852,0.029321955159421282,0.0,0.0,0.0,0.0,nm
0.5421149999999955,-15.863123790206894,-8.727958391792411,-24.548386440441895,-0.0005830956867502506,0.009388445243852477,0.028862045926395043,0.0,0.0,0.0,0.0,nm
0.5516240000000039,-15.863676590924618,-8.730332381411372,-24.545717010943484,-0.0005517731501047457,0.008863564651424648,0.027246113146726664,0.0,0.0,0.0,0.0,nm
0.570643000000004,-15.850583324331469,-8.73489817705915,-24.54642503661244,-0.0010435814241584237,0.016612564102692004,0.0510959466825637,0.0,0.0,0.0,0.0,nm
0.5801569999999998,-15.87554958943146,-8.74069116103629,-24.549041462887047,0.0,0.0,0.0,0.0,0.0,0.0,0.0,nm
0.589665999999994,-15.902630454334401,-8.756030222472866,-24.552931476240936,-0.0009066526803915086,0.014561292439588109,0.04463880726258699,0.0,0.0,0.0,0.0,nm
0.5991680000000059,-15.901083221551632,-8.75228677196661,-24.560924231072946,-0.0008553059607432911,0.013797421679638166,0.042304165171610814,0.0,0.0,0.0,0.0,nm
0.6086949999999973,-15.947738206678187,-8.746165709485883,-24.563982735083364,0.0,0.0,0.0,0.0,0.0,0.0,0.0,nm
0.6181919999999934,-15.967832816431999,-8.745047298183662,-24.558508140433396,0.0,0.0,0.0,0.0,0.0,0.0,0.0,nm
0.6277070000000009,-15.970784966563569,-8.738483046901248,-24.5505534515849,-0.0011785216922315493,0.019773470872186363,0.060424421313838246,0.0,0.0,0.0,0.0,nm
0.6372159999999951,-16.00760790893712,-8.730565851437314,-24.540110225082962,0.0,0.0,0.0,0.0,0.0,0.0,0.0,nm
0.6657469999999961,-16.04695304505688,-8.754450651586561,-24.53185664019591,-0.0007109250256397323,0.012132136188387366,0.036910487453722086,0.0,0.0,0.0,0.0,nm
0.6752690000000001,-16.05480011723026,-8.757792695457267,-24.538583337823805,-0.00048288530315414985,0.008265189631170636,0.02513310481652931,0.0,0.0,0.0,0.0,nm
0.6847759999999994,-16.0847495033568,-8.761277170395909,-24.54276222793185,0.0,0.0,0.0,0.0,0.0,0.0,0.0,nm
0.703794000000002,-16.10168311801539,-8.722339112376378,-24.547482415926737,-0.0009079365226304519,0.016409552555685294,0.04981847395270656,0.0,0.0,0.0,0.0,nm
0.7133070000000004,-16.13651554701348,-8.68812904743924,-24.54783218846883,-0.00044481414399609204,0.008428218532242491,0.025562133909034022,0.0,0.0,0.0,0.0,nm
0.7228159999999946,-16.187575603675597,-8.668146731254275,-24.55217714979166,-0.0009301251173637948,0.018457301859450964,0.055856292329124084,0.0,0.0,0.0,0.0,nm
0.7418370000000039,-16.362646530610732,-8.656102405341066,-24.587247676686417,-0.0005176064970931342,0.011611229466487757,0.0348262188621624,0.0,0.0,0.0,0.0,nm
0.7513490000000047,-16.4847220236024,-8.675041418441262,-24.6026601440988,-0.000440578835047839,0.010490125886895012,0.03124915493499266,0.0,0.0,0.0,0.0,nm
0.779871,-16.723685419581507,-8.704492472769214,-24.595759870640467,-0.00035554127491412815,0.009524821392369872,0.02800517465168121,0.0,0.0,0.0,0.0,nm
0.7893839999999983,-16.739995171472405,-8.689641435823168,-24.616397933589987,0.0,0.0,0.0,0.0,0.0,0.0,0.0,nm
0.7989069999999998,-16.70554074865606,-8.675765891565963,-24.67264735562873,-0.0006271472577122031,0.01785340082638056,0.05257597486482193,0.0,0.0,0.0,0.0,nm
0.8084190000000007,-16.73513446690893,-8.665010755539315,-24.76341078297458,-0.01711566195280065,-0.033080004231980466,0.011059938630372303,0.0,0.0,0.0,0.0,nm
0.8179229999999933,-16.776663724448994,-8.640137579922033,-24.875470117029195,-0.031962373943934246,-0.03738140395337667,0.0873473903375987,0.0,0.0,0.0,0.0,nm
0.8369430000000051,-16.70673125728961,-8.58208551252689,-25.204251905970974,-0.07218829840300073,0.024839693528031444,0.0636155826880813,0.0,0.0,0.0,0.0,nm
0.8464440000000053,-16.736518806523932,-8.567771638265754,-25.469464272087922,-0.08518254354114191,-0.014512377871920746,0.004477798391134111,-0.001163130219861883,-0.027741624363173116,-0.054327077219506435,0.0,nm
0.8559120000000036,-16.688291186118487,-8.681670378649978,-25.763980210040604,-0.05312203117009158,0.03135084527302554,0.1347174065726762,-0.0008768296799192566,-0.038885425666359066,-0.0578581098841695,0.0,nm
0.8654769999999985,-16.701354682199064,-8.818850055559862,-26.02011750644569,-0.012705439028773063,0.0037589457536697374,0.084221919601081,-0.014468303696326661,-0.03973019577766411,-0.0520002963559581,0.0,nm
0.874992000000006,-16.801663788781344,-9.031775783870742,-26.157700402439932,0.016553018576466592,-0.044535869733947936,0.015473253937034425,-0.02502074533476982,-0.040061910883248106,-0.03092663143370596,0.0,nm
0.8844950000000011,-16.8358832364049,-9.266365877813795,-26.148370824202534,-0.0002914687412563657,0.008924422081453444,0.025709557196360165,-0.029476416574970767,-0.04881588966770334,0.0005326985185477569,0.0,nm
0.8940029999999979,-16.92920081442029,-9.54883717910476,-26.007899462731622,-0.02615465395000077,0.012760941161943816,-0.004895454046438376,-0.046089122367012694,-0.06088403753172054,0.024886889841456535,0.0,nm
0.9035190000000028,-16.873633278743323,-9.820980185130903,-25.839190639936177,-0.08497872059473877,0.11987539942179645,0.039645477470521974,-0.0390453830583022,-0.08609734469079375,0.035439365453129756,0.0,nm
0.931988000000004,-16.172912612834658,-11.267241790972934,-26.19584770067211,-0.24605416445279338,0.1960173732599658,0.1752746609218759,0.013587370423160685,-0.15201698166447825,-0.05299758249269534,0.0,nm
0.941474999999997,-15.612363754721207,-11.810885377961599,-26.725837451770133,-0.24384383773208476,0.10222806400113042,0.2910802785973032,0.05014676761710025,-0.16065389515646833,-0.08388209377521781,0.0,nm
0.9509709999999956,-14.912535332333375,-12.400553958719565,-27.314866547988554,-0.19005725514459082,0.005972644203643402,0.37915826033069006,0.06851137322412207,-0.18162873706421118,-0.08885019366648855,0.0,nm
0.970004000000003,-13.635715303533937,-13.696868866983117,-28.157834218366684,-0.09260077716299887,-0.11217147111859754,0.5696140230153165,0.03911387543304508,-0.17986955011843958,-0.04076505577513943,0.0,nm
0.9795220000000029,-13.248680460624914,-14.290445424615797,-28.28047813309842,-0.09512215373925277,-0.080726617771429,0.6237942904109367,0.010024284215036015,-0.1544841700380808,-0.006248255405180835,0.0,nm
1.027073999999999,-12.77335915516697,-17.472783045238533,-28.240683434188522,-0.3517489474050073,0.19406276577997533,0.6807489263317967,-0.05996077759378921,-0.13787928702288338,-0.03767438814476615,0.0,nm
1.0651199999999932,-13.55358820623485,-20.96248416666494,-29.271104834765794,-0.13198232678075886,0.017361824813459204,0.42676321600573297,-0.15427091730062925,-0.16357635186152084,-0.054131320215461465,0.0,nm
1.074624,-13.906684271551223,-22.062114185164997,-29.320447400163683,-0.12030141605520911,0.03726158469939928,0.30382582422297877,-0.16546642850556575,-0.17402825299505723,-0.03520364762912251,0.0,nm
1.0841350000000034,-14.275157994979242,-23.242468698759392,-29.289503832411302,-0.10967948013390447,0.04823654669233963,0.19575938974338988,-0.1754585131796063,-0.18695459491304786,-0.021407812175477138,0.0,nm
1.1031669999999991,-14.872715684239733,-25.872319545763624,-29.170005256258772,-0.09664895166442833,0.04226395796858187,-0.0936175208183314,-0.17603662488790509,-0.22691936896907136,-0.011558977693433805,0.0,nm
1.1126679999999993,-15.113141731500184,-27.2587385424374,-29.166293506975865,-0.0655439177229193,0.014833053472925678,-0.258615920601031,-0.17342065370593687,-0.23555042371202356,-0.01935714677096397,0.0,nm
1.1319110000000023,-15.531523060677547,-29.990399455784107,-29.242411899587005,0.03188527331215176,-0.07551827546897785,-0.4742387514202726,-0.16481641073441508,-0.231521891840358,-0.027012180197259168,0.0,nm
1.1412540000000035,-15.77330192228105,-31.24628121129304,-29.235165787123513,0.11298585152495529,-0.14355362101688807,-0.5580003042417585,-0.15990211774401386,-0.21313438887834132,-0.02121022667809468,0.0,nm
1.1507660000000044,-16.07020057611244,-32.387359756866154,-29.129943450325282,0.18346812349338332,-0.17660268811456772,-0.6056990395701587,-0.1562710868290909,-0.1888749147810799,-0.008096755966349654,0.0,nm
1.1791220000000067,-17.288792733657765,-35.13980303257037,-28.272053811432077,0.29053469181254327,-0.20923136660932437,-0.8020080139275462,-0.14022647397190588,-0.11886583532078808,0.01561124239948677,0.0,nm
1.198139999999995,-18.11043410726614,-36.29232175759837,-27.907832753815125,0.39309114863959715,-0.28610886352355,-0.9555265688314596,-0.1034840818370095,-0.07495215089334795,-0.0164299567809339,0.0,nm
1.2076469999999944,-18.481366141828484,-36.693556386600804,-27.859016531188594,0.45133196295541145,-0.3348868212481409,-0.9701197145892649,-0.09126294089356812,-0.05692940342160976,-0.03132872207222582,0.0,nm
1.2171620000000019,-18.822724558201067,-36.97006639981056,-27.832186320778042,0.5094093759013231,-0.3686919181834001,-0.9537311704376146,-0.0751943945531015,-0.03721765595764116,-0.0324426799401529,0.0,nm
1.226664999999997,-19.149396851583777,-37.09210282070727,-27.761384982777585,0.5489311858154337,-0.34375906398339146,-0.915319077481039,-0.058575695748882724,-0.011061816617347528,-0.021984579252583493,0.0,nm
1.2361410000000035,-19.58609731122654,-37.06235563621143,-27.5997792846554,0.5782380770619928,-0.3268118479505377,-0.8789630886638758,-0.06001177860860836,0.02390661261674538,-0.017050095177192384,0.0,nm
1.2456549999999993,-20.11700709283818,-36.87819379446299,-27.326518719392936,0.5621603957254286,-0.43688615274645254,-0.9330296204070797,-0.0593431960540718,0.058132018174783945,-0.00582667886807096,0.0,nm
1.2552089999999936,-20.517084592935962,-36.5117484126112,-26.96428414242384,0.4945320549993349,-0.2036540347554187,-0.8488190909169998,-0.024607700895304938,0.08084747202450361,0.028093750895766444,0.0,nm
1.2934240000000017,-20.312615141381848,-33.0658622140113,-26.34657650680367,-0.11668699301388863,0.2040189899895471,-0.4388037981223792,0.19029550358691244,0.1566847479967299,0.04779917555835656,0.0,nm
1.3029559999999947,-19.26039385417177,-31.60123653696676,-26.55724219475144,-0.351963691322122,0.33654765487614946,-0.06361659078552023,0.28958028315760864,0.1693380865860895,0.07325150744800238,0.0,nm
1.3124439999999993,-17.80092974982756,-29.949622715223608,-26.733243923339884,-0.5469302100049257,0.33904255841897846,0.3987666051173169,0.372469219174624,0.16896368850233826,0.11659122696705981,0.0,nm
1.3219540000000052,-15.942229168782948,-28.21805988395304,-26.776119836844686,-0.699925942394044,0.7437647210054217,1.320866588335393,0.44649056708147355,0.14906326316769616,0.1740827079886292,0.0,nm
1.331474,-14.587888691421284,-26.67111781174501,-26.71602092059962,-0.6758663163882381,0.5147352094879617,1.8300639938959669,0.3544875389583656,0.15415191068247108,0.13832912348761692,0.0,nm
1.350476999999998,-13.184103781792786,-25.48757672265754,-26.434926559779132,-0.3306160146899518,0.016031364877491214,2.1251261571128706,0.10753365523339867,-0.026106220971533294,0.07798109041459501,0.0,nm
1.359997000000007,-13.513193828599178,-26.187410858358557,-26.423134110097628,-0.2659039195500314,-0.1820203716673599,1.9003324625717803,-0.11513754016762377,-0.11325482781003977,-0.025351227047455144,0.0,nm
1.379025999999996,-15.121082378035457,-29.51174427998602,-26.80015393245855,-0.3535481710227745,0.10651177027997596,1.3139705518650826,-0.30308423193835154,-0.27890865054749725,-0.13126955904711127,0.0,nm
1.3885319999999979,-16.361130131030453,-31.404498098897612,-27.1757844381646,-0.3979213150794455,0.08542288687390717,0.6437385912646247,-0.3630145987745806,-0.2546279598953655,-0.19896645669985316,0.0,nm
1.3980559999999969,-17.639407935721817,-33.216866241017854,-27.55507509794438,-0.4141662087836057,0.16473570549096972,0.1620814340564745,-0.35953065278882734,-0.2368040807465502,-0.21021643427006942,0.0,nm
1.417067000000003,-20.43936177358697,-36.21708342368904,-27.949053492732602,-0.208985863622778,0.12015602885766295,-0.45556360554680014,-0.3356467037346802,-0.14015046785404922,-0.19038640976053378,0.0,nm
1.426524999999998,-21.747698871752938,-37.1548047338727,-27.907264566493126,-0.016676932832387484,0.1398234210972666,-0.569492580368416,-0.2749086101318754,-0.08114926616186265,-0.14447013035438516,0.0,nm
1.445442,-24.361488662982936,-38.19692840113142,-27.59013504061051,0.425424388927931,-0.22129025432779928,-0.7233138179712895,-0.22193906806958652,0.006888345316159207,-0.12278959645584303,0.0,nm
1.4550590000000057,-25.246099898093508,-38.53588255262382,-27.489729028755857,0.5902769761901039,-0.3543870352115985,-0.7835564608535821,-0.15627407624372128,-0.009350405675379425,-0.08541848972925704,0.0,nm
1.464416,-25.777778146825426,-38.952514000477784,-27.47990607497698,0.73775244217588,-0.27827865316712497,-0.793359725329586,-0.11400205453843971,-0.04901824682997289,-0.0601178226577702,0.0,nm
1.473983000000004,-26.291723505120387,-39.49198617687167,-27.584488729675062,0.7742857767821157,-0.43902331814290135,-0.8982388545195968,-0.12259198077197822,-0.07220470561227538,-0.08134453951431246,0.0,nm
1.4834910000000008,-26.656670335501346,-40.06319903628199,-27.767825601650557,0.7439515256742674,-0.4990856676664418,-0.9792966301846828,-0.10495427259995045,-0.08841832757895247,-0.07869245788511715,0.0,nm
1.4929800000000029,-26.879522317421056,-40.557792387472794,-27.956927327548474,0.6727118967167288,-0.3895569799614335,-0.9809167022449728,-0.07856560389339971,-0.08481877837923683,-0.061884142582072955,0.0,nm
1.502436000000003,-27.12268034890696,-40.860138107173505,-28.089936758128353,0.599504031385644,-0.3176556090817928,-1.002336317646317,-0.0633032380622352,-0.04922960722561802,-0.05347103632379309,0.0,nm
1.5119830000000007,-27.38208153860713,-40.84186295014108,-28.12353245323914,0.5050857070708733,-0.26522627733136417,-1.025011415068462,-0.035243024472358005,0.008636325016156144,-0.03573218706859187,0.0,nm
1.5215000000000032,-27.544359183268533,-40.39323593348622,-28.044904379277735,0.3806206576065763,-0.038831257398165724,-0.9732051158086084,0.018254747149058205,0.07776120123961802,-0.0004322296379968914,0.0,nm
1.5502350000000007,-26.609568708005025,-36.07306591638201,-27.60900180379256,-0.23720042507715408,0.7858126759252893,-0.2904171051565871,0.28926754199100846,0.2783917059482203,0.11486372886893384,0.0,nm
1.5597329999999943,-25.25914114201539,-33.66967050148315,-27.66539884687834,-0.4573582751816599,0.9590660325884433,0.23858161939913836,0.4183284206657268,0.3098837997995109,0.14740345837945903,0.0,nm
1.5692339999999945,-23.307911223176077,-31.139100202427915,-27.78983368867131,-0.5724146024112347,0.9631015420317298,0.8992920644342864,0.5266122738449857,0.2812810463407682,0.18797082339417762,0.0,nm
1.5787409999999937,-20.587985241548736,-28.85778778373855,-27.87290266922113,-0.5333921193575091,0.7817477738146426,1.5188446983362995,0.6295847699741043,0.16975339361583994,0.25842248994107714,0.0,nm
1.588265000000007,-17.5560715398893,-27.226835153694324,-27.856638701147407,-0.24794237707085845,0.9048006755099464,2.581419075576654,0.6258970291324011,0.02413829118825409,0.2906329575974517,0.0,nm
1.6072810000000004,-13.406837761247774,-26.47641823213589,-27.716263105766018,0.15767335964475573,-0.7681674804196026,1.9423036215471032,0.31060410569128805,-0.20126474792436916,0.20402728508366647,0.0,nm
1.6548410000000047,-14.530431273769471,-36.61181089401027,-27.21977825822636,-0.7715260057313053,-0.13624635945426317,-0.11106585760942018,-0.46161947180377305,-0.2954674612479137,-0.19079372003228426,0.0,nm
1.6643689999999935,-16.635513877899157,-38.56589912727422,-27.15450866279732,-0.7110686757113938,0.09451235331117644,-0.49260112600897515,-0.4764862004309148,-0.20929939604763853,-0.2411659601872426,0.0,nm
1.6736839999999944,-19.16937521097368,-40.106305040389046,-27.029220159591556,-0.39412412150435217,0.04901452597385325,-0.8238677910749013,-0.4908142757042066,-0.10957819014330622,-0.2930512551854666,0.0,nm
1.6830149999999975,-21.965258120933584,-41.15707571929068,-26.83383142915394,-0.007242621037927079,-0.12164348437049854,-1.0140118105256117,-0.47544305540388526,-0.008658098827938034,-0.32139596862798925,0.0,nm
1.692539999999994,-24.837268867128802,-41.76602104773005,-26.558815075305155,0.360095105920519,4.531765503837246e-05,-0.958547768152811,-0.44151015872890176,0.0713718896381383,-0.32112367037200396,0.0,nm
1.7020499999999998,-28.040015317118403,-42.10523796548157,-26.24845089970339,0.6591500482150956,-0.36911262010423396,-1.0703221566539571,-0.4595645040762194,0.13825134650696572,-0.36129893871220714,0.0,nm
1.7212490000000003,-33.04849313759603,-42.38445670018769,-25.67088342377104,1.063520353688467,-0.023433672461768508,-1.0614394493915305,-0.3110901881717211,0.11604023039132745,-0.24978983258347956,0.0,nm
1.7401009999999957,-36.97015427902896,-42.44191762728933,-25.58280446201663,1.0024047919203178,-0.35511019450469644,-1.312596869645315,-0.21705290281821593,0.09237408840838106,-0.2078258150196322,0.0,nm
1.7686010000000039,-38.177867927295814,-40.27992296299081,-25.412181371994183,0.29387136866216274,0.4294221689072069,-0.8407556428457045,0.15197104725375324,0.18986650081834153,0.07656473559667065,0.0,nm
1.7783440000000041,-36.886410172237035,-38.43382659709276,-25.283151306485728,-0.004837543883131172,0.8162358019720977,-0.36963216945079047,0.336483284040743,0.23604988457052023,0.19630884146043212,0.0,nm
1.7878220000000056,-34.75007522706369,-36.20908522909299,-25.14664563561718,-0.32280540245802586,0.7799326114872345,0.10447573691230572,0.4955330898940976,0.24532659644168947,0.29268882481402564,0.0,nm
1.7975019999999944,-31.454266024791725,-34.1020317775149,-24.875145813507633,-0.4530758121145221,0.924888768422623,0.7385758453508777,0.6658841430696205,0.14098552288226437,0.4396174531833034,0.0,nm
1.806991999999994,-27.48530961646536,-32.516724873252386,-24.589010017550518,-0.42872683548397394,1.302806477420485,1.7818064986609667,0.7351606813770626,-0.0031644891255466355,0.498106416158351,0.0,nm
1.816512000000003,-23.834021730715442,-31.51038791763583,-24.540756715932087,-0.3760183514987388,0.39460847309362757,2.053454432558065,0.6471431377694301,-0.0882562485095596,0.40083893453568636,0.0,nm
1.8260230000000064,-20.118706315445937,-31.220582143521835,-24.669672689817418,-0.1885317789081586,-0.32695135276680937,1.976452836568587,0.6016367249863211,-0.22565984659689753,0.36425903145323424,0.0,nm
1.835528999999994,-16.72635925255706,-31.842118904611315,-24.848244097593124,-0.0823908982161121,-0.45571480954034627,1.9906080081533093,0.47389906502750917,-0.36948664607495935,0.3217468278906755,0.0,nm
1.8450409999999948,-14.741416324983218,-33.31217134018708,-24.975433848238655,-0.15448303776585,-0.75571608760331,1.68591543462542,0.1801856555311954,-0.42209029344789567,0.19057973222642266,0.0,nm
1.8640759999999972,-13.599850078528503,-37.52848522762655,-24.73794521975701,-0.6202821506877968,-0.44235389574996875,0.8377868019466798,-0.15156290360082936,-0.43914245990545886,0.08016197547238689,0.0,nm
1.8831109999999995,-15.994458953299024,-41.79122471413967,-23.81728507720065,-0.6503498071196255,-0.1922469907093036,-0.42389209797041966,-0.37542868227505855,-0.287703605876865,-0.09479045018375924,0.0,nm
1.8926060000000007,-17.788052289560195,-43.48768598618576,-23.31558470882769,-0.48196907987446497,0.06360211230327655,-0.7122408768011309,-0.3780627544026897,-0.21947176433922902,-0.13926858082006413,0.0,nm
1.9019360000000063,-19.84163592425543,-44.76088401488083,-22.97478689574801,-0.17226670291639473,-0.07768431290309741,-1.0887155379763382,-0.3720089989785229,-0.13200351799922785,-0.2140432607431054,0.0,nm
1.9114990000000063,-21.84993661498467,-45.65373865839744,-22.802637450189163,0.13565974599528316,-0.17916817557400913,-1.1680400777139213,-0.33125360392300474,-0.0679802580161237,-0.24650624086209813,0.0,nm
1.9207930000000033,-23.702909289476338,-46.19455877399042,-22.76172639547384,0.41633033566179073,-0.327418034832444,-1.1889348308755123,-0.28089995617194485,-0.013242654503073974,-0.2536238035632781,0.0,nm
1.9398280000000057,-26.755444394870988,-46.45528671494311,-22.700033998666353,0.8001577075894855,-0.3344935585054847,-1.1168058008287283,-0.18621503319475669,0.060552563864412566,-0.1929740894225343,0.0,nm
1.949350999999993,-28.120216472124405,-46.262438834746995,-22.596796930035985,0.8426084411733213,-0.38139703263626423,-1.1282465600722582,-0.16078093160106088,0.0952483102783066,-0.1716424160180396,0.0,nm
1.9683279999999996,-29.84092929436425,-45.08404385313754,-22.47819781745189,0.6164970350152615,0.0397498471198796,-1.0061266655436754,-0.034476652222399144,0.16091964777217116,-0.08976524353986098,0.0,nm
1.9778299999999973,-30.037946739366596,-43.983492714187115,-22.611942763324105,0.3728332423099974,0.266184696644853,-0.8754279688629094,0.05687826926810016,0.20139569486908915,-0.04880136950610653,0.0,nm
1.997056999999998,-28.440474995422328,-40.60784621840994,-23.268846334625977,-0.2328933347435006,0.776855452649972,-0.2100353304641028,0.30068303160324245,0.26549783082067197,0.079350668293722,0.0,nm
2.006741000000005,-26.65684679759062,-38.52177612704567,-23.630844960606677,-0.4788789151172921,0.9052109411905332,0.39545209044810475,0.4178178919807109,0.2602651859969956,0.1597588344603597,0.0,nm
2.0162399999999963,-24.287969154792034,-36.515023945768235,-23.872353084519915,-0.5369745283195008,0.8082521547666681,1.0234661523924535,0.5055671529168315,0.20263842253178735,0.24469306635293142,0.0,nm
2.0257450000000006,-21.37449423215371,-34.92380249245235,-23.94940604338505,-0.36067167015150303,0.8625777662023686,1.723468957951474,0.5619148773363813,0.08546629437886523,0.3286448812876735,0.0,nm
2.035263999999998,-18.82208498162913,-33.91583421201453,-24.003620387324226,-0.1522407296591719,0.5102920851417664,2.1151882548261387,0.4673623816923628,-0.0008440200875393211,0.2809321994481465,0.0,nm
2.0542779999999965,-14.80398080487413,-34.34503750441975,-24.126323387954564,0.11760045085760473,-0.35815445658943623,1.76671708958163,0.25424916480959464,-0.2715421977733373,0.22037107351209137,0.0,nm
2.0733079999999973,-13.218429550849752,-37.734852405944466,-24.359515642861886,-0.11988670022594822,-0.720229597832062,0.8008130056804326,-0.09878422024898208,-0.40333042984152917,0.02561939250986774,0.0,nm
2.0828190000000006,-12.807970809141473,-40.088881151874,-24.481864622229377,-0.37260185901182596,-0.25998234613759813,0.5781549502484722,-0.1361276555125912,-0.46964723709778794,0.029547741568338556,0.0,nm
2.101836000000006,-13.382206836085096,-44.43630420711285,-24.86057783343476,-0.39053198926145266,-0.30291698364633834,-0.6075938476818441,-0.2263216220478538,-0.3499469585297484,-0.10084705445784121,0.0,nm
2.111175000000003,-13.821202862246425,-46.076689323730236,-25.002865570653913,-0.2804883916200744,-0.16477880872119727,-0.8914709780911415,-0.19461750649218176,-0.2856304929701402,-0.08772004094369032,0.0,nm
2.1206909999999937,-14.494608209255993,-47.32785880445912,-25.06010622242764,-0.04112941198718581,-0.24695524364264393,-1.1006908350582534,-0.1900190699876749,-0.20166711231685716,-0.10616229240025399,0.0,nm
2.130206000000001,-15.282068616624183,-48.093724591203305,-25.065713447266045,0.21540421742440313,-0.35980940542863615,-1.1543257007664214,-0.16146425878583123,-0.10770249002261319,-0.11412815522932887,0.0,nm
2.1397130000000004,-16.041505751354343,-48.39011979347062,-25.061618111058035,0.4475742027112734,-0.44779032222437093,-1.2287569088796586,-0.11740558409395475,-0.024537376022992767,-0.10882571902763842,0.0,nm
2.1587179999999933,-17.60986507502794,-48.29732386574734,-25.08436247540412,0.7576145474510566,-0.6658308571112397,-1.284257772133762,-0.08669441108788524,0.05443166071638644,-0.1214716754219548,0.0,nm
2.168244999999999,-18.176767133035,-47.99876745227088,-25.142320439182765,0.7636073883577651,-0.6101894903511814,-1.2846784228924186,-0.044055873301825754,0.07270859060988984,-0.09207022265488103,0.0,nm
2.177711000000002,-18.599085245165423,-47.506367081622514,-25.22881242867484,0.6641563451623889,-0.40317075789610496,-1.2473245608901111,-0.01039244882913989,0.09986719829843897,-0.07580113378354394,0.0,nm
2.187259999999995,-19.014217363972936,-46.74538020518723,-25.33238417388732,0.45761565097499096,-0.2451314936902875,-1.1984855204640643,0.012996097873035403,0.14839400326688504,-0.07753576731510142,0.0,nm
2.196759,-19.268944512478942,-45.572092199598764,-25.425767613772464,0.12795580831149403,0.13613065729104495,-0.9669211038125661,0.0678583734857147,0.21384943571842133,-0.05141688235408577,0.0,nm
2.2159809999999993,-19.274220774591125,-41.55090794169879,-25.58576221419806,-0.4597980009018856,0.6785056200263248,-0.22146296887079947,0.21251779825602837,0.3950399033988804,0.00394032813771186,0.0,nm
2.225487000000001,-18.834622926354545,-38.85475040880373,-25.611303104741182,-0.6864665090522794,0.9324501490025691,0.44908704250328024,0.2933981179004751,0.4440754991479124,0.05512633047767487,0.0,nm
2.2349810000000048,-18.150230239737844,-36.119980200984415,-25.573684422074955,-0.7709301570783762,0.9599037556688487,1.2032061759358026,0.33436140972881334,0.4330403719918421,0.09396234670504817,0.0,nm
2.254002,-15.683312081533543,-32.01929832426488,-25.34177751231534,-0.22706693340179032,0.7517716985646037,2.4128266109788092,0.37346232778076593,0.18953853785882754,0.19054916782826983,0.0,nm
2.263514999999998,-14.694457173637346,-31.18565000809996,-25.30513631726076,0.06983154925613351,0.24448539135266736,2.428458398791597,0.22422654387809782,0.06467258655828537,0.11292025668177068,0.0,nm
2.2731760000000065,-13.959959838095493,-31.489409475601455,-25.29336883205774,0.28051292374796427,-0.46953719281125045,2.0313329527420954,0.08804181771929831,-0.12276900021294845,0.08054782359593614,0.0,nm
2.2825480000000056,-13.224085722417225,-32.90479199910179,-25.211913938938523,0.21730355961060985,-0.08990996819058492,2.1002714006671703,-0.007597061596688806,-0.323623513986457,0.09653413837628831,0.0,nm
2.3110829999999964,-13.383673140204086,-40.63010980558505,-25.138458443106373,-0.574419479707855,0.07545005019160485,0.3575024949814712,-0.2607987442991492,-0.5215171173236046,-0.008205168865786068,0.0,nm
2.320599999999999,-13.852933630943761,-43.185255877087975,-25.16679582273508,-0.5861550659171703,-0.094306011586618,-0.3471164208102726,-0.2807113512480345,-0.44733048961155664,-0.065538194695689,0.0,nm
2.339584000000002,-14.97500396151247,-46.81083062742838,-25.23833569056434,-0.34876084794869905,-0.08276993460633285,-0.9814094168462072,-0.21574668481476988,-0.2573350016738208,-0.09687748856237871,0.0,nm
2.348934,-15.770869199653506,-47.780138634653696,-25.259680335120283,0.025035062645659,-0.28803641118317624,-1.155904914710046,-0.1810483936244692,-0.14316669712886834,-0.11770911921938274,0.0,nm
2.367987999999997,-17.616945247411753,-48.47812409529104,-25.2009229559541,0.7042214638902168,-0.513801258450253,-1.123794653385359,-0.14028265866768497,0.002767025505016935,-0.13498916486248314,0.0,nm
2.3774580000000043,-18.834835637840435,-48.61435942946719,-25.118704657065226,0.9060559138678166,-0.6874545169873014,-1.1365417113978535,-0.1587174346573763,0.030424826486034163,-0.16209185578016755,0.0,nm
2.386934999999994,-19.97911739646899,-48.698108480651335,-25.032759375282915,0.9926799107428598,-0.8472235642398941,-1.246215345084987,-0.1453540309166835,0.03550576313997735,-0.15041404146323792,0.0,nm
2.3963210000000004,-20.79081954795462,-48.7405260218525,-24.956538982946014,0.905249220393415,-0.567507197999644,-1.3059930109297866,-0.10204056750893611,0.02420934641409858,-0.1023549990434249,0.0,nm
2.4060479999999984,-21.529364531684553,-48.71328422812984,-24.95021200039509,0.7511993362016192,-0.38169295682670706,-1.3976416621226202,-0.08751893799691211,0.032747381118424956,-0.10524926175950167,0.0,nm
2.415594999999996,-22.069519635287268,-48.429794075270394,-25.070081759830494,0.5536810247307773,-0.24600707909987582,-1.4838792218110688,-0.04231822745421981,0.0683857778014846,-0.10039965042390513,0.0,nm
2.4251000000000005,-22.205050388510355,-47.6768693251257,-25.327983869048072,0.2256029479223598,0.17958597263072318,-1.2947167931646033,0.046295648762455455,0.13082821604526315,-0.06714681887101069,0.0,nm
2.4345339999999993,-21.97106287666681,-46.27765791528661,-25.719999338696706,-0.10417126753238039,0.5938738940287214,-0.8867078299461016,0.14814370071760413,0.2257054513890914,-0.03968150315961654,0.0,nm
2.444231000000002,-21.30994606653,-44.12443048963842,-26.187600770820048,-0.3377831072805281,0.8010597139240213,-0.4121204567149837,0.27127934753864513,0.3334014223526708,0.004621880486878867,0.0,nm
2.453738999999999,-20.225210778805092,-41.398960533985466,-26.549441715465456,-0.5360528608693765,0.9821200720125448,0.2133354568543726,0.38422341602255916,0.4045247649669536,0.07894688947028163,0.0,nm
2.463234,-18.870668393086813,-38.56650165993596,-26.629843321157576,-0.705777857017088,1.0993197743985508,1.0807729776236752,0.43898927659010956,0.40037511473739146,0.16160590366789582,0.0,nm
2.491769000000005,-13.410288336496905,-33.172975562363206,-25.70087482524113,0.15279902215602334,0.3413743116025889,2.6576664190841317,0.38473357865538693,0.024015643113149118,0.29474038672029873,0.0,nm
2.5012779999999992,-12.25651564838635,-33.568160159532205,-25.30652326301335,0.3919502556552637,-0.591955435279605,2.1545998078454094,0.1406897198733022,-0.16859925977012252,0.2076653478815409,0.0,nm
2.510794000000004,-11.443462970698773,-35.27021993208268,-24.908369806254953,0.14504870253271251,-0.1642935432758158,2.240189994731298,-0.022224919714863928,-0.3797064276003896,0.17340231317037857,0.0,nm
2.520309999999995,-11.255093304266504,-37.60072468652123,-24.959685893645787,-0.24421168145374722,-0.4666358702033295,1.1795445034051193,-0.16850580857064187,-0.4500380640235316,0.014006739005380126,0.0,nm
2.5393260000000026,-9.999383427704656,-43.42258672709787,-26.35844906255402,-0.8536932705615298,0.10070986530073714,0.27568449204668904,-0.17131848972083089,-0.5949423418500389,-0.08511713182474946,0.0,nm
2.5488069999999965,-9.94468984979576,-45.9188301466112,-27.42369400481656,-0.7907130773418712,-0.26575942373063016,-0.484124107476728,-0.2191627236660088,-0.46331430520760125,-0.20298300664111138,0.0,nm
2.5581669999999974,-10.11686102816856,-47.73673909787793,-28.219920318840934,-0.6651658826813692,-0.266241563837322,-0.9106057062268905,-0.19108065957838488,-0.32486535641706016,-0.1817416991527667,0.0,nm
2.5676830000000024,-10.96761446454098,-48.995141930752375,-28.430923113480073,-0.3477956123638616,-0.2035858938064766,-1.0205475379081366,-0.2197475996176959,-0.1819741025139828,-0.1664821946417742,0.0,nm
2.5771940000000058,-12.702165839201019,-49.67728754019442,-28.050072387776154,0.1509479154115805,-0.5282103539846583,-1.1025306572980138,-0.26478519575258275,-0.027007811440423288,-0.18378566313110176,0.0,nm
2.5866999999999933,-14.63238039189748,-49.73725389332131,-27.351228417646638,0.5503572774895287,-0.5338898984243755,-1.1326516642548212,-0.22779228206810584,0.09187625708164819,-0.1511576695336846,0.0,nm
2.5962240000000065,-16.633516773136755,-49.51905547255968,-26.70348633965575,0.8260365494310279,-0.4151655264736957,-1.1100646487918286,-0.21241949633029766,0.14327313534716243,-0.1715911846364905,0.0,nm
2.6152330000000035,-20.1145802030013,-49.28405659986371,-26.611640208762836,1.0015613425144883,-0.7729325328523584,-1.4409893930328406,-0.15620516281351962,0.07925174750174714,-0.24317398339968646,0.0,nm
2.6343509999999952,-21.056326940531417,-48.946205544147354,-28.254381848443074,0.6923605592714862,-0.37763063305386696,-1.5604479556743185,-0.028592834740730273,0.054553293581587524,-0.2529207692481711,0.0,nm
2.6438639999999936,-20.96543148442031,-48.32986943462682,-29.094329885801567,0.3997384791975733,-0.14223407860138915,-1.3973814278822325,0.06754333991162015,0.08926118382432559,-0.14998784505085216,0.0,nm
2.653293000000005,-20.54182493905785,-46.970962824142724,-29.55954534815421,0.009565744972088052,0.4484636223485967,-0.9792681301213577,0.18093117302051093,0.1959389685472809,-0.026060395009745854,0.0,nm
2.663004000000001,-20.169292115888105,-44.74729815329881,-29.546694079135335,-0.369056952558698,0.6316729740010123,-0.48325651866839137,0.2628642470315128,0.3483023243495505,0.06029108412338254,0.0,nm
2.672499000000002,-19.424683131253257,-41.81272098752218,-29.06856447115217,-0.693754188540916,0.9417056864656735,0.23903896624433327,0.3807554294057392,0.44568972483429026,0.20176518747232275,0.0,nm
2.681988000000004,-18.282953922531142,-38.62566248849305,-28.323571780651708,-0.9526466870058138,1.1270388601151948,1.1540813957096157,0.4585278064153889,0.4621943587046351,0.30009436003537115,0.0,nm
2.6914919999999967,-16.50009698409569,-35.73038053962445,-27.544393139532627,-1.028357414736786,0.9536095713569952,2.036505577227703,0.5223994590347062,0.36497965197626436,0.37443099153996007,0.0,nm
2.7009979999999985,-14.31431682667862,-33.50379479648493,-26.99496048562989,-0.6472536981927707,0.8357062874244644,3.1051965425130326,0.5244154783897262,0.21715834992161495,0.3606907704261663,0.0,nm
2.710519000000005,-12.650490204699581,-31.896399148074188,-26.871220834251677,-0.15869326097760975,-0.2848074380005047,2.6233441743717423,0.3959700324603232,0.14582769453181826,0.20630416743515687,0.0,nm
2.7200189999999935,-11.325699519606868,-31.603747812063585,-26.851034770836602,0.13504613383604747,-0.5632582042024304,2.2002318712714466,0.22811041814216115,-0.0637911185366829,0.14486863358721216,0.0,nm
2.7295490000000058,-11.241076338742902,-32.93815750453508,-26.882201232542695,0.1167054214853374,-0.2845834144043604,2.289833484239581,-0.1076088765675619,-0.2589764257043593,0.004159150395000412,0.0,nm
2.7485709999999983,-12.6979177155351,-37.63087885030928,-27.697378046441507,-0.25485393622023395,0.036660171236222665,0.9379554067119393,-0.3218554373479914,-0.44429426015761964,-0.15985257684883367,0.0,nm
2.758082999999999,-13.726130582187269,-40.78919151291379,-28.228365566789435,-0.35655260256478744,0.24287182720215922,0.38118255769942727,-0.4380345618801873,-0.49773140788121306,-0.23384958877941045,0.0,nm
2.7675859999999943,-15.017988431667254,-43.7521136228489,-28.699436118986338,-0.2995069159117536,-0.13087673754678605,-0.42192764870555793,-0.452073394879211,-0.44415925459742756,-0.2651956836733181,0.0,nm
2.7769210000000015,-15.963455196484821,-46.0733677195834,-28.939425255630997,-0.22751523565247586,0.07536604602990292,-0.9043111340531299,-0.34286256778759083,-0.3563189425140207,-0.17821700756094508,0.0,nm
2.7865050000000053,-17.255826730905866,-47.86029177227895,-28.870532989932247,-0.05840891353532957,6.02517750693586e-05,-1.3963870360607569,-0.32915661803729857,-0.24145224694763645,-0.1715012109373853,0.0,nm
2.805526999999998,-19.803841343747376,-49.907897726730376,-28.278954268477303,0.4536572304964706,-0.3679989849639188,-1.5304155686989174,-0.17805670750538927,-0.077565251131968,-0.08649607001044958,0.0,nm
2.815061,-20.376335117661604,-50.13521426474106,-28.32963343530874,0.7647222808265922,-0.355272010636705,-1.5043434362899841,-0.08851859542607539,-0.01843889287407437,-0.09342599126047359,0.0,nm
2.833976000000007,-20.366290177813063,-50.43473368146724,-29.31266775588382,1.100613962434682,-0.7683434820532595,-1.4391855889001504,0.023236486550285148,-0.06420633123428711,-0.05757619045466721,0.0,nm
2.843447999999995,-19.60056200799815,-50.45968516927605,-30.068311962097933,1.0436287662457937,-0.6452567845929593,-1.3962486175018054,0.07994670053489222,-0.06594919600485943,-0.02859085560270207,0.0,nm
2.8529649999999975,-18.70550447840138,-50.26586850919606,-30.779467961080904,0.7894752018254766,-0.6116435469233407,-1.5185320048538213,0.11583406450763552,-0.03771944954794992,-1.4699730619795371e-05,0.0,nm
2.862590999999995,-17.602048924068303,-49.792135473328635,-31.219160428022832,0.36202418767004263,-0.10066693382275674,-1.283557676039456,0.16822396982711224,-0.005160982559511975,0.08547467510153023,0.0,nm
2.8720320000000044,-16.531490983673173,-48.67427666762329,-31.46084895539419,-0.1343272770606536,0.32317502115102076,-0.9849826071079275,0.2338658137661909,0.10490846828958683,0.11791778225753033,0.0,nm
2.881553999999994,-15.44577828753324,-46.692864777682516,-31.567855910506168,-0.5334899256636018,0.4831545658919198,-0.7275734118780034,0.3303162073157605,0.24814118630251109,0.14296874958407363,0.0,nm
2.891244999999998,-14.217949864108785,-44.07131514829206,-31.52618440037497,-0.8746087756906339,0.7880768489818305,-0.09378054754985934,0.4202958734835757,0.3432576618806054,0.18655162446631288,0.0,nm
2.900735999999995,-12.980168118963894,-41.145642045601996,-31.41341681947428,-1.0170566393958367,0.7665504411302154,0.676005158695771,0.4602385198921821,0.39053809709283,0.1930622065014759,0.0,nm
2.9102450000000033,-11.50403065934328,-38.234443973320076,-31.285635866639122,-0.9925008422900521,0.9456840408244104,1.6404087183567087,0.49667206429521227,0.36546163332532583,0.2164617391755131,0.0,nm
2.9292489999999987,-10.430587643646875,-33.79610318209596,-31.26922408952769,-0.1562589029934997,-0.22591265393352822,2.3133121271646946,0.22871274724718815,0.2946023398033985,0.022383920154789447,0.0,nm
2.9387650000000036,-10.309783040282467,-32.835070937684655,-31.20322875161523,0.3271351115329195,-0.20202373691532574,2.2848997913532108,0.11649906073027357,0.13992284684968864,0.027702548951770354,0.0,nm
2.9482770000000045,-11.17089395596632,-33.23455138479601,-31.083214170074765,0.4323742950041112,-0.4608304703085597,1.7574795304689321,-0.1657589754584561,-0.007824088790007944,-0.06858428501434205,0.0,nm
2.9578029999999984,-12.37075402245584,-34.749050314670605,-30.947016194554216,0.3066828438816392,-0.39454349064569744,1.4297082692217826,-0.32781220165074676,-0.17133015050967415,-0.10530092244675925,0.0,nm
2.9673080000000027,-13.528783240322307,-36.878234389038134,-30.88385136093522,0.029091252755909288,0.12894868863500167,1.1341250094735746,-0.38140305342891684,-0.2831564360212938,-0.12086261495983226,0.0,nm
2.986350999999999,-15.95504311655869,-42.10644066517622,-31.054581295254312,-0.2480317220922505,0.09505059531062615,-0.1456131184065982,-0.4139881051515166,-0.3862716085675987,-0.1614818956086711,0.0,nm
2.9958429999999936,-16.760042390036133,-44.45453248133657,-31.221317426455194,-0.30655955661810025,0.15921650576122898,-0.6794550255500297,-0.3454766432285426,-0.3554084516583984,-0.1404207737009111,0.0,nm
3.0147580000000005,-18.57557940980521,-47.811454970851585,-31.11172539647274,0.043914246146120925,-0.2411312164057928,-1.1938825768287868,-0.25649905952076846,-0.1868925713644599,-0.10048374759761411,0.0,nm
3.024291000000005,-19.705327752077153,-48.54203047450831,-30.774953254542144,0.26903127612707256,-0.3256191498444512,-1.2583826003390506,-0.2070475211041022,-0.06121502350613599,-0.09682358712951,0.0,nm
3.043261000000001,-22.687584795338932,-48.62605543353605,-29.929269545002338,0.5785622017350193,-0.6586078852473684,-1.4031089756009238,-0.1630780095091637,0.11006491208245392,-0.1412209768300109,0.0,nm
3.0527660000000054,-23.9562951050981,-48.184121491888504,-29.759467975404302,0.655477693983326,-0.549643415332913,-1.3672435116027426,-0.10504006238569817,0.14767703288141962,-0.15102703927951466,0.0,nm
3.0622840000000053,-24.826576546568667,-47.428899412297376,-30.030691495341582,0.6648812928374299,-0.4516984304861965,-1.4320661034551598,-0.029014961721056415,0.17650505762650792,-0.1783649929632508,0.0,nm
3.0717700000000008,-25.198004055027905,-46.46559181420295,-30.74250374414293,0.6069861521319321,-0.2587795917794042,-1.371047071162582,0.050714416883274556,0.17918609960279896,-0.19182662315199023,0.0,nm
3.0812600000000003,-24.990055137763107,-45.273319967766234,-31.8015985725735,0.4880055715819171,-0.01207694973374493,-1.1919307267157129,0.1455328955654784,0.17610492884307327,-0.17723283846929969,0.0,nm
3.0907650000000046,-24.12356676865596,-43.7015324081172,-33.04087952591625,0.2973491554302579,0.27378291787976583,-0.9161473370839783,0.2699914103437698,0.1863324028964782,-0.1218415143186463,0.0,nm
3.109938999999997,-20.566428272676497,-39.253915664097654,-34.88380399651164,-0.3037071794239568,1.093820019636275,0.2858832164462861,0.5264254389514469,0.20954774454471606,0.12500481764738686,0.0,nm
3.119485999999995,-18.181691291816072,-36.654959484196326,-35.01768964308911,-0.6063837597409812,1.315643762566824,1.1775229283438466,0.6041646234665232,0.19716373366639753,0.2700064650684709,0.0,nm
3.128985,-15.488440151502987,-34.095936665962626,-34.64921656816542,-0.7180050313726152,1.1747224580627118,2.05994087004131,0.6515525731374179,0.15548267035399418,0.38833424125270694,0.0,nm
3.1384919999999994,-12.368852015815726,-31.969833863418135,-33.94032244850046,-0.5432201080662213,0.6438098244568491,2.454128177464859,0.6710519821849141,0.04249245201786984,0.4839495974877974,0.0,nm
3.1480009999999936,-9.254840428500838,-30.634963951628254,-33.18481412081748,-0.2472335878170606,0.5807167222233003,2.900744311719806,0.5908356732387535,-0.08603963450842579,0.4759748261388307,0.0,nm
3.1575150000000036,-7.453867620604321,-30.48591648214264,-32.65448284579052,-0.10670279295472448,-0.6760372361349913,2.3593399561511244,0.2763432166102483,-0.1579077565783578,0.2899270836120689,0.0,nm
3.167170999999996,-5.792187311152636,-31.540449502522645,-32.32035853132731,0.09657348094834174,-0.7586091917468134,2.1685914804911217,0.1268683093347161,-0.3454867071529291,0.2385362643896754,0.0,nm
3.176536999999996,-5.025496259200918,-33.38194137161777,-32.3736953194546,-0.021605517826396237,-0.5852947686599861,1.698329473042572,-0.08805052118614744,-0.3950373530194011,0.07201266010628789,0.0,nm
3.1860539999999986,-5.174885933528016,-35.90608765068957,-32.871340944786226,-0.24478286527879933,-0.8652778509816916,0.5952528018859652,-0.2935859051642929,-0.42663020547630476,-0.11601056840417215,0.0,nm
3.195569000000006,-5.208474385689574,-38.97437746401443,-33.60907298051694,-0.49374904681050796,-0.2882018207126566,0.4623650206299778,-0.34186019621534214,-0.5251184616734371,-0.15076225487681702,0.0,nm
3.205096999999995,-5.9123894050896215,-41.89303206169561,-34.422319468864806,-0.5896487642697423,-0.017194646851263512,-0.05178288132260337,-0.41686459931134123,-0.438515194105357,-0.252744532136977,0.0,nm
3.2144190000000066,-7.380874636621817,-44.23625105738609,-35.02325739956814,-0.46048989353335235,-0.30632187830077157,-1.0759763306616172,-0.4452560273270025,-0.2772648180353376,-0.31910367580116505,0.0,nm
3.2335120000000046,-11.642183234263701,-47.54009658854045,-34.50071621601288,0.011702633030809304,-0.10220087990376955,-1.4644122141423945,-0.43638642410132317,-0.04345905308745001,-0.2491226815991195,0.0,nm
3.262057999999996,-19.772646794395055,-47.406826055967514,-32.427046860704685,0.8215572560009995,-0.33808317284073275,-1.6647513619228367,-0.19471478114642407,0.22379275442060068,-0.2192576002396861,0.0,nm
3.2714710000000053,-21.571714844709053,-46.78066025669395,-32.4915637507702,0.9683554285741485,-0.329138277587165,-1.566477243882592,-0.14264039322706484,0.22429622832091442,-0.2722843537046774,0.0,nm
3.280976999999993,-22.747417291316303,-45.9417296489858,-33.087265311767574,0.9646946979076925,-0.5534830519603623,-1.5795718371105834,-0.04883986995268029,0.21619501571319377,-0.28502750724514153,0.0,nm
3.2905039999999985,-22.994588740514335,-44.89951802318973,-33.87892953337708,0.8696715907590906,-0.15289507925606516,-1.3127684719636605,0.08279170754828195,0.18024076116915966,-0.18917498130632923,0.0,nm
3.3000140000000044,-22.86733007627682,-43.6024671269908,-34.542841784891465,0.6364502351884456,0.11888640136242103,-1.0378950382874514,0.15770870819109853,0.19150448223911903,-0.11067014800231229,0.0,nm
3.3097039999999964,-22.2964092148054,-41.851979436544234,-34.83912877798474,0.27914068368993655,0.42665942588831,-0.6060058044739535,0.2652560615048382,0.2272788297036386,0.022508321357919463,0.0,nm
3.3192109999999957,-21.086574923966033,-39.511831328203,-34.693546127334685,-0.12181496404421811,1.0070025621061305,0.03572359508828521,0.4151574088192196,0.2668303081969481,0.19094619090691672,0.0,nm
3.3382289999999983,-17.19604586446388,-34.24685141229493,-33.462342977816256,-0.7901753606267226,1.372547384702119,1.6204940918477224,0.5885662756545862,0.20998482034200766,0.4064788090628506,0.0,nm
3.357248999999996,-10.934984999291528,-31.245954399703688,-32.5759039406325,-0.31573941680127215,0.834497725670988,3.0201626962214174,0.5860352164514923,-0.13995892147966948,0.4013162475628889,0.0,nm
3.366894000000002,-8.625522700738843,-30.971929783332566,-32.91448853651138,-0.037443665531777484,-0.5647475467803243,2.3919142137126577,0.36192250276935095,-0.18218438992762329,0.1718004153055111,0.0,nm
3.3762629999999945,-6.325745779159083,-31.80706926575311,-33.49855544880303,0.15584298840175542,-0.9085484059446906,1.9066709495421923,0.23670443016700998,-0.36937599619291944,0.1232501575492238,0.0,nm
3.385740999999996,-4.954616798699565,-33.781931149713124,-34.20522599985364,-0.09001701368749215,-0.44469580028112776,2.0668324521625943,-0.02924337542753942,-0.47115473602547675,0.007555390785461255,0.0,nm
3.395294000000007,-4.756112494914565,-36.254297048574976,-35.064307187326776,-0.2597963538963224,-1.0409613465234726,0.7659624387711489,-0.2554482712441768,-0.44001761930721095,-0.14858280194344545,0.0,nm
3.4048099999999977,-4.253409866724741,-38.96909694099369,-35.830689138825136,-0.588741155889112,-0.1737324617076055,0.5990893357293925,-0.25131866293575605,-0.5032592793460581,-0.09112606410923145,0.0,nm
3.4143100000000004,-4.660064535340636,-41.775106794194954,-36.490602217503344,-0.653687291180004,0.11489527378255662,0.041540572662884176,-0.38292015591254247,-0.4311421437779897,-0.18358251595177738,0.0,nm
3.423646000000005,-5.837132275265171,-44.21377396264056,-36.979113378588615,-0.4725549867001242,-0.31694249925624235,-1.0386433741495205,-0.4318845298454637,-0.3022357069424213,-0.25677588004468915,0.0,nm
3.433380999999997,-6.871423111721095,-46.19324397177499,-37.14996535144705,-0.2592470536662734,-0.05112103718716537,-1.2740954730659015,-0.357246421294604,-0.24225424578325636,-0.1790132870289723,0.0,nm
3.442745000000002,-8.342318979401107,-47.68867823283591,-37.06894687977509,0.0626601043611606,-0.1981795041846126,-1.5809950824949013,-0.343195155988539,-0.1312805541642607,-0.1964214766366569,0.0,nm
3.4522819999999967,-10.060832806324713,-48.65769266372701,-36.8054290972762,0.3879594095748546,-0.5492011654844681,-1.616849538011233,-0.30242605248927573,-0.030874436705591927,-0.20073335146766869,0.0,nm
3.480659000000003,-14.600559357083538,-48.71045040049653,-35.75597617618297,0.8900228837148734,-0.7997992094730292,-1.5648734471054044,-0.11548676526487284,0.13598774679129172,-0.12399086238079747,0.0,nm
3.4902270000000044,-15.889376843800951,-48.20274916309571,-35.36923701031462,0.799404157398406,-0.5180876335074885,-1.4441726351058108,-0.08301775377895461,0.16886431746141825,-0.1119394449109964,0.0,nm
3.4998219999999947,-17.109779755667237,-47.35084373777899,-35.042064467087926,0.6844027636981576,-0.44122685745637624,-1.513092024684362,-0.03881177323541655,0.2207318927708197,-0.11156693670034414,0.0,nm
3.5187739999999934,-18.509052453615947,-44.25398793393273,-34.524057384842926,0.10070609073582046,0.37377545947147883,-1.1828792011430111,0.14002900498122017,0.3231025194377077,-0.02057547698365646,0.0,nm
3.5282760000000053,-18.571201690504623,-41.891815559916026,-34.30280406527935,-0.20491011892882066,0.752203423721553,-0.7053201082109817,0.25713506814206166,0.3819174356552793,0.039462844431329906,0.0,nm
3.5474530000000044,-17.181838110891164,-35.81235220246765,-33.79391290664655,-0.6174414317940754,1.1527744534362703,0.7005540925506254,0.4705851736848571,0.4290293200891327,0.17261461665771938,0.0,nm
3.5569749999999942,-15.897629274352933,-32.92027632931214,-33.35771871286641,-0.6322915727000056,1.0704467825465098,1.562512251432208,0.49537177759844464,0.35116894950674005,0.2347757755087759,0.0,nm
3.5761360000000053,-11.883053914968855,-29.0057904947805,-32.33083774533528,-0.1026281967916952,0.6591259762168639,2.8963112912067093,0.5070544973509707,0.04768249958398508,0.327497005841147,0.0,nm
3.595016000000001,-9.697004212086238,-29.107866930569752,-31.70584295929175,0.01901130757279316,-0.5136476830428858,2.4304721989448135,0.06658165249111694,-0.21632536358213275,0.14487400343617154,0.0,nm
3.6045199999999937,-9.001771774840835,-30.64410937812377,-31.63596513630518,-0.11689857649440012,-0.18599172929925564,2.052592119023281,-0.05927055654685897,-0.3393716592278725,0.08400334588567755,0.0,nm
3.6140330000000063,-9.11497144043273,-32.91677421272239,-31.850272572944558,-0.3920616628789623,-0.2792066666431697,1.136651016881311,-0.2564135503651172,-0.3910372454218768,-0.05389552790958265,0.0,nm
3.623551000000006,-9.302167015377536,-35.73782826551676,-32.229440897669434,-0.5439321568157842,-0.029620024465373183,0.7787251193788214,-0.32669887974691847,-0.47655805181140404,-0.0957369748265176,0.0,nm
3.6330540000000013,-9.626313261600941,-38.387629438547016,-32.733415734788174,-0.6320847111624947,0.31240414177396264,0.3805276699610172,-0.32965184108578666,-0.43385998650396856,-0.1383391773723738,0.0,nm
3.661420000000007,-11.788726244711588,-44.02673684325789,-33.73418929350894,0.09970198772609574,0.03005727674544732,-0.9685653847119788,-0.2650749582633363,-0.19889998509208756,-0.13254952743661877,0.0,nm
3.6708809999999943,-12.925350223252359,-44.96543848822069,-33.76119348500511,0.463979242721106,-0.49310470405121687,-1.3240331034259336,-0.24136721982356776,-0.07985752171162123,-0.16195664034723162,0.0,nm
3.689949999999996,-13.881391524869127,-46.03262647417459,-33.61741651727375,0.9905293737508607,-0.5360645429245549,-1.3507968856105639,-0.07931612324619601,-0.07554214985042683,-0.011801862772109862,0.0,nm
3.6996149999999943,-14.116584327697002,-46.3475007751613,-33.7173001971221,1.0836380907881527,-0.8559827994424908,-1.5269279071556574,-0.06426703225179169,-0.048042100502749,-0.05067600065909613,0.0,nm
3.708958999999993,-13.797488088581865,-46.48343187665653,-33.93815989987326,1.0365113837010518,-0.882145013558476,-1.6197369626329114,0.019253014044157434,-0.06077787699813969,0.005342710142265928,0.0,nm
3.718492999999995,-13.099992549512988,-46.44456319114043,-34.158640119176205,0.8408735729495482,-0.521491692085369,-1.472440547855146,0.08193983579304184,-0.0610905083286951,0.060285643612043784,0.0,nm
3.728036000000003,-12.541679139977226,-46.09664647974989,-34.26276302166352,0.5648114021844306,-0.5103232857723187,-1.4580162170422584,0.10102815165832411,0.00045167399650368093,0.06300726618568211,0.0,nm
3.7375899999999973,-11.940834141719504,-45.21942858862153,-34.09820012420171,0.20949377633866983,-0.17519695715388267,-1.2683595090106612,0.16638027864777497,0.08430079095960206,0.12190049865569376,0.0,nm
3.7470210000000037,-11.573088780426048,-43.72506444429396,-33.63555821616255,-0.21077657361488725,0.18675891889833862,-0.919226274169873,0.20875239929643502,0.20534243258962584,0.1469203150046428,0.0,nm
3.7566929999999985,-11.441262905793081,-41.645410390187116,-32.94111057162249,-0.5342859346085298,0.2984690733189178,-0.5322151611299218,0.24341903369122397,0.3235454929143796,0.15939195785048252,0.0,nm
3.785230999999996,-10.368000513457039,-33.975060698549704,-30.898013032760804,-0.9058114303324959,0.9127271494967709,1.8489427256931315,0.2996016198202236,0.37623947727785734,0.14170841645334104,0.0,nm
3.7947340000000054,-10.545000661969596,-32.105349365836794,-30.694269756451206,-0.6154572631902181,0.35370727077082936,2.4417860030425738,0.16569858806921867,0.32267472073893094,0.022640450552333918,0.0,nm
3.804248000000001,-10.690288918097352,-30.813640183185093,-30.739671709824826,-0.14197852267794653,0.17002770897336783,2.4258729662445555,0.11030796984646654,0.2208898618704408,-0.023239486386940657,0.0,nm
3.813906000000003,-11.478226867072378,-30.675493855617187,-30.877180148973995,0.139822254890682,0.15424218847871587,2.405635385205595,-0.10290579406573268,0.07906908516240432,-0.1070433997011017,0.0,nm
3.823273999999998,-12.756416960108526,-31.889842832269558,-30.964079124517777,0.270093992356886,-0.16117549435622266,1.8844995549255397,-0.3134034468274812,-0.11029893518754104,-0.14879621847825075,0.0,nm
3.832780999999997,-13.63176989526086,-33.76329091941614,-31.041720357713192,0.31140900516154063,0.12393577712230623,1.2906366953264712,-0.3204618835844121,-0.2597249380500878,-0.1087008987870203,0.0,nm
3.8422960000000046,-14.550214874286642,-36.06743116406299,-31.144585365973875,0.004038369598891881,0.3308277889002292,0.6831141415593682,-0.36861510123918606,-0.3311803675200568,-0.12359078717739436,0.0,nm
3.8706499999999977,-15.207125188055498,-43.45886327867663,-31.467367527943658,-0.23652840147217452,0.20815675830451577,-0.8509762205959586,-0.17822687099952303,-0.3910167749945945,0.002160288134056226,0.0,nm
3.899339999999995,-13.504003253584726,-46.98485430619113,-32.31529585002033,0.4067490005068639,-0.5788703495988111,-1.1990931120815012,-0.006520612811430333,-0.17719233333433318,0.04431492667926003,0.0,nm
3.908738999999997,-13.076210882816198,-47.29026182456575,-32.390476948658694,0.5946681397233505,-0.7963323894220053,-1.2401079216876383,0.014754274459845626,-0.0965627290799988,0.050990996048740585,0.0,nm
3.918211999999997,-12.823705374512201,-47.381046017100324,-32.25423458480994,0.6923147768066417,-0.8821132760324092,-1.2949411746954234,0.01756441624260919,-0.047416699614551104,0.0676951808915854,0.0,nm
3.92774,-12.772269522941725,-47.300442548374996,-31.96948056799946,0.6983596220284686,-0.8422622107471812,-1.339431071360485,0.012903757782371305,-0.0037825764266624547,0.06781700108316391,0.0,nm
3.9372199999999964,-12.803669606455488,-46.96801599265634,-31.68062833913019,0.5769722277896384,-0.7157980731732959,-1.4499310949887676,0.029962584849196436,0.04505950533328113,0.056431252661387404,0.0,nm
3.9562939999999998,-12.77117156417876,-45.367752330709855,-31.524269326270176,0.14936509799124906,-0.26309477152865024,-1.4076811327213634,0.10689648342419832,0.15008898920181218,0.007361483908569396,0.0,nm
3.9657959999999974,-12.62188364947704,-43.88757810277264,-31.67528327189702,-0.11798917193327911,0.0021975405469940976,-1.149346872156658,0.17209021533104976,0.22747212753907184,-0.006361400438259373,0.0,nm
3.9754449999999935,-12.39243456030477,-41.794823198060385,-31.822017924511425,-0.4422825915483646,0.2898275093065727,-0.673102527776562,0.24790621323280143,0.32474339597553187,0.004489535710863052,0.0,nm
3.984955999999997,-12.08576028860247,-39.10324077161544,-31.78205977693649,-0.7830482946709654,0.5982344094092454,-0.026365138134658305,0.3226510477596176,0.4194694281146352,0.05012832737952257,0.0,nm
4.003970999999993,-11.542754530798648,-32.50082433491267,-30.97352852742996,-1.1411454264167968,1.0606026618479416,1.8029304962029449,0.3897231441622588,0.5589484323065218,0.1253911630856414,0.0,nm
4.023144000000002,-11.351094008033002,-26.449986085699607,-29.96635010851107,-0.35594617707387954,0.5166063441603376,2.493953312595698,0.2602764226002853,0.44564551730609653,0.09350479592970258,0.0,nm
4.032498000000004,-11.671322546129213,-24.807877126145506,-29.62444716989833,0.2294263004772612,0.17219851526498112,2.5593226434812357,0.11297874971877313,0.2998862269284492,0.04122888191226804,0.0,nm
4.042005000000003,-12.250554807817936,-24.344225992741197,-29.48744741515121,0.6665305516180143,-0.23623897599554164,2.121314944892688,-0.04621938317617186,0.1185998359623595,-0.02025231147937697,0.0,nm
4.051523000000003,-12.720740598785737,-25.232758891617532,-29.629010102745898,0.8769672630763311,-0.34869517553304896,1.5479843242299185,-0.16247671027851104,-0.1267782319124356,-0.06708307980837565,0.0,nm
4.070555999999996,-12.987227629325886,-29.745601920751202,-30.769042496284904,0.3289471298999326,0.0052467925776302025,0.6905565212879621,-0.27488881401275966,-0.45856229246091895,-0.13763476584679665,0.0,nm
4.080059000000006,-13.040753778855478,-32.83977045440484,-31.428973950588446,-0.049651530462684106,0.03993826154188449,0.21230164699180623,-0.3288566956768154,-0.5398811164682187,-0.13603901559421827,0.0,nm
4.089585,-12.824108444682688,-35.71114817091413,-31.986778206845027,-0.3973750528119797,0.21127149782353183,-0.2777609033747351,-0.27287273952875624,-0.5220217184954611,-0.08531321757703396,0.0,nm
4.108412000000001,-12.638023894270846,-39.72405142357078,-32.43372828053611,-0.4931220849739728,0.10661176958487736,-1.2321744520433544,-0.1960617365347562,-0.305116125997275,-0.019886419049568893,0.0,nm
4.1464500000000015,-13.762074720271025,-41.10511132818806,-32.10826871568781,0.8123843677710074,-0.8312577885352656,-1.2950609326536364,-0.04497939317239557,-0.00046590080006965115,-0.03240871329658405,0.0,nm
4.155963,-14.125082909425576,-41.07206357827703,-32.18044977459311,0.825972646449519,-0.8283640923535992,-1.1338256284171198,-0.04443775674717245,0.020914500630572576,-0.05944661419850911,0.0,nm
4.1654900000000055,-14.444345611057905,-40.810583085397234,-32.269871523342935,0.6706847086206627,-0.6493099739969209,-1.1309474758951699,-0.014556744548333394,0.05622118645108345,-0.05698834565209,0.0,nm
4.174999999999997,-14.879758592372088,-40.36609378243945,-32.28575359852943,0.41796065209652,-0.2639650057883035,-1.0432975398955429,-0.010116219564454403,0.09679721166172746,-0.05706575568096871,0.0,nm
4.194013999999996,-16.07991480392352,-38.23148297612701,-32.15786238021137,-0.16478379169851015,0.23235748236965625,-0.8919782014379686,0.07899377673352469,0.2583011042075289,-0.042565327380112705,0.0,nm
4.203716,-16.187208910265223,-36.23297884999125,-32.038948258717504,-0.43075729072164626,0.8528175730927249,-0.4338522983500625,0.19655521222236977,0.33425088692855526,0.013476659768794702,0.0,nm
4.213226000000006,-16.087805514813187,-33.750630533439725,-31.889872441392566,-0.6047323361698508,1.0801323415096808,0.14401875079394294,0.27552012769548945,0.3991537718654753,0.043656453723285985,0.0,nm
4.222707,-15.351810746096149,-30.920531068317576,-31.710840266340828,-0.6456839650696939,1.1559503599139096,0.8962104917195834,0.40322426641729725,0.4019973394651116,0.11662980530837568,0.0,nm
4.241742000000002,-11.988566144991175,-25.836769050355095,-31.344850702385568,-0.34562898540768516,0.4129252875581457,1.9975725614761162,0.5200299122545318,0.18935758267852887,0.20974813788812063,0.0,nm
4.251244,-9.263381846232283,-24.660262317042434,-31.108769133745923,0.18834270978830644,0.1375004215122301,2.483531199271709,0.543815301861023,-0.06866275179706145,0.2800432934649753,0.0,nm
4.260750999999999,-7.153186461535465,-24.504945377661276,-30.97993116660734,0.42425032238656507,-0.18324937509878847,2.658853074035737,0.3451383450409146,-0.18571216645139993,0.20114759089918657,0.0,nm
4.2702680000000015,-6.109129784990891,-25.5180136965769,-30.91228607028275,0.5246066190038816,-1.1886909120639029,1.6385799406770756,0.058201763444904075,-0.28560009551539534,0.10142430197502068,0.0,nm
4.279787999999996,-5.199613852282737,-27.67433954126893,-30.837452947814224,0.2469684135823768,-0.6037863937344424,1.8294650414456015,-0.081631640155638,-0.46836728707908404,0.09610372293539814,0.0,nm
4.289292000000003,-5.194903050333197,-30.534474557784762,-31.00549609825327,-0.17929395289930955,-0.612890058187601,1.000661402641398,-0.29346959121678523,-0.5059553736129988,-0.03324239598905572,0.0,nm
4.298804000000004,-5.348972317502143,-33.76067586982909,-31.40210112438853,-0.5065793206238902,-0.38854384337919823,0.46041447005264147,-0.357050710415297,-0.5532382821402575,-0.09543574731561819,0.0,nm
4.317639999999997,-6.539623879780834,-39.464023766524384,-32.72090381381304,-0.6785135809392046,-0.019441379834273197,-0.8396782543317477,-0.4013975745058573,-0.3810111293028117,-0.2558540309410041,0.0,nm
4.327163999999996,-7.570040193648927,-41.6781217981062,-33.353203647636846,-0.48693428795601007,-0.08925631501162579,-1.2478699958058928,-0.3740600706552948,-0.3002914791072869,-0.25906096862402395,0.0,nm
4.348607999999999,-10.43362070000452,-44.43252378997507,-33.88837982854334,0.27379455968224886,-0.2467454783926583,-1.3673964362407827,-0.31725396823152785,-0.05698606958091536,-0.25687753513130535,0.0,nm
4.355812999999998,-12.394020435421687,-45.0274345238178,-33.890598928341674,0.6382969630629356,-0.5035347739616253,-1.5243851808139275,-0.29983226136473257,0.04285094660903375,-0.2738125621358373,0.0,nm
4.365215000000006,-14.279564695915857,-45.49749116487756,-33.82677614323312,0.9293954798022008,-0.8064324575030346,-1.6486084260726066,-0.27531529737906535,0.05625236284908093,-0.2521800781342215,0.0,nm
4.374744000000007,-15.660331373734447,-45.85819778935065,-33.847741515327336,1.0445710067032339,-0.507076795863401,-1.585381192873189,-0.20309379384195125,0.03402556555434208,-0.19851058866461213,0.0,nm
4.384248999999997,-16.852190269859253,-46.01811775283554,-34.12687150992181,0.9616444449746923,-0.44744467154146594,-1.75935146223188,-0.15818432019864134,0.052783706012489176,-0.223694791904125,0.0,nm
4.393758000000005,-17.53157377517301,-45.947255792091816,-34.593863140558135,0.7489985788601985,-0.3741381677957924,-1.9100991193957457,-0.07289439037521231,0.05169613974995662,-0.18753844060951363,0.0,nm
4.403293000000005,-17.489190779602925,-45.44111316399656,-35.120677324936736,0.4597684279928171,0.16763592727266258,-1.7148157295414286,0.05984087091436265,0.06641858046421907,-0.09564913991009522,0.0,nm
4.422196999999997,-16.3042873344472,-42.0197864255107,-35.911191442663785,-0.28495803359707184,0.8505769418912423,-1.0487056065526306,0.3452229219870061,0.26862049820731626,0.05501859176867719,0.0,nm
4.4319090000000045,-15.027570786391324,-38.98976738491875,-35.878130163514854,-0.6028599700306894,1.271905399873901,-0.17581370936377755,0.5107334253460798,0.3638279598041838,0.17547958931920923,0.0,nm
4.441485,-13.448558842609525,-35.24511802973478,-35.55035747720015,-0.8437312633687504,1.3181227064690204,0.7536687302790731,0.640372431259823,0.447705815694253,0.2585563010128114,0.0,nm
4.451004999999995,-11.422183498325367,-31.32813260575789,-34.953543121339806,-0.9415167737238369,1.1291814232460313,1.65008717736668,0.7281287469621923,0.43059726247863067,0.34347122679785025,0.0,nm
4.460507000000007,-8.949531915577378,-28.010593425664613,-34.204087518520396,-0.7888268426151293,0.537016679401439,2.487552225461828,0.7301612180006714,0.2885312561882315,0.39552581181116186,0.0,nm
4.470015000000004,-5.922814378523533,-25.728967254898006,-33.46133620601698,-0.2002543203716629,0.21825868992093203,3.142921920694973,0.702886281896375,0.06421133668412994,0.4221335157784649,0.0,nm
4.4890649999999965,-2.247552608410169,-24.915463039390644,-32.483371881080494,0.5059217947772094,-1.304439430002508,2.326048498043017,0.18757203983950874,-0.23082587196270776,0.2179189141275358,0.0,nm
4.527142999999995,-3.5376823575222947,-35.15251334597041,-33.83549307649639,-0.8529848149833518,0.2920239163536445,0.49716925946798146,-0.442333165469047,-0.4673800373084093,-0.28005886215784426,0.0,nm
4.536609999999996,-4.948303692596308,-37.604868999689586,-34.9727484651662,-0.7757836405823536,-0.004382739875928231,-0.474747242391018,-0.46601002896609106,-0.290805641481263,-0.39442402240162766,0.0,nm
4.5649509999999935,-11.129014106429088,-41.55189744445427,-35.483357738226914,0.23448978480009988,-0.2037706094614298,-1.039987367780436,-0.42179639152399906,0.10898061345914396,-0.27065286531024324,0.0,nm
4.583978000000002,-15.867687407233639,-41.15958986658376,-33.99450903635179,1.0232367873444719,-0.43299688466814157,-1.2473861287298433,-0.22130770894211702,0.21051583427008913,-0.1178182176335156,0.0,nm
4.5934819999999945,-17.698838400505505,-40.98335898479726,-33.62565002663053,1.1945376248768387,-0.5306486301380046,-1.3589371716594372,-0.21243916424074585,0.16954388568690118,-0.16368234988483238,0.0,nm
4.602994999999993,-18.890283134847664,-40.928862755790284,-33.81968497427073,1.1943483468274567,-0.6757087907787975,-1.4805541615209563,-0.14639815392349165,0.09560755394626483,-0.19167973219731155,0.0,nm
4.622009000000006,-18.96189767479639,-40.69879748867216,-35.41843631603614,0.7149717135682995,-0.06259793322064564,-1.3825839888148546,0.03716837766691117,-0.0018873560733194854,-0.1558095053041039,0.0,nm
4.631546,-18.404814675954906,-40.13702719654398,-36.19339180048215,0.3195122452047627,0.2036311693325134,-1.196623882455369,0.13163424865000456,0.028112635089233066,-0.07943285061807735,0.0,nm
4.650745000000001,-16.344339914236443,-36.52647226431902,-36.476140313717934,-0.4621107987956992,1.0698279818809189,-0.11734667073982256,0.4076212411832558,0.24826349365842318,0.15652249959131007,0.0,nm
4.660240000000002,-14.908200932683599,-33.501890662166325,-35.981259628949935,-0.7830024821936403,1.275938546311873,0.6493152273776751,0.5456464938081952,0.3354765368411916,0.2662579458635579,0.0,nm
4.679258000000004,-10.257854060600575,-27.61392915397372,-34.74310539986247,-0.9142080834040343,0.7411587529833294,2.137310362090085,0.6784389397434751,0.15695309013499817,0.3682651361527355,0.0,nm
4.688766000000001,-6.837575514309128,-25.923740969947854,-34.52469420081644,-0.33038494703559523,0.4752411829246063,2.9576526916131294,0.694501438736752,-0.08331336298954972,0.35190192834603634,0.0,nm
4.7077699999999965,-2.2725728661660543,-25.70321973540316,-35.35657977448428,0.39600270262317444,-1.504108985216197,2.1549893684292014,0.23326905147469218,-0.3127762856511848,0.06766969367560798,0.0,nm
4.717320999999998,-1.1117171224023719,-27.826005385630246,-35.81211081559069,0.2245804071977389,-0.814683449400534,2.5806020173979,-0.0791170926478345,-0.48060660321110593,0.012331147702060341,0.0,nm
4.726832999999999,-1.7099412470685589,-30.701519565772454,-36.38486736336289,-0.18282268690354514,-1.13927990939702,0.9445087008251473,-0.4244589659792726,-0.4178460064718346,-0.17388775820947638,0.0,nm
4.745858999999996,-2.528493171649912,-37.5401743699347,-37.8397057949755,-0.9614847224919797,0.557509293244255,0.3906257448654486,-0.5010845574342168,-0.5018496591780945,-0.2304864796750512,0.0,nm
4.767267000000004,-5.6089506587809845,-42.63629746278557,-39.42552429453323,-0.7901331944633617,0.3595353974245112,-1.3172533984910137,-0.44043510108954637,-0.2234940125781819,-0.32143354951844416,0.0,nm
4.774190000000004,-7.381754506530224,-44.15668976339773,-39.794774289763055,-0.40633603935333534,0.5368563823179388,-1.2914245070337875,-0.39537740559413453,-0.08390330632716916,-0.3158206755770656,0.0,nm
4.793186000000006,-12.557033127554138,-44.90637701489116,-39.64935963900483,0.614407278140669,-0.7224182880021133,-1.4996362731586306,-0.2805607894200703,0.2137756573651278,-0.31205393737801385,0.0,nm
4.802633,-14.605919802979237,-44.69135292085359,-39.25701775400178,1.096746678827236,-0.4514924024469296,-1.147225925107533,-0.20090155618877503,0.2048483861836369,-0.20729833532431122,0.0,nm
4.831175999999999,-19.891450988281782,-44.86736665927193,-38.73294247435449,1.2916096875618037,-0.3932996943880523,-1.4398505964388453,-0.15107025517867437,0.051727708093222406,-0.14804951422123713,0.0,nm
4.850296999999998,-20.942687475632045,-45.16530172294399,-39.10938663024745,0.7079255924730683,-0.01623416096383645,-1.696827660825699,-0.03077230611042435,0.0009327070477998013,-0.06848568434400253,0.0,nm
4.859802000000002,-20.418084370400905,-44.58591425981667,-39.27202360477486,0.40369958719658494,0.6105044824591085,-1.4767335121872578,0.1267715597002359,0.029980900043076485,0.0457085336477898,0.0,nm
4.878715999999997,-17.890808725211926,-40.80709224904431,-39.05591273985922,-0.2531321845950976,1.244107287592301,-0.5119512900050234,0.476170081538553,0.20286918471683904,0.26288953570188883,0.0,nm
4.888411000000005,-15.813408584143522,-37.674956972060194,-38.546751800165836,-0.5020414536932174,1.4268709091934664,0.34605597196892113,0.6409401339028612,0.2732685993954044,0.36789513028361714,0.0,nm
4.898000999999994,-13.240822844692143,-34.1873955230987,-37.78107410748962,-0.7042356593044836,1.2887569564340708,1.1470691122947407,0.7569402444750042,0.27738399719388956,0.45754303140050717,0.0,nm
4.9075109999999995,-10.095588074657785,-31.06195661388307,-36.823688375313516,-0.8292586666209121,0.8753358589003032,1.9220662607826267,0.7993203012030726,0.1621739187198353,0.5322068233210887,0.0,nm
4.917019999999994,-6.204923424232261,-28.881498661378917,-35.795300123007785,-0.5516023563791664,0.4838199905652194,2.59679059525786,0.8012085743499643,-0.0621127835727946,0.5950372515041402,0.0,nm
4.948026999999996,1.7350802247637056,-29.031274997838512,-34.43709203223505,-0.10172216201509882,-0.9703921723390112,2.4853646651820966,0.14465308746708844,-0.46638541299763836,0.23808315929387797,0.0,nm
4.955098000000007,1.9307282105574715,-31.518298517784633,-34.70210032852322,-0.35308264518409643,-1.0189977806225208,1.7669050345391981,-0.2545514785035602,-0.44343911265023145,-0.03448063438315499,0.0,nm
4.974123000000006,1.2581329111098654,-37.66149795389721,-36.50712381655143,-0.9940990860004763,0.048801073016493786,0.8527043997936816,-0.409826521873616,-0.5087446291879307,-0.24227554090243839,0.0,nm
4.992988999999994,-2.43815693106873,-42.8707128798554,-38.68593281635858,-0.7741347715785449,-0.1422694193094017,-1.001212289797368,-0.5260987372836797,-0.18780810139002463,-0.4615146710126806,0.0,nm
5.004949999999994,-4.734414370261796,-44.73473004753513,-39.04606172401611,-0.5109030097288301,0.3904904820722411,-0.9524961028423908,-0.4945842112916126,-0.09631274381356333,-0.3887087999444273,0.0,nm
5.0120859999999965,-8.148198098481261,-46.03495816181869,-38.811465335364396,-0.04974487259357475,0.03921649931958629,-1.1339452147151299,-0.5395363205273217,0.0854053609150728,-0.43730136961244226,0.0,nm
5.021388000000002,-11.949291076651594,-46.524457256677195,-38.17978794832249,0.41316178744489696,-0.3409784777429193,-1.249995267501041,-0.4756172995406666,0.23716959218022002,-0.4206464400554095,0.0,nm
5.030917000000002,-15.362132237204763,-46.48089930260981,-37.49322595902992,0.8340036026937239,-0.4822901404387062,-1.3210838738035577,-0.3693926673225877,0.2820474679204934,-0.35477029018955697,0.0,nm
5.049923000000007,-21.011516085901864,-46.507794577249285,-37.10101059929915,1.326738851274128,-0.6434947089414896,-1.4644994243057958,-0.30952480745923977,0.19505395984299603,-0.392987223169887,0.0,nm
5.071389999999994,-23.874439693152876,-46.74949351810064,-38.39431364678323,1.1341486548293214,-0.2174230438486737,-1.576091085698885,-0.12849900441521886,0.061213925176824,-0.3019124067333958,0.0,nm
5.097425000000001,-24.069289657868524,-43.739134584342175,-39.573396695190446,0.3153060438592476,0.7119774862428977,-1.1118456734210735,0.28987616381179165,0.2376140163287995,0.06613812954702286,0.0,nm
5.106989999999996,-22.87256203850662,-40.7996666365448,-39.23781877088802,-0.03899052939236274,1.0604964457014245,-0.5681241361122987,0.5063964413862903,0.3293696783519501,0.23269702210393195,0.0,nm
5.116664,-20.794232332307164,-37.213586598721854,-38.568880686236724,-0.428831117096234,1.4411565622634994,0.2997586951719478,0.6989358843877775,0.3424201325043813,0.3995220837422705,0.0,nm
5.126170999999999,-17.76942467987568,-33.58358572504712,-37.690299880090535,-0.6905102558563767,1.4641403110935496,1.230103297853773,0.8341566283871281,0.25314552626234726,0.5294769732506481,0.0,nm
5.135690999999994,-13.706303533503656,-30.481551911988007,-36.81777823300055,-0.8564041404342344,1.057904608428418,2.0512579673000855,0.9226882034359724,0.06270459679274581,0.6078096276982805,0.0,nm
5.147746999999995,-8.895096011314081,-28.292408887749218,-36.1767577441879,-0.6177351987751132,0.7915110482977267,3.138623092232914,0.9338935384665276,-0.1612494412638122,0.601467504528173,0.0,nm
5.164293999999998,-1.0168826548480185,-27.07467083940924,-36.08132004068938,-0.07207112714173304,-1.5470769747560014,2.3019821997067784,0.5479301552137398,-0.4231107117275709,0.33256798951474514,0.0,nm
5.183342999999994,2.2036456161267597,-31.275439898091236,-36.576345215051575,-0.35806554387998835,-1.423160399548881,1.4958852756478362,-0.24487110604860995,-0.4649591739558309,-0.03256401724919679,0.0,nm
5.202370000000002,2.029977527059651,-37.662143001222596,-37.997617993359576,-1.0496052810700673,0.10344838103821333,0.8329210150024892,-0.45323911889388807,-0.5206539786604989,-0.2011097591708327,0.0,nm
5.221249,-1.4786337177780975,-43.10707904156898,-39.583150581321455,-0.7297836645026342,0.10737080468949428,-1.0095353669142637,-0.5121524904771214,-0.21301764270145146,-0.3729337397493853,0.0,nm
5.230746999999994,-3.762698317244376,-45.07587543195494,-39.79256573285932,-0.424226568711565,0.4563489641580798,-1.0846603404762896,-0.5065586745822204,-0.10753905525353592,-0.3586097179325065,0.0,nm
5.2427140000000065,-7.1031673286635275,-46.51011325548946,-39.53380021993373,0.017584406546157973,-0.04188738209379529,-1.295558603806061,-0.5448174595412764,0.06285978588303331,-0.4254523988853312,0.0,nm
5.249769000000001,-10.498372759954249,-47.123808727932946,-38.88949405821627,0.4574186522988084,-0.50577101953516,-1.4577009597957757,-0.44103703902818664,0.18531247426495986,-0.3639124359426555,0.0,nm
5.259215999999995,-13.455526307800305,-47.25260176493842,-38.088947979124626,0.8454726721828165,-0.24657176337213915,-1.3045544429060547,-0.334169496963905,0.21680644144048594,-0.2708110185622607,0.0,nm
5.278167999999994,-19.30892658272487,-47.616051221351135,-37.09628884128666,1.21128973559551,-0.720656101863228,-1.4589589919692032,-0.32490344471453003,0.17387157141087287,-0.33119975469710583,0.0,nm
5.287678999999997,-21.212304642717996,-47.817360862685035,-37.172776240770226,1.1752075540803357,-0.3277191286105493,-1.481199549518406,-0.23283900843146754,0.10983633855831051,-0.2927866865041623,0.0,nm
5.325810000000004,-24.865593413861287,-45.41959492639955,-39.13007336318708,0.3281078492242527,0.5740702588397617,-1.3947485239771238,0.17433052351498146,0.27020507337589805,-0.1186052932516518,0.0,nm
5.335250000000002,-24.50652082619606,-42.80960587575915,-39.322167365016774,0.11618100468278808,0.8036982458708996,-0.953074661454813,0.3658895287378054,0.35965202431792825,0.016340653467065865,0.0,nm
5.354431000000005,-21.3545316023624,-35.74241799231959,-38.83133017269461,-0.2684824180951081,1.2451510477043979,0.609651672753813,0.7039617459818394,0.3700274704892645,0.31946990179560997,0.0,nm
5.3639399999999995,-18.466818339753555,-32.18569388633625,-38.13237161521244,-0.4795360587940421,1.096893579419624,1.341381480062096,0.8154428244579492,0.24534697196408964,0.46569749922937265,0.0,nm
5.392548000000005,-5.709545212946944,-25.96343212226974,-35.6428606393596,-0.6819102892797583,-0.3625481217382743,2.6629621777759174,0.7139156518273924,-0.24553294551020308,0.4800136879639283,0.0,nm
5.411574000000002,1.4041438389606276,-27.91127317594392,-35.61047828111389,-0.37191131960012946,-1.0675780529011987,2.6766769976881197,0.27197765245993916,-0.6201754516758313,0.2528284103497515,0.0,nm
5.449654999999993,0.19987881546881953,-39.77442617415305,-38.04862763826042,-0.830473922933243,-0.1613617178517207,0.2213679505435191,-0.65123730897566,-0.3330980730594771,-0.3333828214496766,0.0,nm
5.459005000000005,-2.6073165847126636,-42.301864719836466,-38.02244013943649,-0.6861284956733377,0.15163936804307063,-0.7447005939469071,-0.6470981844686393,-0.15139947496621703,-0.3628202456166752,0.0,nm
5.497029999999995,-16.681098997113164,-47.44096002247235,-36.5731854730391,0.8948820291747138,-0.0387636938165456,-1.592122452030913,-0.3530184761435074,0.16627334408934982,-0.40585773100796096,0.0,nm
5.506432000000004,-19.44550638444527,-47.70698047671302,-36.913787139795176,1.209281383649878,-0.45003065496913136,-1.7036818684720403,-0.33489705504342426,0.16772302743730627,-0.4725752113991734,0.0,nm
5.515936999999994,-21.733130795650446,-48.07998740162651,-37.47468403020852,1.3170088186121651,-0.7647826941829081,-1.712657066535252,-0.29406705633144486,0.1134483810957173,-0.4475666055837584,0.0,nm
5.527904000000007,-23.288161562497653,-48.27446401752505,-38.15997440645828,1.3127286184925169,-0.3952273096381439,-1.5508565127558418,-0.19251463094493826,0.08403736831353618,-0.3644202892326728,0.0,nm
5.534953999999999,-24.64151329383976,-48.09358085776414,-38.829328574059666,1.167170683126131,-0.41551807615535713,-1.6948663626640832,-0.12377433077558288,0.12849698663122272,-0.33095121742242645,0.0,nm
5.5445179999999965,-25.684575917163077,-47.479098039441574,-39.18085341670493,0.9440762309703582,-0.22874661028841808,-1.7153098133862905,-0.036658717015499026,0.17173496168062383,-0.21989694065360266,0.0,nm
5.554072000000005,-26.329325240363772,-46.24727401051836,-39.16734113535587,0.7329538180561747,0.2984626488017715,-1.4629982843989566,0.08235741617461227,0.23477476564896926,-0.08627767225799633,0.0,nm
5.563479999999998,-26.53393104460948,-44.17041813783656,-38.977862981121376,0.4144118974420198,0.48714530765405417,-1.2372713398607929,0.23487248430799224,0.32874408983452796,0.014011711945668052,0.0,nm
5.573001000000005,-25.80788696325723,-41.30751667537722,-38.65972782218332,0.12681937259822723,0.8988965392358139,-0.7192350997409963,0.43806251593146023,0.3671413759815247,0.16721513621399867,0.0,nm
5.592202999999998,-21.77202165164167,-34.586095298146866,-37.55633685667159,-0.5304259230322074,1.1332379524158693,0.8191914416672978,0.7289031336468431,0.2802885608551224,0.42272733320299855,0.0,nm
5.601702000000003,-17.993741097788995,-31.536605623800238,-36.732523037120465,-0.7934814570508513,1.1502618819361488,1.7216226562841344,0.8713611647396196,0.08995600402963536,0.5801970730313936,0.0,nm
5.613685000000004,-13.307676241967695,-29.2509031397723,-35.86340946066988,-0.8680043749232709,1.2032349677770457,2.89231841362683,0.9212261158869148,-0.12451210922185456,0.6500796463980631,0.0,nm
5.620722999999998,-9.000479390793288,-27.956814564591692,-35.20223982948176,-0.8735482794253081,0.1271780565694924,3.067579664821104,0.7654312343322522,-0.24344885268394603,0.545631516466094,0.0,nm
5.639826999999997,-1.3949100193062192,-29.13364590180922,-34.71774879332243,-0.25440981326602125,-1.2363958263454142,2.6323471489179107,0.369169446192948,-0.5834988954720411,0.36582909125380125,0.0,nm
5.651822999999993,0.13875711487671272,-31.666484424465178,-34.7644104446701,-0.39184456186868316,-1.1434276097842604,2.447011550144348,-0.071428152233618,-0.5818934126300366,0.14522645040627177,0.0,nm
5.6588760000000065,-0.082368548584114,-34.68303421062818,-35.019100683060046,-0.5510258840757698,-1.4790596454966007,0.878613733586071,-0.3761068460621681,-0.48846469721864605,-0.07561679461345486,0.0,nm
5.668392999999995,-0.4258753674889627,-38.060085615591156,-35.33607143296574,-0.8975103422209677,-0.4460582526654625,0.8526325689133055,-0.4351680993129166,-0.5350388875788161,-0.10412888878985528,0.0,nm
5.677903000000001,-2.1190613860789087,-41.32555910874839,-35.69072037265163,-0.9560326735680492,0.0954077908324235,0.16645600986581663,-0.5928953515931512,-0.3948332254501782,-0.2867373124160428,0.0,nm
5.696709999999996,-7.69527467542476,-46.016736121364865,-36.0333484436104,-0.44740649472434807,0.31279396190431946,-1.3021107408003223,-0.5648108012183695,-0.11282450318157464,-0.4059116758962,0.0,nm
5.706280000000007,-11.17931134064609,-47.42325885063131,-35.95509160956137,-0.06340198432186936,0.4355748680333844,-1.4217744859993993,-0.5547878105703363,0.03958565080748331,-0.489305400918944,0.0,nm
5.715812999999997,-15.027105991151783,-48.02078614600621,-35.915104318968204,0.43268137675253854,-0.45502146517769904,-1.7800640774175256,-0.4928105820613009,0.19392851457349766,-0.5584917972464676,0.0,nm
5.7253259999999955,-17.872455492735803,-47.882719760913055,-36.00229434605966,0.8367039258352482,-0.1918900104460154,-1.6571741178789479,-0.2960027256996488,0.2332597078305476,-0.43652925066644405,0.0,nm
5.744198999999995,-23.077097068628554,-46.829194396497044,-36.97291156535389,1.302832704460091,-0.7961069744573395,-1.6953768490338808,-0.20830915976457892,0.2856498685180172,-0.4868664011169084,0.0,nm
5.753702000000004,-24.507332506765277,-46.10993787040646,-37.700065178070474,1.3924904650246992,-0.4569895214352807,-1.457015750588509,-0.07398444536922215,0.22162122187242983,-0.34832786399107096,0.0,nm
5.772722999999999,-26.18893321491218,-44.01433097433128,-39.053938003844834,1.032052596526965,-0.297007549872158,-1.4270283580205676,0.06309358480137335,0.23141058361603514,-0.2085137736495218,0.0,nm
5.782224999999997,-25.997966890394366,-42.467053348268,-39.1959205946665,0.72852723343418,0.33366397738233,-1.0237542342734574,0.2123875616250864,0.2103299736877141,0.0026884112276027382,0.0,nm
5.791754999999995,-25.12742327162713,-40.256086732630806,-38.95786022624393,0.32428255805860856,0.7925554268710433,-0.5848037714806492,0.3762128707173698,0.24853022907658448,0.16748687722174802,0.0,nm
5.801433000000003,-23.520083262501593,-37.41297113744168,-38.3336630113923,-0.23367051049315096,0.9687127330945977,-0.17740825929367743,0.5473996222859029,0.2750253805959531,0.3309305785505285,0.0,nm
5.8109560000000045,-20.839447250692256,-34.41977755774098,-37.27128206176316,-0.7075602641770133,1.3278276018552257,0.5923788376804234,0.707585055398262,0.19359655329765815,0.530925578590477,0.0,nm
5.832419000000002,-12.688500088313578,-29.91698634342349,-34.93318484307647,-1.1409735899459021,1.2070772381388588,2.4450599071820314,0.8470186955734614,-0.14249883318384854,0.6677391920412963,0.0,nm
5.839554000000007,-8.307758235650244,-28.69932725730613,-34.4599470041069,-0.9795049165988342,0.14573595059316993,2.399001263205889,0.7665722683583269,-0.2492208776762083,0.5244593463307429,0.0,nm
5.849061000000006,-4.371652847717833,-28.56248429807119,-34.524844994687506,-0.6417742629140377,-0.7427932582546263,2.5706423960339224,0.5850452311710693,-0.3833680043428553,0.364238712170106,0.0,nm
5.858566999999994,-1.3509307243297848,-29.482669237544496,-34.91128364197472,-0.1602305531938485,-1.4888816540799565,2.2941975461256168,0.32947664737482957,-0.4668311367684011,0.21522259575948244,0.0,nm
5.880090999999993,-0.5529383309901558,-33.98804409790629,-35.46128868807786,-0.3120421888893496,-1.3924942848159991,1.0493419141246314,-0.3845345264933732,-0.38200073077166313,-0.10534476151360136,0.0,nm
5.887140000000002,-1.791192172320007,-37.15238967540627,-35.42598428110257,-0.6097712874069502,-0.6843816164865066,0.7816911900741734,-0.5322878485271194,-0.41343618891247275,-0.13696598959993933,0.0,nm
5.8966470000000015,-3.9778148038808467,-40.23214021632332,-35.21103183383636,-0.8701919039301625,0.2757331421125328,0.4463733732645839,-0.6361970564032986,-0.3197051127736755,-0.22974897993588494,0.0,nm
5.906009999999995,-7.273539018675993,-42.644451423606455,-35.018966014265594,-0.7304207620284973,0.19992800505001743,-0.7825022645235226,-0.6838418179110421,-0.12446523859780678,-0.3965471226479652,0.0,nm
5.915447,-10.478473833579512,-44.527159641170485,-34.90130875350806,-0.49660348375673646,0.37823725704995925,-1.3556095590612143,-0.5988121069670893,-0.056380763340493335,-0.4164053449912569,0.0,nm
5.936933999999994,-17.07709251925471,-46.5785627658451,-35.3926286771383,0.3594242629734139,-0.2393911507077774,-1.582295204873352,-0.4548843931821282,0.1443432397313311,-0.5593936674865654,0.0,nm
5.944013999999996,-19.464748102072384,-46.5263768137864,-36.014147446368796,0.8039900020683769,-0.21912611692371112,-1.4917045946570728,-0.2644096538258403,0.18726129328510874,-0.46741294963938246,0.0,nm
5.953423000000001,-21.701186616734116,-46.23439346847057,-36.642356853987145,1.2029453315582133,-0.32693801226375074,-1.34555423707431,-0.21819324361609668,0.21724821180147402,-0.4455148985428445,0.0,nm
5.972442999999998,-25.23749834264619,-45.269806142835364,-37.588369307644555,1.487005181149725,-0.5518197940336033,-1.2747039833137566,-0.08887269122086028,0.19897362004139024,-0.2773438732155942,0.0,nm
5.981954000000002,-26.209766161066536,-44.45983327423601,-37.92389420119617,1.423936471986855,-0.42055108309284095,-1.4080189494783173,-0.014417215767295547,0.20029781508627514,-0.19945929148646263,0.0,nm
6.000988000000007,-26.51856853278683,-42.24162457946044,-38.07327898438102,0.8127338582951554,0.26589786361987783,-1.2555297950417537,0.1780719117237502,0.16484410980775643,0.03862894996129056,0.0,nm
6.010480000000001,-25.490745161254466,-40.42362729500909,-37.9764546295699,0.33158131738343166,0.672000509452917,-0.9505738720756589,0.34171565286570377,0.1788525168624332,0.1600031949737534,0.0,nm
6.022452999999999,-23.585815866014816,-38.02204437584453,-37.71016993956169,-0.20291422494172376,1.0391139986707059,-0.4525311938841117,0.5245192745892093,0.18540573314810888,0.29870500363490904,0.0,nm
6.029687999999993,-20.803921957186585,-35.29320818756378,-37.16143567078449,-0.6708367198522719,1.3423691257794617,0.3503847790081025,0.6836780538552116,0.14874750223522631,0.445884768929853,0.0,nm
6.039197999999999,-17.13836807380949,-32.54721530333835,-36.4000027784979,-1.0029581568899288,1.2987909258870374,1.201140530118072,0.8144190849944484,0.06178854445367726,0.5645137462058974,0.0,nm
6.077310999999995,-2.083153589394426,-28.039608051411808,-34.711088848674024,-0.26429470472431726,-1.2861671855262709,2.349684156338723,0.39882049138530423,-0.32685765423701957,0.27409254756968354,0.0,nm
6.0868289999999945,-0.5424851520465297,-29.615426367028416,-34.73769265143795,-0.15219825431933925,-1.2300495643028524,2.3234857232303803,0.04220628374065652,-0.4274641886591631,0.1424270154014465,0.0,nm
6.105883000000006,-1.8031139524617514,-35.11639966262929,-34.88752775223026,-0.42290258319547225,-0.8708105696671665,0.8896507296795865,-0.46752991423883933,-0.39639849679905753,-0.12818576120065045,0.0,nm
6.115388999999993,-3.236936025517668,-38.26049170509191,-35.04143516058869,-0.7140056821933758,0.06622862822733204,0.6408706611127725,-0.55013347639528,-0.3981597415164145,-0.20176904336534818,0.0,nm
6.124911999999995,-5.600045312246805,-41.27022967442126,-35.32922829377274,-0.6485054090897975,0.13314608605242392,-0.3028522188478377,-0.6456780289098809,-0.29699566536808225,-0.35895905285496066,0.0,nm
6.134269000000003,-8.092929066359988,-43.74731400222566,-35.64664244133961,-0.5520310672127383,0.19045208382387616,-1.0496064602502417,-0.5892239568493849,-0.2041467367335671,-0.39881424754439354,0.0,nm
6.146236000000002,-10.624913899793453,-45.700914212393954,-35.856898738414245,-0.2808800827637557,0.4126860083290148,-1.296196179768082,-0.5230573009844323,-0.12073684719279239,-0.3962255375089643,0.0,nm
6.153287000000006,-13.658441410197758,-47.07621607207248,-35.912458257673705,0.1547762703268917,-0.1790302276229342,-1.5882266117177586,-0.5035488627203647,0.00896353883107239,-0.4476679047045141,0.0,nm
6.1721840000000014,-18.74707399336407,-47.798368468746375,-35.56970290339048,0.9832442488372081,-0.29673687153588785,-1.4286447000665772,-0.2791100653998371,0.16053552420940947,-0.30943471182104554,0.0,nm
6.200706999999994,-25.42797703770334,-47.66278658729409,-35.017393478635746,1.2888838236951723,-0.3221855801934534,-1.4460300086715185,-0.1874601588550048,0.14081647633454236,-0.24448417636757558,0.0,nm
6.2102119999999985,-26.986675738223724,-47.428409396315864,-35.184416599533,1.0891125916459476,-0.375056668966766,-1.6505605144383328,-0.14972746488283445,0.14713382072383133,-0.25837063010040856,0.0,nm
6.219825999999998,-27.891415120170585,-46.98531969236177,-35.42212458520193,0.8133801954392051,0.005398161833570976,-1.6129377376360017,-0.05363870097876919,0.13122489079615623,-0.1750626034085697,0.0,nm
6.231701000000001,-28.196550792064148,-46.08337503005349,-35.68840573902474,0.5359179540290037,0.6181813184120507,-1.3321232539188281,0.06633921306528838,0.15907748298032764,-0.09217584110554189,0.0,nm
6.238737999999998,-27.93422420051359,-44.42833885594368,-35.98952998653435,0.164796919681266,0.7654270038361123,-1.0687185063932545,0.21963316684172962,0.2346247258786576,-0.017609823547539705,0.0,nm
6.248256999999995,-26.739895289439744,-41.982089811428175,-36.146118637746234,-0.1455503911574221,1.3344541536056787,-0.37047965327415666,0.42519649462805603,0.28067218966874197,0.13743079340262138,0.0,nm
6.257948999999996,-24.92781841579173,-38.97965830471309,-35.99984641098637,-0.4716769172961017,1.4689402213115552,0.43839175202255776,0.5734087482720126,0.3104160631330276,0.26938036183817327,0.0,nm
6.267454000000001,-22.189001133849892,-35.80974065827306,-35.470343173970164,-0.6970201916780803,1.205433373828158,1.1749054372617829,0.7213109032368636,0.2472943894737248,0.4428346122077403,0.0,nm
6.276966999999999,-18.045842278528557,-33.05772373740676,-34.57261692275999,-0.8566282721143244,1.137769444962655,2.075748335720847,0.8742945568549626,0.044609568483665055,0.6515316355838682,0.0,nm
6.286477000000005,-13.207259084169412,-31.21973889880614,-33.56281385411481,-0.6608394935744981,0.8920203170616011,3.0852630537219348,0.8842973996775694,-0.16895928061607776,0.7191082698425334,0.0,nm
6.298456000000002,-8.910955857008481,-30.39828004266873,-32.82759165055078,-0.5382920433418268,-0.6415209892308698,2.713157589872058,0.7075996477440536,-0.2811457103059127,0.5884455693459774,0.0,nm
6.305508000000003,-4.458521646579671,-30.880756903102025,-32.291952784140705,-0.21703413258252285,-1.3591988770806382,2.5155848379450148,0.5944949196795392,-0.508449228723569,0.5614655888741663,0.0,nm
6.315073999999996,-1.2133253261283157,-32.81238824611917,-31.928579423384623,-0.3788969760832688,-0.8115735062405943,2.9173992575797283,0.262477482198752,-0.6351833990979024,0.4151820256036235,0.0,nm
6.324592999999993,-0.580799362051735,-35.382717326600485,-32.016747111523365,-0.464346342530293,-1.4976596456820699,1.1163027743521903,-0.18304812424494826,-0.5063569508227511,0.053146744491069806,0.0,nm
6.336579,-0.08067744128775461,-38.30667677384302,-32.53953414129665,-0.7437938696037711,-1.1158650345389394,0.5347656154204267,-0.24446832332031757,-0.5520349670559145,-0.044494374039339965,0.0,nm
6.352985000000004,-2.025930765566447,-43.95703669749324,-34.33273136306561,-0.8350180983118193,-0.42015852759555655,-0.6787516905240029,-0.5135745143234679,-0.2978361500026665,-0.4384299764746938,0.0,nm
6.3625219999999985,-4.036863969454234,-45.84869708789978,-34.98065402221271,-0.6147190451571926,-0.12220943576853067,-1.2531825867956445,-0.4509300953527549,-0.1634401458589849,-0.4122707954221065,0.0,nm
6.371955999999997,-6.721316815857042,-47.23228639187239,-35.17323537733812,-0.3006700832880843,0.3198224880032607,-1.2159355527139677,-0.46322345370913864,-0.0281624196825725,-0.42646952408397343,0.0,nm
6.409994999999995,-20.24283481013415,-47.07296958335017,-34.79251166240885,1.3242600795284427,-0.4445062851788527,-1.4644721352367216,-0.29059914920026586,0.2971434255525458,-0.4893352894435453,0.0,nm
6.419447000000005,-22.678312870183017,-46.68399864157697,-35.43824696337179,1.3804875610312368,-0.6103454634364799,-1.4415354761750117,-0.23170478260644323,0.2426226022639821,-0.48060182807312735,0.0,nm
6.4289540000000045,-24.20787520699233,-46.23425503938242,-36.423099561869385,1.3416841034912264,-0.12477757796254633,-1.2928910180384952,-0.12220005202593605,0.18409283596113654,-0.4143582264699088,0.0,nm
6.438466000000005,-25.476922393953423,-45.679186024907,-37.47048563771567,1.136411455409513,-0.054933809915749095,-1.3457008254105558,-0.07892385619366414,0.18256007844918515,-0.38736307881846643,0.0,nm
6.447971999999993,-26.238785649699363,-44.83816024786837,-38.19732800142049,0.8029464433434784,0.18832876578933921,-1.1909271255207805,0.01376549733401929,0.1865074940693604,-0.24880195789939655,0.0,nm
6.459948999999995,-26.23596434823646,-43.35415780339021,-38.43675983774663,0.5297490077088214,0.7837927381089411,-0.7710639794457351,0.1799086128775359,0.2204617257200019,-0.042526556342621494,0.0,nm
6.467179000000002,-25.521289748883742,-41.02803459979302,-38.23995800626103,0.14623764898468322,1.0197018688475894,-0.3796390900259906,0.3677325211875,0.28691722476875764,0.14027789569903168,0.0,nm
6.486197000000004,-20.506262972804798,-35.26041188991741,-36.57957713511821,-0.6154261472173201,1.3137218296652957,1.1583267193117388,0.754292228497068,0.1370032227146147,0.5873733050531655,0.0,nm
6.495694999999998,-15.879949667225107,-32.968192740832144,-35.47318569708098,-0.8810942628483195,1.2267754500090386,2.203878359650122,0.887949838091026,-0.0939697197601414,0.743295139088822,0.0,nm
6.505229999999997,-10.51177566129298,-31.48184481287856,-34.633129782742614,-0.7708719192200647,0.9076566385572337,3.199703531111305,0.9138978475986882,-0.29293703096673884,0.742424100388875,0.0,nm
6.526762000000005,-1.4879524088639824,-31.068622971624205,-34.35795386571765,-0.4254219966116248,-1.3716493156261926,2.2298364245224587,0.583007734140292,-0.4978828861156733,0.446191236623903,0.0,nm
6.543358999999995,2.644024596798182,-35.01156367825684,-34.82662447390336,-0.4765526535723009,-1.5625267706662045,1.0713174591142018,-0.14159578609719609,-0.47154148140861313,0.03507805594008114,0.0,nm
6.552880000000002,2.8902784058754394,-37.732523150255446,-35.068718857408484,-0.7666815328977599,-1.0361215462681097,0.6462858869079464,-0.2792869578796869,-0.4835598822777825,-0.01966705937924229,0.0,nm
6.564871999999994,2.047244582054755,-40.67070700563186,-35.22546583931641,-1.0361934351349105,-0.10022671287366833,0.44075444793598656,-0.44557367523185787,-0.41998403658314376,-0.13798316797780938,0.0,nm
6.571769000000003,-0.3359773632417707,-43.21102862486551,-35.33922711158556,-0.7723322983812709,-0.2228848209848359,-0.669471254191873,-0.5839131134072155,-0.22433262893270303,-0.3409416520438343,0.0,nm
6.581356999999997,-2.901628378972061,-45.14256628090449,-35.382052815792086,-0.50702602743962,0.07573983241479178,-1.3495702653526422,-0.5251037208420921,-0.1162526102805777,-0.36515514349922135,0.0,nm
6.590787000000006,-5.747311315670808,-46.70181252437963,-35.47359863378228,-0.1172785935775238,0.24945552035440874,-1.546812075945851,-0.5052952165394439,-0.0385808292702794,-0.4256312036931318,0.0,nm
6.600302999999997,-9.03982655195792,-47.82313448791282,-35.69928293814607,0.365879159389252,-0.2386979430454584,-1.7382597217848148,-0.4964646481364643,0.06401428481174895,-0.5267484101315306,0.0,nm
6.609791999999999,-11.945250884856536,-48.3218648418985,-36.04436669674888,0.7606271107545108,-0.6409642386129454,-1.7922753786557215,-0.376039632442442,0.13328393726626261,-0.49876912529279144,0.0,nm
6.657230999999996,-23.827447245482848,-47.21676594733377,-38.017423517389346,0.9429443082488619,-0.0020718954912349956,-1.5438481345835866,-0.1199683042352697,0.284424466781548,-0.3699771155422446,0.0,nm
6.666743999999994,-25.413488460212356,-45.9296714315422,-38.21296982082723,0.6470607096703698,0.42490578105445975,-1.3614523263847031,-0.017389161326386297,0.325125706148605,-0.2647471867658323,0.0,nm
6.676243999999997,-26.227791814488704,-43.950186596256756,-38.221020823455184,0.38786112356221686,0.874375079287989,-1.0148448737243527,0.1498874572764673,0.3704077453308024,-0.11171524531928806,0.0,nm
6.6857339999999965,-26.066678202403725,-41.154014402733836,-38.06807389885287,0.09484971778309031,1.1734394606759015,-0.48870957108832686,0.36013062379515687,0.413070660985009,0.057314139001796924,0.0,nm
6.695424000000003,-24.64737830246789,-37.7439807472048,-37.65239867680584,-0.24266751502779965,1.336954843055151,0.2157994884761376,0.5884200736339471,0.39143855355960006,0.2681838889568715,0.0,nm
6.707412000000005,-21.798581789377614,-34.27820748500219,-36.87131062619367,-0.5672709680415536,1.3883388015536655,1.075452179086493,0.7841495161139327,0.2594403360609412,0.4953138715773373,0.0,nm
6.723968999999997,-11.85972247203777,-29.834439825454766,-34.6488639157877,-0.5363873575969812,0.9203374869392669,3.098157729462288,0.9781662211608101,-0.30268279701149187,0.8015922854453218,0.0,nm
6.7525619999999975,1.1864521449078245,-32.27986331985301,-32.84468708510762,-0.2520994045356766,-0.9115351331909213,3.097592555719658,0.2447794931381848,-0.7049538652946221,0.45647320266648495,0.0,nm
6.771636000000001,2.0183422648499043,-38.15830627073416,-33.1200959097315,-0.7395441047163925,-1.147914080709407,0.2643528676131292,-0.272598446781864,-0.5823229771483668,-0.01776837557283508,0.0,nm
6.783620999999997,1.9971356819967003,-41.31466666552912,-33.93158444118973,-1.2166035508768,0.22741287294613063,0.4128309641101723,-0.35140945756459036,-0.5393094342319963,-0.16496276868502985,0.0,nm
6.790514000000002,-0.008644919875842025,-43.88373205928694,-35.02008349121548,-0.7961257340308328,-0.36241607150059274,-0.9900622667896728,-0.53517849807469,-0.27087360698108737,-0.4889335813628393,0.0,nm
6.800090999999995,-2.047394150189683,-45.81578687613599,-35.84331580591858,-0.4451515891254247,-0.187349582983904,-1.617556256402254,-0.4609238192886531,-0.1615274371351158,-0.4513275961534606,0.0,nm
6.809529999999995,-4.676764493428978,-47.34978246825253,-36.17296962276303,-0.10757453177682956,0.42275243048005184,-1.3580766387919903,-0.4746549902853055,-0.049694528255654236,-0.4464580458153789,0.0,nm
6.830994000000004,-12.34214456236527,-48.172459554763364,-35.70241721168501,0.9999992123147539,-0.8136031634690785,-1.939296579107682,-0.38768348045767526,0.2698317137730593,-0.4550285122303235,0.0,nm
6.837980999999999,-15.16017818295807,-47.73414648328959,-35.38029989003062,1.2489460868780815,-0.03903258737073044,-1.5587104779258145,-0.259294942026527,0.2776443114776207,-0.3509315652981457,0.0,nm
6.847479000000007,-18.18674482519789,-47.27347351143348,-35.467851819176566,1.448576917874315,-0.5954184027152741,-1.7399438826782112,-0.28340068951466363,0.2992431896743252,-0.4603582417425647,0.0,nm
6.885475,-20.45391900994809,-42.746971313311846,-38.1926029409875,0.2346657575342119,0.7818596700159894,-0.5910710609982612,0.2836602285812123,0.21572859046330178,0.004788346315184763,0.0,nm
6.895160000000004,-19.212233064330846,-40.119308548005165,-37.98773467587017,-0.24815986585014624,1.341827798078444,0.191644291671985,0.4677715549097501,0.2858333888455662,0.20918190934057512,0.0,nm
6.907122999999999,-17.5917965404956,-36.79342615254576,-37.17923302969796,-0.7562046084830263,1.2465075751200354,0.7710778383258547,0.6045730000251986,0.3591975315231532,0.3666917957292567,0.0,nm
6.914170999999996,-15.056352911165163,-33.51345753685625,-35.83763066446341,-0.9767038890942522,1.1681109640429828,1.4041904290648461,0.7221611475260876,0.26699172782606256,0.5631000456269052,0.0,nm
6.945233000000002,-5.612265245442235,-28.65805929215384,-32.969616393212206,-0.1680275401027327,-0.895455505372551,2.2227249257699455,0.48769690270302735,-0.14479909064826368,0.3350867818137278,0.0,nm
6.952325999999999,-2.901350567994051,-29.15442767566519,-33.12276828959687,0.13213700494794062,-0.9907483196846688,2.274108169343305,0.34402824362806383,-0.3566265347547248,0.2311005609653834,0.0,nm
6.961856999999995,-1.6567776367629643,-31.08852564304319,-33.61750153964496,0.031252600227493696,-0.8484500241546535,2.298665685583311,-0.03305157219003082,-0.456192529841275,0.025408620922973486,0.0,nm
6.971378000000001,-1.752485978022337,-33.61281043149304,-34.3907320632372,-0.18057486876816511,-1.1630820569570397,0.8464262652941444,-0.29637375268870436,-0.424185459754106,-0.16531905108162048,0.0,nm
6.980880999999997,-1.4354212015505534,-36.53829485595152,-35.27302038614637,-0.49646339668979167,-0.3844906286523964,0.6136281466418614,-0.2923821681100587,-0.5247384021362319,-0.14006073330502866,0.0,nm
6.990403000000001,-1.729006634930255,-39.62562335694035,-36.17523457994468,-0.647790025141893,0.16108314206040616,0.06644626136555443,-0.39927398141892784,-0.48906460772094357,-0.21633930985910452,0.0,nm
6.999726999999993,-2.857112348269063,-42.43068687335221,-36.9205438179215,-0.5009692129587481,-0.2535493938155505,-1.0381585883902231,-0.4725309580634037,-0.3638806560704803,-0.296420186021011,0.0,nm
7.011700000000005,-3.8430763612140844,-44.727659439876604,-37.244729477102254,-0.2900020112520385,0.01094152110553981,-1.399717048191259,-0.39284443423479104,-0.2947546048441404,-0.1994770291999492,0.0,nm
7.018750999999995,-5.42650629886352,-46.49424969822526,-37.18229882640382,0.07566507805340239,-0.033912182157047,-1.6557471043760077,-0.3922569366606018,-0.16153722684965618,-0.2120915682436509,0.0,nm
7.0282629999999955,-7.5496205466183826,-47.63531625723439,-36.89855843372102,0.5249960414622891,-0.62513589468573,-1.840888342804104,-0.37076451350350653,-0.02177937936051321,-0.2519970064906611,0.0,nm
7.037769999999995,-9.288178249749881,-48.12510831424411,-36.59516620357619,0.8463328633142488,-0.7046032021481263,-1.848837457052268,-0.2479625616424069,0.047347897045349266,-0.19470277224418495,0.0,nm
7.047246000000001,-10.77641802310134,-48.30399937607593,-36.524685672039446,1.0109157702418619,-0.4912744754881319,-1.6650224133033857,-0.18326435339628175,0.07584954072258465,-0.20507707214797555,0.0,nm
7.0852589999999935,-15.17915323425033,-44.782030487530776,-44.91564810510017,0.045460690400973156,0.5863310347302193,-1.2551823521011858,0.184269310183264,0.3375539864197444,-0.1421284496418348,0.0,nm
7.094748999999993,-15.443491426854864,-41.79267584547,-46.04720956953838,-0.24108564222907666,1.201234339651413,-0.6531365575985304,0.40075005343372694,0.4288926533138038,0.04704798629828844,0.0,nm
7.104437000000004,-15.03256695877472,-37.74643812042599,-46.72392763403148,-0.548758654041182,1.716264782518083,0.19980620480203026,0.6320611104970134,0.4916593044200053,0.224584613388622,0.0,nm
7.113949000000005,-13.638280454979634,-33.41328757435428,-47.089266048690384,-0.7931086025189469,1.8199246659143888,1.2659889323783695,0.7896630801229245,0.40308875779914044,0.39852439475619916,0.0,nm
7.123467000000005,-11.01182028683016,-29.700770209733665,-47.496090769723,-0.6427449076854334,1.4832271324799156,2.2539132162668163,0.8480855125826932,0.14933078077220976,0.518430467238429,0.0,nm
7.135384000000002,-7.609833847210385,-27.38194217457954,-46.58872140701868,-0.1830128443580309,0.42079013772280016,2.8510495236248827,0.743634208851627,-0.13532049675547828,0.5071775522944004,0.0,nm
7.142493000000002,-4.265803156859914,-26.287842848016318,-48.401608230183,0.4370137807209619,-1.0413278730529463,2.8467949943033557,0.5555323223337689,-0.31674736513955454,0.37212702730930275,0.0,nm
7.152090999999999,-1.6920691415368112,-26.824461530866284,-50.66682302842588,0.4671371998130733,-2.1295544360035144,2.4430712140207866,0.2041682443725251,-0.43849741103811407,0.2652635437569263,0.0,nm
7.171092999999999,-1.130630596241765,-33.16782680643981,-55.17169288561851,-0.360864030066643,-0.9840880667858523,1.1401029736796817,-0.6774521235791388,-0.3179426388428885,-0.04818912177816482,0.0,nm
7.180604000000002,-1.2610123972795484,-37.00773265172356,-58.024576852066154,-0.8153268729589479,-0.4659971463580371,-0.13816162802485019,-0.6675768511425126,-0.40518554210504115,-0.12488178990295534,0.0,nm
7.190036000000006,-0.6140885924985923,-40.85771491733039,-61.42760466336646,-0.5973391749116297,1.1137650821439218,-0.09544448908491436,-0.6300469339733289,-0.47712652401969924,-0.18555407939948687,0.0,nm
7.201911999999993,-1.3273461047113109,-44.12350992464462,-65.20299524894031,-0.7782113159174183,0.3095105084483166,-1.7165343296098032,-0.642265584420191,-0.20150944156914982,-0.4861247841552502,0.0,nm
7.2089579999999955,-1.778315721693536,-46.46415157717393,-66.86710797118079,-0.6047269062211513,0.024807330031306276,-2.2568712664854074,-0.46206573432016995,-0.14401828483852094,-0.39590206582489385,0.0,nm
7.218504999999993,-2.8549190843510006,-47.75629541095858,-67.55956274197376,-0.07793597927093317,0.4262235133300291,-1.793657174930207,-0.30359755246325365,0.023616909426131146,-0.2948055964745876,0.0,nm
7.227985000000004,-5.951393434552102,-47.79303854314865,-67.19821443431636,0.04894445594386827,-0.59611135251238,-2.0276186883828613,-0.17556725398853174,0.3706648337893586,-0.3845403824241429,0.0,nm
7.237464000000003,-9.233664114781616,-46.72109932668001,-65.98703740048533,0.18646524297608078,-1.29495266408301,-2.1070084575036674,0.011111962672598877,0.48362131760803945,-0.23756312471379967,0.0,nm
7.256442000000007,-14.473006415377354,-42.86636750637073,-66.34556960092216,0.853473143106957,-0.8788238918306944,-1.3296176038102812,0.225891350912558,0.5182778267901601,-0.2052356866609471,0.0,nm
7.265972000000005,-16.045937690077817,-40.48794464336787,-67.45954256458717,0.6930129904297538,-0.8336299988171066,-1.3202762766522667,0.3404771084430854,0.38950439632319145,-0.19482086488041306,0.0,nm
7.285353000000001,-15.769204331163893,-35.67867965958508,-68.88451069649024,0.5413115857658042,0.4722240664954462,-0.29254085435579646,0.46244815254830574,0.1132205786134366,-0.1271866686730289,0.0,nm
7.306572000000003,-12.173242663373859,-30.1235002488694,-69.56662060786978,0.08685840131332638,1.966718904646991,1.9479123086153827,0.6686673336207027,-0.1582768519513082,0.2228846704162142,0.0,nm
7.313668000000007,-9.886382780661474,-27.33801067325822,-68.9735404268964,-0.4321221979362395,1.594035322867412,2.4838884166369866,0.6547069938278609,-0.18912468461600238,0.33935799039697184,0.0,nm
7.323177999999999,-6.896799596589233,-25.510688137833956,-67.841421459736,-0.3670131852834697,0.9650597201869167,2.722058289399427,0.528899311240216,-0.3752145597247274,0.49270880320101007,0.0,nm
7.332704000000007,-4.214197326999175,-24.9650332155469,-66.64555580953109,0.05962993117342894,-0.05369205342781985,3.222994836396308,0.2806213531850184,-0.4174851025152334,0.4675113373900855,0.0,nm
7.342207000000002,-2.626198515294551,-25.367483446370645,-65.77964074879249,-0.37772902049354806,-1.833397732440179,2.0491997725539384,0.03460333245346536,-0.3077158298905572,0.30740106970552533,0.0,nm
7.3613129999999956,-0.8975591872231217,-30.92286664741352,-65.04693783191664,-0.24899515931126256,-1.1414346092629093,1.6559320828674782,-0.6344985584978984,-0.32491421209930904,0.02586432874508277,0.0,nm
7.399195000000006,-2.093663458030819,-45.023878798428086,-75.53984462988952,-0.7621576886972625,0.4846920028059266,-1.687939588512775,-0.5983365717194584,-0.023387463709408692,-0.42404665721589413,0.0,nm
7.418149999999997,-6.3748902816561035,-47.97738456255741,-75.21658974822948,0.02070723754033322,0.13298774205264452,-1.7383790715242056,-0.2950241192356318,0.3233259137938587,-0.2788748331180423,0.0,nm
7.427717000000001,-10.317979651565414,-47.74940717267753,-73.7330807920618,-0.00757638965656883,-0.9704911917454179,-2.03003062656971,-0.10794577723624559,0.5130393392100101,-0.2856298183600857,0.0,nm
7.437220999999994,-13.519378430623226,-46.81410681738716,-72.11087514704774,0.43749753426517884,-1.128203389039122,-1.8388311439518281,0.04115233611557762,0.4612568298422092,-0.14291805028998036,0.0,nm
7.446648999999994,-16.286488979250375,-45.80308916924611,-72.18173729879082,0.83698886594558,-1.109815553057297,-1.5461673244018408,0.06925940305606701,0.41652944478676973,-0.18136489224136082,0.0,nm
7.456340999999995,-18.606850808765575,-44.87278925238415,-73.13661111745685,0.5648312560831756,-1.5705832285889114,-1.7264926273355408,0.07327688917628769,0.35791887060344446,-0.30310545614460066,0.0,nm
7.465860000000006,-19.490697452079683,-44.006736235709624,-73.90319737546312,0.7573871726350397,-1.103322514484315,-1.5082631661168242,0.11969763775264476,0.16201185307968854,-0.2734308716645481,0.0,nm
7.475384000000005,-19.719312528426844,-43.152080926561474,-75.20854965993114,0.7841806513686707,-0.5442070596219593,-1.3657211271813179,0.1451971995940174,0.06941421198256616,-0.28898285645071126,0.0,nm
7.487329000000003,-19.762268810718798,-42.079448419878524,-76.44134076281794,0.5362072692483516,-0.060078638850904476,-1.2517187694699083,0.19561114770003105,0.05077976882776602,-0.248798918722515,0.0,nm
7.494372999999996,-19.310404189219454,-40.290170319985165,-77.055979329095,0.43758839592347903,0.6510594256601112,-0.846857869669464,0.35323527031345564,0.00781606118880187,-0.05982976626670132,0.0,nm
7.513525999999999,-17.327948770934835,-33.70446755155731,-75.7532904443217,0.20469022386997482,1.8093797157680729,0.551430885181207,0.7574641178285836,-0.015010077759500723,0.3496252092484528,0.0,nm
7.532548000000006,-12.063910009914663,-26.706937357559536,-72.6126730258958,-0.12672378855584052,1.4635027239417222,1.9950818665521264,0.7510762250704742,-0.37216963933775427,0.6188988519693249,0.0,nm
7.544388999999995,-8.301072801019226,-24.84742693805491,-71.54139966456366,0.0418814575417336,0.5917539939033863,2.9700412216338323,0.5535903287064677,-0.5417338227164517,0.5419588128476547,0.0,nm
7.551444000000004,-5.173723475281692,-23.865107995263468,-71.32055149128465,-0.5704468018848535,-1.1471553492525437,2.3221362576460796,0.3589877352072367,-0.48904289491458675,0.30158935059236014,0.0,nm
7.560950000000005,-1.9809007813670467,-24.13239143995666,-71.51777579339048,-0.43932358197082905,-1.6558275145166474,2.38985521931735,0.1265526325567776,-0.5816901366126934,0.21907140399611374,0.0,nm
7.570455999999993,-0.4703384407536714,-26.083516847529122,-71.85475101735945,-0.39409823647474446,-1.2521094475164685,2.472758622806834,-0.293551082542281,-0.3938964335362977,0.05937954146573499,0.0,nm
7.579983999999996,-1.0623839226031664,-28.758384137851458,-72.40676778684609,-0.871538747209241,-1.107144471436736,0.8985203012320855,-0.5509649318576206,-0.07522186182097838,-0.16615908776336658,0.0,nm
7.617846,-4.63863295500752,-39.56783989494467,-75.90120829619872,-0.4716493185104747,0.9660502056361238,-0.89205909960594,-0.4284364127991368,0.11495801861522657,-0.3026591582984562,0.0,nm
7.629800000000003,-6.55469659613015,-40.62777087024512,-77.51968275417633,0.016168350802410605,1.138600847971457,-0.7366685267378299,-0.2811558158084355,0.2309475397953913,-0.25911447537690757,0.0,nm
7.636866999999995,-9.368661313683583,-40.83184277589518,-78.55258646046143,-0.1467646213372213,0.20356896238882835,-1.0262271699314571,-0.13432712173512826,0.40171678124666543,-0.29680608948542736,0.0,nm
7.646544000000006,-11.49720595046897,-40.246202046579704,-79.20295331986571,0.20512680458155222,-0.11245024008942829,-0.7575547229530236,0.04529041389082046,0.33117358832867333,-0.1529956773201125,0.0,nm
7.656087999999997,-13.249832511507298,-39.35170491270575,-79.81451233529327,0.57853411090019,-0.34378169895858895,-0.4404223545221214,0.11881648882260337,0.28806848916770295,-0.11185802873572329,0.0,nm
7.675195000000002,-15.379055686860532,-38.223031776750375,-80.6658816275747,0.5352489938010068,-1.0185141887682783,-0.3353838437720137,0.05537834921811383,0.0913380423722888,-0.06923184624570823,0.0,nm
7.684719000000001,-15.398418933280274,-38.1662830444106,-80.95835614258243,0.5880357809708162,-0.903731086970792,-0.3283053564815597,-0.0007548038434058923,-0.003078249555033866,-0.05826457957577447,0.0,nm
7.694034000000002,-15.141183655688524,-38.485038922228384,-81.36119771575623,0.32335980748072507,-0.860576125660226,-0.5603052604893735,-0.06839600307631105,-0.05757623554011253,-0.0460466519102932,0.0,nm
7.713266000000004,-13.526877066542468,-39.29246885241963,-81.84672309055088,0.19414326713745325,-0.07130381132271421,-0.5929362709981727,-0.05602315298702767,-0.14719412661693587,0.0758985782795101,0.0,nm
7.732332999999997,-11.58228904700467,-38.980095255216675,-82.66805527334708,0.045108916324044616,0.4173424695064975,-0.6636583979332549,0.06857115114453739,-0.15981868897835932,0.17983112711369162,0.0,nm
7.741833999999997,-10.608257721785298,-38.33423154540324,-83.49235953143804,-0.020880311902406055,0.40422848640087466,-0.5541108003809675,0.133905768812619,-0.14498001598564347,0.17046163898185265,0.0,nm
7.7513409999999965,-9.581584726305401,-37.33458953945375,-84.46419990892815,-0.055160335127783795,0.2702344481749874,-0.42404736142836813,0.2031676348881374,-0.15041412769363474,0.14247995205163777,0.0,nm
7.7608630000000005,-8.441700617707914,-36.1744778024191,-85.71639810292722,-0.06443673711100066,0.05129978024404952,-0.2749657385376282,0.23375331615955117,-0.17263373462053563,0.11267573467406967,0.0,nm
7.770208999999994,-7.328857268104516,-35.041000222729416,-87.18771640859693,0.05139512121900873,-0.07911045420899294,0.0497255667889572,0.22414038682113496,-0.17696216344551247,0.07291985577894446,0.0,nm
7.779700000000005,-6.619318537442226,-33.96926293613165,-88.80243030069154,-0.10881420498606183,-0.3377223063860241,0.10737179288494869,0.20534767409326848,-0.11933929471549745,0.003954382890071128,0.0,nm
7.789186000000001,-6.0712958519720726,-33.00613851949184,-90.30881710361885,-0.14210433346023668,-0.42333330410148234,0.17544012493352,0.18042736668109838,-0.09926238013227345,-0.004321285329297115,0.0,nm
7.798741000000007,-5.785269324815606,-32.225326760063155,-91.66385317445898,-0.06513812833399348,-0.3754174193175183,0.3105548855058468,0.14260799842349223,-0.059549132533247354,-0.000414430853898124,0.0,nm
7.817751000000001,-6.100271674707283,-31.0488750915029,-94.09169212660801,-0.01124774182386548,-0.21968523022147393,0.1810689339277704,0.09882557253476199,0.02129739833137828,0.009801799002441283,0.0,nm
7.836810999999997,-6.623970646734867,-30.197320998046944,-96.41332393657362,0.0325482896847056,0.032134572665576094,-0.024563066379304235,0.07013711054930334,0.02771797468098928,-0.007811503351534068,0.0,nm
7.846312999999995,-6.688262459729669,-29.810405059356487,-97.83110512312066,0.11348782563974653,0.19165891801447196,0.046883759637389305,0.06519747195829693,-0.004998227513603513,-0.021277640175692333,0.0,nm
