timestamp,roll,pitch,yaw,acc_x,acc_y,acc_z,gyro_x,gyro_y,gyro_z,markers,motor_input
71.500362,-60.20758745013707,-24.107059683029142,155.99198588754265,-0.1457268661266939,-0.4332643334272981,-2.473036911771891,0.9601108877900405,0.23121669678992507,-0.3978676066820073,nm,0.0
71.50969,-61.35659712860492,-25.664457556409943,155.19490027395463,0.021119342128836427,-0.5622690748633694,-2.564535542978374,0.32098373188549123,0.20768579163868575,-0.24648809312570766,nm,0.0
71.57644300000001,-1.8714113107975512,-21.20986556395332,148.9607891802062,0.7608568412394839,1.7073553145676434,2.556941894844481,-2.0047281871844866,1.1761192582648992,1.0018221761106632,nm,0.0
71.58588599999999,10.80374207982414,-21.235368049113422,150.43536291271388,1.6444533073887122,1.8080981757429553,2.2381733526165872,-2.0427929885416782,1.2118198769994903,1.208743179791286,nm,0.0
71.595372,22.117937687682204,-22.13189877603951,152.46454115526853,2.0472061512079085,1.7768212700213317,1.1165345769911836,-1.7683619111916202,1.175958283578487,1.236332645651297,nm,0.0
71.604885,30.984734353089497,-23.716916890701338,154.42958342065177,2.702177859793445,2.0721145389527047,0.44925723936358464,-1.3273074439767023,1.0256897464725578,1.0775576970621337,nm,0.0
71.63339500000001,41.460200216214226,-24.32684721612965,159.30004797232093,1.6594974666543463,1.3506340401464458,-1.2611318742012874,-0.19885249202580302,-0.13861436495858187,0.34731890813730926,nm,0.0
71.65260900000001,35.372921502207404,-19.23757539320482,161.76563273761127,0.15948234456017046,0.9947252709965804,-0.0006068854767558765,0.5325746562034595,-0.7786399225839298,-0.07390694280596466,nm,0.0
71.662101,28.981247795554292,-16.462325814966935,162.47267922494592,-0.6669617568669809,0.5098071946169904,0.8294059947038513,0.9828998543876405,-0.8922116098284462,-0.2587594046341094,nm,0.0
71.671616,20.384165687943902,-14.234171245147493,162.8214563865268,-1.4007049161406495,-0.05053131812503568,1.775573357223956,1.446596778607312,-0.9089092326462516,-0.39285181238147165,nm,0.0
71.681174,10.025095494049614,-12.602000036975856,162.8434063046173,-2.112275745476071,-0.9451232503672858,1.9463855635990728,1.8274595427570373,-0.894523926855428,-0.48230133098616357,nm,0.0
71.69068200000001,-0.7866547220556818,-11.635484205503545,162.36051202498302,-2.603295023117355,-1.605697625775387,1.905214089079159,1.95901500264157,-0.8036957191784382,-0.5542558755514638,nm,0.0
71.700178,-11.297484275856254,-11.248392168682534,161.43614934056703,-2.6487687512470934,-3.3475557756586953,1.8140140944224588,1.9344929013071068,-0.7005399821787364,-0.6032747462507765,nm,0.0
71.71901600000001,-32.285135699495584,-14.124672804273846,158.3112309617835,-1.8251018447887453,-2.222197660407748,-1.1383764921365163,1.8952418783777907,-0.2800128998845679,-0.7661172685981352,nm,0.0
71.728532,-39.475550177574206,-16.66457112363442,156.80161315581168,-1.4391000384729142,-2.703414602531944,-1.6223640976630371,1.4773188440024383,-0.047419540551185996,-0.6787264921626335,nm,0.0
71.73812899999999,-45.66684732947642,-19.50793515210182,155.73692935189484,-0.5572867461072213,-1.2923798005588234,-2.3753493211826564,1.3087818578794785,0.05882747631226781,-0.5910571812725883,nm,0.0
71.75695200000001,-48.87870666666955,-23.379959883972457,154.16014124350778,-0.09769978412671174,-1.1470250812238691,-2.274838506037017,0.11445421220321514,0.26923594067349094,-0.1751833015967936,nm,0.0
71.76647,-47.01159604350488,-23.7950858554269,152.76675411675947,0.32972408556586935,-0.3945667994554727,-2.070875557030519,-0.26741905967707214,0.23938677926775354,-0.12195316020247214,nm,0.0
71.795184,-22.98442833071313,-21.899059606637707,149.02773696554738,-0.04618489416399344,-0.8197686730505278,1.2441926193483235,-1.8494267122888757,0.8505751805928173,0.6156086032987947,nm,0.0
71.814122,0.08765776472152274,-20.208632314913427,148.33238133298397,0.7979424522259526,1.351124334132494,2.3704532006740804,-1.8662052482262046,1.0271672199831352,0.789443405603293,nm,0.0
71.823813,11.484380345020226,-19.783502059731575,149.27265386927408,1.3612796053963714,2.1513527086503923,2.113070143842112,-1.8804774036520906,1.0517302530394113,0.9635470503251625,nm,0.0
71.833324,22.33057096774911,-19.793656692124383,151.08984148205977,1.9137784422412134,2.310797771583661,1.5508727819303987,-1.7760444264241357,1.0304146511955818,1.0918476287638315,nm,0.0
71.842657,31.333224119477286,-20.776725826707576,153.08165261389524,1.9601891151618578,2.1960523650432173,0.20959292716606243,-1.4077400973254681,0.976397618022728,1.015701392781005,nm,0.0
71.86169699999999,41.80495970840287,-23.45983176873897,156.4382523107014,2.077406526229833,2.091854943166019,-0.8332411504183533,-0.5420665977733428,0.4931136141142876,0.6126525442861747,nm,0.0
71.88066699999999,41.78635039485518,-22.698835513396357,159.53571935723113,1.4068977284884905,1.4998250724965356,-0.8862954977113798,0.10865951407379822,-0.21826906193492254,0.19622202023407287,nm,0.0
71.89018100000001,38.45822949953671,-21.020857770516997,160.73438682392705,0.7035255906814228,1.233709492793197,-0.42914034992191047,0.4601900829094383,-0.5170426885285072,-0.016384075384965894,nm,0.0
71.909425,26.44072003677218,-16.944749148379042,162.3527484561146,-0.7437855846243634,0.33145697390841056,1.1584131364483217,1.1169226983118197,-0.7737688824703167,-0.2974982612875167,nm,0.0
71.918937,17.466995518074533,-15.157390895695785,162.78921756797783,-1.4383666789421352,-0.3507101415235633,1.8221694811482296,1.5355903829791386,-0.8462993781491697,-0.41590319681932064,nm,0.0
71.928437,7.262979054450258,-13.663783920269845,162.84757910476156,-1.9182443388537846,-1.068557611847153,1.5042462058129769,1.79852611935486,-0.856824077389167,-0.5015254049221967,nm,0.0
71.93794299999999,-2.853906918679332,-12.717052514635775,162.31776195356667,-2.290291488744182,-2.106997116008953,1.9680477867381267,1.8222682634521623,-0.7573027893854881,-0.5708674884843855,nm,0.0
71.966284,-33.44891025550284,-14.659056890589657,157.5296713647137,-1.8166884449099858,-2.4050564287369096,-1.2108439856166315,1.7706509501046688,-0.3003333503360003,-0.7961160705820027,nm,0.0
71.975806,-40.68946834055823,-17.075809043209745,155.94821102811517,-1.493827656068416,-2.221259154136063,-1.7559426269752314,1.4727769963379778,-0.09379680260242998,-0.7069924530357895,nm,0.0
71.985399,-46.347649692806996,-19.638091066703566,154.87807032836906,-0.7014619641720102,-0.8958186676272356,-2.2826568431568086,1.1923443327530119,0.03105679213748999,-0.5639775330634957,nm,0.0
72.01376099999999,-47.42200909530723,-23.26997720308237,152.75535462250184,0.25144789020290553,-0.581439554142216,-1.7383135743001934,-0.24225155020029418,0.2123479840243844,-0.04766700430611216,nm,0.0
72.023326,-43.1188592541952,-23.26225535367046,151.8942030592806,0.3263537519272953,-0.48464724917999485,-1.3661723970184132,-0.6997465741639808,0.37868072890340065,0.17463597140222467,nm,0.0
72.042464,-27.182231604093122,-22.92587695422212,150.13414448454424,0.18543809032934422,-0.01874605731921093,0.12873976192715925,-1.5145827623064259,0.8029033563807915,0.5412398126502693,nm,0.0
72.06145699999999,-4.612290318268054,-22.141309507452018,148.64738595567147,0.9305862104124683,0.6083584626912961,2.784688822657144,-1.795554170826803,1.029815494309892,0.7290909432491794,nm,0.0
72.070979,5.818707050681936,-21.921420473973335,148.71343618425232,1.209420571637833,1.9679681074782875,2.100316873891619,-1.6781409067781974,0.9827644083512175,0.7935004834525093,nm,0.0
72.09011699999999,24.056731516032663,-22.25550346477618,151.3071712845852,1.7664106851147479,2.1853470700098945,0.6920498097975987,-1.2972642318880125,0.8579407175455974,0.9362979432728086,nm,0.0
72.099436,29.99043048506133,-23.482681708506608,153.00339499315135,1.9034589894562568,2.3282646751152685,0.08893474485722139,-0.8588186714448811,0.7398907623909424,0.7943906058559422,nm,0.0
72.108949,33.46760512433867,-24.63937618820797,154.78471009885405,1.8353533365319392,2.099547074568133,-0.4303469848131059,-0.4753250792551775,0.49848600909586904,0.6334983730182157,nm,0.0
72.13766799999999,28.84061394085513,-22.909454628750627,159.79573547322713,0.9766354408915466,0.8841677773751739,0.1533300259934769,0.5301216327071632,-0.5032244701829686,-0.03519568379509185,nm,0.0
72.147174,23.381026837222986,-20.923376012487253,160.71902277054127,0.4967845360488431,0.3530223341081993,1.096626778169351,0.814594282954635,-0.7052890049681695,-0.22967508437096654,nm,0.0
72.15668299999999,16.13072765865122,-18.85094692766096,161.27466683406004,-0.15728598675451977,-0.23021990664271605,1.3128600615503943,1.15095645554339,-0.8242808884730051,-0.38829354802257676,nm,0.0
72.166179,7.7659082075373185,-17.33962923993934,161.6317672882947,-1.004039329813911,-0.6499816501293492,0.9553132060507494,1.4092600476029953,-0.7799360301766178,-0.45314638494453413,nm,0.0
72.17569499999999,-0.7853453812973851,-16.501185678931368,162.1104459822766,-1.3723680166467946,-1.5587970155332802,1.4846939221633308,1.5012534093718564,-0.6554951285974666,-0.4054302414721128,nm,0.0
72.185201,-9.844649558939738,-16.19455796560985,162.696994178033,-1.8984046015597085,-2.19706304363193,1.017606722305641,1.6378056439890738,-0.5707554596142607,-0.39433100673335103,nm,0.0
72.19453899999999,-18.79786167006557,-16.232778918801824,163.08707797118717,-1.8069366900766268,-2.5274055484320863,-0.07356663034831093,1.645164712403211,-0.4851492541307387,-0.4216823698911976,nm,0.0
72.204046,-26.989821157741982,-17.161181577978383,163.15941878837515,-1.4823351196717522,-2.825460882128379,-0.7093274539692602,1.555553462356914,-0.2647587392818271,-0.4540495405772406,nm,0.0
72.22314700000001,-39.5763117577464,-21.448423099506414,162.12714532761063,-0.598059442463138,-1.5822189642849438,-2.2779298168785402,1.1153607951659072,0.17104432465472683,-0.5126114920112466,nm,0.0
72.25152600000001,-42.16052726425142,-27.498281310287613,158.44481414682863,-0.20944549710369761,-0.5681632295379442,-1.8273433501525629,-0.11737963043275984,0.30507578257925855,-0.2172991014407243,nm,0.0
72.26101600000001,-38.83262516789167,-27.21105392731967,156.2346976454588,-0.3991032264464561,-0.4290569267504316,-1.1864217847714396,-0.5671055394912576,0.18769584795931119,-0.13005791664381677,nm,0.0
72.27070900000001,-34.108431930651285,-25.93723776643208,154.09671849722488,-0.780840552393518,-0.0791226756828431,-0.49043361393262164,-0.8735728152216297,0.13713905230854911,0.0005014176325424242,nm,0.0
72.280216,-28.537444981310497,-24.286603134263878,152.4911267527658,-1.3247447192020656,0.5535351072887289,0.3931543523407119,-1.0495999503353979,0.1725212717483225,0.15609421581485852,nm,0.0
72.289724,-21.597481500409398,-22.336902598967534,151.52861610940215,-2.2228131716839172,1.785972314105813,1.1411343215963663,-1.3091678981301833,0.26863828926386335,0.35974305041127075,nm,0.0
72.29924299999999,-13.701886663790162,-20.348511969721542,151.6917196755626,-2.7344395359500937,1.806326052735622,2.174812212083534,-1.484554383543712,0.36469645826629693,0.608438777122708,nm,0.0
72.318353,-2.2303098697425603,-20.102302996956443,155.02025648749674,-1.2722158578403755,1.441914693107446,1.751615792101729,-0.7601335340158626,0.5339840033825545,0.6965692132430839,nm,0.0
72.327866,1.1326148562388323,-21.465745790483815,155.5093987868577,-0.15978504922481473,1.7607344817689192,0.2750399149805046,-0.45994071260997493,0.525169223068257,0.33444232768567,nm,0.0
72.337379,5.417671833568839,-22.690026112257886,153.92879184111501,0.6848834788960889,1.0483178334012753,0.6805723247883444,-0.616754977115366,0.5747986702163583,0.0032155143727288643,nm,0.0
72.36591000000001,10.268063040744964,-23.899015190441453,144.09949498484104,2.2676098846659136,0.4917235205674636,0.6815596588305894,0.020720650172060626,0.09306037233459744,-0.5404163995380935,nm,0.0
72.37542300000001,8.146039088513096,-25.185589410451005,143.39029615335224,3.1908480779897634,-0.527572641150185,1.2476174739694468,0.4637244533571533,-0.007025174263116018,-0.32160017612165115,nm,0.0
72.384747,3.5668652967151893,-27.162389315600777,145.24185469164132,3.6386604073032633,-1.398628659354559,0.9149251205325833,0.8989124710246635,-0.14462343658037868,-0.03606925768761369,nm,0.0
72.394272,-2.424127255037489,-28.421010263155072,149.32249956504924,3.6998104773042577,-2.4632651865220123,0.6210108641078637,1.0283712922491195,-0.3475476605700298,0.25610358966928326,nm,0.0
72.413277,-14.142375541692722,-26.541033963455337,157.27285486640008,2.3705021023707618,-2.5144283015725204,-1.132724224251941,0.7584863858864717,-0.6268142574996538,0.17820616539130804,nm,0.0
72.422797,-17.715886020954507,-25.382697369338754,158.4064572159577,1.3459966111609507,-2.027793414660525,-1.4394051452656638,0.5072273119609261,-0.44336361558080184,-0.08464443646161793,nm,0.0
72.44182599999999,-21.326991400503612,-26.706004659758495,154.62479827873148,-1.0296357834263774,-0.2903565051601305,-1.2360011307074,0.33593221602721124,0.15529658391908296,-0.6546048261862422,nm,0.0
72.45130800000001,-21.908090862945063,-28.795293915340334,151.4784193673086,-1.7341692120970593,0.4750860902870719,-0.6958368690762715,0.2825579070692175,0.3401303440499936,-0.6810521435221903,nm,0.0
72.47984199999999,-23.862799172087676,-31.16265171750947,148.4039981407198,-1.9789293096537184,0.8839349529979557,0.07661830227284065,0.12136666444930459,-0.15868661767269326,-0.004909490124790926,nm,0.0
72.48917700000001,-25.105781510967727,-29.50316602552622,150.08924228126554,-2.0785348778616792,0.7688461838728875,-0.09987328967303698,0.01643156952911179,-0.3817830747217639,0.21525678742455664,nm,0.0
72.49885800000001,-25.98172257002896,-27.223080696291625,151.9987651998899,-2.2507981486366906,0.7110487539480329,-0.2988339663969609,-0.08476792693343119,-0.4605302359744642,0.30247175146533595,nm,0.0
