timestamp,roll,pitch,yaw,acc_x,acc_y,acc_z,gyro_x,gyro_y,gyro_z,markers,motor_input
82.50385700000001,-32.81538155764384,-0.323113410138107,69.44383628918524,-1.4005674776667145,-1.2640500478153376,-0.9118038529816274,-0.21296731722811194,-0.3382287713701386,-0.5377339423690652,nm,0.0
82.513361,-33.692334690654526,0.6837759390426695,67.43193312301385,-1.089753326136552,-0.3668853736581547,-0.7406576500816661,-0.23775666831215397,-0.0891666128323418,-0.5000710728645399,nm,0.0
82.52307200000001,-33.91833492633537,2.032472005338731,65.56102397066174,-0.64663253261463,0.5673807112802588,-0.49158212025309206,-0.25178066367735535,0.06683917912752174,-0.38288318926837295,nm,0.0
82.532389,-33.4669543444615,3.8260162312748585,64.04442065634835,0.07346609392124809,1.2221076711925791,-0.3862510674064325,-0.27214102538257756,0.23546345895398885,-0.27052143604746415,nm,0.0
82.54190399999999,-31.88982853232342,6.04405760800308,62.77971760293822,0.324400990744987,1.8567655168190513,-0.10543818043945394,-0.24053843935349065,0.48116790348806615,-0.19931536709434838,nm,0.0
82.55139500000001,-29.575998584200022,8.257569477563589,62.320289144672785,0.7820714280610714,2.32574777203043,0.024084400346815003,-0.1671731317316408,0.612236014458413,-0.14900060314957614,nm,0.0
82.56090699999999,-26.409817273268736,10.124757879393886,62.195879838776925,1.2331075503770017,2.730046551486979,-0.0029723957416609276,-0.025291322572675277,0.727736985005177,-0.12643482053424143,nm,0.0
82.579938,-19.114830503557815,12.656301638480556,62.741499567318506,2.3438416810700144,3.088078729637383,0.12227004002106029,0.16432819221295591,0.7303976052500487,-0.06619146363128912,nm,0.0
82.60845900000001,-8.638045341578195,12.387643060064596,67.15059539517341,2.049815932500012,1.8132364139959323,0.3293785325584997,0.3384465629709209,0.4665262365540256,0.2181027339042788,nm,0.0
82.62765099999999,-4.1737324109486,10.289024952201437,70.42843074208642,1.2876075927796815,0.549637163321902,0.7069592772183068,0.3712068060018553,0.2694652315449684,0.1815246644579525,nm,0.0
82.63717399999999,-3.2489370520920295,8.9146786196582,71.87973632446153,1.1274798754113668,-0.021382261602139976,0.45237344402004265,0.332229279284368,0.08684638642475243,0.16182123583185717,nm,0.0
82.64669699999999,-2.8855421558739645,7.742589628161637,73.3260869890772,0.6872800886208398,-0.5307366208999483,0.4598393250049996,0.2585948538993053,0.001983849108247184,0.14533517993579997,nm,0.0
82.65620799999999,-3.3549460297547027,6.691203771179144,74.93543264450673,0.24484978153508816,-0.924480177989423,0.5857332890853332,0.19124264489328188,-0.14335352307966123,0.15049231866663837,nm,0.0
82.66571099999999,-4.803422539232723,5.569088442442292,76.67685787060117,-0.05723154664620518,-1.3671158202112357,0.3394605438855348,0.16321775217298187,-0.3303424332126256,0.17110124133847307,nm,0.0
82.67522399999999,-6.969808289751457,4.350905216780161,78.50000539612174,-0.46358903989754535,-1.7373948655843774,0.3503050170338666,0.162770906000352,-0.4696546378522845,0.19227035473032453,nm,0.0
82.684733,-9.959510393681734,3.1222001466996008,79.34366750643007,-1.0042330694281845,-2.313616605842285,0.5112973684550499,0.13993534191737098,-0.629735904883777,0.20475835718891522,nm,0.0
82.69406599999999,-13.804134636494824,1.85358984385058,80.16796989802218,-1.2371051593765052,-2.9635382406588113,0.20440890738256873,0.1265413564342266,-0.7979908807264442,0.19623663557200885,nm,0.0
82.703573,-17.773754795313323,0.69749396287893,80.88134957706296,-1.901337457921426,-3.3339786215762004,0.2023603092151872,0.11092599612699393,-0.8176925205502728,0.15930814223590828,nm,0.0
82.72259399999999,-26.4866545235367,0.4818132094302304,80.94798160353103,-2.120577581004573,-3.432776596157426,-0.5170777173832831,-0.16885204687795294,-0.8257462100138645,-0.04476715004817188,nm,0.0
82.73211,-29.882723887045998,1.0549500217103966,80.04711006885424,-2.5924987038985106,-2.779577359510505,-0.5689202345752802,-0.21192876991377974,-0.6475742511412288,-0.1697054982979915,nm,0.0
82.741615,-33.18520678465662,1.9880703242930189,78.26507677678492,-2.056330327316507,-1.9722303628344475,-0.9735075338044573,-0.29435058324122165,-0.610350184394324,-0.3370180436227216,nm,0.0
82.760648,-36.50273892760183,4.2840646631533055,73.59912591988184,-1.4034374287761198,-0.3545580598074774,-1.02824282974748,-0.24723038583470702,-0.13697640084855342,-0.5065371355553097,nm,0.0
82.77014600000001,-36.91303511647492,5.030224151927637,71.35046106470436,-0.670686313909411,0.40784537299877927,-0.9750038712228551,-0.15337637605239524,-0.03092992115292106,-0.46926267286574175,nm,0.0
82.789175,-34.289564830078305,6.904637859079777,66.99696989580218,0.03102500683466754,1.5601543290636661,-0.26077015843198453,-0.04327547123667248,0.43565593226887017,-0.398890558013134,nm,0.0
82.79866899999999,-31.59931208386376,8.096893990116339,65.17986580065225,0.6639598250019709,1.886368453609472,-0.1533217807687484,0.015143832344316157,0.5857742302620773,-0.3253888103509605,nm,0.0
82.808168,-27.804166122466782,9.386454941273756,64.39870394410701,0.9643347239213533,2.4185823743304797,-0.019797629401565427,0.10058919143033104,0.7899545222709912,-0.27173219970097645,nm,0.0
82.827204,-19.409137772298568,11.852728154081367,64.16816885937067,2.9135612352187366,3.355252000132564,-0.15653088914390337,0.18818074524478287,0.8567349686459442,-0.136993792546468,nm,0.0
82.836712,-14.513585813251684,12.22108850185258,65.59895669334695,3.1023244169153754,4.3203855287488615,0.6816176093282745,0.35407036104043677,0.8995216140467023,0.07878764374219996,nm,0.0
82.84623099999999,-11.089144924960559,11.849877211389314,68.37432840019933,2.622884006769125,3.201684157413457,0.5722351789408304,0.3442816099812007,0.588978293889163,0.4087635011444244,nm,0.0
82.85592500000001,-8.602614346842449,10.878060344844089,71.14093668478328,1.5421290447969238,1.9462246520524582,0.4631069879169542,0.36497454760497205,0.3921006063556761,0.4515076046833537,nm,0.0
82.86542299999999,-7.02853883245848,9.490546666922594,72.85779897055305,1.1477968235452762,0.9012150404770216,0.35631461615442234,0.3730150144114295,0.21187373320402766,0.2325034598522342,nm,0.0
82.87493699999999,-6.226916620164822,8.035672623762999,73.40839824857592,0.9099937178768339,0.6142152677656605,0.6463072698034317,0.33784839724161153,0.07087622466265772,-0.023057160764697004,nm,0.0
82.90347399999999,-8.09678633090888,5.283474027939665,74.29844261531132,0.5584365573980756,-0.3342203654808773,0.4034462933350258,0.12018510976657651,-0.2566748447401716,0.02940386962449517,nm,0.0
82.92248900000001,-12.106903361013492,4.120947140926557,80.0476233161171,-0.35285105628195523,-1.154887283244792,0.32354100812504827,0.0016048233218483527,-0.4663267189591755,0.5571780166502202,nm,0.0
82.93183199999999,-14.984177255375672,3.8067272218027037,83.99467567981591,-0.9386636038812298,-2.069606658415598,0.28829193792294294,-0.0002904325398074234,-0.5732453309696012,0.6686358934579013,nm,0.0
82.94133199999999,-18.552720248554795,3.351526318877028,86.76009808633822,-1.2857729328094694,-2.929500182032529,0.14441011868432876,0.04637223610629992,-0.7127109320877923,0.596843173523867,nm,0.0
82.95083399999999,-22.229943481462232,2.8379749319897045,88.35567780304083,-1.5810109858289734,-3.7480798515723275,-0.10090905709970341,0.08426504840222489,-0.733016512484687,0.3586983454317051,nm,0.0
82.960352,-25.930794925385126,2.2283310914796997,89.08655170105445,-2.1478895071054778,-4.09786733204506,-0.07725520560525294,0.12272941475997742,-0.7360398000449513,0.04120369544540058,nm,0.0
82.97937999999999,-32.42286827117477,1.2358931758161757,87.06991047194107,-1.7375138402896164,-3.2907634426409955,-0.6482306254045933,0.08038564332578006,-0.5231537105378654,-0.3939658847618672,nm,0.0
82.998391,-36.55831135526483,2.2278324108432668,83.23114377995213,-0.9114663022444973,-1.4949094299072265,-0.9268753937508153,-0.2052490347889055,-0.37038192405616327,-0.44886778391101495,nm,0.0
83.017425,-36.691200738991064,5.541985921822733,79.99705323872665,-0.7308464871250517,-0.15397610071312945,-0.7484974297136109,-0.31761593636946567,0.13504321659921925,-0.22021424513479454,nm,0.0
83.02711199999999,-35.50068846358019,7.172102420828507,78.64148133936409,-0.1620357611975885,0.29130552559614714,-0.6922100497963285,-0.2617267868461947,0.2990355925686097,-0.16386851882933867,nm,0.0
83.036622,-32.89888745559545,8.577255245880238,77.20754175846967,-0.27406032312039896,0.785829333987875,-0.23183175715002843,-0.1499102380061108,0.5683092867936198,-0.21097275577014285,nm,0.0
83.046118,-29.39120106873582,9.521753888995553,75.51350054902976,0.0060354956570975475,1.2647042540502966,-0.1204745557595747,-0.0014630743296072995,0.7220045163234804,-0.293252601694244,nm,0.0
83.055635,-25.600071543873348,10.131290586907712,74.27620944995643,0.20866118592778865,2.0885544872532216,0.4854583557995805,0.09104902103533073,0.7567335342005861,-0.37766781464878735,nm,0.0
83.065146,-22.007468323964407,10.85587008112278,72.81560197568427,1.0441143643756878,2.6195221211201725,0.712007229450699,0.07520900808755426,0.7217530104650488,-0.42469726186306134,nm,0.0
83.074476,-18.11079144919004,11.81662055855642,71.65204131992031,1.7992280739101503,3.1880231886449883,0.4101863867833735,0.06421032193659587,0.789067371781679,-0.38853077952566034,nm,0.0
83.083979,-13.961963846626624,12.738407226610152,71.47190705422615,2.290162207430586,3.511856339988586,0.25260374740694796,0.09545770294342341,0.8300005936183613,-0.21597426581545665,nm,0.0
83.09349900000001,-10.223506178543548,12.937112606848927,72.55067093321453,2.3088273283766543,3.7040993453807536,0.48090770908319425,0.20255469049621475,0.7077367952711574,0.09302848580494488,nm,0.0
83.103003,-7.521088693633919,12.542966244539182,75.08286032472787,1.9819266210373743,3.066005637873876,0.4204219233804215,0.2359857964013113,0.487178636995811,0.3743191380902074,nm,0.0
83.112516,-5.826357750599879,11.855474977984398,78.13770433811708,1.4959967106250325,1.9233383365497403,0.1531741592807303,0.22307464980170438,0.2941904936469524,0.48035052005407586,nm,0.0
83.122206,-4.67549845829365,10.85578576147819,80.7149481803814,1.0686025029997448,1.0381902352186547,0.2499956579951662,0.25049108832160827,0.18961744745419912,0.39498734250948186,nm,0.0
83.131721,-4.273568032245267,9.71753469018459,82.50753750618698,0.5867122971643831,0.4200442199464129,0.6078348044133833,0.24952822482884662,0.050110820770592486,0.24016910588841853,nm,0.0
83.141219,-4.909267423861754,8.7349482916754,83.68731228125786,0.5665301952797319,-0.07443782232898156,0.49670161872259894,0.19384380001447324,-0.14284896613291254,0.10158798025227428,nm,0.0
83.150722,-5.867270721871989,7.972236519209827,84.48937984415946,0.40409895077538965,-0.5105412665763915,0.2399975421789235,0.1463733843222953,-0.19902190651634993,0.03165159765766735,nm,0.0
83.16025400000001,-7.158500043794643,7.132147565596962,85.53229082852975,0.16009768053001505,-0.6526923029051891,0.36079340262154447,0.15992842607748115,-0.26396367914324437,0.06958039275730683,nm,0.0
83.169769,-8.986604951324312,6.32235792732438,87.0654195945399,-0.03914439198183224,-0.8097231832454033,0.5016811582189162,0.15356346347512356,-0.366921948756263,0.18627532984972264,nm,0.0
83.17927399999999,-11.283134910230867,5.775784145119542,89.23835785073831,-0.32013845246197625,-1.202152493909165,0.35819335660889623,0.110477860966036,-0.45399703888165255,0.31505845086294665,nm,0.0
83.19812099999999,-16.949652380787132,4.634044373026509,93.45085627155773,-0.7324706522174114,-2.622752053683955,0.0559373696136713,0.17643603863122795,-0.5577004097646292,0.3823220059995803,nm,0.0
83.236155,-28.332150338790974,2.498571638227543,91.56735415122428,-1.3306683858831678,-3.227425218748477,-0.5558006272131113,0.07602840130149358,-0.4230149582251243,-0.3466640949907549,nm,0.0
83.24565999999999,-30.079851359381696,2.730196655517565,89.47405875473224,-1.3321143587616897,-2.415405572057255,-0.5780935402773792,-0.029974411400186626,-0.34376543405374427,-0.44260930274358995,nm,0.0
83.25508099999999,-31.405727829734655,3.575709667968832,87.14554501135852,-0.971449815547914,-1.5571105922396173,-0.6134457226874137,-0.16414065888460416,-0.2542178339363626,-0.4598244528485938,nm,0.0
83.26468700000001,-31.785907359684764,4.890863205358678,85.00115460656158,-0.8386263973806597,-0.802239426676193,-0.587550242429865,-0.2549943290200149,-0.052005282090181855,-0.39786160798201264,nm,0.0
83.274374,-31.45369926350576,6.351340685046629,83.22264519331672,-0.6062652010862437,-0.08872029317115894,-0.5574188766612506,-0.27066446713910025,0.10167430730193507,-0.29881848490463014,nm,0.0
83.3029,-25.848415841802524,10.332166307068611,78.84828259266249,0.07098117530042841,1.284585586785927,-0.12283077536728783,-0.10618408512263161,0.5663623627455742,-0.2700709926546012,nm,0.0
83.31241,-22.793059817308382,11.190667292605143,77.81079735771002,-0.022812110202106172,2.0182708250600014,0.4771606907187271,-0.033020161350500205,0.626879744654398,-0.3231010850490718,nm,0.0
83.321931,-20.178518001656364,11.976615662445877,76.58587636915448,0.7790398754599157,2.3693606652458516,0.47732516915771117,-0.026059931213182935,0.5380602142788341,-0.3521798709683164,nm,0.0
83.331256,-17.232228238902053,12.650143779143225,75.5094619311653,1.2766594285832125,2.9138395914858872,0.4547756657404942,0.021833044978797983,0.5945639055565499,-0.343843462563522,nm,0.0
83.340767,-14.097754339023323,13.200582806211543,74.96792389378037,1.7115104512888333,3.3097489830800195,0.15423781061030903,0.06293062911527442,0.621997206616202,-0.2520796543620304,nm,0.0
83.35028600000001,-11.30210382844375,13.412802169090728,75.39788681595752,1.9219941727953818,3.431335550170381,0.164390296101811,0.1117073249366651,0.5398463369262442,-0.04667701669588529,nm,0.0
83.359792,-9.161117118042071,13.142737064992296,76.88578923688809,1.6965510662876568,3.164621825599449,0.40124295524390224,0.16572520541019226,0.3947592388335755,0.19508498453023432,nm,0.0
83.369294,-7.894065753605704,12.536325616738473,79.07776981884193,1.4324347006959124,2.3748493970595477,0.19553178059200252,0.18319959318854284,0.21991887647880623,0.35811805333586966,nm,0.0
83.38848300000001,-6.181044184496645,10.468180390479134,83.51728196177912,0.5610640577996853,0.9201303947876309,0.4204821211789716,0.2673392267460366,0.11537910854196384,0.3218610632027251,nm,0.0
83.39800600000001,-6.3402306091320515,9.098603244142769,85.25074789018647,0.47165818182890284,0.2603061061289007,0.4114114155398481,0.28271698961433495,-0.05231852741314049,0.256180027877851,nm,0.0
83.41702599999999,-7.768545791666797,6.312817548245079,88.24293406877574,0.017259844948677973,-0.8729699129179005,0.5060913526462038,0.29038153018747836,-0.1860531006345183,0.1842657409816708,nm,0.0
83.42653200000001,-9.292278899771981,4.823233147199211,89.84255689840474,-0.016751068234471186,-1.298101465517307,0.3973705269025604,0.3071718579644435,-0.3009877744548201,0.22371078088469448,nm,0.0
83.43605500000001,-11.145281745831456,3.528772518022212,91.71739246798678,-0.25075557869353177,-1.6459876699072655,0.5011348681806226,0.27836028763634263,-0.3585675143369677,0.2803067456176946,nm,0.0
83.44538,-13.485601895180658,2.606875014062903,93.83894144152602,-0.3006216320584511,-2.2182776140363014,0.15264762338457866,0.22172519248846814,-0.45021000444623055,0.3181230752440736,nm,0.0
83.45488499999999,-15.895260247235935,1.7802230904179863,95.93866918117045,-0.300343084927715,-2.7972816664724975,-0.11218796783852972,0.22046449777637608,-0.4575847585659673,0.3106782644595612,nm,0.0
83.46440100000001,-18.148583529645105,0.9582504211007431,97.03386295119881,-0.8354306099884405,-3.257265970359431,0.09537284907240022,0.22627009984441623,-0.4217551635750514,0.22891955293825453,nm,0.0
83.473917,-20.72862046317307,0.3974867624604141,97.26827456165951,-0.8147001447843087,-3.5095083475191955,-0.29309435939854794,0.18748445966229854,-0.49067929304037666,0.05256774622832836,nm,0.0
83.48342099999999,-22.959536222591307,0.11221014566228207,96.50849402789974,-0.7994185016875133,-3.4553429539123037,-0.5736637928159334,0.12215933178428548,-0.42887505229676653,-0.1500504120666008,nm,0.0
83.49293700000001,-24.546446774785448,0.03171400717093541,94.89693431655597,-1.0922200804850004,-3.0528559041484393,-0.5236862382646084,0.059685612978458306,-0.3071661098955723,-0.32181389652508696,nm,0.0
