timestamp,roll,pitch,yaw,acc_x,acc_y,acc_z,gyro_x,gyro_y,gyro_z,markers,motor_input
93.003524,-5.146536759930322,-45.023973995714385,-128.10737061212535,1.5036202618076961,1.2186102323407684,1.0161543349889361,0.5891171893634818,0.49739978141100744,-0.2774026764686598,nm,0.0
93.02235200000001,-15.72402110248275,-43.04918120435743,-122.95328920520679,2.4784508642767777,0.7146743718581471,0.35518468816264065,0.5375943073156945,0.4701841461833915,-0.1752711231728682,nm,0.0
93.03187399999999,-19.424313975148475,-42.553046276264084,-121.85975905811979,2.253495793067691,0.5990181771710166,-0.4718780033471484,0.36169426105116265,0.4080312685390766,-0.28078241481437355,nm,0.0
93.060408,-20.982374453175982,-44.96545137793914,-122.95748301353203,1.6252182287203298,0.678030376225799,-0.9530231306228056,-0.2461688234813267,0.06089018650983625,-0.14533226712502006,nm,0.0
93.08911599999999,-19.59107842503212,-46.18768933803721,-119.166052961328,-0.22033079167464992,-0.209623223100523,-0.6136670608612478,-0.014283091234647246,0.013114472044734244,0.4066176165704245,nm,0.0
93.09844000000001,-19.745170593223936,-46.101619185798654,-115.85865463480242,-0.8812711892484691,-0.8937394250984193,-0.5683177375017768,0.01153765942662908,0.012125781899704353,0.586303648118186,nm,0.0
93.10796099999999,-19.24235355948506,-46.07712364175978,-112.28008667672127,-1.2498189590731086,-1.6429800448153635,-0.13305756707630664,-0.037519249039480736,-0.06570652166259146,0.738479743549639,nm,0.0
93.11746299999999,-17.84711453116902,-45.9905930534869,-109.18297664154922,-1.698093060389868,-2.3456510784101545,0.5349627264781655,-0.06582744266336675,-0.18850243294064756,0.7831649963207064,nm,0.0
93.127161,-15.409501845339111,-46.0213903708739,-106.52222340252204,-2.7555145721615633,-3.2925106709455947,1.529289334005204,-0.12335299479923734,-0.3228085645220361,0.8744810397991334,nm,0.0
93.13666599999999,-13.193724097633124,-46.586222871537785,-102.97244620207879,-2.630098832086917,-3.1365694675574134,2.6691697138118795,-0.20081739269852472,-0.2709218210592054,1.0158380893745564,nm,0.0
93.14617899999999,-11.913788555540492,-47.387992633071946,-98.99094478548251,-2.2904596206843224,-2.3196612884273238,0.9153284677105967,-0.20459996856745766,-0.14487714497407383,1.0350222761255425,nm,0.0
93.155674,-9.602468643806965,-48.751194898110136,-96.43217054610264,-0.6870773976481828,-0.3831003369358848,0.4613210442462191,-0.3259872688475381,-0.2739652128411732,0.9333353619583798,nm,0.0
93.174532,1.9867971937121809,-50.69524047543324,-103.172347421397,-1.0813282443595105,0.27564841710172067,-1.5406065457674907,-0.2870952129008856,-0.9757418712523559,0.0998408955312945,nm,0.0
93.184032,12.253826375677422,-49.60361389443055,-111.08286727197807,-0.46460791595526546,1.2037574826806332,-0.9484687475308716,-0.18519705692385344,-1.3282468747435663,-0.13234364994389752,nm,0.0
93.19356400000001,19.997680216259273,-47.08768615192509,-119.11199670553164,-1.2879738758194204,0.9230385925918247,-0.8589739173522581,0.01057712893445376,-1.1508629214574042,-0.5577730728872707,nm,0.0
93.203058,24.098136112713668,-44.17645813445796,-124.97315112445608,-1.7222881661926308,0.9052816455722368,-0.6823294483629061,0.17618570902743272,-0.799774689492525,-0.5951963492865984,nm,0.0
93.21275399999999,24.230416553642247,-42.435945541797096,-127.4680318581276,-1.1862030741495095,1.3164299505372883,0.19667917825458314,0.2563070519955678,-0.2248863822826569,-0.48375800613339465,nm,0.0
93.22225399999999,19.826207462772185,-42.51341704487536,-126.90551781475534,-0.6507684506813475,1.3173827453247906,0.9019111089773506,0.36701834313935866,0.5248148853615843,-0.48497474150397485,nm,0.0
93.23178100000001,12.1315021506415,-43.2947687806388,-123.71807002847568,0.4456591865477698,1.4720086047973784,1.466781000073871,0.5107266079590194,1.0087853878371715,-0.4123356839701252,nm,0.0
93.24128099999999,2.4892574335874498,-43.419129082208016,-119.54580207978222,2.443158891364475,1.9709241885763027,1.951484923502016,0.7006515395216576,1.2061462271265813,-0.49096431605632723,nm,0.0
93.250609,-7.558046986645929,-42.81449796061465,-116.83427970958128,3.012312016841925,1.6667138429723594,0.6934449574720133,0.7858640457277462,1.2362806412890193,-0.831180785033206,nm,0.0
93.26963900000001,-19.388910312626532,-42.608685392372735,-119.85895769497783,3.914204082719996,0.9506485647394995,-1.0397893080580474,0.24787872743139527,0.6212655176049322,-1.1892343139695711,nm,0.0
93.27913799999999,-21.783589376645008,-44.06659886554569,-124.21341945515695,2.5616511487172167,0.44898315302572755,-1.715864209675236,-0.07551731986131922,0.45403741374278905,-1.1965186532004524,nm,0.0
93.288657,-21.801005533976497,-45.860235285647924,-128.3736342513299,1.9217551118269167,0.09476944697492763,-1.2765526502708053,-0.30080499258331295,0.21902843097217053,-0.8308855715184107,nm,0.0
93.31736900000001,-20.105960191135058,-46.110734467727674,-129.52184918020848,0.026261138504631052,-0.6138559992389726,-0.2677913276122593,0.03865099844892269,-0.08829619623686974,0.4713366113013665,nm,0.0
93.32688099999999,-19.84657077446522,-46.201576694467995,-125.02747366448428,-0.19823862656796296,-0.9238172976646133,-0.06935125164722805,-0.04946820517359849,-0.01456439857360661,0.8381263191884406,nm,0.0
93.33638300000001,-19.232205621326518,-47.23078422310774,-120.17523589886406,-0.6596732365214729,-1.2451995645701406,0.13075966429170832,-0.2328136338732968,0.04130428002592261,0.9870458958529986,nm,0.0
93.34571299999999,-17.482217018580823,-49.074586933433444,-116.00558763029127,-1.325343270055369,-1.7570067965150304,-0.03702636788662184,-0.4495441651602588,-0.032815552916814,1.0308200314733096,nm,0.0
93.35540599999999,-14.506889382437954,-51.5002851200228,-112.91404510877467,-1.4921920371154085,-1.9202260579413193,0.8665551575314012,-0.6131515691746732,-0.14767977393342285,1.0025367726553887,nm,0.0
93.364922,-10.677841339925555,-53.52260702321493,-110.7699906332101,-2.365128706650072,-2.3090035626311267,1.6687393839484364,-0.5626903617320387,-0.2850420620325387,0.989569305776023,nm,0.0
93.383947,-4.610173722522019,-55.03078919455867,-104.8121563896727,-2.2882471817890235,-2.40274497657533,1.469328273549685,-0.17115120325501915,-0.21755185448402461,1.1128895672923949,nm,0.0
93.39344399999999,-3.6043640081948296,-54.99692262536946,-100.68008339637503,-1.6074365810429443,-1.311115239803611,0.5002023477244444,-0.032490489215116845,-0.11900191199014687,1.0919757041904499,nm,0.0
93.402783,-2.1762569217294256,-54.83293729990424,-97.99857785375015,-1.2496070298615265,-0.30479090802733516,-0.7505912608701354,-0.007966099595562753,-0.17332126996016645,0.8952788791022463,nm,0.0
93.421798,8.274870716605358,-54.01015835059398,-102.82077911555773,-0.5141864043159041,1.0014565828576263,-1.5161342714137007,-0.026127274832322467,-0.7766230353741518,0.2475497103858544,nm,0.0
93.43131199999999,14.927462005753387,-52.1330855379266,-109.67954083582958,-0.7850790331798364,1.004644164805069,-1.1418151744435996,0.12335153676562428,-0.8791446897468777,-0.2986285001349006,nm,0.0
93.44081,19.765607681558166,-49.09800709481387,-116.75946349962703,-0.8933903077626537,1.1899289333183642,-0.5201882150222161,0.3012505958207902,-0.8101697731167569,-0.6251624249206792,nm,0.0
93.450513,21.14864427569146,-46.417213577657385,-121.97936385498151,-0.6991268178488786,1.397813119844351,0.38220374864041523,0.36320304868853315,-0.42978501810737835,-0.841099092732364,nm,0.0
93.460024,18.382509765672047,-45.44217110885632,-124.8603438521493,-0.5691364374309344,1.2966173854003784,1.0339032942428128,0.3614830273803358,0.2111225162574725,-0.9759619930912696,nm,0.0
93.469516,12.136183999066708,-45.91617062509966,-124.73493248943304,0.301828766101106,1.4507321026660762,1.848972506325652,0.40680615668315756,0.7697992083002309,-0.8702897535817142,nm,0.0
93.47904600000001,2.855660644965834,-46.482478122617366,-121.93385581847265,1.6039969506050127,1.5094622020375352,2.0219983632647947,0.5979215172928184,1.135398898715144,-0.7803699977450773,nm,0.0
93.497882,-15.865964149311369,-45.66300140868739,-115.71745776568856,3.3778166433917445,1.0403167518088599,0.0020774262829525046,0.6397554579461544,0.9902275944035156,-0.717334397165416,nm,0.0
93.51690199999999,-24.651122165891614,-45.25688775901067,-118.25693335212911,2.4527766271103046,0.5009570145337064,-1.843156406610729,0.13756324796603978,0.36199439359049707,-0.878658166575493,nm,0.0
93.5264,-24.347977134838974,-46.05879949799851,-122.00940068791732,2.225827999027356,0.17729870384914173,-1.5125486070083973,-0.1730827237978453,0.04721193713049741,-0.7029890853700086,nm,0.0
93.53592,-22.554772509383543,-46.75313358389409,-125.93572115494487,1.4640521462972746,-0.09198835554389236,-0.9225957194129357,-0.26643580020642194,-0.12368529586212312,-0.5213052985144712,nm,0.0
93.55514,-18.32601012788968,-45.88353536405562,-127.41970999795522,0.11371964540061709,-0.43339874600248884,0.04057328127394019,-0.05455784132913541,-0.3075694647287794,0.20570965413093079,nm,0.0
93.574149,-16.803239425483444,-44.78279534889408,-120.47613308238034,-0.6940113473785242,-1.1433205805378797,-0.0005788794515466611,0.004483608299840673,-0.08921175358485398,0.8408044484741594,nm,0.0
93.58346800000001,-16.19781970122064,-45.01481242761567,-115.76814511593821,-0.8685445972122777,-1.4639105618945623,-0.029197587745226752,-0.09519692137608697,-0.05364247397867349,0.9755782612889875,nm,0.0
93.60250300000001,-13.718786397086253,-46.89301159908953,-108.07285761818352,-1.5750449091652379,-2.0424551387673104,0.21153851342496666,-0.28955167450215213,-0.10963886229553119,0.8213196710941952,nm,0.0
93.612008,-11.184547393876638,-48.08234852165526,-105.87900869566708,-1.7129449139985944,-2.2196203310068148,0.5546258553216068,-0.3418605810315855,-0.26081573442383427,0.8352769313225352,nm,0.0
93.631214,-5.44249951176852,-50.09868313803993,-103.22850709274638,-1.6314435311979345,-1.5849208828703851,0.31801604877847145,-0.2720472780389901,-0.31629947470674913,0.6880455003920772,nm,0.0
93.64053899999999,-1.7132938142686116,-50.7028275687481,-103.37671176924076,-1.3401648259558512,-0.7244883249698276,-0.12655214358825523,-0.24175809640459572,-0.4394006194895116,0.612553034812435,nm,0.0
93.650057,3.3837715082053985,-50.942113000777546,-105.41776056004066,-1.0967538899196518,-0.07922078155087417,-0.6881798401772261,-0.22178167968143303,-0.6169053894306809,0.45477218728358565,nm,0.0
93.65956399999999,9.47784375551157,-50.57972249869909,-109.45854398584855,-1.0046439525441517,0.49374445615484314,-0.843930156934241,-0.17761409008863008,-0.762555608318172,0.20663299264925866,nm,0.0
93.678573,19.56777451443633,-47.292138316253116,-119.69006000042505,-1.0771348148214668,0.9496571316778962,-0.48672187295346714,0.09052781153680341,-0.683939800155028,-0.3262623615887198,nm,0.0
93.68826899999999,21.147394602588708,-45.43997288753879,-123.34513504987206,-1.013974250454053,1.0320033964813944,-0.09493921433995173,0.1885763677438633,-0.3838344419060524,-0.5042594478015205,nm,0.0
93.697765,19.831661396395745,-44.643559329328454,-125.47734370182937,-0.647849802898452,1.3084432721150514,0.6981576038588042,0.22309179368799642,0.060365022940971604,-0.6148809920699952,nm,0.0
93.707299,15.440517498492685,-44.869087039374534,-125.78325680921793,0.0764571176125941,1.5150996251622746,1.5010687381477794,0.31311035899496853,0.5315548066665786,-0.6814171662476536,nm,0.0
93.716791,8.298044678936455,-45.401485620998876,-124.38296329833693,1.1436488281753097,1.7040395971317572,1.8451827679207862,0.4785683929227824,0.8853439773287967,-0.7336858904377077,nm,0.0
93.726314,-0.44497618577131903,-45.77420112058803,-122.14649424317332,1.768768637593865,1.4806421947568364,1.285927448811274,0.5954214303345384,1.0645942987494688,-0.8021678378740393,nm,0.0
93.74515199999999,-14.880076193441099,-45.78913635687111,-119.43547560743097,2.909430133885733,0.9139699147445414,-0.16719893291043594,0.44472577412791103,0.7727104097920751,-0.7706384577613291,nm,0.0
93.764193,-21.61306923473357,-46.3044092178911,-121.25729629003092,1.9924621281580532,0.29779762976438523,-1.0022199271877403,0.07108334535505846,0.31577765470804053,-0.5642469196335484,nm,0.0
93.773684,-22.47743293208896,-46.75794719114714,-122.10576329514932,1.5597256406192441,-0.005132872398330641,-0.704286466369023,-0.028120455948318072,0.15205838164722907,-0.33863251100456865,nm,0.0
93.78339299999999,-22.81648765882873,-46.80470136988653,-121.92668386847116,0.7064038908277154,-0.2761211725748469,-0.5052872147958934,0.0034890752087171273,0.04748493325005496,-0.09420298235680154,nm,0.0
93.792902,-23.018874120867356,-46.48738953187597,-120.18395061495335,0.23889240302541317,-0.5385095076783234,-0.3279038202910757,0.05565537390097475,-0.006049682724264387,0.2280920591545435,nm,0.0
93.802413,-23.687232812746036,-46.20095168593801,-116.87465161848672,-0.2118669638910844,-0.8414895918096449,-0.2908508343078162,0.08106425301200433,0.05594963129469937,0.5010913485144181,nm,0.0
93.821227,-25.53601746526745,-46.17758896474372,-107.70165291444175,-0.9634202473917052,-1.5209855475186171,-0.38978583755090396,0.011804225394524321,0.11180413967853695,0.8136562846530287,nm,0.0
93.83074300000001,-25.561784022104607,-46.32737474755857,-103.27662484182551,-1.0701327837268468,-1.881518457242261,-0.30691389051465573,-0.041293324572016135,0.01039150853104631,0.8689202654226065,nm,0.0
93.840251,-24.721662686951245,-46.48137418942364,-99.67163852519712,-1.5597437997909802,-2.308068639229746,0.11680311455420549,-0.06649543971595942,-0.10958081854626146,0.8350405848720333,nm,0.0
93.887813,-5.016357229113998,-47.401185208094795,-96.42026663559469,-1.0589297725237878,0.045220810777144044,-0.7296054613496323,-0.11169067747736175,-0.8342437245471502,0.329025002940682,nm,0.0
93.89731599999999,2.064943492620828,-47.1929944892619,-101.18918900152393,-0.8427319557099298,0.8277957812511518,-0.5853708099504716,-0.11633335467874213,-0.9624150191913451,0.027145273129721877,nm,0.0
93.90682000000001,8.136803777681639,-46.45584354373484,-107.03745310817082,-0.9846069336411785,1.1057157009022494,-0.32812199500092815,-0.07079847552836531,-0.8481338021773913,-0.3402879301098781,nm,0.0
93.916339,11.734634310903997,-45.28299032266054,-112.47339255498224,-1.0862007950360992,1.2063537121536871,-0.13442772686503526,0.03837513074066142,-0.5561995667142046,-0.5823177432099005,nm,0.0
93.926042,12.127474843985935,-44.531962492225475,-116.37002987009151,-0.7294469330581791,1.5062622408371933,0.39158969319497067,0.1000799315991413,-0.11708792538831382,-0.6714596031914315,nm,0.0
93.935542,8.92308232029494,-44.801332244414255,-118.09466588771808,-0.07285395058746123,1.7538668670893538,1.1739240867684095,0.14878664420555276,0.4268675503575958,-0.7034170494926735,nm,0.0
93.945064,2.488683923162506,-45.46076746232499,-117.52540013289388,0.9419067218863061,1.8287086439860354,1.6385107829855594,0.2975320194121176,0.8619168790199861,-0.6873382401416894,nm,0.0
93.954554,-6.005529521519744,-45.58443793839367,-115.56479783720548,1.8150673922001916,1.6188160993880172,1.28011554458179,0.5014590525003051,1.0732301793383618,-0.7092771142714553,nm,0.0
93.963889,-14.180116489148581,-45.1133525241157,-113.77455288692303,2.363314202239734,1.3234797603795134,0.3583059705461422,0.555922651506225,1.0032200578324852,-0.7081681178235946,nm,0.0
93.982912,-24.60247515424868,-44.67177811043649,-114.68717844883902,2.5077826628885744,0.614863107515743,-1.1202455930032982,0.22827836595545895,0.5439301910561288,-0.8383977711254348,nm,0.0
93.99242000000001,-26.099226232204657,-45.287104556980594,-117.26704170378495,1.993753516485596,0.3072289909758871,-1.3001711102358624,-0.03131297672897659,0.24694015078191245,-0.7612899299398856,nm,0.0
