timestamp,roll,pitch,yaw,acc_x,acc_y,acc_z,gyro_x,gyro_y,gyro_z,markers,motor_input
55.503804,-13.11972613457811,-5.940276647388106,113.84536570632221,-1.0959261722887608,0.17277284539820315,0.22540858629055713,0.08557376362380184,-0.3964347161558141,-0.049951477731290134,nm,0.0
55.51330200000001,-15.536049492954524,-5.559833615513107,113.63766363066873,-1.6903374830808047,0.09399374266659069,0.46608932330163805,0.13302623374260972,-0.4603356355272879,-0.09098968457169884,nm,0.0
55.52264500000001,-18.715214769287698,-5.3994736456926855,113.86709912980668,-1.6471988634281383,0.2876894901669929,-0.055799696153225505,0.2382034437089057,-0.5806471885621786,-0.1457994636201478,nm,0.0
55.53215399999999,-21.730317491448066,-5.5904101008986595,113.91339368468186,-1.8211525340708168,0.18935199236625652,-0.2189589996644962,0.29013082449299776,-0.5215842758362226,-0.16777705519476097,nm,0.0
55.541661000000005,-24.64057062792997,-6.17372033576476,113.7370101799702,-1.9525031398905126,-0.013830155050661163,-0.35322736117885833,0.35210524817940136,-0.47080348669585037,-0.19116442919123566,nm,0.0
55.570199,-30.607511344287694,-9.126848011197216,111.09236181272902,-1.2045330856556355,-0.31052541873495976,-0.8948233039038808,0.28949362161477765,-0.13701034334065704,-0.2088302761201948,nm,0.0
55.57971599999999,-31.077704691790974,-10.01649159011036,109.7800858919192,-0.7787387858814562,-0.29718134328164336,-0.9495808920996784,0.2090456122210695,-0.015650408295589984,-0.19476228163823842,nm,0.0
55.58921599999999,-30.504532270632417,-10.637305022800103,108.04136216164534,-0.5106102771068519,-0.2628616882552259,-0.8193496603809228,0.09212622038023298,0.15608554859842075,-0.16551679893745772,nm,0.0
55.608265999999986,-26.21894966229357,-11.080069370934902,103.72311178153566,0.11136162951339885,-0.07308842453903418,-0.5217020690905323,-0.09373470277908985,0.5255061638958306,-0.09642345192309465,nm,0.0
55.617772,-22.028133045513243,-11.143955667182102,101.51950544851353,0.2540540241350898,-0.06905030085581881,-0.32083673495154824,-0.1472815598071883,0.8168317048632612,-0.02258436220844314,nm,0.0
55.62728100000001,-16.586676032780506,-11.156404881352184,99.34529258889697,0.4655113911448652,-0.07375717709373705,0.10655519200852465,-0.16757042124066404,1.0624166409567952,0.04057121493829727,nm,0.0
55.63677200000001,-10.081855743545349,-10.946708638196746,97.36210104032787,1.0276002958967876,-0.1199283155028937,0.49991309252875527,-0.20195758056222826,1.269445091273865,0.10359293059878892,nm,0.0
55.66548900000001,12.221201574102114,-9.822746828572058,95.81661296256834,2.6054177248080603,-0.1115088501473604,0.9539724977397454,-0.1906089331088318,1.4019833404433373,0.30757941361004215,nm,0.0
55.72237999999999,25.405202764701926,-10.536215312409587,104.2890426195741,1.3852380521904566,-0.022916822990617907,0.02876607119154203,0.10987603581242342,-0.41880160357798873,0.20031406671350835,nm,0.0
55.73188999999999,21.670268960785627,-10.110291715252478,105.48953889604671,0.8320702751732783,-0.08290105731509245,0.3063137223248175,0.11331207470424588,-0.7230005467068535,0.09863485137501714,nm,0.0
55.74139199999999,16.52855975586083,-9.261675592218898,106.44095038794013,0.1239898114422921,-0.11066230544586086,0.6967433911307429,0.12317337225934724,-1.0124016191901395,0.010238141412021945,nm,0.0
55.750890999999996,9.775974560918366,-8.119946816788595,107.17428659444613,-0.6311397149098645,-0.05931720756226368,1.0517964657817114,0.17598284186675947,-1.3354436679375983,-0.06350580206156857,nm,0.0
55.760414,1.8016963268896298,-6.847099008617024,107.78013935823783,-1.2993540049105279,0.24753464524271362,0.9305026399341044,0.24163582123100957,-1.576379001186886,-0.09132781890325863,nm,0.0
55.769923000000006,-6.5296565549706544,-5.472585846250458,108.3144735528584,-2.5736594959019428,0.14184978397283873,1.7329944703925313,0.26210626987052515,-1.6520136619728603,-0.0751216437322757,nm,0.0
55.77942899999999,-15.776952407054004,-4.063821174039942,108.56846320624648,-3.5925144174224837,0.4104334243444226,1.2542583565789023,0.3265988446770166,-1.8294572306567156,-0.10423710042131915,nm,0.0
55.78893500000001,-24.9933715795433,-2.7620916141895124,108.28169066117863,-3.7763412168310073,0.567403183346851,-0.03681033823344734,0.34555336032693457,-1.8200428999750682,-0.16631521157464693,nm,0.0
55.817469999999986,-44.16600520067477,-5.259718866391054,104.64038053355914,-1.859640924452786,0.38752164503287495,-2.0552134963445168,0.607752457967926,-0.6998047403522699,-0.3448555815295214,nm,0.0
55.82705899999999,-46.382397431180024,-7.6995082773032655,103.4291084050364,-1.5505964559442402,0.023832347659534448,-2.0140200932698527,0.5908339915884822,-0.30120389275401527,-0.2866452658577716,nm,0.0
55.836578,-46.84525926517622,-10.088469092063637,102.51536418857498,-0.8687045109951462,-0.19739987216475444,-1.7787909075649568,0.49683920008265764,0.02589184184551841,-0.19103639588670185,nm,0.0
55.846014999999994,-45.024849587455456,-11.699075221985057,101.56642469449295,-0.8229529675792513,-0.5877278884303199,-1.3219196632432255,0.2511390916487273,0.42485723755240656,-0.1150618720533783,nm,0.0
55.85533799999999,-41.410067945822775,-12.285477260430309,100.36437842399948,-0.6802085000403176,-0.9435759349131885,-0.9326416049311238,-0.008603046722691597,0.7248424906614717,-0.08484733440796556,nm,0.0
55.86485200000001,-36.390451017206324,-12.289927216138029,99.14895874591059,-0.18669575213542852,-0.8890375698879475,-0.7010191719611821,-0.1542878804734044,0.9754918347241395,-0.024975261024776246,nm,0.0
55.89354900000001,-12.771441239790251,-11.491002000298664,95.71726407180591,0.7499215328163537,0.03163381254749247,1.3461512044606085,-0.2665092805714888,1.6930742358527189,0.11141579690189952,nm,0.0
55.912575000000004,7.090133692239987,-10.40733451570656,94.46016848271601,2.1938849598871273,0.47001036879127406,2.234662025149249,-0.2534385818353308,2.0011601141387336,0.3076587662789402,nm,0.0
55.92209199999999,16.178659161213957,-10.078339248808788,94.83222929677369,2.813160005757346,0.44323583723444887,1.4344731064227954,-0.20139204626910429,1.7882059594101618,0.3912440540622508,nm,0.0
55.94111699999999,29.937528404467574,-11.098940316110165,96.80751954104672,3.0680753438989226,-0.0365061818342363,0.33501812166951583,0.03915174736288289,1.2176440155776067,0.43395892084505494,nm,0.0
55.950626,33.466738293545866,-12.030844337193008,97.95968478443025,2.899999735611037,-0.17070085015819395,-0.3465650501424858,0.1018570322765581,0.7199449443799245,0.3633300000804138,nm,0.0
55.959967000000006,34.73910534852593,-12.585840551096437,99.22963050971875,2.44522685696875,-0.3305561663474275,-0.9802017861674718,0.07804842071770629,0.27229003988578265,0.29953493368480927,nm,0.0
55.998186000000004,20.347386134344877,-9.582804654569877,104.43645151961603,0.20363524360319496,0.16138182850528418,1.0248604183288323,0.006226425768302138,-1.246898759630159,0.04915167875395221,nm,0.0
56.026703,-4.277626168398379,-4.6622282923698295,107.98196375149342,-2.7231704040346902,0.5478247862383517,1.7090931773424782,0.19710680796809818,-1.688550353020306,0.028015762443354717,nm,0.0
56.045720999999986,-22.413967295625614,-2.179237972913458,107.82095263742315,-3.6156355292053464,0.5837147483550081,-0.34925648547923593,0.4094665473479296,-1.776862951242263,-0.18403815889444056,nm,0.0
56.05523500000001,-30.086027013898967,-2.5632844145452998,106.62038354314784,-3.2161188849880116,0.6254363694192373,-1.0767417927316099,0.5380208778871391,-1.433805309123928,-0.3016400796873156,nm,0.0
56.06475499999999,-35.94924739708124,-3.9963796334716477,105.07558984813555,-2.760391570517381,0.4987384035592332,-1.501349061115918,0.6062384051375583,-1.0401884018893428,-0.37282542310445627,nm,0.0
56.074257999999986,-40.0923448863307,-6.034167247781179,103.70525718244727,-1.9805177201417685,0.27597994816971083,-1.810727497499214,0.6108283515366466,-0.690559941635305,-0.34230352635359446,nm,0.0
56.083845999999994,-42.221502562784174,-8.23919836781928,102.90539116930952,-1.494361556605704,-0.0005292272559583508,-1.8678526319691984,0.5373737391776916,-0.3018752959376563,-0.20797592525615083,nm,0.0
56.093276,-42.30078531903034,-9.99132991178223,102.36055927576467,-1.3478775595225425,-0.39908518713805236,-1.6345571132440646,0.35626265837222026,0.06940589097332009,-0.10629608500229557,nm,0.0
56.121644,-31.805674527934507,-11.574604982000363,99.12820014512879,-0.5712131465705895,-0.8675930095274998,-0.6906985283053718,-0.08687969026950436,1.0174488026352486,-0.04184452015365306,nm,0.0
56.14083099999999,-17.24835971839413,-11.986267177317306,95.75513106110853,-0.06947608981032827,-0.19948538942427393,0.7290616206519962,-0.16946079159574098,1.5794072731644113,-0.032387367838662896,nm,0.0
56.159842999999995,0.1944507919145912,-11.319701532531171,92.72149766106445,1.7018289378914466,0.5261826360264581,1.376150474405869,-0.16051317988127717,1.7206585973202768,0.09746635943417906,nm,0.0
56.16954200000001,9.320041713265596,-10.87372801537834,92.38861611688479,2.3926936131628556,0.5393623047315638,1.6312669151743058,-0.1585162990025005,1.7953682074351407,0.27979763805464253,nm,0.0
56.179047999999995,17.880126916816554,-10.617516481439619,92.97639953889914,2.8627621365228295,0.2912769882447663,1.2273598898343936,-0.12074572235739056,1.6881227650565034,0.4301372548414389,nm,0.0
56.188376000000005,25.185832646708953,-11.064821846845565,94.00317129293984,2.9825988569418245,0.13388418547795725,0.3817997740392442,0.009750943502563966,1.4482947839964455,0.47246471848845983,nm,0.0
56.19788600000001,30.95041735370893,-12.08976336704488,95.04302489908295,3.0413717757954393,-0.07123819536329673,0.19254868489313626,0.12200840220747664,1.1525433837470203,0.43105060027115566,nm,0.0
56.235724000000005,31.88222253395953,-13.011675876317575,98.44070894457921,1.8812869924738238,-0.24883213646371075,-0.05778199788644445,-0.005394401772599373,-0.5258465383374012,0.017212555471905994,nm,0.0
56.26446899999999,14.016925668265126,-10.735218097927914,102.38819342428906,-0.36612307077334266,0.15365813564431965,1.3975599908753336,0.1572040274939873,-1.462512318501215,0.031985842276787614,nm,0.0
56.273961000000014,5.361747943866435,-9.615794756634745,104.27891222708124,-1.15718865519548,0.37105072965105024,1.2211918676399753,0.184766820345028,-1.7016323919482879,0.0668300384351879,nm,0.0
56.283491,-3.2787505690652434,-8.04516924797588,106.08481774076535,-2.2072650416016444,0.16583099136309418,1.4088302943225373,0.1543880439963591,-1.7222842879627374,0.09197974467040676,nm,0.0
56.293000000000006,-12.129875947355803,-6.381280487990583,107.31217736165716,-3.175902896061255,0.20063151394784942,1.0603790049599588,0.19670594549264292,-1.7697511997613156,0.021094004900764664,nm,0.0
56.30232799999999,-20.819146990121343,-4.866020787177909,107.59020221842104,-3.5418754630801956,0.3209403144798232,0.20713602218103463,0.24056211656109558,-1.7328090430843546,-0.11480101016355236,nm,0.0
56.31201899999999,-28.77022796282045,-4.013723118395992,106.86652767347124,-3.880309943856139,0.2982381275036984,-0.496911093730756,0.31764906221591255,-1.5569772037125649,-0.2660945227174642,nm,0.0
56.321534000000014,-36.02348597767669,-4.493852771464244,105.50061214921391,-3.0243603412163456,0.5703392369584785,-1.5072828388008812,0.5061533316258343,-1.3550882900317796,-0.3774081730835455,nm,0.0
56.33104499999999,-41.24943778716081,-6.145862659336537,104.0393030832135,-2.235330825240948,0.8190423720335891,-1.668735552656089,0.5955188015959941,-0.9146509952112343,-0.38468022892037274,nm,0.0
56.34055599999999,-44.00425866920305,-8.094202513024385,102.77158996398632,-2.319127854543558,0.4820761861282063,-1.6116021841157575,0.5166097231724822,-0.43392342958668717,-0.31666161457647446,nm,0.0
56.350066999999996,-45.46441632520013,-9.879803681607637,101.9214618135001,-1.606283341822632,0.3473256651612879,-1.7151754624631719,0.4213255288612665,-0.19793813450020797,-0.20993418120883356,nm,0.0
56.359577,-45.055235354998594,-11.179753901919764,101.44881734326019,-1.1462192432492613,0.005172338613461078,-1.5439477917703228,0.2490252327997578,0.13914659722618908,-0.07368220227293133,nm,0.0
56.38793000000001,-33.89753252380835,-12.671929012900666,98.99731317784173,-0.4903840100598786,-0.7599117471440735,-0.7081578935503925,-0.04992378616801371,0.9873737629471965,-0.0022288621789367377,nm,0.0
56.397637,-27.42957155012081,-13.439801331138707,97.5180715191686,-0.28371308880975743,-0.531064181452278,-0.18366958500536562,-0.017462287382209327,1.2781677835632075,-0.0007724453002811857,nm,0.0
56.40711200000001,-19.683294025027458,-13.993696881498252,95.56492630717585,-0.1929642450682377,-0.4272935815190689,0.7120103757345798,-0.04966108177942292,1.5171650072590597,-0.0217632804246366,nm,0.0
56.41662600000001,-11.502521104939635,-14.062796242967782,93.48962388970037,0.59718972862631,-0.1216055332154745,1.184014259747957,-0.0996671351652712,1.592849379976242,-0.018578668053834475,nm,0.0
56.426331000000005,-3.08204497826996,-13.736417489207666,91.92507327138804,1.4801329869937834,0.1456673472289468,1.266004252774905,-0.1307623511327228,1.6393752356954523,0.08972672367334916,nm,0.0
56.435834,5.3357596062235535,-13.25662633301777,91.34502963046032,2.1057391331106836,0.2394124081324038,1.4795144826822082,-0.13159864484234712,1.6434514829889662,0.2731359692641701,nm,0.0
56.46418399999999,24.35270694170462,-13.78367729273352,94.46561874079713,2.5592067381820502,-0.029891856897988824,0.09438173304300984,0.08667089697759074,0.974776474307461,0.5021736917757155,nm,0.0
56.48303899999999,28.22895774741461,-15.057150635481337,96.55508292445631,2.400382814853461,-0.14815887767567512,-0.4591047542735208,0.07620919795762121,0.20781405696631733,0.22137835967328037,nm,0.0
