timestamp,roll,pitch,yaw,acc_x,acc_y,acc_z,gyro_x,gyro_y,gyro_z,markers,motor_input
70.00733600000001,-7.1681250928174505,-17.135526081936455,-158.01247931203352,0.2518338499743222,0.08913303779760616,0.01454808246075968,-0.039612742316814595,0.1513895235291623,-0.057388585152180406,nm,0.0
70.026344,-7.592027903133324,-18.22542371370988,-158.9397691929666,0.2848362430873861,0.06463375814227,-0.0068843257803093095,-0.005191216143221002,0.11205256931820315,-0.01894484240781925,nm,0.0
70.035853,-7.871154857964357,-18.544386167194517,-159.09070581736708,0.27771732628463885,0.03345255755244374,-0.020876084757997078,0.015818877524855182,0.08751252471489876,-0.0019250462101685893,nm,0.0
70.06446500000001,-8.626965851125792,-18.919299140405393,-159.19968363974553,0.15130629855143193,-0.11175977378225199,-0.016946384619494773,0.03429419087406478,0.0521151220546886,-0.015602277181703633,nm,0.0
70.07396600000001,-8.655513237041946,-18.906979847718635,-159.30118490703975,0.08658686986343278,-0.16392602099548342,-0.03749645416679975,0.03262265166876267,0.027977842818844984,-0.03128442278220562,nm,0.0
70.09298799999999,-8.892665238079804,-19.195043267223543,-159.74046210831506,-0.036668224621992346,-0.16192648107839658,-0.10006849031145296,0.00873339577008919,0.05079071030779568,-0.03171091731809824,nm,0.0
70.10249300000001,-8.86517587341744,-19.564520600950562,-159.97623318863845,-0.05993741649923974,-0.15855720718943617,-0.05154360496135661,-0.0042986044141862505,0.06297117797060076,-0.012361120858733742,nm,0.0
70.111964,-8.909534576038848,-19.774467545149818,-160.11484651579173,-0.06815128703767072,-0.10188453936484368,-0.14248988732146273,-0.017204486225187655,0.05158737160245093,0.011287433913776504,nm,0.0
70.12145799999999,-8.7811427019744,-20.01640871325731,-160.14039912291415,0.021149127569896654,-0.07378196783846673,-0.1304148269980376,-0.049951223319868565,0.04660375478587104,0.03827351538417243,nm,0.0
70.130976,-8.564377554129186,-20.332350694704527,-160.1193365686985,0.05817091260516618,-0.019891123810614874,-0.13553667495782226,-0.07058348800391005,0.05490743688702273,0.048791789978035176,nm,0.0
70.14055300000001,-8.272215842006373,-20.471135499240482,-160.07980568424688,0.10263180581343986,0.0371931137695985,-0.040751796783939684,-0.08133017200401023,0.04137430848315567,0.0462656350031881,nm,0.0
70.15006199999999,-8.014707062989483,-20.509341680878038,-160.01026522503034,0.08859159812954892,0.0772961223480556,-0.08990859548060477,-0.07769937312096274,0.021322222520543815,0.036476835904602385,nm,0.0
70.15956700000001,-7.965065925649395,-20.582173816971675,-159.95326926669708,0.05112063058898103,0.1122704962307293,-0.09583483070108131,-0.052066150873912226,0.032085032905369314,0.020691064984232312,nm,0.0
70.18810400000001,-8.924464751689184,-21.024575800118196,-159.80498046584756,-0.11759670109852519,0.05563321963489748,-0.0716251840000241,0.046876701684402035,0.024619542106402097,0.0025162834809663503,nm,0.0
70.19761299999999,-9.376139870736353,-21.165485961160556,-159.66827068617414,-0.15068668506374777,0.013597117559498417,-0.04186486855739482,0.055447571916682675,0.03012369393466069,0.007815812309382025,nm,0.0
70.23559399999999,-10.72308958268615,-21.281955806737606,-159.97449302685763,-0.1514016660281311,-0.08948225483649613,-0.11965623489349148,0.042824371475539545,0.036955274743258305,-0.013615352725674717,nm,0.0
70.27369999999999,-11.426054055963265,-21.880456226897685,-159.977809651912,-0.06249636195252295,-0.01739059106321923,-0.0009973414234855668,0.0,0.0,0.0,nm,0.0
70.28321500000001,-11.441148755442674,-21.851024311797662,-159.81707048464105,-0.021556475575928855,0.026887126665455,0.05357029562608511,-0.011723181818163318,0.00018735180860662015,0.05934843368749878,nm,0.0
70.292645,-11.421246605695766,-21.77243260735136,-159.69946780271962,0.05661886147797778,0.02583780090462972,0.15539361370607988,-0.008785177689788204,-0.006747807973859863,0.05576421431938564,nm,0.0
70.34019900000001,-12.782567702268217,-20.681896339368006,-161.02861305580143,0.16578258950162958,-0.036020917530959505,0.10332462639748775,0.09274094558490296,-0.0272906070105736,-0.1091878296873937,nm,0.0
70.349695,-13.25763012766011,-20.2591543578106,-161.40894298521445,0.08856889497539727,-0.1293637197592504,0.11569890935569442,0.10124853980603997,-0.04181832894293201,-0.08970657408509482,nm,0.0
70.359204,-13.738348229127721,-19.7925645759904,-161.6692935339965,-0.03604143426603972,-0.1944227466794959,0.08092290758897254,0.1050160762117375,-0.050351217581462986,-0.05146841535486027,nm,0.0
70.36873499999999,-14.11999972809316,-19.320422973718067,-161.64426040438053,-0.12985211187176982,-0.23895178551292884,0.020036411834590675,0.08779185589545523,-0.057346656334854744,0.0005151340161102481,nm,0.0
70.37831299999999,-14.074197714130579,-19.156142308098026,-161.56095273798388,-0.1312440465812465,-0.2756710971735973,0.015150323325982247,0.05054115717665295,-0.05189294462639559,0.05098434627276123,nm,0.0
70.38781900000001,-13.851028455127047,-19.104064524857904,-161.66846317192596,-0.10090884866458943,-0.2669276290249835,0.03608503289898404,0.008828590857069019,-0.03418701523302849,0.08311705811713072,nm,0.0
70.397324,-13.456578427980682,-19.123030291867686,-161.95505315776816,-0.05238586802861101,-0.21966941733790366,0.03488336833526131,-0.03593341477634132,-0.02033911116902845,0.09517839931616082,nm,0.0
70.40684300000001,-12.92331711308185,-19.216099919886823,-162.4015252644049,-0.017650358997550627,-0.17216990691835357,-0.014574249393008038,-0.07343609052700703,-0.007302088418176819,0.08793349732039953,nm,0.0
70.416349,-12.420588192279103,-19.352440017850963,-162.98484322562857,-0.004273949468998408,-0.06730337163083829,0.028523948974371664,-0.09444884031643386,0.0075219010744690595,0.06553872434997678,nm,0.0
70.42586600000001,-11.858163550920304,-19.529805429454516,-163.62647293616834,0.0,0.0,0.0,-0.12712727713207606,0.014825417801701645,0.05091217125144666,nm,0.0
70.44489300000001,-11.204350515880193,-20.02018840906528,-164.8284579751397,0.037878367379885126,0.10701193272904069,0.07578787502958324,-0.06127849111276374,0.05352510252739953,0.014672172818253953,nm,0.0
70.45439300000001,-11.242719556382502,-20.190575533595062,-165.11878282286096,-0.008840142542836757,0.09077039632209619,-0.07983210380235115,-0.033424540642111526,0.04293848091942904,0.02552318768584586,nm,0.0
70.463898,-11.374611893568748,-20.20210461901667,-165.2365720202888,0.07105810509020768,0.024776768708305138,-0.058598951197161166,0.011211554793192259,0.03625411257811503,0.0329645577649775,nm,0.0
70.47333900000001,-11.794657385144426,-20.281068760270998,-165.2922790813061,0.009919345429949282,-0.007872138220923527,-0.194005007027498,0.06265512941779307,0.045463166816315924,0.03225941698074325,nm,0.0
70.48285100000001,-12.26440559162167,-20.322810567086442,-165.4039015492781,0.007637351162031125,-0.10510744462859117,-0.2212988478657095,0.07365377347109768,0.04043653907782047,0.038133144817818286,nm,0.0
70.50187,-13.077095563961446,-20.286554397475694,-165.62783176811,-0.2165462165716476,-0.23592519859718955,-0.2700072294039198,0.052332381316249836,0.021669170821502666,0.007210904553924968,nm,0.0
70.51138,-13.068657075142339,-20.33406638124968,-166.03452896803728,-0.32555508305856107,-0.33321543329396625,-0.1969687860747035,0.0,0.0,0.0,nm,0.0
70.53989899999999,-11.148155857560825,-21.96655023517395,-169.06125717108037,-0.22649222925698861,-0.12953008887274733,-0.1499726683209251,-0.1835558356136182,0.07556492220176513,-0.017693331694339166,nm,0.0
70.54942700000001,-10.180205310005777,-22.39474877985154,-169.90914510113714,0.016688753896920833,0.015475839944711828,-0.08204615673911642,-0.20087420734762,0.06344358488747659,0.012135884516490154,nm,0.0
70.55900299999999,-9.246321766951583,-22.3143147350293,-170.3212889899622,0.23963359470535028,0.14487432927763222,-0.08890604202356847,-0.20986997618538264,0.023401658810233157,0.05256163262488937,nm,0.0
70.56845899999999,-8.170528957499059,-22.32449024400966,-170.17468884829975,0.4578731885885034,0.21776244785511772,-0.008155472609524171,-0.20581700228739547,-0.021055635191376806,0.08698141315913209,nm,0.0
70.577954,-7.216171641821707,-22.122780048087854,-169.99081092389255,0.4914685164059178,0.298819118845544,0.04605072949838587,-0.17646579549110572,-0.05956597385071714,0.0936434249874536,nm,0.0
70.587468,-6.363611942774676,-21.678874718271437,-169.85144065168834,0.4743208992112746,0.3296746517544913,0.178498381114684,-0.14962757022118042,-0.10458723920325612,0.08048686040628682,nm,0.0
70.596972,-5.667457740824363,-21.066256528991055,-169.89810675013604,0.41555129210043595,0.3071199984019225,0.34434934618941976,-0.1155692881317527,-0.1328853537387535,0.04664255296115501,nm,0.0
70.64452499999999,-5.215447376231293,-18.6205293196,-170.79144684338675,0.056870558614691126,0.14332988899561075,0.4197763491484488,0.03888147678289389,-0.027573649002826446,0.03488644655485321,nm,0.0
70.654021,-5.5257571027811245,-18.498555630071216,-170.8278036692156,0.14217529329563489,0.0991911998064272,0.315647796253654,0.052913047637363674,-0.00412854755577357,0.06220287956766699,nm,0.0
70.66352699999999,-5.865958844605907,-18.40732323946709,-170.8103097487359,0.2981744488240288,0.05534938013641809,0.32659957306899146,0.0576138923173701,0.0028470431469999158,0.0739557080751391,nm,0.0
70.67303799999999,-6.214331188524828,-18.372587589109038,-170.93143706773228,0.3342222106381867,0.011608043814381486,0.28862402808919047,0.0574610917564814,0.014194353015645854,0.06599301085625565,nm,0.0
70.68256199999999,-6.5751302859572585,-18.406526136712625,-171.18025508666346,0.27111280568799334,-0.027923983521067175,0.1598688427809571,0.05780679336797214,0.027980350566278036,0.04446047459597288,nm,0.0
70.69206700000001,-6.9085110319491445,-18.509021444388157,-171.45349677207142,0.2194721674416048,-0.0767603962612814,0.15365758416901773,0.05075058128543772,0.040603854695576105,0.02440683283282228,nm,0.0
70.73012700000001,-8.316740176510953,-19.217261767885258,-172.76988291143604,-0.09597141784792743,-0.14769553435708482,0.01885363696800262,0.04549934671302191,0.05388586078676178,0.047754525848236584,nm,0.0
70.749213,-8.446819616576036,-19.772104360419103,-173.41767063294452,-0.04938611952042854,-0.14100135119356386,-0.06429958709443588,0.0007398188285117973,0.0660459659612486,0.0707614141567119,nm,0.0
70.75867600000001,-8.374623491655628,-20.035404782890144,-173.8856174198137,-0.02550487347522273,-0.09809589511079414,-0.0981937595280999,-0.02734636074410834,0.06250076472207104,0.05996835926854832,nm,0.0
70.768178,-8.112620435100839,-20.25827712932928,-174.39244314468158,0.05620090185899868,-0.04004917869535813,-0.12914827099971662,-0.061595425557963907,0.05119049704624418,0.04062356852650011,nm,0.0
70.777705,-7.690346762050465,-20.445814768522315,-174.98259467004956,0.07774366272130832,0.02051172212735576,-0.1372951096599613,-0.09043969815837204,0.042033018010198604,0.019160467837717618,nm,0.0
70.787195,-7.132060202128476,-20.574875752148756,-175.7262173357083,0.055844489519628976,0.14672280463716833,-0.13738210498272052,-0.11442264950651478,0.029484522184838755,0.007062755931259332,nm,0.0
70.79677000000001,-6.758550579951191,-20.55661613628089,-176.33986674287775,0.03038779369389891,0.23099349867488314,-0.10098053140724671,-0.13350236903549048,0.010880587651106485,0.010458717652104346,nm,0.0
70.80627999999999,-6.4788382051293265,-20.53028268967132,-176.7357459137798,-0.02883009749723222,0.32737427667628205,-0.10884221590677254,-0.13820259743604824,-0.0034602040566818295,0.02536215997644426,nm,0.0
70.815785,-6.257823151092184,-20.523750451755973,-176.983812065217,-0.07751067986914763,0.3956516720308104,-0.07604085597375292,-0.13892038079974262,-0.009430735076990245,0.04915359526788445,nm,0.0
70.83480700000001,-6.072523063655859,-20.58156580332911,-177.0473063925738,-0.11326156554264784,0.4668721978381188,-0.057372418715356165,-0.12044151050676653,-0.005419256686530523,0.07498695632035969,nm,0.0
70.853847,-6.29362497819457,-20.662816143863495,-177.1700394412764,-0.031025177843698577,0.48572061855459636,-0.01857813977763959,-0.07007258247878494,0.014523534319132928,0.02738169096921549,nm,0.0
70.863291,-6.134694730706365,-20.737719747679613,-177.5697953037489,0.048629579510078715,0.47637733495425416,0.028419143346383433,0.0,0.0,0.0,nm,0.0
70.88228699999999,-6.733485392221666,-20.865577755262787,-178.53930391808868,0.16806658874995906,0.34993930597603207,0.15867576409869144,0.08261017411770005,0.01997674031484396,-0.07564584873452447,nm,0.0
70.891795,-7.591648444915541,-20.727038747376533,-178.92157124085261,0.20861049222086225,0.1659498289320124,0.2307996922403705,0.15381282547677777,-0.012392912671197139,-0.09075034713115308,nm,0.0
70.91080600000001,-10.870633024661847,-19.910346884388108,-179.28562535409756,0.11874350854815284,-0.41643008945702226,0.39380136187210624,0.35820662100925715,-0.08233752079153484,-0.1250118495491315,nm,0.0
70.920321,-13.557129626330644,-19.217679945862333,-179.36449271184455,-0.0190514220010931,-0.9161946124875985,0.635092863186723,0.5014862452459369,-0.12098888987800621,-0.1620883695482754,nm,0.0
70.948857,-25.379402552018806,-16.89237392953329,179.98521806420814,-0.6657835140355861,-2.3283417059340668,0.5310486246236935,0.8251718692915172,-0.11833810060245017,-0.28404021410152397,nm,0.0
70.95817199999999,-30.147829066231857,-16.495645702907098,179.18659760177863,-0.9636854393671546,-2.048008194154563,-0.1600145457552564,0.908237581223987,-0.0766559182142898,-0.34788103211105553,nm,0.0
70.967692,-34.245097975105686,-16.614080196598604,178.0376603878868,-1.0730846140466608,-2.016773533355796,-0.5807966618795826,0.7818574816119935,0.012933097836833255,-0.3336567912791794,nm,0.0
70.97721000000001,-37.617884982643744,-17.306553858552668,176.39026845461586,-1.0815835909761087,-2.0335796318700803,-0.821064553155482,0.6485580057094728,0.11399166636847652,-0.3243060037033475,nm,0.0
70.98652899999999,-40.21465901710344,-18.40884162084939,174.151997656752,-1.0100538094741343,-1.4295463451603223,-1.1360443400206477,0.510020604050349,0.18541017021012796,-0.322429704617482,nm,0.0
70.996038,-41.3560676805868,-19.7259602281252,171.55083481151826,-0.7864550910733301,-1.1648787643087508,-1.2226593693806316,0.24783565845444708,0.24364817240936382,-0.247067149213395,nm,0.0
