timestamp,roll,pitch,yaw,acc_x,acc_y,acc_z,gyro_x,gyro_y,gyro_z,markers,motor_input
82.009322,-43.154848298050226,-2.306846753803085,54.30579047600191,-0.9730282055283498,-0.051821418398287675,-0.8050150182914154,-0.10725262666970024,0.09611859732523087,-0.3744542352194314,nm,0.0
82.019012,-42.211333892039455,-1.2800520229594108,52.736893583609785,-0.4715869364177918,0.5924728830885789,-0.5094698079602773,-0.03986699937094595,0.2718509624528592,-0.3123808199062226,nm,0.0
82.02851000000001,-40.66746157703214,0.016276758421469993,51.52612628053906,0.2289258295442535,1.0809084409402447,-0.2311797635791763,-0.0017516280420040572,0.40088544419861766,-0.2350477214518225,nm,0.0
82.038013,-38.31095676331671,1.7183327761174645,50.659154320595256,0.7671538135771976,1.5397638092781845,0.10253086778010928,0.04469953102579963,0.5784784061652402,-0.17743096206207043,nm,0.0
82.047337,-34.97558107709884,3.760966511727818,50.147667805683945,1.1230834541777133,1.9879334671406717,0.12454610453537449,0.12384294323452512,0.7718003343008356,-0.131972902632319,nm,0.0
82.066364,-27.541777580247633,7.553081580489996,50.67831635301525,2.731249159691375,2.4831304597771617,-0.012572324146578346,0.24253020443734563,0.8185974170984411,0.033870322838631964,nm,0.0
82.07587899999999,-23.413394966116396,8.733369485322498,52.1539845948314,2.782938237903394,3.1663841837354902,0.8611160384958253,0.3396241716599233,0.7842543119876805,0.17746931641475241,nm,0.0
82.085395,-20.38395454323354,9.447477867489111,54.22380483192201,2.846390961359426,2.565252621616101,0.6695769610157815,0.2583959457439136,0.5628657584769259,0.3169814458909027,nm,0.0
82.13312400000001,-11.252939341507625,5.241091812350355,59.03559881834234,1.0555037113331753,0.08750092786835684,0.48120581158100295,0.28377489056906846,0.020022561703347326,-0.13183083464340098,nm,0.0
82.14265,-11.171363375743468,3.8039139194665665,59.67966023438721,0.7829829520939623,-0.3477830130007568,0.4406710254973807,0.2707378571144501,-0.13170956622344915,-0.04391861054514586,nm,0.0
82.161484,-12.428003601568616,1.3226906252308328,63.23495989864784,-0.153242695047397,-1.0565673716447026,0.34246466857175706,0.11356152349643459,-0.24615385450009433,0.17063259534089725,nm,0.0
82.17099999999999,-14.057064178305115,0.48680879187341664,65.52390715235316,-0.6874433449343678,-1.68629472125466,0.32113422628267513,0.02768007318415147,-0.3657721998803893,0.22718714942615786,nm,0.0
82.18050299999999,-16.23417838666557,-0.6892859125188048,66.67679352668193,-1.3282240526829259,-2.2149157298958055,0.3627976237337541,0.052787305511888705,-0.49311391080601197,0.22869056696055212,nm,0.0
82.18983,-18.933302816817132,-2.079635683826989,67.49156676644803,-1.8952904569936042,-2.7175090697532087,0.2893110589963084,0.06015400404919422,-0.6050199386536175,0.14944826485324794,nm,0.0
82.199523,-22.023150231497464,-3.347360515729314,67.6589295060483,-2.3856961954452,-3.2909181526711326,0.044329498633217265,0.013001592496530268,-0.667047827525533,0.004438775269746368,nm,0.0
82.24707699999999,-33.10345364478205,-1.9112075153204864,63.28784547444203,-1.3248738406252414,-1.150705929304797,-0.8557161399590196,-0.3685992533743375,-0.14119889067929675,-0.35117076036831274,nm,0.0
82.256576,-33.45090865168919,-0.4910354719913739,62.31982199731647,-1.2667904707062285,-0.32256234184533494,-0.6496511504476292,-0.2710978822226383,0.06659926603287347,-0.30242331403385364,nm,0.0
82.266109,-33.419212770642666,0.7064538570905231,61.23611814901576,-0.7467941771228531,0.4014908816053884,-0.6007210506220477,-0.19444649339755443,0.11835965569328723,-0.24358119943287343,nm,0.0
82.275251,-32.85109370100913,1.956562886974269,60.13961838621197,-0.07989992857205054,0.8244105313594244,-0.539015971175772,-0.148572101328725,0.22111802974388217,-0.2201305644133442,nm,0.0
82.28528700000001,-31.35016212780666,3.373055081886916,58.99282941803759,0.1059891657044078,1.2859985527162094,-0.19601544334909785,-0.07770581204067661,0.40180459289154574,-0.20271692098736616,nm,0.0
82.30413200000001,-26.875432764806803,6.007373185930255,57.607447203547814,1.0407383056206347,1.7846420264774183,-0.0639511157830553,0.06536487420253374,0.5588725512802313,-0.10314580038468966,nm,0.0
82.313649,-23.857933575650858,7.353220353709257,57.61840712629737,1.0647735098334379,2.2924243346379027,0.4255595529987628,0.10805511880355308,0.6496963272991213,-0.06862014489706506,nm,0.0
82.32315500000001,-21.19412177525773,8.752293130753936,57.88597451910443,1.770513982706627,2.3515880554743336,0.4614543582140155,0.05899177028734988,0.5947133077445074,-0.02242255372533601,nm,0.0
82.34217100000001,-14.918748836123443,11.288676220789743,59.58177446858402,2.760243301249576,2.9983329161828327,0.325572580562179,0.13836608775439002,0.6752189845537766,0.08883260192806045,nm,0.0
82.3612,-9.974318163713242,11.374777274322012,63.80838005536185,2.234848607296553,2.395234890362541,0.2998897025215879,0.2715705596142858,0.33340272567374424,0.3907165221289288,nm,0.0
82.38039599999999,-7.816110175950774,9.1891319215753,68.35694676531426,1.108525656490623,0.6219544027799433,0.34288242950201,0.3375135045711939,0.05465329642780435,0.195012049218348,nm,0.0
82.38989699999999,-7.368553450345149,7.383511022560779,69.40226995931108,0.5181240465717442,0.004219750006640355,0.6135439786900448,0.38310489025573174,-0.04368889474576119,0.027796914541821812,nm,0.0
82.399405,-7.74754621014374,5.684987954396467,69.76538211966779,0.43771699556937266,-0.5953641158324066,0.44631212135762827,0.30735016441803953,-0.18586626410751644,-0.0814782446354334,nm,0.0
82.40894,-8.3438210415432,4.393768901412671,70.19351483889359,0.12370423631634546,-1.201109818733854,0.3933288879095424,0.21752888963691308,-0.1969776886564651,-0.09965436824505802,nm,0.0
82.41844499999999,-9.354832834136626,3.197471794085003,71.12766051647223,-0.23161498380809625,-1.5528808726788499,0.4332830481426372,0.17527166361599522,-0.2666044993852006,-0.011177915292547844,nm,0.0
82.42795100000001,-11.075202985222214,2.0819543571692565,72.7422001087251,-0.45979042646893165,-1.9201384365149605,0.2635476735901288,0.12294342187259752,-0.39315883075456953,0.12962321763217358,nm,0.0
82.44661300000001,-16.001530182191594,0.6038562205115445,75.22662630323768,-1.5343873000925248,-2.9409190215101977,0.1967478028825225,-0.00726314828784071,-0.5622667400099749,0.2731436782275738,nm,0.0
82.45612600000001,-19.350829654954733,-0.15245036162471207,76.26490568123474,-1.8252240782720133,-3.429942598976345,-0.06396290912511111,-0.004563438436909076,-0.6841307943293848,0.2097540450012433,nm,0.0
82.47515200000001,-26.049278845329766,-0.7976846417646886,75.88290387098698,-2.1870109394320227,-3.5748323166198297,-0.6662857302139914,-0.12813572305723986,-0.6377997026875678,-0.14650738343599298,nm,0.0
82.494338,-30.840077817902234,-0.8342894386656072,72.12122692973257,-2.2276953703374773,-2.062457402544796,-0.74434826645181,-0.1243455082387928,-0.436803120727249,-0.45407482742477856,nm,0.0
82.50385700000001,-32.81538155764384,-0.323113410138107,69.44383628918524,-1.4005674776667145,-1.2640500478153376,-0.9118038529816274,-0.21296731722811194,-0.3382287713701386,-0.5377339423690652,nm,0.0
82.513361,-33.692334690654526,0.6837759390426695,67.43193312301385,-1.089753326136552,-0.3668853736581547,-0.7406576500816661,-0.23775666831215397,-0.0891666128323418,-0.5000710728645399,nm,0.0
82.52307200000001,-33.91833492633537,2.032472005338731,65.56102397066174,-0.64663253261463,0.5673807112802588,-0.49158212025309206,-0.25178066367735535,0.06683917912752174,-0.38288318926837295,nm,0.0
82.532389,-33.4669543444615,3.8260162312748585,64.04442065634835,0.07346609392124809,1.2221076711925791,-0.3862510674064325,-0.27214102538257756,0.23546345895398885,-0.27052143604746415,nm,0.0
82.54190399999999,-31.88982853232342,6.04405760800308,62.77971760293822,0.324400990744987,1.8567655168190513,-0.10543818043945394,-0.24053843935349065,0.48116790348806615,-0.19931536709434838,nm,0.0
82.55139500000001,-29.575998584200022,8.257569477563589,62.320289144672785,0.7820714280610714,2.32574777203043,0.024084400346815003,-0.1671731317316408,0.612236014458413,-0.14900060314957614,nm,0.0
82.56090699999999,-26.409817273268736,10.124757879393886,62.195879838776925,1.2331075503770017,2.730046551486979,-0.0029723957416609276,-0.025291322572675277,0.727736985005177,-0.12643482053424143,nm,0.0
82.579938,-19.114830503557815,12.656301638480556,62.741499567318506,2.3438416810700144,3.088078729637383,0.12227004002106029,0.16432819221295591,0.7303976052500487,-0.06619146363128912,nm,0.0
82.60845900000001,-8.638045341578195,12.387643060064596,67.15059539517341,2.049815932500012,1.8132364139959323,0.3293785325584997,0.3384465629709209,0.4665262365540256,0.2181027339042788,nm,0.0
82.62765099999999,-4.1737324109486,10.289024952201437,70.42843074208642,1.2876075927796815,0.549637163321902,0.7069592772183068,0.3712068060018553,0.2694652315449684,0.1815246644579525,nm,0.0
82.63717399999999,-3.2489370520920295,8.9146786196582,71.87973632446153,1.1274798754113668,-0.021382261602139976,0.45237344402004265,0.332229279284368,0.08684638642475243,0.16182123583185717,nm,0.0
82.64669699999999,-2.8855421558739645,7.742589628161637,73.3260869890772,0.6872800886208398,-0.5307366208999483,0.4598393250049996,0.2585948538993053,0.001983849108247184,0.14533517993579997,nm,0.0
82.65620799999999,-3.3549460297547027,6.691203771179144,74.93543264450673,0.24484978153508816,-0.924480177989423,0.5857332890853332,0.19124264489328188,-0.14335352307966123,0.15049231866663837,nm,0.0
82.66571099999999,-4.803422539232723,5.569088442442292,76.67685787060117,-0.05723154664620518,-1.3671158202112357,0.3394605438855348,0.16321775217298187,-0.3303424332126256,0.17110124133847307,nm,0.0
82.67522399999999,-6.969808289751457,4.350905216780161,78.50000539612174,-0.46358903989754535,-1.7373948655843774,0.3503050170338666,0.162770906000352,-0.4696546378522845,0.19227035473032453,nm,0.0
82.684733,-9.959510393681734,3.1222001466996008,79.34366750643007,-1.0042330694281845,-2.313616605842285,0.5112973684550499,0.13993534191737098,-0.629735904883777,0.20475835718891522,nm,0.0
82.69406599999999,-13.804134636494824,1.85358984385058,80.16796989802218,-1.2371051593765052,-2.9635382406588113,0.20440890738256873,0.1265413564342266,-0.7979908807264442,0.19623663557200885,nm,0.0
82.703573,-17.773754795313323,0.69749396287893,80.88134957706296,-1.901337457921426,-3.3339786215762004,0.2023603092151872,0.11092599612699393,-0.8176925205502728,0.15930814223590828,nm,0.0
82.72259399999999,-26.4866545235367,0.4818132094302304,80.94798160353103,-2.120577581004573,-3.432776596157426,-0.5170777173832831,-0.16885204687795294,-0.8257462100138645,-0.04476715004817188,nm,0.0
82.73211,-29.882723887045998,1.0549500217103966,80.04711006885424,-2.5924987038985106,-2.779577359510505,-0.5689202345752802,-0.21192876991377974,-0.6475742511412288,-0.1697054982979915,nm,0.0
82.741615,-33.18520678465662,1.9880703242930189,78.26507677678492,-2.056330327316507,-1.9722303628344475,-0.9735075338044573,-0.29435058324122165,-0.610350184394324,-0.3370180436227216,nm,0.0
82.760648,-36.50273892760183,4.2840646631533055,73.59912591988184,-1.4034374287761198,-0.3545580598074774,-1.02824282974748,-0.24723038583470702,-0.13697640084855342,-0.5065371355553097,nm,0.0
82.77014600000001,-36.91303511647492,5.030224151927637,71.35046106470436,-0.670686313909411,0.40784537299877927,-0.9750038712228551,-0.15337637605239524,-0.03092992115292106,-0.46926267286574175,nm,0.0
82.789175,-34.289564830078305,6.904637859079777,66.99696989580218,0.03102500683466754,1.5601543290636661,-0.26077015843198453,-0.04327547123667248,0.43565593226887017,-0.398890558013134,nm,0.0
82.79866899999999,-31.59931208386376,8.096893990116339,65.17986580065225,0.6639598250019709,1.886368453609472,-0.1533217807687484,0.015143832344316157,0.5857742302620773,-0.3253888103509605,nm,0.0
82.808168,-27.804166122466782,9.386454941273756,64.39870394410701,0.9643347239213533,2.4185823743304797,-0.019797629401565427,0.10058919143033104,0.7899545222709912,-0.27173219970097645,nm,0.0
82.827204,-19.409137772298568,11.852728154081367,64.16816885937067,2.9135612352187366,3.355252000132564,-0.15653088914390337,0.18818074524478287,0.8567349686459442,-0.136993792546468,nm,0.0
82.836712,-14.513585813251684,12.22108850185258,65.59895669334695,3.1023244169153754,4.3203855287488615,0.6816176093282745,0.35407036104043677,0.8995216140467023,0.07878764374219996,nm,0.0
82.84623099999999,-11.089144924960559,11.849877211389314,68.37432840019933,2.622884006769125,3.201684157413457,0.5722351789408304,0.3442816099812007,0.588978293889163,0.4087635011444244,nm,0.0
82.85592500000001,-8.602614346842449,10.878060344844089,71.14093668478328,1.5421290447969238,1.9462246520524582,0.4631069879169542,0.36497454760497205,0.3921006063556761,0.4515076046833537,nm,0.0
82.86542299999999,-7.02853883245848,9.490546666922594,72.85779897055305,1.1477968235452762,0.9012150404770216,0.35631461615442234,0.3730150144114295,0.21187373320402766,0.2325034598522342,nm,0.0
82.87493699999999,-6.226916620164822,8.035672623762999,73.40839824857592,0.9099937178768339,0.6142152677656605,0.6463072698034317,0.33784839724161153,0.07087622466265772,-0.023057160764697004,nm,0.0
82.90347399999999,-8.09678633090888,5.283474027939665,74.29844261531132,0.5584365573980756,-0.3342203654808773,0.4034462933350258,0.12018510976657651,-0.2566748447401716,0.02940386962449517,nm,0.0
82.92248900000001,-12.106903361013492,4.120947140926557,80.0476233161171,-0.35285105628195523,-1.154887283244792,0.32354100812504827,0.0016048233218483527,-0.4663267189591755,0.5571780166502202,nm,0.0
82.93183199999999,-14.984177255375672,3.8067272218027037,83.99467567981591,-0.9386636038812298,-2.069606658415598,0.28829193792294294,-0.0002904325398074234,-0.5732453309696012,0.6686358934579013,nm,0.0
82.94133199999999,-18.552720248554795,3.351526318877028,86.76009808633822,-1.2857729328094694,-2.929500182032529,0.14441011868432876,0.04637223610629992,-0.7127109320877923,0.596843173523867,nm,0.0
82.95083399999999,-22.229943481462232,2.8379749319897045,88.35567780304083,-1.5810109858289734,-3.7480798515723275,-0.10090905709970341,0.08426504840222489,-0.733016512484687,0.3586983454317051,nm,0.0
82.960352,-25.930794925385126,2.2283310914796997,89.08655170105445,-2.1478895071054778,-4.09786733204506,-0.07725520560525294,0.12272941475997742,-0.7360398000449513,0.04120369544540058,nm,0.0
82.97937999999999,-32.42286827117477,1.2358931758161757,87.06991047194107,-1.7375138402896164,-3.2907634426409955,-0.6482306254045933,0.08038564332578006,-0.5231537105378654,-0.3939658847618672,nm,0.0
82.998391,-36.55831135526483,2.2278324108432668,83.23114377995213,-0.9114663022444973,-1.4949094299072265,-0.9268753937508153,-0.2052490347889055,-0.37038192405616327,-0.44886778391101495,nm,0.0
