timestamp,roll,pitch,yaw,acc_x,acc_y,acc_z,gyro_x,gyro_y,gyro_z,markers,motor_input
59.00348600000001,-29.99172784284434,-13.45980146802772,116.45231118002793,-1.3177905816715143,-0.35623377302583564,-1.1200759417145245,0.2504150842964423,0.07789566030165009,-0.31585676355423364,nm,0.0
59.01302100000001,-29.031819052022644,-14.27596261540492,114.92413418203384,-0.8946230366622462,-0.48362243571450403,-0.8966858516939474,0.07534913354884057,0.2496020651554507,-0.2569238174644028,nm,0.0
59.03204400000001,-24.232614968200227,-14.633725134402546,112.21902221569638,-0.3546180998271418,-0.5903497912934681,-0.36425113029234885,-0.1962370709799439,0.5009789733234996,-0.11759751932706695,nm,0.0
59.04154700000001,-20.957541594465464,-14.45227049272866,111.02381747882991,-0.04560266747378195,-0.3699534366733655,-0.1959455599700517,-0.2580902693847733,0.5871340737917367,-0.07331032563132203,nm,0.0
59.05105800000001,-16.93569156296808,-14.162084989029932,109.86221110351507,0.11117664971451165,-0.2704053982102746,0.008831954259634364,-0.31732295378085207,0.7213134342648289,-0.033108314387247914,nm,0.0
59.060734,-12.572623481692911,-13.92276400982382,108.70973973523796,0.31068872355665456,-0.13507166227011205,0.4057386454023664,-0.31547210144493326,0.7945415365243129,-0.019251898746074525,nm,0.0
59.07023799999999,-8.106968965062238,-13.717537307301944,107.6471037245322,0.896277120790048,0.18506942208879332,0.3906180551460825,-0.3003236520553266,0.8225099482172311,-0.000614452580335607,nm,0.0
59.09877399999999,7.216880013520053,-12.463870576508663,106.73886813953658,1.919096559986378,0.3833091000508746,0.661705796603664,-0.35300755948531437,0.9130225314547025,0.24816109301887546,nm,0.0
59.108281000000005,11.505734367507717,-12.33400774402327,107.29696729966479,2.0717025613407984,0.41267197471597067,0.45702023784774226,-0.2626272284053969,0.8049931617784857,0.2904980504321872,nm,0.0
59.11778799999999,14.747899570049888,-12.38135393151841,108.13730606240217,2.115597034839094,0.4360414834525397,0.4115597117921461,-0.1768460492356295,0.6176342866545955,0.30098991039856193,nm,0.0
59.12712300000001,16.661174195803717,-12.383387285238365,109.20650412604047,2.0773461992573927,0.4012085311682013,0.1524170879661434,-0.11277145984705166,0.36539946374279614,0.2897196490880724,nm,0.0
59.13665499999999,17.45264770540885,-12.379642513198647,110.4061164320726,1.8668509907325217,0.33683947638821915,0.058205252715593646,-0.04685453933213669,0.156264846333587,0.2675401908098778,nm,0.0
59.146322,17.254411975892477,-12.351838044235922,111.66456536405342,1.4999107975875636,0.2574518748772607,0.10393662634894654,0.01481594498259858,-0.02718043278504503,0.23686864677025024,nm,0.0
59.155845,16.02327141534185,-12.150531525358659,112.97963919793538,1.1075125018924832,0.19916543188772434,0.1784745077036978,0.060239957460749206,-0.22702087729826415,0.2045575996417138,nm,0.0
59.184360999999996,6.868310061415728,-10.482049730095161,117.11334626931175,-0.32977213640613984,0.018769490020233946,0.6294040149210776,0.22971751661616924,-0.7522647890430255,0.1205722485536407,nm,0.0
59.203385,-3.00152471406036,-8.74537706643379,119.64388429046996,-1.1650946337233368,0.0050916467780007515,0.4470638425842023,0.31637066813232134,-0.9349857334541518,0.08340679842609099,nm,0.0
59.21289100000001,-7.937859703938726,-7.752756284613417,120.69155318733078,-1.6707408063797555,-0.20208914668735736,0.3359757302919771,0.3269727616466157,-0.9334962954853777,0.06546489733937627,nm,0.0
59.222229,-12.890833939720087,-6.906431423031929,121.44284868091495,-1.8171922801518425,-0.14924023092716907,-0.1473819576608213,0.36979238603026493,-0.9178456587103414,0.02242598573126889,nm,0.0
59.23174499999999,-17.15222349875238,-6.256147296439288,121.78973447812403,-2.0814664861382846,-0.2745084846000735,-0.13499396822145424,0.3408728798437465,-0.777945123328318,-0.028888956256201692,nm,0.0
59.241243,-20.70446256165643,-5.816869515771259,121.58701183654222,-2.19565887725162,-0.35998860458585324,-0.34727069228022334,0.3042071669975875,-0.6360171733293336,-0.11514697391743273,nm,0.0
59.250770999999986,-23.482356606035655,-5.753129795393923,120.84178172593388,-1.917012359460183,-0.1963197138832951,-0.8083826425614589,0.2835351254749262,-0.4679863789445819,-0.20440582694405166,nm,0.0
59.26027099999999,-25.04726822155539,-6.213792441333814,119.72482627714616,-1.7358589916220921,-0.14764868673081633,-0.8949192685133027,0.2446991965633658,-0.2108812048091339,-0.25504553563620663,nm,0.0
59.26977099999999,-25.53754812064038,-7.068482580807147,118.33206395686722,-1.5730981731767595,-0.1526785131321894,-0.7380752447239848,0.2051440300103772,0.009288003546955725,-0.28876434132294426,nm,0.0
59.279292,-25.15530499547439,-8.061389175318354,116.73828952626504,-1.2056391217579163,-0.12227306278579443,-0.6017188366647055,0.1497284826216985,0.1704624261686873,-0.3075513402894911,nm,0.0
59.28901400000001,-23.90380382067122,-9.0425285437227,115.0797212086662,-0.8978633058710499,-0.16245827857590472,-0.3587200296733065,0.07725569878056482,0.31979110200279864,-0.29348818703262675,nm,0.0
59.298484,-22.071733951236833,-9.928764328116328,113.46798347406697,-0.67085551432788,-0.2282597826596283,-0.09057809639425525,0.022122167321378193,0.4136358395051983,-0.26121151860240877,nm,0.0
59.30801500000001,-20.029742191528292,-10.632743499281174,111.92927575805807,-0.37097463743785897,-0.20506420007040949,0.02231199730388352,-0.015850985359850012,0.4362048359835484,-0.23443650538411048,nm,0.0
59.31752499999999,-17.76270233717649,-11.160323810501179,110.47914455032408,-0.040241020231612246,-0.13322114610197303,-0.0493721691415119,-0.05318203065892244,0.4642770246791201,-0.20429204004314122,nm,0.0
59.32704000000001,-15.152763560896647,-11.642345662714673,109.12145225495242,-0.004546930569620533,-0.2563438680800127,0.17417976780112246,-0.0730177525031401,0.5250459621634012,-0.1687881624517005,nm,0.0
59.336534,-12.654533915624746,-12.163304021029214,107.79721247761589,0.34205525296628936,-0.12562028907745493,0.18114198000671206,-0.04620902687074456,0.5075322623296243,-0.16270584913642375,nm,0.0
59.34606299999999,-9.854529949056822,-12.567119976886516,106.28681122242776,0.6960585627030451,-0.037261172261230095,0.1335330952579367,-0.07211259509875165,0.55752200342733,-0.13569954760064742,nm,0.0
59.35555500000001,-6.588142370157511,-12.770233658691023,105.05833256848301,0.8680359265033759,-0.05507556718578359,0.35537491495493534,-0.12272200777378667,0.6354446518322667,-0.08388706490703385,nm,0.0
59.36506800000001,-3.227448036612465,-12.809345323718198,104.31888454001951,1.261496160108053,0.12296882594643298,0.2629318163725604,-0.1495685576014191,0.6465433334245904,-0.02208574860159607,nm,0.0
59.374584999999996,0.4175591165763519,-12.730368502828219,104.30573312782926,1.509441888599987,0.2905957222815431,0.4045400353598996,-0.18390506037344007,0.6952115574085794,0.08423626493037038,nm,0.0
59.403115000000014,9.516809172085761,-12.683706227334493,107.54757796406598,1.728575507149327,0.49020511475234185,0.23890020187264394,-0.10609973120881364,0.4682311385813361,0.3341225859035005,nm,0.0
59.412621,11.242014702149142,-12.879260371926788,109.01311817430867,1.6103879393266427,0.40947777272094543,0.27335820222370305,-0.06108675744546201,0.3430052044031207,0.3643526779134506,nm,0.0
59.42213699999999,12.107017533881047,-13.007899922340957,110.59968425190372,1.416675478852945,0.3358972639417909,0.01107087333674498,-0.025976868690890366,0.1785772452413553,0.35082819488656397,nm,0.0
59.431636,12.303220943121682,-13.03443901799774,112.15962314566748,1.163917408475015,0.1975618003940807,-0.020685861888948213,-0.002345792232867605,0.048787922215699296,0.3155243218597525,nm,0.0
59.45066800000001,10.445585849718203,-12.825525276211524,114.97320358310114,0.5386962182434559,0.1031223730643886,0.1048671188830749,0.0856199053365724,-0.23903250686191208,0.20847506285097275,nm,0.0
59.460162,8.325448582951033,-12.579721298324682,116.3635483184048,0.12347872772736956,0.055826892911140666,0.275050421595174,0.1413836084194109,-0.3829124833810677,0.17998865834709282,nm,0.0
59.49821800000001,-11.794702983703965,-10.285852522231819,121.936023287428,-1.883821056261269,-0.19965782599039444,0.2992901021739312,0.47072274636394695,-1.0102553215125416,0.04586448510001461,nm,0.0
59.507553,-17.295603563072287,-9.940948148771927,122.92344182220532,-1.971490756754178,-0.24055245047238166,-0.3026385039478026,0.5303537850677241,-0.9399654610423445,0.004056416229044993,nm,0.0
59.52657400000001,-25.28327660002136,-10.216816186886971,123.26635246118602,-2.028815453763872,-0.5345568103596638,-0.8348801795195716,0.4275593379379456,-0.518867887661962,-0.14791604464310282,nm,0.0
59.53607500000001,-27.75755596937909,-10.996613653422557,122.5785998929777,-1.6790008784076664,-0.40643080132607107,-1.145099950795154,0.40312715788655656,-0.31203953457507805,-0.22653617237255047,nm,0.0
59.545590000000004,-28.83703350725225,-12.21465705496154,121.58444317565268,-1.4915354902428635,-0.33846777565418934,-1.0776615847924063,0.3267434951553571,-0.03820521940462653,-0.239821732115841,nm,0.0
59.555091000000004,-28.657490288353504,-13.455021768086755,120.34526666169371,-1.379390005592691,-0.3973201801741247,-0.796676511600024,0.20284754848874778,0.1693018270356758,-0.23731606094594068,nm,0.0
59.564629999999994,-27.6161839272319,-14.387709959128829,118.96571619986919,-0.9547728589598061,-0.29704424037491667,-0.6504334200345788,0.0703490129682911,0.27956313672292493,-0.22336042507468268,nm,0.0
59.574296000000004,-25.67473182749999,-14.992234813960678,117.68347036100118,-0.6342279284862968,-0.2665769103768211,-0.501132933451162,-0.06344661731717058,0.3996376282536494,-0.1557991647996144,nm,0.0
59.58364499999999,-23.14753969079943,-15.31125354499928,116.57339157908478,-0.4941786775085001,-0.3250114242973261,-0.17390877015817777,-0.15728326610540017,0.47498538480322305,-0.08813956333675373,nm,0.0
59.602666,-17.197633294643598,-15.155937717265283,114.40611344491376,0.007392063873190072,-0.14438050560488563,-0.16001934764765535,-0.2820624991516085,0.5594503167612966,-0.052088328388040075,nm,0.0
59.612348999999995,-13.759957136065838,-15.019621365817574,113.12174609633749,0.09675902250827208,-0.09556355500191091,0.08573339397149453,-0.2838954045505447,0.608334675921607,-0.0781142612137051,nm,0.0
59.63136900000001,-6.661726429399961,-14.569535231794957,109.43005612196463,0.6732828134805212,0.36146709846074754,0.2426558779092046,-0.2940728478499039,0.6622172556690219,-0.16326844105073904,nm,0.0
59.65988899999999,4.450154638917579,-13.339211091911515,104.6747092546314,1.574521893106872,0.6739667838408724,0.3373463157422782,-0.2552139103296713,0.7081825209887542,-0.023389052453740913,nm,0.0
59.669409,7.982918103742614,-13.027510984969918,104.56285965615619,1.709577955116444,0.5265978162202232,0.5080029759665496,-0.22686473212668168,0.6604259050866806,0.08842995836081043,nm,0.0
59.67891800000001,10.689795094268453,-12.811184579134338,104.82396061476597,1.838912289704243,0.3932082172028063,0.2654595651702284,-0.1676378137542127,0.5102774726784004,0.1680718668684165,nm,0.0
59.688421000000005,12.679145329310785,-12.797740428530009,105.5150338446845,1.8250683443420592,0.2600262909473113,0.1264388064522578,-0.09637256377255282,0.38454855482572986,0.22089458894491046,nm,0.0
59.70745199999999,14.410654290049342,-12.684836575351298,107.60668264225018,1.4313893187888709,0.0809529057747187,0.11952204855031269,-0.04857131896043502,0.08619965393094033,0.2407422666060691,nm,0.0
59.716958000000005,14.022854310657111,-12.331469038942915,108.81693765944284,1.1001881459605232,0.01029013967859595,0.25409529868899927,-0.036427783048550835,-0.0834092371125897,0.21944248424354024,nm,0.0
59.735975999999994,10.284721973264668,-11.446852385593322,111.35794176819168,0.33255924116031704,0.11853883504645378,0.4716095808207535,0.08180349710050838,-0.454309071342065,0.16161853783179936,nm,0.0
59.74549099999999,7.123911970386142,-10.900064654337655,112.8256678270842,-0.054281286535376276,0.0323525471363367,0.5576389705988587,0.13935771705219205,-0.6053687380750027,0.1661450403824702,nm,0.0
59.75500600000001,3.156568168284213,-10.386501639477325,114.41273974562652,-0.40208583613332194,0.012331188191031472,0.4450330898840661,0.22603001420674335,-0.7452024491027551,0.16660758771131748,nm,0.0
59.76450600000001,-1.051124938631818,-9.863724235618529,116.03922021328528,-0.7691385837359982,-0.10904854270680432,0.4175258763143378,0.26633409762364474,-0.7833872297305485,0.17385828397556957,nm,0.0
59.774024,-5.388956920967482,-9.19063024177605,117.49591523425643,-1.338996622425145,-0.3890963299628066,0.6975868572737335,0.27309352216211247,-0.813800660494327,0.1450331031159359,nm,0.0
59.783525999999995,-10.066694561407846,-8.395728207952503,118.53328999864884,-1.4722527571198771,-0.33501109482463937,0.16801732527873267,0.30201976538675557,-0.8801154462450234,0.06258515023405899,nm,0.0
59.79286400000001,-14.137053139237365,-7.762912065650681,119.09493111437628,-1.5303705478470886,-0.25945252775004635,-0.30146221800911865,0.28572543086458807,-0.7562547910632996,-0.0031485884472406173,nm,0.0
59.80237500000001,-17.32503568465035,-7.492268007748824,119.21790774096955,-1.678444954364685,-0.29922233144999083,-0.5079444291145577,0.2688080223107856,-0.5671240585727949,-0.060446345152455644,nm,0.0
59.81188,-19.868649317388563,-7.592213666092999,118.96474926271135,-1.502177728024814,-0.17015147745815454,-0.7923635249072493,0.27097066852509866,-0.4197645233252086,-0.11729058952919282,nm,0.0
59.821394,-21.398162880137818,-8.014981228940007,118.49863111258381,-1.351333090138974,-0.15564962447332426,-0.8103688851646917,0.22820754680139171,-0.21375040826504674,-0.13427851453520992,nm,0.0
59.840441,-21.932462187670126,-9.361184361758072,117.39745037500528,-0.9653127000247684,-0.23404582018880796,-0.5005573211947105,0.12868487542381749,0.0834578031927541,-0.10992746835261975,nm,0.0
59.869145,-18.253810835293233,-10.69641097720916,115.72014592286664,-0.28193958718184575,-0.2804361625173163,-0.12233082146599844,-0.07326598400811764,0.33377774712456826,-0.05407236448597814,nm,0.0
59.878648,-16.339023754316898,-10.94157973279255,115.04404348911044,-0.10602746967414702,-0.18296760715432317,-0.12031399798561798,-0.10842316530536768,0.3725439661418376,-0.06352754340035384,nm,0.0
59.88816600000001,-14.14667698030803,-11.095083228678845,114.22283106098406,-0.1110566998394929,-0.16915531223891167,0.06132874377188152,-0.14294552341841038,0.4156866039442388,-0.08109464844872812,nm,0.0
59.897661,-12.131086993808346,-11.19688038680277,113.24456229818946,0.00319840597465635,-0.03554256131223034,0.17135645693766086,-0.13191113574490293,0.38179032680537456,-0.11884026229545833,nm,0.0
59.907183,-10.268822566282424,-11.257397213971046,112.1205412871439,0.2823726970472702,0.2056608501982223,0.0030068470622569717,-0.12074097231344214,0.35318120636056033,-0.14004918022036628,nm,0.0
59.916672000000005,-8.22482712365074,-11.26461547299633,111.21137285026506,0.24039525841411538,0.1638166433559968,0.20869501203324242,-0.13822391652887345,0.38431092636123526,-0.12443994444547513,nm,0.0
59.926188999999994,-6.611750649323218,-11.203678360991715,110.49287898413712,0.30219290740721927,0.15201159714309564,0.3183025951727746,-0.11566880991867463,0.30228399695504754,-0.12132323021908066,nm,0.0
59.96425199999999,-3.561188267590602,-10.08563640098214,110.32062735656172,0.4989093382059257,0.009234077104742148,0.0004998609016312774,-0.09149947235302364,0.03883249579092476,-0.04938772765510643,nm,0.0
59.973748,-3.24366708849777,-9.543376363464205,110.54831284200046,0.33883099423957735,-0.05150443965816231,0.12510884336967595,-0.11495690301525535,0.031024958438231765,-0.04314825093382388,nm,0.0
59.992763,-3.0447137907899386,-8.2953253706723,110.90579561595462,0.1883699709707348,0.13274063731979108,0.0665231174952545,-0.11506670651727313,-0.0208362009792572,-0.05669148425123832,nm,0.0
