timestamp,roll,pitch,yaw,acc_x,acc_y,acc_z,gyro_x,gyro_y,gyro_z,markers,motor_input
74.515289,6.318740298155306,-14.160246933254445,165.48394563158323,0.07005253976112422,0.14230486831181893,0.12741691546474876,-0.052483322935786315,0.02805528857473984,0.02018251598938195,nm,0.0
74.52487400000001,6.052840185575989,-14.090745649561502,165.58163389527058,0.10029609304175269,0.19241780330388977,-0.0002561274012088263,0.0,0.0,0.0,nm,0.0
74.53432000000001,6.001314139833492,-14.02208717863535,165.6488734298927,0.14241771435555267,0.07703516344066384,0.11533569882959648,0.0,0.0,0.0,nm,0.0
74.55330699999999,4.9440888762179425,-13.70637615642582,165.91606265246548,0.12137290579160336,-0.06332898906844517,0.1965449727574796,0.12470458424576579,-0.05869654119901784,-0.007216224674294567,nm,0.0
74.56281100000001,4.034270788422454,-13.446686135864596,166.15723576640067,0.030886039705653543,-0.012103156553474406,-0.07145212551555757,0.1562786375611433,-0.07268584728616942,0.0015182607296941296,nm,0.0
74.572327,3.3512006766134714,-13.256700791847269,166.49655022374316,0.04718243948775692,-0.35392925528475455,0.37639689486468236,0.11570335575006366,-0.05558475890604522,0.03239289889601029,nm,0.0
74.58183199999999,2.2407378921197516,-13.108918734963291,166.86163247734106,-0.024897113807358234,-0.43240094922854594,0.3179473048321563,0.19924669888746258,-0.0657804054304742,0.018621568792307596,nm,0.0
74.600851,0.14379986405342152,-12.999909306103632,167.56644014254758,-0.036863693083264884,-0.6922930460527096,0.34646173410998865,0.16874738234702824,-0.028428200359975703,0.033127319529297754,nm,0.0
74.619878,-2.1232076613460866,-13.298382853020975,167.98812442927652,-0.011862925479183287,-0.7554457250314146,0.19935095037200845,0.22101428231022552,0.006533025786030874,0.0012255008853065776,nm,0.0
74.629379,-3.087570323244409,-13.620216422171815,168.1346487500738,0.07611833285421205,-0.9319730630702235,0.3033130762810804,0.19250508316260836,0.03722609215119268,0.00023903752562220117,nm,0.0
74.657925,-5.714783512630141,-15.158219029068222,168.3473178658343,0.16540143488860665,-0.9509305145923672,-0.025418371029260634,0.14504841326679735,0.09670210384252552,-0.029215205419441136,nm,0.0
74.667441,-6.201954888730101,-15.707408094996344,168.32810234068714,0.07860845902482405,-0.8485603084709449,-0.16194141133169412,0.10982162773834407,0.10205259311088624,-0.03153210025182425,nm,0.0
74.67695699999999,-6.4062916106167105,-16.29113644232937,168.27792846698355,-0.03522373504905952,-0.726418523469629,-0.2608995872421357,0.05771911535007429,0.11986495378546455,-0.022932833729652363,nm,0.0
74.68647100000001,-6.324691413761585,-16.955526079828548,168.2068858698658,-0.13610313006809963,-0.6105961641755865,-0.26811823098078597,0.007279411110726308,0.14682333989830798,-0.011091998548990553,nm,0.0
74.695975,-5.9971560732423494,-17.679372024715384,168.09917774981545,-0.1945729215133481,-0.45274082876061517,-0.30440524840345073,-0.03604398054403004,0.1680942369598421,-0.0035585192679172947,nm,0.0
74.71499800000001,-4.485157624755046,-19.232333425859608,167.68383281067187,-0.1742421931432982,-0.1990264026567057,-0.36626434640817845,-0.13516659892961322,0.20443674649887983,0.005702493607165648,nm,0.0
74.73402899999999,-1.9640952678245316,-20.624852584319182,166.74787133584272,-0.1770358011015843,0.12831287513981962,-0.2421968133814656,-0.23178878154134266,0.1931113123572798,0.008376741494062484,nm,0.0
74.74357599999999,-0.2415042288626473,-20.994464137203206,166.34563868227826,-0.285623599740883,0.3980731613588337,-0.2370819280756797,-0.30114339068221524,0.16006819352548182,0.02885611676848041,nm,0.0
74.77203599999999,6.442513465527928,-20.596193109361632,165.63145386886248,-0.7905278987915773,0.9964669430210035,0.12448889589599928,-0.39430241297626467,0.041197463995478766,0.10281099348306262,nm,0.0
74.781545,8.756180512358707,-20.219492027112594,165.64483073327332,-0.9489270132445915,1.0664376349155689,0.3050124119289969,-0.44471926547603224,0.04684047555446184,0.14214912337976102,nm,0.0
74.79105000000001,10.730082682683733,-19.918523814258823,165.71354810139295,-1.0208252763562857,1.1137931552156468,0.29128932051721024,-0.3801653365080531,0.04548949296450759,0.12710701820427975,nm,0.0
74.800581,12.102735424297977,-19.836924509488455,165.6802729677748,-1.1018248806138236,1.262393054783533,0.041404716769994604,-0.26013041053361813,0.060224741304076033,0.0821649319554711,nm,0.0
74.84813,11.01857328662903,-21.652583023927168,165.55820641513944,0.2711744506549207,0.23016517908301573,0.35063295637711556,0.2842843598801378,0.03594132525591305,-0.10290606278529045,nm,0.0
74.85763700000001,8.748224458109108,-22.05744102318307,165.6769513226751,0.7699308613362497,-0.12816282722893574,0.5533939146542017,0.42341293315917616,-0.01371511650594425,-0.14919351088046082,nm,0.0
74.86716000000001,5.673556943392187,-22.381888713903297,165.83592026902775,1.3498989968445645,-0.5921488810240618,0.8531478266145963,0.5632236363065272,-0.06444317262365014,-0.2041427083392877,nm,0.0
74.876656,2.155443026169496,-22.679068962454775,166.00065020168958,1.915743293749157,-1.0191526800681496,0.7853598722858,0.6407266818334977,-0.0875208848311996,-0.23942168733816901,nm,0.0
74.886169,-1.218626499330319,-22.945219766003778,166.1763379051412,2.4374977406057683,-1.7511593166054515,1.0734004061246678,0.6127046037681354,-0.08470910220304549,-0.22857115183326637,nm,0.0
74.895498,-4.539536482627068,-22.968532769599094,166.33581372620168,2.3230494060405564,-1.88573975569352,0.34591637107176165,0.5915560986316307,-0.12747385880654916,-0.22859598772728768,nm,0.0
74.90500800000001,-7.048673541926649,-22.74005982449112,166.51290299973897,1.9589682757487714,-1.8027521715760262,-0.05173815041951334,0.43517635087678913,-0.1395797284753001,-0.16037433813012233,nm,0.0
74.924026,-9.253413714645374,-22.615363985264068,166.70687482179582,0.4866088941885536,-1.1887453209597945,-0.5434831014894673,0.14195244109554286,0.011720224560340515,-0.05040778939498197,nm,0.0
74.952762,-7.787976490777971,-26.798730746219963,165.8695005790373,-0.9110079160851083,0.10740789539735462,-0.30835278314663944,-0.08455838795378676,0.42642225416762686,-0.0014226461328788354,nm,0.0
74.962095,-6.201159420833392,-29.067939342972974,165.4467668951761,-0.7946962849875555,0.42673019960615793,-0.48260928008095577,-0.163471131730785,0.523389124653042,0.06421887246026987,nm,0.0
74.97177199999999,-3.801309304272224,-31.26296146643297,165.12165621760974,-0.3907095715066542,0.32219113259042464,-0.47576535298390643,-0.29447577847844,0.5441844705434344,0.17625175124885062,nm,0.0
74.981288,-1.282997847998296,-32.885584883406665,164.82744778229318,0.02513577225119925,0.20450093904468433,-0.6782597438052062,-0.33298665194105004,0.43802879052515803,0.20850880949625542,nm,0.0
74.99060499999999,0.9227179132713149,-33.712068217293535,164.51092470434662,-0.00016872215801074905,0.6203344642267804,-1.2807724749422578,-0.3170030089962695,0.27058604961519367,0.17847265085091732,nm,0.0
75.000136,3.4078563841125904,-33.61390369793931,164.24542384776953,-0.01924708287559881,0.6350726394153801,-0.9462648854105626,-0.40917321562933545,0.10586170002365772,0.22160561628281758,nm,0.0
75.009851,5.50715734702208,-32.441873093333584,164.10737547413655,-0.3187275104292989,0.7270711239714648,-0.4870314250798997,-0.40829612356699296,-0.11656637907688958,0.19986814298100444,nm,0.0
75.019135,6.834751882643257,-30.504933019458825,164.18250528133768,-1.0383829878068789,1.156888078833115,-0.3883697381687164,-0.32941979665299964,-0.2981715462804179,0.15169075044059915,nm,0.0
75.02864199999999,7.930553770935842,-28.372881841738423,164.5620596120278,-1.7490645473430873,1.3606627037364463,-0.034709504219521875,-0.30452502616648197,-0.3468347713409827,0.18116393365048186,nm,0.0
75.038161,8.618984650370717,-26.519497282628066,165.29766822352116,-2.212581699665341,1.3616978297370013,0.2886857200229187,-0.2202618720920285,-0.3138852682033194,0.20773029218603445,nm,0.0
75.047664,8.570099929638047,-25.280245059502924,166.30862393656193,-2.2433508119494006,1.2795702388801793,0.2816082425993296,-0.058104940839425245,-0.23017267123956442,0.19486584520340325,nm,0.0
75.085893,5.328060007413927,-23.907598989805575,168.42899513262984,0.3475114848961744,0.005216623689623081,0.425361385410299,0.3077464081132169,-0.08779417500072893,-0.13590640086463288,nm,0.0
75.095407,2.976980830403089,-23.577418931227385,168.80271805451792,0.9012591939434564,-0.3566758867091137,0.7689427829416917,0.4041820151324944,-0.13592645951162627,-0.18217021096357386,nm,0.0
75.10490200000001,0.004399357204017756,-23.176932569027052,169.4580066347803,1.3036441370917273,-0.6923898104679737,0.9279199169967973,0.5165401717002664,-0.1671349795345721,-0.18180038313155875,nm,0.0
75.114421,-3.1398170446684786,-22.84813510974005,170.57734572906972,1.7928185101892853,-1.3232824184747582,1.5083842255450308,0.5544696024402085,-0.15015460625193341,-0.10929913268566693,nm,0.0
75.123929,-6.405339147518086,-22.342980635876692,172.1049024364117,2.196523390712746,-1.7901191034439752,1.3525434524734143,0.5769117141184608,-0.17526268751174687,-0.04618099487488531,nm,0.0
75.14277100000001,-10.73688353309182,-21.045947060930246,175.3406802015262,2.0687224793161305,-1.881085073010142,0.26913487217622384,0.2703026248480934,-0.14142654854663977,0.09004254824473372,nm,0.0
75.15228099999999,-11.380267263026202,-20.788010297344947,175.8664832610279,1.6910442492244764,-1.7332887790208866,0.16803264796349582,0.11009730520978228,-0.04781500731461074,0.05921507939241224,nm,0.0
75.161797,-11.178155881439677,-21.203205978738364,175.6590915830369,1.008080699298655,-1.201394629462629,-0.13243497123207854,-0.03743555679815701,0.09862669146128727,-0.02705577708831305,nm,0.0
75.171495,-10.071941779066329,-22.497752902186125,174.77152171285826,0.16961901424951908,-0.7332785005463284,-0.3136397079755414,-0.18905096482523084,0.2884350385699385,-0.09532982841067783,nm,0.0
75.19050999999999,-6.86929809582662,-26.7748561496528,172.02397298094849,-0.71348329947179,0.14212517084194062,-0.021681378914945485,-0.2438622085695749,0.505253661885115,-0.13785244670149918,nm,0.0
75.20002,-5.063067417339363,-29.204889941757084,171.04818271109724,-0.7090623864067016,0.31139153181798307,-0.09153809378804814,-0.2497627468596748,0.5413971122229022,-0.025762472437783245,nm,0.0
75.209543,-3.662908097277254,-31.547135975364075,170.75067587175226,-0.4690271269572573,0.23820894940142381,-0.07515873233491993,-0.17024172739801047,0.5144472778707467,0.08207339481553051,nm,0.0
75.228361,-2.9703434864015,-34.05649824980433,172.49884402438056,-0.3175971122793511,0.36510741427958415,-1.072470272898957,-0.013260624222886668,0.1747729404569015,0.1830390426412964,nm,0.0
75.25694999999999,-3.8581052895158856,-32.63589115275787,176.04284276249436,-0.8827732780763089,0.45571382420210077,-0.8074005440066555,0.004815216535575362,-0.23029458533558095,0.02910598472849775,nm,0.0
75.27592200000001,-3.489400496307191,-29.134995205512222,177.43765475526786,-2.0458264998379243,0.71735727631519,-0.30411721420412136,-0.06733937325567885,-0.34159643805445383,0.02191397181464354,nm,0.0
75.294926,-2.036642141098557,-26.43176912070601,179.4946549598781,-2.4324740445046404,0.7175410153199296,0.1592436345632206,-0.15218804370535677,-0.20685826497518783,0.21981911545351462,nm,0.0
75.31395699999999,-1.120071476552509,-25.93395926850624,-178.01826735444428,-1.059076195793594,0.6357492118325304,-0.39257963837791215,-0.08354583993586791,-0.0017419789663159356,0.22543738953741377,nm,0.0
75.323669,-0.44101156970719,-26.15042444102668,-177.46969225411883,-0.11100632232154987,0.5692711298087684,-0.17468089534212713,-0.13220427968397647,0.04970079142145744,0.13178063503826237,nm,0.0
75.333157,0.16914225798134208,-26.349530294711542,-177.59273310438792,0.9170425056805583,0.5379798723541014,0.10477658690981483,-0.11965236083124933,0.04623212347973674,-0.021312861020285245,nm,0.0
75.342681,0.5541131298284218,-26.272080631440907,-178.24382420087161,1.7785567789131467,0.6673186433090382,0.1978732535393425,-0.0767123840662452,-0.006800598738961811,-0.16749438295557192,nm,0.0
75.352003,0.999226887187621,-25.924749096018516,-179.14135439765948,2.755162340033521,0.6301265694775722,0.4660196439284452,-0.08629479055331589,-0.060142717026102695,-0.22598191858007494,nm,0.0
75.38072,1.2593294320472437,-23.988362376395237,179.92311684248926,3.42601517484274,0.17274910931779935,1.1289063827880572,0.041808537592353014,-0.19831695893511014,-0.11649303943823218,nm,0.0
75.39972800000001,-1.918316601539724,-21.980868448818377,-179.3089716202796,1.5046519074725198,-0.6103070029089332,0.958099989624539,0.3801865534175948,-0.13488857097982276,-0.18629081188881727,nm,0.0
75.409242,-5.181001474839595,-22.015284838130352,-179.1967878892659,0.11977977858308028,-0.6776034650525192,0.3726241402827735,0.5980886025448584,0.028640240263203914,-0.29352195276119675,nm,0.0
75.43759499999999,-15.46686329841211,-25.767019625905075,179.5479428984999,-0.8758553424979248,-1.1296009245581375,-0.91183517973346,0.6349663621707724,0.39658701490550213,-0.4974997163156213,nm,0.0
75.46614199999999,-21.353052604474033,-30.683349309924257,175.13265748005665,-0.41839512112519295,-0.8172535484794288,-1.196166566797452,0.23814078390508844,0.13271466081347785,-0.4522155496194814,nm,0.0
75.47564700000001,-22.091581586554334,-29.90398629792283,173.99423686112976,-0.8169348105287556,-0.5567174067422547,-0.9113001938996232,0.10812327621616549,-0.15428258465702943,-0.2993962435511659,nm,0.0
75.48514499999999,-22.37967401484005,-27.769572831269517,173.5899475810767,-1.4672285553955775,-0.4400433407595491,-0.295909539222259,-0.00019233957457340418,-0.41714879676207983,-0.10579526475718667,nm,0.0
