timestamp,roll,pitch,yaw,acc_x,acc_y,acc_z,gyro_x,gyro_y,gyro_z,markers,motor_input
90.007484,-55.18962391077869,-36.5917937297089,-145.4795751363146,-0.6045141624816416,-0.6037589124876477,-0.8343047625652673,-0.974742502516489,-0.4864116489126757,1.138504836510048,nm,0.0
90.03609700000001,-24.576570598568022,-38.37107365156815,-139.89489836842975,1.8554896338979812,0.9730444618818359,1.4739098546046512,-1.5633467432236223,-1.0271202289430723,1.858462442110213,nm,0.0
90.05494100000001,2.7515859411004824,-39.352496522783824,-137.5337484512148,1.6767089649041447,4.059844199577504,1.1321741773678573,-1.6959207851317082,-1.4312680970996472,1.9609204478582387,nm,0.0
90.064447,17.94009430010405,-39.3859522484582,-137.78459418644738,1.1325206728076331,4.215456532405064,0.6032939042037287,-1.756394761408229,-1.5783991525640064,1.8769463104155484,nm,0.0
90.07413700000001,32.40727277060528,-38.31854814711029,-138.92013049334557,0.15240982722605426,4.756690246743355,1.172879763950594,-1.5576425634029745,-1.6598209358964062,1.5866181913108865,nm,0.0
90.08365699999999,43.92112269450532,-35.59399411963537,-139.9100889996246,-1.420941771394727,3.4084961839531553,0.06484317515386386,-1.0577822359423206,-1.6152527600100983,1.182778949212912,nm,0.0
90.093119,52.97480591453501,-32.268655253318364,-140.52395369041375,-2.450617894183004,1.556912072518386,-0.5966254826415046,-0.7420380717859884,-1.4783586980438497,0.8823934524038373,nm,0.0
90.10263599999999,60.03298707152861,-29.806244000747117,-141.10065646679547,-3.2516961839169753,0.26563879890671327,-0.4926889556645902,-0.637641217241699,-1.1530078444350313,0.6056309170424597,nm,0.0
90.12167400000001,62.64909019569317,-30.11347080212663,-143.06620599446487,-2.2247287076643127,-0.38994474147412,-1.0225871985500885,-0.013082016768166551,0.23199183040607832,-0.30028499381342977,nm,0.0
90.13118600000001,59.31476466287161,-31.732867458358584,-144.0856480474879,-1.0668211152285165,-0.22133410763697683,-1.6071043816739494,0.2575979633101998,0.595399989985369,-0.5544196769785033,nm,0.0
90.15038100000001,47.814574380387306,-34.22707422880214,-146.08806275601376,0.8568019523976782,1.1327108076117027,0.015338660041704966,0.8460524696723846,0.8078878058867502,-0.9634403214997411,nm,0.0
90.159897,37.84890470797967,-34.300915703553855,-146.37975260398423,1.1469886812231478,0.40977080949749345,0.31170003832617604,1.3498573761691572,0.9278023453224653,-1.1873258876735975,nm,0.0
90.16942,26.24748002936669,-33.85878023953002,-145.94633958029428,1.5128543760715645,-0.004922653319224341,1.4170541035876343,1.633806299037477,0.9990346875126402,-1.2196024372839305,nm,0.0
90.178901,13.352442762163166,-33.25903585474974,-144.9036992164197,2.370217276870304,-0.962522305896016,2.980224714505063,1.825702350762748,1.1254282604064296,-1.2220760045416978,nm,0.0
90.188388,-0.5943008922685965,-32.24796930096752,-143.508606836133,2.2900346931024966,-2.7883543910137134,3.11116059475643,2.009154233126779,1.2147786378150631,-1.23334297532168,nm,0.0
90.19791000000001,-14.056238253051061,-30.473335413279997,-142.3851943933402,2.1884744505139953,-4.467950275440272,2.145440197944251,2.0371793038829518,1.110571060201131,-1.1772358989960958,nm,0.0
90.216789,-38.218509897866554,-30.423875772646863,-142.62835697795785,-0.9813346923100227,-2.747072014224533,-1.3624193293952973,1.3570352944765793,1.3340614894883676,-1.1589714803171605,nm,0.0
90.235806,-47.66532626295567,-35.74910414197948,-142.6060692260448,-0.053125677964445325,-2.582194981562165,-1.6505345399274627,0.16474005009493206,0.8306732995490534,-0.3645911040630645,nm,0.0
90.26416499999999,-48.77254288499037,-38.0317094389405,-136.0336604185191,0.5131358253930649,-1.4743675061759411,-1.3411235414992646,-0.24194881046410877,-0.4149699825580543,0.8330561227159524,nm,0.0
90.27375599999999,-44.56059559413406,-36.578006018612776,-134.24953876271385,-0.5597238242114448,-0.16018272274243125,-1.5627595552643443,-0.28043618947767157,-0.6730273423754838,0.8758976303891903,nm,0.0
90.28319099999999,-37.47074434044837,-36.087738876327116,-131.65706534674274,-0.13213650401115454,-0.25597079379234555,-1.0992673241351705,-0.7191953501968468,-0.8985134610401146,1.3661111761500462,nm,0.0
90.302391,-17.110473714114264,-38.45575528685482,-126.80527067355014,2.0107047435022247,1.5204066408912638,1.8772671509929424,-1.2682762248366168,-1.1839023074240023,1.6959353405642292,nm,0.0
90.31190899999999,-4.767481128119605,-39.29392483027509,-126.35743468933913,1.2207540211146353,3.1448937978720495,1.1560653810348407,-1.2953229490506406,-1.4445368734325676,1.6417713216862067,nm,0.0
90.321235,8.924206122880607,-40.048834689131795,-126.98897367605247,0.902631827168741,4.597606426068759,1.4700204728631432,-1.3951029470813872,-1.6034124197261796,1.6232872227673147,nm,0.0
90.33074199999999,21.885338059034265,-40.0771371200935,-128.32851854826342,-0.4104005516930984,4.587943397930606,0.7532473934173075,-1.2314590909166092,-1.5714126012611207,1.4003570429017722,nm,0.0
90.34994,40.56813305860801,-36.10932975196691,-129.078507301004,-1.8466339731241148,3.1982372758667226,-0.1310589171004078,-0.411766722119562,-1.2712947865294022,0.9521482950038352,nm,0.0
90.35945699999999,44.956009415980944,-33.926770921168774,-128.65163780447836,-2.383963523161986,1.338366446152855,-1.0050092727273745,-0.12257686781514318,-0.8407106299016559,0.5834529215629435,nm,0.0
90.38794899999999,44.535188854421115,-33.383698009899604,-128.19832913796324,-1.6413607242415333,-1.1462894829068093,-1.165228386482762,0.12373752206917675,0.41745608206216195,-0.34899066854630184,nm,0.0
90.397637,40.34451409903795,-34.17792265717145,-128.3797178689588,-1.6145607138583251,-0.01655851859279262,0.4176326438795924,0.2956619796211901,0.6404387936305975,-0.508643771532348,nm,0.0
90.407151,33.11034206691343,-34.34250834588045,-127.86798929616971,-0.4525932692833206,0.5785385373217008,1.4731428330582805,0.7007090003983545,0.9576756829904677,-0.7182024503426438,nm,0.0
90.41665,23.019787498093162,-34.58761572666374,-127.77472791731388,0.6890616289782717,0.17319286358449365,1.0987246366597105,0.9694857584790877,1.343184820075564,-1.1286830747280807,nm,0.0
90.426163,11.946161347972625,-35.565847322474525,-128.5185336121093,1.121375953032336,-0.21008023515522337,1.1431900265661348,0.9534861892556195,1.5472203502870199,-1.4250972170314988,nm,0.0
90.43568400000001,1.36801319524105,-36.30194118019971,-129.52638218480186,2.0456646748051686,-0.7111335605726519,1.7151704325658172,0.9517518214811469,1.4263998764006331,-1.444915707910741,nm,0.0
90.44522,-9.243744531559646,-36.2604312057023,-130.7332674108679,2.923622323060481,-1.8058493776431281,1.5454264846564298,1.0968450133192675,1.3075556765141767,-1.4972414139166552,nm,0.0
90.454542,-20.344229840493625,-36.30016859460467,-131.8620024136984,2.2616733805772924,-2.7231239090535544,0.5015496685299543,1.163867715367517,1.3562028913529207,-1.5375007619768688,nm,0.0
90.464079,-30.5313725641452,-36.51125673000867,-132.5632763177004,1.9070184706816462,-3.470729986247418,0.26110907049403936,1.0600194009933015,1.2500019374452398,-1.3456794386325917,nm,0.0
90.492594,-52.6226717578503,-37.26372548169308,-133.7469387218647,-1.051139429926817,-2.1950300657256694,-1.423197655955562,0.40209480010921306,0.624990365372621,-0.504804146107072,nm,0.0
90.50211999999999,-53.892198796521775,-37.83092734861347,-133.258590566095,-0.8587990682622726,-2.1515147486129096,-1.3741138635426082,0.04775683722522082,0.23108440534533592,-0.04807538614918222,nm,0.0
90.51144400000001,-53.386107829041734,-37.791656945978254,-132.66436880222878,-0.644325241430598,-1.5541088195464674,-1.6692403910463203,-0.057567025223247935,-0.057345409641795415,0.19012711059236975,nm,0.0
90.52095700000001,-51.427722582287004,-37.52048478328276,-131.2453720865985,-0.47791461610902053,-1.040885552439323,-1.4295136016567025,-0.17647254197216763,-0.2608794850525471,0.5323755770153128,nm,0.0
90.53046699999999,-47.128600079267976,-37.124403720520625,-129.42245793400525,0.5130386901244239,-1.0665856713145814,-1.008532857750513,-0.39290771882368614,-0.5674138233996654,0.8948347967241582,nm,0.0
90.539995,-41.07123025063303,-36.74772003426135,-127.93168753508162,0.880362330183049,-0.6028043897599251,-0.5752678853264306,-0.5583384311651102,-0.7988647158053106,1.034209418207343,nm,0.0
90.549691,-33.229805736103266,-36.892286015956294,-126.70393217276413,0.6222400656196091,0.19520612374191715,-0.3782873459047495,-0.7973941181740981,-0.9778329316882638,1.192271076798526,nm,0.0
90.559179,-22.87767860374517,-37.97427189756601,-125.50341745018157,1.5976770186807854,0.657959442226747,0.912830662017723,-1.1580612847411578,-1.1996267297074465,1.5039086014599143,nm,0.0
90.56868600000001,-11.234953130322127,-39.319192579182285,-124.89752645978061,1.652895158384065,2.1566791010078274,1.9821158853207175,-1.2830948190905191,-1.3316625723680855,1.5791772997743638,nm,0.0
90.597227,26.190623113330474,-40.97482751659785,-126.13709646830809,-0.826837176267412,4.2101546488298025,0.22414581707061568,-1.1527286026751307,-1.4822402903730596,1.4481087881323997,nm,0.0
90.61623599999999,43.94403531275011,-39.04907697185759,-127.32246149261955,-2.0457284439218975,2.898816905959498,-0.6564360299772724,-0.4638789755003539,-1.084365631716352,0.8647702794082082,nm,0.0
90.62571299999999,48.72959712107154,-37.35430126373686,-127.66335248091782,-2.267644307819138,1.5340997439505535,-1.1459713180315643,-0.19999838712226026,-0.8112551400975726,0.518730562906675,nm,0.0
90.63521,51.55782622715355,-36.09382745999394,-128.43151287898843,-2.3864060835365226,0.5615294457547058,-0.9063914904739743,-0.09140750944529896,-0.5204994006108237,0.17877204763966142,nm,0.0
90.644735,51.88910486414398,-35.40133072977706,-129.50298298267998,-2.264888764801958,0.2448125274861395,-0.5123785000359073,0.06353371149114043,-0.1363628783268478,-0.18202473555772505,nm,0.0
90.67343199999999,37.11402370036438,-35.13410917569203,-130.56530818364982,-0.5347577191275015,-0.09061043058859423,0.7656268889536998,0.748246217631805,0.9378679620381356,-0.8120985574129967,nm,0.0
90.682941,27.625273575435344,-36.13759604501212,-130.59229150834142,0.43203746420077865,0.09169088092820558,1.175726932078884,0.839018680851103,1.3003414358273693,-1.1165745713438109,nm,0.0
90.692454,16.85867274126803,-37.50835090616259,-130.61238424918346,0.8891713904244737,-0.27780684437114866,1.27807980478948,0.9015048199842174,1.487330321119174,-1.2987624489686211,nm,0.0
90.70197099999999,6.005256831088896,-38.08802274269708,-130.22131590078487,2.0836124433327443,-0.7170157161358577,1.9668564567965252,1.0111060613050418,1.3829756617800157,-1.254775476477599,nm,0.0
90.711476,-5.483097799300067,-37.693588750723684,-129.8371127770883,2.8699838301569964,-1.8066992623135083,1.6756693970352288,1.2139305690320157,1.3416316547091955,-1.3352249801481975,nm,0.0
90.72081,-17.16457867687338,-37.220060683675264,-129.63605014475874,2.305740131866915,-2.8014663298178593,0.7498419927804845,1.2462490618895197,1.37108444192478,-1.379573692549724,nm,0.0
90.730346,-27.70883556014917,-36.90554624473526,-129.64336881952136,2.2001395574253495,-3.7433432516471568,0.16796419880781985,1.110722657461714,1.2620988867789238,-1.2692989138823114,nm,0.0
90.73986500000001,-37.6377216825449,-37.138889376183215,-130.21773847940153,0.3995062547689887,-3.5430950148587574,-1.001506948469186,0.9718971540311401,1.252845382320121,-1.3055064324347132,nm,0.0
90.749372,-44.812755544584654,-38.41916255446486,-130.70551168364977,-0.7748584241052746,-2.684473501598423,-1.2098759081134864,0.53194253290514,1.0363786981033853,-0.9701189374959176,nm,0.0
90.75888499999999,-48.334130361037865,-40.358561960763666,-130.60203640196607,-0.6111562507425458,-2.588740238769064,-1.0560427937591934,0.050955372813351676,0.6728704248608224,-0.41856189521596737,nm,0.0
90.768403,-49.66247126057186,-41.882493581114275,-129.9060088188223,-0.5610153661109694,-2.2141518127314135,-0.9306038719603782,-0.11269852801656356,0.35668420335647716,-0.027148577802430126,nm,0.0
90.777729,-49.4470380731787,-42.18083463414381,-128.59769525030748,-0.49045523328168866,-1.5488591256479063,-1.2296372432914386,-0.07598976010186455,0.01935590453917388,0.29930474938242807,nm,0.0
90.78726699999999,-47.50399782446853,-41.46044657780659,-126.44644556791232,-0.02063162679771149,-1.0721400733571593,-1.179074123214781,-0.07226945186933928,-0.31205933122663104,0.6983525537878889,nm,0.0
90.796773,-43.403111701645074,-40.13450615437519,-124.00239610060201,0.8139726383865836,-0.7454129203322715,-1.066009482563592,-0.15278454441723843,-0.6561213666221033,1.0333419064138658,nm,0.0
90.825459,-19.120184339829898,-39.1904006856899,-119.44658727904275,1.8630467643458375,1.312674318981086,0.9680922971687459,-0.9345358831324168,-1.3313018330461714,1.4683529349817697,nm,0.0
90.834972,-7.641650261571256,-39.97843661621226,-120.00553890488858,1.164970790946537,2.5292039425702133,1.6586289975039326,-1.0290139317859244,-1.4601893141253008,1.354607592952791,nm,0.0
90.84466900000001,4.5600780889062,-40.095211613515396,-121.54288104181825,0.03224305276064554,3.43175199721524,1.4143415008084785,-0.9910607338854138,-1.5964036601554255,1.264413608248743,nm,0.0
90.85399899999999,16.665775209746457,-39.697898467864,-123.3154097360213,-0.814843543470986,3.942340376384948,1.0551578774292756,-0.9438881964077445,-1.6147977088011076,1.1987340295093305,nm,0.0
90.86349899999999,27.279245943045485,-39.00187692537181,-124.83254840793255,-1.5964910565327064,3.3506225470188795,0.14480558335340268,-0.8185275943766449,-1.443275994520192,1.0408877022795697,nm,0.0
90.88252499999999,41.06756164213528,-36.94809503581609,-125.7886976906804,-2.2910782547256505,2.4126885823366404,-0.5203898842711547,-0.34098606629122696,-0.8310599616041267,0.6303871243492631,nm,0.0
90.89199500000001,43.88360167614214,-36.25812118611916,-125.8403406404339,-2.2835239962889635,1.221029738404643,-1.2342943662030579,-0.16401502863740094,-0.45471736292324316,0.32028324444934586,nm,0.0
90.901489,45.05216767454782,-36.11407564047956,-126.22827972156524,-2.214353764740636,1.069604473295947,-0.8449959584878199,-0.09879971934005467,-0.17657178551750594,0.0547703255549019,nm,0.0
90.92053100000001,40.851684102478345,-36.08528047005668,-127.63017524362685,-1.5934320058539824,0.78723311610158,-0.160970153359266,0.3171334470936967,0.3921101450488682,-0.5279277237097991,nm,0.0
90.93020999999999,35.76165874721992,-35.62787632778973,-128.2694172576628,-0.8834877005207515,0.837155928615524,0.6521438880519222,0.5679042872514163,0.5902753985886462,-0.7300221850209605,nm,0.0
90.939719,28.36848241264893,-35.050510109836424,-128.97586950062916,0.041725812973377345,0.3832146942510267,0.8822614996404294,0.83104593351721,0.8681093401102353,-1.0020297762019548,nm,0.0
90.949228,18.9835521202345,-35.03457052010127,-129.9543934249956,0.8978216916685751,0.11830963747641265,1.3354771632804734,0.9668571321292331,1.184409236926359,-1.2779152212686518,nm,0.0
90.96825000000001,-2.606317449949122,-36.4105401075001,-131.1320189807518,2.2486678630943793,-1.2556706049900321,1.8988735801281955,1.030240730646946,1.420012703414201,-1.337729209685135,nm,0.0
90.97779499999999,-14.158728339849132,-36.797399151468056,-131.01939275736055,2.854741754012258,-2.423444479502308,1.5992492104002998,1.1484626147201895,1.4542401448380198,-1.3546279615235688,nm,0.0
90.987124,-25.782470423905444,-36.975237055429716,-130.79213338310817,2.3107148229771286,-3.332921584759795,0.47693155932568837,1.1795717940881312,1.4349957046831712,-1.3473472941490383,nm,0.0
