timestamp,roll,pitch,yaw,acc_x,acc_y,acc_z,gyro_x,gyro_y,gyro_z,markers,motor_input
50.01607200000001,23.97547023403626,-17.593856869757595,124.58585031855374,1.793636252634394,1.2623769264442677,-0.06668188326657128,-0.263259692970053,0.3822163153693463,0.31624496767231386,nm,0.0
50.025575,24.313841137717805,-17.745815252122323,125.46393330114053,1.509453943877172,1.2533796873795329,-0.3223164015812912,-0.010254467657598151,0.08261131537660298,0.18947857628948836,nm,0.0
50.03508199999999,23.058546171962792,-18.047511050116178,126.2752884653853,1.2196070047232632,1.0026334260947014,-0.12816124843503976,0.1909929205002149,-0.14603304308561826,0.07853550227899997,nm,0.0
50.04476600000001,20.279120988110407,-18.259628976801736,126.9488846298509,0.8824745880396327,0.5474858109462504,0.2816360466706192,0.3516401342829203,-0.38657989897630374,-0.04477198825641085,nm,0.0
50.05428599999999,15.891178144284988,-18.176770270362546,127.34259345764166,0.46296810485779,0.07820427900675403,0.4464353871024587,0.493463036546958,-0.6624663439652023,-0.20142762031492412,nm,0.0
50.073307,3.2613347948615274,-17.292889343650454,126.87992902998947,-0.5397118269677299,-0.6959798434550348,0.8746774052193639,0.7214028560404482,-1.1002141813805835,-0.5111467653470159,nm,0.0
50.08281299999999,-4.2359506385159875,-16.901956959700488,126.1491299022211,-1.0356268960781116,-0.7610596049102211,0.6794465088738093,0.7964701194275396,-1.1868651633567802,-0.5894628273733469,nm,0.0
50.11117100000001,-26.854920469670038,-16.405516588174176,123.681081153415,-2.4223872590765976,-0.7693370192909087,-0.32159141248519235,0.7860471082599426,-1.1712564190713208,-0.5805561680793714,nm,0.0
50.12068199999999,-32.992800294971545,-16.49189203088648,122.86997309655183,-2.6292753565402784,-0.8477717824084497,-0.7212793583716172,0.6687186072494495,-0.964682801830514,-0.5062518673890856,nm,0.0
50.13018700000001,-38.18916666054881,-16.896807688921363,122.01926556759302,-2.189826189467016,-0.48543018362583934,-1.3350948016110507,0.6107351809919871,-0.7868433017928643,-0.4640007951493794,nm,0.0
50.139703999999995,-41.623693386748265,-17.641398691083175,121.17602165442369,-1.6196284973730202,-0.15209792246182993,-1.665438817741251,0.47881690906907787,-0.47094854150641724,-0.36706520414170546,nm,0.0
50.149214,-42.844403332204124,-18.57830167321569,120.32979782050144,-1.4913444550798476,-0.23517232358291587,-1.6366659622040185,0.2879415041863075,-0.09371476570223586,-0.2392050436731191,nm,0.0
50.15855099999999,-42.35256974727391,-19.504982177780196,119.44257219088655,-1.047557571284824,-0.04575963258439458,-1.5352800899920127,0.12263732508649386,0.18302661624763,-0.13933132116416463,nm,0.0
50.187252,-29.50320610381587,-20.41543112225582,117.67855854747928,-0.17406235487254682,-0.13829096680329916,-0.5154948001736874,-0.5327940902194486,0.9996006154894937,0.36790149856334076,nm,0.0
50.19677899999999,-21.926060419254426,-20.038775206976204,117.888435761284,0.13783902901635656,-0.30338718965629186,-0.06822308044062232,-0.721879955229885,1.23574875524173,0.568586212571322,nm,0.0
50.225291,4.763189399444524,-18.369235969776835,120.22584534254847,1.8697686317836348,-0.1273599855295426,1.2158726885847015,-0.9367497106823391,1.4286780649369384,0.7447297750356155,nm,0.0
50.23498900000001,13.63484318636575,-17.80589429585292,121.09735607422621,2.2816295375980773,0.19489461709026562,1.3291399851945371,-0.9536587738445654,1.4077501724801789,0.720511704715784,nm,0.0
50.25381300000001,27.08923217728993,-16.646118838855607,122.76600833526518,2.337398579989718,1.2418273449117132,0.12672275039845843,-0.6976786450999548,0.9026880123980087,0.5042230447940186,nm,0.0
50.26333600000001,31.159653372817417,-16.244228041152983,123.65126791610327,2.045720573889292,1.4539376548055416,-0.050004680701268824,-0.4942139916370867,0.621649459927024,0.39985194547659836,nm,0.0
50.272862,32.85387829155583,-16.1324399908794,124.51722599191268,1.6601769776431976,1.5487888759454014,-0.23913562970763844,-0.20033000296010497,0.2688105046632575,0.2596675358213193,nm,0.0
50.28238099999999,32.36993814944982,-16.344752453890454,125.29869145393951,1.2754188151461534,1.4685662734638363,-0.20616195934022444,0.08880785287720416,-0.04037859833308446,0.12117892378795943,nm,0.0
50.292058,30.112606099788934,-16.692749276391186,125.99064380981388,0.9416599488279915,1.0649858873548406,0.20579985226738853,0.3100678403545415,-0.299748028296886,0.0021625591250498902,nm,0.0
50.311082999999996,20.429347492757813,-16.862792286053203,126.61295293794383,0.17637456031580176,-0.03564565186701157,0.7080689079586574,0.6379600969622465,-0.8608346473608953,-0.30895611826890507,nm,0.0
50.32057900000001,13.702986235282424,-16.618779394248794,126.26300940153457,-0.24611160935282703,-0.4993915551344073,0.7502119008825584,0.7301933817086484,-1.0539522890934712,-0.46332714339677444,nm,0.0
50.349113999999986,-8.790573097203273,-16.02825599555283,123.41377686465721,-2.0621547354113794,-1.134915644309965,0.6952053390975346,0.8328537715463727,-1.2662093991896388,-0.6590304153552172,nm,0.0
50.358434999999986,-16.461282918272662,-15.952071219792497,122.36931697434798,-2.331604291082949,-0.8537098796575711,0.09227985626125468,0.7962814619335813,-1.2359906788351018,-0.6314931582995285,nm,0.0
50.367954,-23.155766656475272,-15.977584428239119,121.39774131758934,-2.6274733884048516,-0.8224674926088177,-0.3240258831285858,0.6927578122045669,-1.0799148661472833,-0.5611396112271358,nm,0.0
50.37746799999999,-28.99332853110132,-16.18538926542295,120.38268646107427,-2.4348569739784782,-0.507095356492529,-0.9583204122655791,0.6203110473814264,-0.9312454362633703,-0.5237186268740909,nm,0.0
50.386976000000004,-33.303354153418766,-16.7100076053774,119.29132034137167,-1.9157134938482405,-0.21483618775649474,-1.438485569421967,0.5111327966419426,-0.6549654711015508,-0.458675298726347,nm,0.0
50.396491999999995,-35.52588078811576,-17.611324147379943,118.13501020142915,-1.7402408477119244,-0.3058963005133817,-1.4491693917075144,0.37100508046753644,-0.27582714943076064,-0.3581520763737225,nm,0.0
50.415324,-34.453042139483216,-19.81050128082055,115.55828695273885,-0.6087995464856085,-0.14833201139463453,-1.3390569609972853,0.07151973789403526,0.3640750472186326,-0.15625209653485794,nm,0.0
50.42485099999999,-30.742151276122016,-20.465431806695506,114.38725184376602,-0.4049988438563011,-0.429135250685419,-0.894304792583983,-0.16646664989536888,0.6977985380386038,0.025359357393315105,nm,0.0
50.434538,-25.512687716107184,-20.505020246996093,113.51001219707747,-0.0747337900921489,-0.558988811526905,-0.4420156494685097,-0.38160407324666834,0.9099876853877021,0.19377893040007507,nm,0.0
50.44404499999999,-18.90891865063115,-19.960982254903698,113.10217305108351,0.3996619152857225,-0.43583619329966206,-0.21436821984526136,-0.5816410162521558,1.1071742250111627,0.3771565707128976,nm,0.0
50.453553,-10.826132537048814,-19.220363544339822,113.2750706692672,0.3422765872346735,-0.6806909441888299,0.6388172661327904,-0.7278319245115298,1.3545921385182662,0.5769044240727913,nm,0.0
50.46307200000001,-2.6054492508854628,-18.603952161185493,113.8640082024808,0.9636743147952217,-0.19019395768111005,1.1260566499847309,-0.727775116672166,1.3897756236504553,0.6491871477754504,nm,0.0
50.47256999999999,5.857337908403814,-18.14124516462699,114.75503715473204,1.623111747581785,0.43560705057549665,1.037700346560832,-0.739599449956601,1.4395624056511187,0.7084658926924905,nm,0.0
50.51060699999999,33.95180517381575,-19.616357931921787,119.7660784015239,2.394576008908341,0.9895946857645602,-0.33064990041448,-0.3103675351106599,0.9149206029693921,0.5799850803559363,nm,0.0
50.53911199999999,35.76328345278527,-21.26486823230232,123.33065249624194,1.5884566706906713,0.6145681828509054,-0.4327153530516275,0.17754888525451895,-0.1849882894634218,0.12214164797880915,nm,0.0
50.548812,32.42720716550936,-21.028988013640145,124.3873439105796,1.0863105180651436,0.435946193906299,0.004040508592760136,0.3084124104861606,-0.531565050298103,-0.03691647595766139,nm,0.0
50.567869,21.044460529541283,-19.43606044663672,125.78039344986865,-0.014450967036688692,0.0033423370827610622,0.9627492401041554,0.5407902426536376,-1.0667040000400008,-0.3290552131037913,nm,0.0
50.57737499999999,13.53657341123315,-18.405448859135436,125.88895273677599,-0.6379656573028208,-0.1873700288803825,0.9897920747120625,0.6689026763742475,-1.2607870418178238,-0.4708943432615122,nm,0.0
50.58687699999999,5.7496384428531115,-17.382549303549055,125.59724384492164,-1.2046788142210187,-0.4505753063660608,1.0803826489928534,0.7053106006707563,-1.3109484420627744,-0.5412789829500275,nm,0.0
50.596393000000006,-2.101893795271107,-16.44235782873866,124.90723772068658,-1.9096485511731518,-1.0327150466633284,1.2252047884748911,0.7202624997651522,-1.3240898574596818,-0.5977814345576684,nm,0.0
50.605901999999986,-10.323013414056009,-15.830706198417186,123.83160847441202,-2.312463611693323,-0.9474845342389693,0.46666001459790163,0.7983296642394923,-1.3618069796591417,-0.6733916451162738,nm,0.0
50.61522400000001,-17.8519786504599,-15.635244377317337,122.54671344451792,-2.4389301951511326,-0.8904559822342516,-0.09666589192947858,0.7689095947959774,-1.2236980497514636,-0.6649874649255072,nm,0.0
50.624742,-24.30929622584882,-15.85962028517378,121.2025030245598,-2.593382995623403,-0.8724692669964578,-0.5480627789316708,0.7030515694396263,-1.021492504377138,-0.6176690634939115,nm,0.0
50.634251000000006,-29.82487272260019,-16.483168697761638,119.91076285314523,-2.1596055117192487,-0.49697537038924094,-1.2290136259168323,0.654830603122115,-0.8388921966414372,-0.562689470225586,nm,0.0
50.662777000000006,-35.94960222967767,-19.642484230652826,116.9553937093958,-1.1347415873893159,-0.31977461479528324,-1.2100623131273196,0.22556852400647978,0.04919668530360443,-0.20498519150673225,nm,0.0
50.67211399999999,-34.116926819696424,-20.378965289786887,115.98669531767962,-0.5619578299640686,-0.16125408370203234,-1.144532908159146,-0.012763663063576847,0.3844176686817888,-0.06375443432751914,nm,0.0
50.69131899999999,-23.936758290613334,-20.404683027474736,114.31572371137347,0.11469800009579752,-0.24118665410408033,-0.6063379721889541,-0.5027724733955543,1.0178085345136474,0.27771038513373764,nm,0.0
50.700827000000004,-16.05459910728067,-19.943278618201703,114.0159043601754,0.276227030130636,-0.48433388425381557,0.2041905284995644,-0.6817771095052025,1.3249436867819477,0.4851976394129907,nm,0.0
50.71033600000001,-7.071984005187457,-19.370624894990407,114.13979466659161,0.467957160407196,-0.6982431214532111,1.4198208471717437,-0.7873223184204373,1.5113547211049334,0.628728216874014,nm,0.0
50.71984599999999,1.6046114964815623,-18.588012049783195,114.61384609129564,1.4285343607250631,-0.005173785895596341,1.517129276186982,-0.8133128046456313,1.4438395975700125,0.6568988156510162,nm,0.0
50.72934599999999,10.377107440366935,-17.71691884152483,115.50192291873694,1.9934870754741363,0.5456008452385975,1.4190855032215786,-0.858661740702522,1.4504509735296958,0.720109455250751,nm,0.0
50.739036,18.724439003154064,-17.113358388532525,116.71117118243798,2.243080195374371,0.9010638588327127,1.2797138223806406,-0.8055793188762304,1.3911383245772175,0.7358305698611652,nm,0.0
50.74837299999999,25.5274077582716,-16.935509115426687,118.02240627554689,2.2867836211339823,1.330217191954913,0.48864053478044345,-0.6271089018502128,1.1523088717569199,0.6538835725559454,nm,0.0
50.757881,30.707071963990803,-17.128658389610834,119.30962567777277,2.231566498588174,1.4001238802593572,-0.021017779321430948,-0.4396961162760031,0.9003800268660942,0.5534996287377515,nm,0.0
50.767405,33.957326901700654,-17.610694878519833,120.42027852051342,2.1135934512015777,1.257426184849108,-0.18249847289333998,-0.22432472362657527,0.5982864356705582,0.4084439724009271,nm,0.0
50.79612499999999,30.98534596347324,-19.036780249697827,122.59517761706661,1.2773089020107433,0.5090895639669454,0.30608429324754827,0.3410285195960688,-0.41298560112662963,-0.06894827233532817,nm,0.0
50.805632,26.379356826667877,-19.059874328459635,123.16320648766764,0.7464036089588175,0.18514723628881555,0.5990535345306192,0.4790977357443822,-0.7174078005451288,-0.19430794572361393,nm,0.0
50.815145,20.43591219789543,-18.855898124069522,123.68095189336731,0.21663808049978736,-0.13966522845377075,0.6920928172344075,0.5886984864997235,-0.9493944627344829,-0.28920779703171395,nm,0.0
50.824657,13.717499383236683,-18.600805868608457,124.09040972627602,-0.32538308035145624,-0.2457794421423685,0.4037338069611318,0.671702125848926,-1.0733741544038093,-0.3551576911770227,nm,0.0
50.83415099999999,7.2210232607219105,-18.294858207065086,124.41646646102916,-0.755230801801128,-0.5530283551056473,0.5562260952448975,0.6485134762733362,-1.0415610655478904,-0.35043197543672366,nm,0.0
50.84365399999999,0.916364238655369,-17.83664378317336,124.5704634317002,-1.314338566497048,-0.9011356919942761,0.5997002574614235,0.6094021869675237,-1.0282353877099188,-0.363571568695758,nm,0.0
50.852982999999995,-5.337871795916706,-17.26575382863683,124.44237814236598,-1.529070709587058,-0.7653385070156526,-0.11997542778590106,0.588243610634529,-1.0358901972949273,-0.40498996615542127,nm,0.0
50.862515,-10.659709938169474,-16.78920301631146,124.07558520132312,-1.6870449790637703,-0.7440012875712695,-0.3951119526834424,0.5012275925680029,-0.8832137009848053,-0.386116389722751,nm,0.0
50.872015000000005,-15.011808837299112,-16.496472027029874,123.51354448077427,-1.8633209937264925,-0.7797970660796378,-0.5145743625439522,0.4225841826144162,-0.7140540764760893,-0.36186279566546714,nm,0.0
50.881528,-18.595067845308293,-16.361494296988226,122.81134004088186,-1.7047856577620142,-0.476024373808528,-0.8818011393591753,0.3610382859948206,-0.5787120581728415,-0.34252910064845693,nm,0.0
50.891042,-20.897058564534632,-16.398886956471067,122.1220271559659,-1.5585214658380493,-0.3657478960859093,-0.947667587937492,0.251146957005958,-0.3570975371082404,-0.2665425405747826,nm,0.0
50.900547999999986,-22.05797505632216,-16.61066959778622,121.54559380336849,-1.477271745440752,-0.3758931742728197,-0.8142504636691322,0.16118355963664405,-0.15511854345104617,-0.1797364191235216,nm,0.0
50.910076000000004,-22.403753299023165,-16.926020378165784,121.08152223892196,-1.1589977182341467,-0.265286349002997,-0.7547116279883606,0.0961097999346274,-0.012033500109280669,-0.11107204160870807,nm,0.0
50.91958700000001,-21.804326460096703,-17.278205719713142,120.71088481005538,-0.8866656380612707,-0.3125438248278291,-0.5919165014678317,0.009373675919655095,0.14641586466621315,-0.03718223320183479,nm,0.0
50.929272999999995,-20.46177722288713,-17.6859022653904,120.39264405614385,-0.6653047020933132,-0.37357330129066313,-0.3696871442088899,-0.05225220164909821,0.2740950289769369,0.018532928945348557,nm,0.0
50.93877499999999,-18.63745261076875,-18.131675854255903,120.05559463534011,-0.3941738873041101,-0.38044742729455405,-0.2030274224396983,-0.09007633746120265,0.3571046142013005,0.0460064622123633,nm,0.0
50.94828799999999,-16.424045447120562,-18.54300155884732,119.6356876448868,-0.1643346524669352,-0.34866946615534467,-0.09029748879271454,-0.130183501062004,0.41776549214606007,0.05611506522637536,nm,0.0
50.95780199999999,-13.879899602830703,-18.88361769483859,119.12211931698863,0.0007332671418709106,-0.2744284724213278,-0.06224079760946041,-0.16957375064014357,0.4658299649688176,0.06088588872209296,nm,0.0
50.96730400000001,-11.247522203259749,-19.158367752078092,118.53975773102893,-0.003502642022652515,-0.33157016175429027,0.23569167820675072,-0.18446320183447765,0.47503926048920186,0.05495490976754541,nm,0.0
