timestamp,roll,pitch,yaw,acc_x,acc_y,acc_z,gyro_x,gyro_y,gyro_z,markers,motor_input
91.006158,-47.3653454342761,-38.47125660571402,-131.0646097029253,0.2978943756014607,-3.390719470603631,-1.2974811744748744,0.9041316884565943,1.4255859888036115,-1.3413825095884637,nm,0.0
91.01567,-54.90845215603295,-40.44766782086678,-131.09756439561136,-0.266631912162279,-2.556523063029635,-0.975448156881946,0.4600501404272668,1.1455135478240488,-0.9573929775644983,nm,0.0
91.02517599999999,-59.281668374683505,-42.3009690190542,-130.82088421691893,0.2994303222660952,-3.048792003308136,-1.4092085960424063,0.14314886559447296,0.7463754292219887,-0.5136943901257286,nm,0.0
91.034512,-63.351540489905936,-43.72947058815917,-130.1000888957313,-1.3586694506259038,-1.5500757718860867,-1.5798210416151037,0.1624197213365243,0.645956499680509,-0.4014118770405436,nm,0.0
91.04401999999999,-64.40356279181606,-44.40342297364606,-128.85971570931065,-1.718717620335619,-0.8002663882179315,-1.5434508062675993,-0.014506120080471183,0.20962790530575243,0.11224900401514756,nm,0.0
91.06306900000001,-57.18474105254235,-43.68364336556973,-127.14902649283346,0.3056849586480902,-0.8391290567092303,-1.5099947947451804,-0.2955486690016806,-0.5560715884678135,0.7184458432654229,nm,0.0
91.072642,-50.397731297009244,-43.201721930551294,-126.72767743982585,-0.037750901770202544,-0.28613250543014124,-1.3920664694036924,-0.5253389089702392,-0.8404423895161632,1.0275295232788233,nm,0.0
91.08205799999999,-40.873648725640805,-43.19158110879514,-126.38108242646796,1.2713563895601059,-0.35961330369756195,-0.6521428546273116,-0.8373385030039561,-1.1125250628573464,1.3820194711596872,nm,0.0
91.09176,-29.874743108346518,-43.63670249994273,-126.61371304243866,1.8065273320005413,0.33035235254052486,0.6349215403631413,-1.035206705634672,-1.2285549914030094,1.472766739413546,nm,0.0
91.10126399999999,-17.34989548401218,-44.00580764083775,-127.7380882583067,1.3721288976933053,1.4193523236752523,1.3801789809264553,-1.1651721231856171,-1.39359684629205,1.5156300199712918,nm,0.0
91.129794,22.733416764548068,-43.71946362305807,-131.80945729909635,-1.2937099804648888,3.705706463333915,1.0728651950718,-1.1626910037270017,-1.4060660226412347,1.5317918241178692,nm,0.0
91.13930199999999,34.23831238801262,-43.444162193498315,-132.48139423475737,-1.4734346138405925,3.195891850676243,0.228065558720976,-1.0921607695416307,-1.2782099275995076,1.4506729858404894,nm,0.0
91.158277,49.7251008159343,-43.0262566972654,-134.12499840811938,-2.377450424547514,2.071213083145452,-0.8523811204948067,-0.5913795306737183,-0.6996276479599427,0.6713348946437516,nm,0.0
91.177299,55.689488733827346,-41.76952852577667,-135.6772095713876,-2.16934284098622,1.1778332492418662,-0.4347434530596396,-0.08619351078231695,-0.2899773040667637,0.07212337203045747,nm,0.0
91.186836,53.77216099871661,-40.74772977142307,-136.0164979847294,-2.285648781376024,0.14542435487045227,-0.6318556925893524,0.33826621734003587,0.04744873363316117,-0.3262992146126661,nm,0.0
91.196339,50.00993394866307,-39.76950267429515,-136.10144521407545,-1.7653901516963588,0.17834116873680017,-0.18032738360555842,0.5381231200908582,0.2518922964902009,-0.5090953141872285,nm,0.0
91.20603600000001,44.38161627795542,-39.22776098359301,-136.6085890402309,-0.8446485838777518,0.3123913260739332,0.5438229097314506,0.6918049733824834,0.5169594908406414,-0.8233565336081,nm,0.0
91.244065,3.9632975468970773,-39.01855920560237,-138.79526418815348,2.347683894411007,-1.103796554940564,1.8224605003502148,1.326865708943752,1.2339144717135548,-1.4939176796617881,nm,0.0
91.25357299999999,-8.105275163100496,-39.146242454966746,-138.46500772579807,2.460794330540899,-2.2569743427038653,1.5109943805137676,1.3775832577609883,1.2635060750684186,-1.456108948133029,nm,0.0
91.26290800000001,-19.696199583591543,-38.682522392757974,-137.86159471013812,2.2288046977215177,-3.14520505630115,0.8965617987586206,1.394657237950705,1.1413479718351838,-1.3339941888462852,nm,0.0
91.27244200000001,-30.571022766440183,-38.00763764083993,-137.22781806605707,1.5140809297306002,-3.8372754167778886,-0.39616806825137646,1.3395018008410537,1.059903627913035,-1.219060602473931,nm,0.0
91.281948,-40.70146946177547,-38.13193121809838,-136.51328185858569,-0.46165688911104985,-2.8789222472790423,-1.3106471509443693,1.1382342649030208,1.1167826277936843,-1.1010303154800798,nm,0.0
91.29146499999999,-47.00663987270644,-38.98975599004067,-135.56153706734,-0.835505544311874,-2.189524453011639,-0.9662537731738314,0.5821350324580683,0.8159062963683072,-0.5885759504211034,nm,0.0
91.31048000000001,-52.15456923759285,-40.32647372365443,-132.68498689707653,-0.7264640067328486,-1.6409821822310378,-1.4853331113220924,0.17262885553493337,0.3642180864882742,0.030411166768700287,nm,0.0
91.31980999999999,-52.20965168516311,-40.62569153397661,-130.03309922625567,-0.7101965427120472,-1.2430807003325455,-1.356000625862023,-0.04846800098859712,0.05239704893456458,0.5326153349143913,nm,0.0
91.32934900000001,-49.515860567084154,-40.421261491666094,-127.32353722322334,1.1216127184454356,-1.7846933824382654,-0.982951110551487,-0.23411407974032764,-0.3398116955064947,0.9013819694661265,nm,0.0
91.33884699999999,-46.30457660675402,-39.914714596584055,-125.30386775974749,0.6617715298030739,-0.5805880361112631,-0.9728528234590431,-0.21979657101393207,-0.4507083701829006,0.8270736076328492,nm,0.0
91.36756700000001,-26.750301863622813,-40.42634051344577,-120.7077369424272,1.280569810500577,0.5323165035258313,0.49742444816841574,-0.654547475652208,-0.8988588184067907,1.1268237801596832,nm,0.0
91.386751,-11.622151781461065,-41.02917005114779,-120.30234135167166,0.25098624582744,1.4515468650742718,0.7048915514088532,-0.66350734974306,-0.9812178864749518,1.045377523091971,nm,0.0
91.396274,-4.762292354589675,-41.26642136042752,-120.11089336160003,-0.1784424179325177,1.9435042489394827,0.9791752532490419,-0.5756149735324805,-0.8704355330407495,0.9434952643156759,nm,0.0
91.405777,0.8225141425063973,-41.239406857889534,-119.6812665528344,-0.9223242754589895,2.0156730745332134,0.34952845652020165,-0.4285589228701064,-0.732958838110159,0.8238357695056738,nm,0.0
91.41510099999999,5.572988462331809,-41.300736288511594,-119.04690548603968,-0.9869310236948066,2.122516534975124,0.12139397182295023,-0.3753613204239471,-0.6194013330876506,0.7541587018033017,nm,0.0
91.424621,9.052618224524188,-41.61685133045354,-118.57049417165301,-1.1324151872921888,2.0800900451864974,0.01820826788308379,-0.3209994000201376,-0.4300230148566986,0.5559609631106627,nm,0.0
91.43413699999999,11.242297668321878,-41.786931311685535,-118.49658875607528,-1.3518229969189348,1.8099623711447874,-0.2509847314549326,-0.20008648109699517,-0.27465173165207524,0.3054818695700724,nm,0.0
91.44363000000001,12.572555751334507,-41.60833792955754,-118.96211147246449,-1.2854380795484164,1.6259030820924782,-0.343204667313965,-0.07797684518975562,-0.195000356377198,0.08278394024293535,nm,0.0
91.47234399999999,12.265762760431352,-40.49788970154995,-123.89244590032698,-0.8754085740221746,0.9116213106539445,0.0030183469112047092,0.12847710766715256,0.04320963017249628,-0.5037294643477421,nm,0.0
91.481867,10.805383330128711,-39.98506232126117,-125.89486890155081,-0.6453809332352581,0.686285899491082,-0.013420011666889962,0.19789923828733855,0.12301994878125122,-0.591028558942848,nm,0.0
91.491367,8.749700784708295,-39.5887986977287,-127.9936636380979,-0.4150492331919828,0.5102060140470273,0.013330104267576859,0.23995220131941175,0.20402504524393691,-0.6268992034986522,nm,0.0
91.50086999999999,6.185581022917067,-39.200481429129304,-129.7077342700429,-0.15524564372116123,0.34073712208289014,0.09606392133301778,0.2958905852123534,0.2599743385904979,-0.6208313395873116,nm,0.0
91.529437,-3.3269281487605564,-37.55784724517354,-132.69752923094484,0.2386201546048314,-0.12190489914368371,-0.15528463498254394,0.4105037465861644,0.3064951589951393,-0.5486840511915596,nm,0.0
91.538925,-6.124344997645407,-36.9887386613804,-133.45495982227666,0.7740368894567843,-0.22470263585580127,0.3550997806265516,0.37378800358010306,0.251068526767071,-0.49935856916872506,nm,0.0
91.54843399999999,-9.076888534769909,-36.31606800381161,-134.1742550578439,0.7425643952445451,-0.5787696997544202,0.44800352828715256,0.4114571471222495,0.25359327148511307,-0.5430475857989716,nm,0.0
91.557942,-12.067479403097076,-35.58991313369896,-134.84495187440822,0.12228453805826292,-0.9106860153775697,0.20875678464194483,0.4294972089757707,0.24910750087246208,-0.54239418201306,nm,0.0
91.56745699999999,-14.558795197778752,-35.11151035542292,-135.21797257937683,-0.022087022966962282,-1.1964368896782906,0.11128250578692404,0.3418423772770678,0.22510749120272835,-0.4113006712255645,nm,0.0
91.58647099999999,-19.239932280402105,-35.79716630539996,-134.21669566668726,-0.012883240846426572,-1.1203102413623895,-0.1695730635956706,0.16320265772611342,0.3528373312187284,-0.17461828895672546,nm,0.0
91.59598600000001,-20.957588828036716,-36.477140016223885,-133.05981977774616,0.20767399067651823,-0.9853234897743581,-0.2906001350569057,0.07908392893871004,0.3001042469198677,-0.056197238820037305,nm,0.0
91.605514,-22.217892329769747,-37.050251512514265,-131.816876176478,0.3488566038800636,-0.7974088263414832,-0.4791062753083611,0.037855244022884094,0.2314929382128703,0.0032510019158450837,nm,0.0
91.63404499999999,-23.188506480636637,-38.708030199931486,-128.14901263660127,0.21859637015523045,-0.4468191305104895,-0.22366024490859462,-0.09968275011248655,0.03984797026275406,0.15358628839373248,nm,0.0
91.643585,-22.7138275934829,-38.97193505460225,-126.91646759042544,0.01068125100881083,-0.39302528961859295,-0.1554863514347171,-0.1000111580197884,-0.02330818110555248,0.19207389420491902,nm,0.0
91.653089,-22.028163629180934,-39.174132207432116,-125.51956333844008,-0.13465698148047983,-0.3892118876982597,-0.03564496089743833,-0.10861679673800988,-0.05927680743645765,0.257757423557706,nm,0.0
91.66255899999999,-21.212158914771287,-39.329824164518506,-123.88566298179265,-0.12160269237094029,-0.3785586317671409,0.13396257769038947,-0.11068081043126335,-0.08394994244230472,0.32501906723261814,nm,0.0
91.68158,-19.37122450535555,-39.560692662475965,-120.34014919305575,0.103828543681084,-0.2124568624268242,0.18762772858377008,-0.1129419490888158,-0.1087549236649427,0.3871551093285872,nm,0.0
91.69110699999999,-18.62447429109486,-39.843844984176876,-118.80370190822464,0.020461922490263164,-0.032244126299105794,0.14468426512824548,-0.11962870578924784,-0.07112015854033787,0.335978534241227,nm,0.0
91.71011899999999,-16.609388845897485,-40.56545168717699,-116.7444999956905,0.12544744432051946,0.2493450817278229,0.1063280418457859,-0.15705092133238915,-0.11966113112273337,0.24374041099785462,nm,0.0
91.719641,-15.51364895464962,-40.919907756451195,-116.36050520487943,0.0077364968509847235,0.30272404549299986,0.04947066021793029,-0.1513264637458773,-0.11706479260527561,0.15133778343336574,nm,0.0
91.729161,-14.366735557680617,-41.21142853874064,-116.38300503147669,-0.08434493324082692,0.2958239672463973,0.059605796449963555,-0.14279505891627625,-0.12933763412220295,0.08907399708928268,nm,0.0
91.73864699999999,-13.264363650537778,-41.39123909533384,-116.65974160763871,-0.03109784257923238,0.2745731485177476,0.15917381864710467,-0.11992152596594095,-0.13241284787843197,0.04265301768738302,nm,0.0
91.75765899999999,-12.154593850289615,-41.46446652518213,-117.13347814136115,-0.21809221376793606,0.15534275931276928,0.1588028650243358,-0.04103223086730553,-0.05328633690217272,-0.044262219798485214,nm,0.0
91.767177,-11.961648723386189,-41.42297163976467,-117.33091328454563,-0.10089335605043849,0.11889807194472951,0.18598875276771357,-0.019803273475951434,-0.02946261033773074,-0.04419788984257773,nm,0.0
91.776678,-12.059530012632152,-41.38783660972763,-117.48184942763683,-0.07274612077107445,0.09197166503730196,0.1519080773199217,-0.0009773768543834185,0.009978645472933954,-0.06704134534078676,nm,0.0
91.78620900000001,-12.200757272223106,-41.35896072200634,-117.63783724468644,-0.029499772969163864,0.06937742499033052,0.10135337899577439,0.0009499023853082083,0.01636666578521635,-0.076585427187943,nm,0.0
91.81474700000001,-11.981231762876757,-41.33713570151288,-118.91287577628317,0.0332692946203103,-0.06900443398943706,0.07288736362119719,-0.03594173458374957,-0.021873353871767212,-0.11433970464490745,nm,0.0
91.82424499999999,-11.65657631681309,-41.454622076134584,-119.50111227337847,0.03629422818589705,-0.10288083185606625,0.07858905403438866,-0.05826075175433759,-0.030556692640672383,-0.10525244838880989,nm,0.0
91.83374699999999,-11.352641923632905,-41.63350586082218,-119.98850600443274,0.0034798041572210296,-0.11554849108850591,0.07108939282937714,-0.06764401600448385,-0.021188758917368912,-0.09237342131217506,nm,0.0
91.843268,-11.133484338986236,-41.81585744890367,-120.29339489329556,0.015540941256865637,-0.08719661224109551,0.0823519823772261,-0.061989761380296216,-0.009345071559480209,-0.06615372475890231,nm,0.0
91.85278199999999,-11.05385099792326,-41.946405744917286,-120.33263859110929,0.04455302909794704,-0.055844423636088485,0.09774271610779697,-0.04254899479869428,0.003613803673142627,-0.03578671196647018,nm,0.0
91.86236,-11.02631318257039,-42.013669802675565,-120.23667073870605,0.04837785792602822,-0.04025946625353766,0.06992026567524096,0.0,0.0,0.0,nm,0.0
91.871869,-11.019798910715684,-42.005473996102666,-120.04847654210556,0.0775725886532439,-0.031553005064261584,0.060918898714101034,0.0,0.0,0.0,nm,0.0
91.881382,-10.980607919878901,-41.96909598533619,-119.82138783352704,0.08650692921897243,-0.02512575901306434,0.023594007147126023,0.0,0.0,0.0,nm,0.0
91.900397,-10.607096158006613,-41.905038378145626,-119.58202715907235,0.03594355777634704,-0.026802745026742212,-0.006200950473770075,0.0,0.0,0.0,nm,0.0
91.909918,-10.317993825265637,-41.892517426149055,-119.64862945361028,-0.017068972632506146,-0.029987535295030204,0.030951524821848465,0.0,0.0,0.0,nm,0.0
91.91942700000001,-10.095922062800076,-41.870299907853806,-119.71026462212805,-0.06138871107339129,-0.020832693663023837,0.05376856985931393,0.0,0.0,0.0,nm,0.0
91.938457,-10.126017969335757,-41.675277661957935,-119.3346239557507,-0.10251332814757355,0.004757355139437326,0.06294155930255711,0.0,0.0,0.0,nm,0.0
91.94795400000001,-10.416540245192305,-41.51057182859379,-118.87689040378417,-0.07971149188442005,0.02288334738148513,0.09414858542257304,0.0,0.0,0.0,nm,0.0
91.95745500000001,-10.769708852232812,-41.29859626158403,-118.33802061833072,-0.051190614803056235,0.02066248060958672,0.09350865262424388,0.04444881383673308,0.01601698590171211,0.05298466607312902,nm,0.0
91.96697599999999,-11.06526728121852,-41.06833223843996,-117.83979403602612,-0.014104122779977355,0.018508479241015844,0.08927289609402178,0.04385130418637067,0.014788278697227153,0.05432643561328755,nm,0.0
91.976495,-11.181400017751834,-40.90852817708854,-117.52264472056358,0.0010847847190143059,-0.01786375699966427,0.07498965682674472,0.0,0.0,0.0,nm,0.0
91.98599999999999,-11.058393157098433,-40.83586015989767,-117.52704191779414,-0.019769051040794735,-0.03793227212750902,0.036968851171282485,0.0,0.0,0.0,nm,0.0
91.995511,-10.72637688662274,-40.9858508187442,-117.83900631670902,-0.06446538176150761,-0.0824578019015345,-0.039849812693998746,-0.0457633150148662,-0.04660058978210169,-0.04135032013274223,nm,0.0
