timestamp,roll,pitch,yaw,acc_x,acc_y,acc_z,gyro_x,gyro_y,gyro_z,markers,motor_input
52.50798599999999,-9.355118586749981,-20.921598968435482,172.0698848927616,-1.9469898084420376,0.08092528817559308,0.4116800923455022,-0.03136632109295755,-0.3455749316025325,-0.3337561048664413,nm,0.0
52.51749699999999,-9.166130643618496,-19.530612898542774,170.93018257743313,-2.418190182495359,0.034403815747601096,0.6190309168520819,-0.07964583106612678,-0.257407253203318,-0.35162834169476825,nm,0.0
52.55554699999999,-7.692893681997419,-20.830964322491944,167.25764306186352,-0.749799477514572,-0.17121135594742523,0.4279432503689798,-0.08665836634393491,0.2427265510589042,0.0005546062575891617,nm,0.0
52.565045999999995,-6.605600161347564,-22.049117536205316,167.51248088062053,-0.10416823846850716,-0.28462838415352953,0.30010828298577785,-0.1491167419257697,0.29566579492687334,0.11371544349376525,nm,0.0
52.58409,-3.10732347927676,-23.963620104216247,169.2423299519118,1.1547285462332748,-0.47217196330609634,0.1573082247404328,-0.3178587821682446,0.24711236949051682,0.26466435950658945,nm,0.0
52.59358900000001,-0.8615190937046777,-24.742090422338975,170.5745569195889,1.5880535458809213,-0.3911817958255903,0.22565969649965786,-0.38317495864627665,0.2358227011634162,0.30909883361274987,nm,0.0
52.612618999999995,3.9379537628771026,-25.27632052650257,173.51821061448962,2.08540358153903,-0.013448464734177133,0.20888414054218155,-0.4297951914486931,0.0735175796239531,0.3314487123854783,nm,0.0
52.63162600000001,8.515490839595127,-25.0246788515871,176.5327780401846,1.9862558289747767,0.1952320209459453,0.43435192506673603,-0.408339016440191,0.00882114005003585,0.3285926557133759,nm,0.0
52.641144,9.657578610347453,-24.897114050084834,177.7897322854656,1.7008354307338944,0.5123617807903987,0.10205024722410086,-0.21649116140566524,-0.005324137910047876,0.22013068395566607,nm,0.0
52.65046799999999,10.304204881979548,-25.006012851484336,178.24755850931143,1.2652019860424448,0.596174528037876,-0.3384589000196651,-0.12494877561298853,0.03676288172885293,0.1427220405510398,nm,0.0
52.660157999999996,10.497862255416791,-25.278593889581423,178.48724262552543,0.9409209667140765,0.45748662287042496,-0.1041698021316093,-0.041985620022896436,0.06641435506344258,0.06091615487478362,nm,0.0
52.67918499999999,8.270713792534714,-25.916550644620113,178.4301584126797,0.014657199510974144,0.46446760037137,-0.4038305155631652,0.2415488330557996,0.08159715307604591,-0.13992780509309985,nm,0.0
52.698207,4.138890103165528,-26.95621469764772,178.33403627300336,-0.2883238769479152,0.22697114205551017,-0.3907741498720028,0.4131446672375031,0.09539314522275842,-0.21328088693674566,nm,0.0
52.71724900000001,-0.4538043227380416,-27.010316958073815,179.43404944979525,0.05310542035453995,-0.08731657011177937,-0.5547071723664264,0.3922856918625454,-0.025406598757006186,-0.1699200003178713,nm,0.0
52.72675799999999,-2.5942462368785,-26.215252031915107,-179.99844365733986,0.06661721027862773,-0.15362474962750441,-0.46824949405580124,0.3754176437289338,-0.147607354829687,-0.17223687213297162,nm,0.0
52.736233,-4.469161425471488,-24.541923584836663,-179.52803099339596,-0.21804065135939837,-0.10367649965797741,-0.3416212279464116,0.3346868785983659,-0.31997992696949235,-0.1799298428154063,nm,0.0
52.74577199999999,-5.822035368614659,-22.156137859693892,-179.84681350619493,-0.7240484795954012,-0.05172729321051018,-0.0948666511036659,0.24401843688847852,-0.46423400428763534,-0.17216331586436842,nm,0.0
52.755273999999986,-6.6379314315420155,-19.568807287659794,179.64709951198438,-1.4764130567965383,-0.08828542459231514,0.4618359823875025,0.14467304366616782,-0.5061204573436914,-0.1606284448241353,nm,0.0
52.764779000000004,-7.199354935878183,-17.10714073741381,178.99517663701556,-2.608266099722916,0.0785353897370317,0.5315199546153357,0.09400133119245921,-0.48181303239377604,-0.16719916686863606,nm,0.0
52.77410499999999,-7.578129121805204,-15.359052264141612,178.32468991886006,-3.2017183827417264,0.0011531760081990227,0.5900099065574054,0.05795941449658402,-0.3392008052324995,-0.1568962784556775,nm,0.0
52.783624,-8.198221982936973,-14.909011492382573,177.456707610247,-2.9899484231869424,0.06199559304403496,0.474014830403162,0.10987668386784077,-0.08208771320285796,-0.16747931731399981,nm,0.0
52.793317,-8.921838977712039,-15.68658185282385,176.15069804824765,-2.1646572352632187,0.10312649543493,0.60156581338629,0.14289257518882836,0.15965485347556646,-0.18094819187475536,nm,0.0
52.802819,-9.541903001183357,-16.989182758413566,174.6144655098678,-1.0395226247467217,-0.09184157689523689,0.5876382052515888,0.13548250727275318,0.2625304535947423,-0.20913013841904463,nm,0.0
52.81233900000001,-10.115630933464953,-18.7373483091643,173.06035913338187,-0.34470939010694485,-0.16444085409466594,0.6725016826735776,0.14271412109143441,0.3486467990796399,-0.22498169889461353,nm,0.0
52.840869,-11.745497851958763,-22.80377788094779,171.79549805213472,0.790771514604955,-0.3233080335654115,-0.02854453888112213,0.12374009120335189,0.18479244337063608,-0.03886463309663399,nm,0.0
52.859880000000004,-11.91014906669722,-23.73371561054844,175.55255213999166,1.0000527177505456,-0.7181092222166839,-0.14681611204661177,0.009245846533133558,0.06611675826448778,0.23770874256079014,nm,0.0
52.86920900000001,-11.297844833852654,-23.731502640524955,178.13433408918635,1.1945819530884931,-0.5834541716831464,-0.5655807707995226,-0.11860004868098004,0.01738576263895983,0.3580741371478273,nm,0.0
52.878727,-9.520004847192167,-23.780751861206078,-179.1121445017191,1.583717057784512,-0.7118973826526942,-0.46250895078013227,-0.33307596116886823,0.021806387456041642,0.477060543427912,nm,0.0
52.888047,-6.97876065791117,-23.9062442189223,-176.50482751004938,1.886989109475143,-0.47176006412789484,-0.38886991346051064,-0.47410659826680096,0.014285145429357077,0.4917709836357465,nm,0.0
52.897749000000005,-3.6636122344688897,-24.005805421622227,-174.44270616256944,1.9729246352008214,-0.06843095655658404,-0.358474264257853,-0.6146967218271018,-0.022795255900542107,0.4538923053747889,nm,0.0
52.907253,0.40838351856736554,-24.1192169029659,-172.98870817749105,1.7770934983451692,0.26706686868226526,-0.3668561303927247,-0.7511645282282593,-0.05561837568649667,0.3955297905180424,nm,0.0
52.935969,10.444454029154658,-24.34261432096494,-171.89031196569877,0.06081200627508838,1.0082503517594492,-0.3656078671309732,-0.450779018555953,-0.04729004392477093,0.10070779542345912,nm,0.0
52.945482,11.923220244134827,-24.57613369892332,-171.99872075788807,-0.17129718021445778,0.8927807824055382,-0.09918131283277032,-0.2835954997601597,0.017653288261894447,0.0970165045863956,nm,0.0
52.954814999999996,11.654353803007808,-25.064494196464,-171.6813714954051,-0.506405572403787,0.9116728601881027,-0.40086323473227026,0.02425508041748712,0.11283689677210915,0.03716257844583133,nm,0.0
52.974019,8.332776498982316,-26.027435171203013,-170.14723987772192,-0.11126999371160998,0.5518666682051878,-0.22995979274471795,0.3331932973532867,0.14733072977429254,-0.012410046382407931,nm,0.0
52.98351099999999,5.7001251147756244,-25.96760525397149,-169.59175298634247,-0.005629957444955151,0.36144821407335775,-0.40096836323864954,0.4582843425541242,0.08102115300851206,-0.12250749042533075,nm,0.0
52.993033999999994,3.092781613012814,-25.259732373142743,-169.6012331950538,0.05261642239054971,0.1485561092921171,-0.39161279522534415,0.4786032045735359,-0.04459942269408227,-0.22986069532965187,nm,0.0
53.002560999999986,0.6762052723444011,-23.919917339096592,-170.28891645546244,-0.06259527049738181,-0.08668605867369784,-0.17206558588341692,0.4704038211302747,-0.177151481206808,-0.3410081211660215,nm,0.0
53.01209499999999,-1.6981332219179601,-22.09711110045501,-171.51932105567136,-0.5002016968216229,-0.16256600007511665,-0.012067257343334992,0.4805872237449308,-0.2805976948733727,-0.4339014174555772,nm,0.0
53.021567000000005,-3.8621306669388664,-20.041220208328916,-172.9667203061496,-0.970708523649959,-0.3433679665929689,0.3902944977512911,0.4474662089850147,-0.3422893373464464,-0.4471204428840278,nm,0.0
53.031079000000005,-6.169908497427557,-17.967945951347854,-174.34785735852162,-1.595941173681689,-0.46152036771308713,0.5891550923307787,0.4718282834103753,-0.352912084239821,-0.4283613835147722,nm,0.0
53.059427,-11.578447362547308,-14.633345988846548,-178.46108970724103,-2.096275686261987,-0.5332751233977223,0.04740793267495852,0.24705811277412634,-0.05292605328853018,-0.2556512634676362,nm,0.0
53.069107,-12.014290069786874,-14.791675375044546,179.95578056914786,-1.5999002058109946,-0.6371093249564395,0.16038123379548594,0.07741988203958781,0.04481640451168929,-0.21469683395733163,nm,0.0
53.10698400000001,-8.630188149445091,-18.64865440454369,172.57164316403512,0.35546278251818125,-0.6436946029909891,0.061222667384221656,-0.32327820094974846,0.23313470705478403,-0.02254439880454499,nm,0.0
53.11667299999999,-6.324106429009026,-19.36809505400721,171.9915454449415,0.6628439531582632,-0.502867284015793,-0.015166586985190777,-0.41855251848111386,0.21479195391049188,0.05272715106056146,nm,0.0
53.135504,0.1108964249164726,-19.779166014112302,173.85866539833088,1.1526653604278378,-0.2740723854297129,0.26308347761065676,-0.6464648139924773,0.07423437362878382,0.22605961227905683,nm,0.0
53.15470500000001,8.066147006844565,-18.919342313804123,176.64108354577587,1.3181642460212448,0.2708242070777545,0.29962550225440526,-0.7973427066579041,-0.03760235724138976,0.32010945082837705,nm,0.0
53.173730000000006,16.57660993573824,-17.66169625500781,176.84791763499325,1.2104430139982345,0.683790412107909,0.49334236273837384,-0.7831716770111842,-0.0840158469021382,0.24297298997925107,nm,0.0
53.192757,23.07313173060653,-16.29138663356294,176.07851031476434,0.5513855518159092,1.125031424380473,0.17523836050888755,-0.6081085088528777,-0.08312549182693306,0.07369800130802882,nm,0.0
53.202264000000014,24.84713508534084,-15.778259452996004,175.5025112881803,0.19129586606800966,1.200464043049354,-0.09841303590045743,-0.35600739918540125,-0.0681658571420105,-0.024446551853547757,nm,0.0
53.21158399999999,25.30000516112974,-15.61227146370881,174.97233170020328,-0.10891553626318971,1.2892769561524309,-0.39379614380984596,-0.0976580659076913,-0.01663767110334631,-0.08895899088569263,nm,0.0
53.22129000000001,24.769094845059442,-15.923127585198236,174.62954247786485,-0.10169033029114573,1.182272063898887,-0.1215178336197374,0.09967533255373408,0.06209018254224095,-0.10473601121089068,nm,0.0
53.230796,22.942601840618238,-16.615058169501733,174.53020668831707,-0.06185741444106608,0.9657694091990924,-0.09846590720554323,0.35479275225060536,0.11443458844974168,-0.12919398816817332,nm,0.0
53.240309999999994,20.173566143225,-17.479244799916597,174.67035658049826,0.08883232700431434,0.6608526496175477,-0.037645533049471,0.5362703958212279,0.13243591176735514,-0.14079492183587736,nm,0.0
53.268845999999996,8.31783233929298,-19.17328282903897,175.226652411393,0.31744634513806436,-0.2740490367519085,-0.006181512857852625,0.8152781565964023,0.0019149609061851595,-0.2707179998828095,nm,0.0
53.27835300000001,4.177880232742762,-19.193144551240596,175.17872580186756,0.14928882796872053,-0.32575072219822504,-0.37166521737892866,0.7736278454562291,-0.04956782209203564,-0.28529446330026687,nm,0.0
53.28787700000001,0.7373329243474654,-18.975009891899717,175.10168675120624,0.0844592901190606,-0.6679259782028524,-0.09874965083335478,0.6383958645279076,-0.08640773011648206,-0.24335513151800187,nm,0.0
53.306882,-5.191912503156879,-17.808942965152855,175.25746632951413,-0.3420159085883023,-0.5917765353656491,-0.5310681414017389,0.49063714738027525,-0.1667746504819123,-0.13344506210776108,nm,0.0
53.316429,-6.968080197364379,-16.95732656304225,175.71754525802348,-0.3869001961740576,-0.7237083776387777,-0.36818750160893876,0.31878112832332794,-0.1839768832875411,-0.01557523422854347,nm,0.0
53.32594399999999,-8.176172268037773,-15.955782803692056,176.39816274057247,-0.44684268203189154,-0.6432632692190622,-0.4019217597410778,0.21144348741534705,-0.20331499253971866,0.06642808661349288,nm,0.0
53.335458999999986,-8.705771070148582,-14.90225172943002,177.20861712800644,-0.44704988708449417,-0.5168173683412324,-0.3651659019432541,0.08395644363427164,-0.2036907799486493,0.13272250930988175,nm,0.0
53.34495799999999,-8.561126774847487,-13.929661423725824,178.03374053676714,-0.4094810792873676,-0.44400888298552416,-0.20779867753045667,-0.04262649401472049,-0.18088159791098693,0.17093746555255354,nm,0.0
53.35448099999999,-7.99417293705567,-13.11437799959707,178.759465658606,-0.39177190315134486,-0.2593521521685822,-0.11074892834850794,-0.12158700269668547,-0.1476753215131481,0.17015607052907394,nm,0.0
53.363988000000006,-7.027522510189924,-12.463834178853048,179.3464938590761,-0.35291418776860656,-0.0992423159443151,-0.01955142048125109,-0.19772245224369628,-0.11482496564041707,0.15841155586303135,nm,0.0
53.37350900000001,-5.746347345706234,-11.966558774182989,179.81684982515014,-0.3102567669169222,0.0038531605015591874,0.036693885258614826,-0.25842994846597017,-0.08557305565252475,0.1461596901719015,nm,0.0
53.382971,-4.27233854199522,-11.594675986814156,-179.76358237885452,-0.220419884243159,-0.016077737559694487,0.252507319954174,-0.2960151098773329,-0.06258249455821412,0.1416213196302164,nm,0.0
53.40197900000001,-2.409148291507417,-11.052226149948362,-178.85376817207728,-0.1645941340755554,0.3187785302601703,0.13359052262940366,-0.15285758586390003,-0.03961560237430079,0.12395511392356874,nm,0.0
53.411497999999995,-1.7284132007046438,-10.848246116502475,-178.24427332531158,-0.0743002194324356,0.24159714574375046,0.32595584425293994,-0.1402358886856896,-0.03258980126222062,0.144664906636399,nm,0.0
53.42100099999999,-1.5222253505796497,-10.657863796163594,-177.5730138198839,-0.05816629649289401,0.22264895927072492,0.3507380957460226,-0.046759089853923116,-0.02805131028814214,0.13877529404214137,nm,0.0
53.43051299999999,-1.7277844196239858,-10.448806448080603,-176.90070058429063,-0.06794941075256355,0.25070341397274193,0.21500849016431745,0.03470630132935242,-0.02840934651655207,0.12376013289912567,nm,0.0
53.440033,-2.060810371799375,-10.229050512043985,-176.28290992013095,-0.01249578701210603,0.10744775758977179,0.30078061780230514,0.06027352461319236,-0.02862908398283995,0.10845633808162966,nm,0.0
53.449545,-2.615402723427796,-10.015967746118728,-175.78454860988236,0.003321312883155834,0.037058983244462565,0.2405663138523986,0.10411469427553875,-0.023630145909739095,0.07708486779052494,nm,0.0
53.45905400000001,-3.200458409837608,-9.803034215405043,-175.41560833392654,0.02668301439539941,-0.0064536390762304375,0.15094999888706148,0.1103934373625716,-0.022289707612466108,0.05062680773033302,nm,0.0
53.468558,-3.6501855798399134,-9.580837060389818,-175.15069511662077,0.03609703106126468,-0.09059518270747002,0.1677159098967114,0.08415724579616439,-0.025675776016449863,0.03486802764880664,nm,0.0
53.478088000000014,-3.9985198531560617,-9.36294705867865,-174.95000498670248,0.023337000234745515,-0.09425892279216948,0.09066508168675567,0.06431983698067156,-0.026166304939355105,0.025739364760229914,nm,0.0
