timestamp,roll,pitch,yaw,acc_x,acc_y,acc_z,gyro_x,gyro_y,gyro_z,markers,motor_input
87.506336,-36.33903839788685,-47.7312768832563,-54.11800467908512,0.898228799603688,1.2646795997127644,-0.49653465517692874,0.20616415658424897,-0.8819113227709608,1.0533614057000578,nm,0.0
87.516032,-28.0027169482793,-49.98226949949176,-54.05646927150781,-0.1717517516338859,1.240015577925651,0.4062674951763801,0.2760402825976819,-1.1623990462482114,1.1833168264982263,nm,0.0
87.52553499999999,-16.381997868668222,-51.780488634776326,-54.95457302355764,-0.8884920003157948,2.5863139625420484,1.3997772624327367,0.5574642754650958,-1.4129150464220346,1.5525234805868173,nm,0.0
87.53505000000001,-4.289770814866985,-52.67412868645146,-56.299568736188164,-2.539190937715909,3.1033564321816107,1.9099412603432437,0.6839292373633964,-1.3371016980622592,1.6478518925970937,nm,0.0
87.54437999999999,6.257830604355816,-53.02518776752191,-56.8569445502606,-3.9131436671784536,1.7476670813848219,0.8564651076934386,0.638885393557976,-1.1169510110025858,1.586312005638351,nm,0.0
87.55389,16.036457839343672,-53.4005344299899,-56.31570336597117,-4.2686881589443075,1.1517593224543783,0.1775107663069708,0.5806742303344163,-1.0342855985314736,1.6770273291890365,nm,0.0
87.563403,24.3905144933088,-53.753682604060735,-56.404472073398956,-4.09490509523428,0.8029891881296931,-0.339904517384342,0.48340681495179494,-0.8844879370300669,1.518753523919372,nm,0.0
87.582236,34.73063367199586,-52.66764769784453,-57.42442126867405,-2.951585456052061,-0.6210696713775332,-0.7209171398739976,0.4350723091449707,-0.33734858928063305,0.6678547246817039,nm,0.0
87.601216,37.43029515814526,-48.905075673818104,-59.326617936896994,-1.3080237264335313,-1.415591342282538,-0.08657752261860673,0.3767374287596302,0.16371110252267185,-0.19756185846988272,nm,0.0
87.610906,35.641315404262635,-46.81224646823888,-60.71573356764442,-0.621068003373019,-1.527573800529503,0.2688499884175053,0.24307310089143783,0.4037714635034451,-0.5464918432164675,nm,0.0
87.639444,20.13979632535767,-42.90911579558818,-63.147496159876304,0.6130969519631131,-0.44575233354587834,1.2196456274860383,-0.31129548801918006,0.9504687697233857,-0.997270100350474,nm,0.0
87.648953,11.449449346919334,-42.41574288415968,-62.72032005214171,1.2011696532673586,-0.5018600181548813,0.9621980530697966,-0.49943399889445406,1.1711149223588668,-1.094849597724564,nm,0.0
87.65845300000001,2.1305213561203336,-42.049701743636994,-61.71779378038632,1.7945713904704057,0.23255072905277066,1.1588958922505246,-0.5854304217975643,1.2436125210390372,-1.0535056673667949,nm,0.0
87.667958,-7.712477071912593,-41.78768544436167,-60.91250586147981,2.7955537466747975,0.5322584888008325,1.1460555138253594,-0.6653384777914602,1.2996207203944485,-1.1540072694056522,nm,0.0
87.706051,-35.5407505964502,-43.684284751857675,-63.444075028462485,2.282254588643604,-1.5457696427142538,-0.9040472364289318,-0.6658816659718233,0.8003530874857685,-0.9657010568537862,nm,0.0
87.715562,-40.26518299332902,-44.59254814057587,-62.59944114279954,1.2295175385852646,-2.0695827673895315,-1.2256635613109037,-0.4798898444079821,0.5153367664968629,-0.48261341678631503,nm,0.0
87.72508099999999,-41.84653771973589,-45.05784674203955,-61.08853673788529,2.415370790504112,-0.4594769736627023,-1.0780776201785065,-0.19787932538344222,0.14684396344634063,0.08672684692505724,nm,0.0
87.7536,-37.22695953982509,-46.42542557810287,-55.5680175469547,1.1462037998073176,1.0859512301453915,-0.7635678213890346,0.22860332337395894,-0.6112058341204466,1.0351867243570314,nm,0.0
87.763126,-31.065914328694763,-47.74703043485397,-54.10115054483484,0.27691334585428773,1.680471446406757,-0.05146147548234958,0.2592725504928877,-0.8490002922689669,1.2030689917329096,nm,0.0
87.772818,-22.1454834536204,-49.46529001684589,-53.40262351284628,-0.6572956697844639,1.9328914636594996,0.23303056762144034,0.41388267439722176,-1.1668401524700662,1.484560378428897,nm,0.0
87.78215,-10.389503210326321,-51.18280741013049,-53.73146146018421,-1.666675428612341,3.53531187368801,1.1511187846122788,0.6104490532873181,-1.4250596730987222,1.7494966377168433,nm,0.0
87.791638,1.6684939013438551,-52.40365942121905,-55.307124834887546,-3.4948458079566627,2.9146137091215656,1.1843956864525778,0.6633251031031703,-1.3703125727086598,1.5842824944133422,nm,0.0
87.81065799999999,25.33535606979372,-52.16226939933363,-59.74748817257536,-4.080687059794148,0.7690155475635266,0.07677491999538832,0.8273403531673239,-1.1633784152087998,1.4000204882139302,nm,0.0
87.81999200000001,34.4624361274877,-50.93044199517697,-61.507525692068356,-3.556640290663112,-0.1905623418911857,-0.15066518326547731,0.7716080036024338,-0.8836050266619194,1.0775124571895092,nm,0.0
87.829456,40.343294435965376,-49.28065667876565,-62.62732430222768,-3.0863887383385804,-1.1193790497497222,-0.26475950482873273,0.6461321621519631,-0.5265734930537249,0.6769120968204185,nm,0.0
87.838975,43.42971082212297,-47.65443769420936,-63.29341926111382,-2.3456813942052137,-1.5761767309131605,-0.3224751896336138,0.47748203632209557,-0.23077247945622684,0.3262335379489538,nm,0.0
87.84848299999999,44.01373084949529,-46.343273871858656,-63.90254311740459,-1.656078786979878,-1.571540599441251,-0.24565653425819034,0.2717821948552751,0.03160026437135145,-0.03985751523311203,nm,0.0
87.86767499999999,39.04481156044783,-44.36093339191593,-65.27913070300922,-1.0350395002781898,-0.846564492750142,-0.09241397524815705,-0.02306138344047104,0.49255478110583367,-0.5974487521028713,nm,0.0
87.87719899999999,34.06510087891838,-43.24253462155797,-65.82846678725465,-0.8202187991687045,-0.06614892205266122,0.2929475566964118,-0.09557058611818475,0.7341594656312065,-0.8035354937133925,nm,0.0
87.886705,27.180923244257553,-41.779454234062776,-66.16648694945162,-0.11882289526912439,0.13275928185973293,0.2343354551326328,-0.14899947024638774,1.0338872901480314,-1.0021697722948752,nm,0.0
87.89621,19.0255992178845,-40.13891355595649,-66.23445161250595,0.48775081030792067,0.31314831607352134,0.3431922383891246,-0.20212094588882243,1.2475731593662902,-1.0864977021889317,nm,0.0
87.90573699999999,10.036617670568516,-38.719641986300495,-65.95767361737686,0.9852839080793702,0.32390875886380927,0.9995275214570927,-0.3100550248323699,1.3732373896363905,-1.0892848349407114,nm,0.0
87.91527300000001,0.561040174408822,-37.43879761467569,-65.14480630148985,2.0185992369306156,0.48671167327181286,1.6437293231439352,-0.3923543714051146,1.4532347475389729,-1.0078572574113192,nm,0.0
87.924781,-9.864641918890682,-36.0664608347439,-64.25942365158153,3.5065737853056076,0.038914482639538686,1.3767588071712102,-0.4751756544315557,1.6177788033044653,-1.0707860981477002,nm,0.0
87.93411900000001,-19.781062669705467,-35.187349185667536,-64.16978995581283,3.6444711042598583,-1.1633417477027879,0.20324138989423207,-0.5529837922655593,1.51922696599787,-1.1356297331286755,nm,0.0
87.94363100000001,-27.13515254977879,-35.82020791945544,-65.10759858494427,3.1680850801234883,-1.7565464730744322,-0.7727197559378121,-0.6374793055150993,1.019765308211966,-1.0383474388264844,nm,0.0
87.953316,-31.09634551933376,-38.22167576463374,-65.89152687701188,2.065082089253888,-2.487991534869705,-0.5824805802113479,-0.7100256251980803,0.36837326331515496,-0.629246861131068,nm,0.0
87.962831,-33.72168924177227,-40.68528858034313,-64.98803248123406,3.348841379438773,-0.36389438404158564,0.14508774634146593,-0.6273003565508855,0.15595593401760396,-0.14735833762757755,nm,0.0
87.981856,-41.6733866671076,-42.05199004480434,-58.34343779618164,0.8074092631493822,-1.268360515847313,-1.7517057957623128,-0.21306610874471787,0.376601143791118,0.40236294290891017,nm,0.0
87.99136100000001,-41.56205627642778,-41.165046387376265,-54.10815953507179,1.8245590633751425,0.9902378865780513,-1.7208288089419634,0.14845637534710626,0.07603895369467889,0.8702126881449975,nm,0.0
88.00095400000001,-40.654808069308736,-40.618218594098444,-50.71744443991674,0.5763107805506789,0.8783532442113166,-1.9885346361024223,0.16269689276440732,-0.05155979741902383,0.8050446647545,nm,0.0
88.01039499999999,-36.43630059627014,-41.309275118686394,-48.566851691733014,0.1323369444402057,1.0000445375108649,-1.5802612098621447,0.3003455189478849,-0.5861014170699217,0.9907736026594112,nm,0.0
88.01988700000001,-28.322125092841784,-43.36282707224986,-48.20718531294803,0.3616724786322372,2.2720359669678,-0.389608599138483,0.4838678523161704,-1.1820238177631541,1.1715011061830225,nm,0.0
88.02958699999999,-18.140170085030054,-45.95726553404466,-50.17928919917991,-0.5649843781804741,2.0873700763115175,0.8405371915286972,0.5490074955262775,-1.448085748199383,1.0427695554904595,nm,0.0
88.039087,-5.984792916410507,-47.7292576690392,-53.841265449804865,-1.8066431071648763,1.791489683274883,1.6667597381965402,0.7399909813826312,-1.541607574016003,1.046049455178435,nm,0.0
88.04861,6.4190918400698775,-48.32407109339889,-57.294770262749104,-2.921597708919233,1.569465538096507,1.8339624173836884,0.8362768911302904,-1.4497200909004313,1.1570924474164144,nm,0.0
88.05793800000001,16.530681617755334,-48.53711625960843,-59.21813551625612,-3.553724980913208,0.5217111650121807,0.9562616545217664,0.6672229967378015,-1.1784182468327682,1.1297530354671623,nm,0.0
88.067451,24.15561023855115,-49.05681609563414,-59.389459494680324,-3.549341563725369,-0.21176158202451037,-0.0457893996544365,0.42229635832212653,-0.9319909640383766,1.1133274797954202,nm,0.0
88.076957,29.73219433420945,-50.001236058230006,-58.48231408158641,-3.3759296514181343,-0.10499745949564601,-0.4735674092682588,0.2117336714132866,-0.7326363220137475,1.0295653239643787,nm,0.0
88.08629400000001,32.87082810162035,-50.902806134545756,-57.53272440536768,-2.947938097599964,-0.27495911165407394,-0.818886601731558,0.059408259043492534,-0.4492220973673877,0.6731363529135779,nm,0.0
88.095764,34.09995836226197,-51.06598026000321,-57.18884349857858,-2.4646785395203126,-0.6545184107333843,-0.8969767199877539,0.05685835162561463,-0.16219845092547036,0.25840120396767935,nm,0.0
88.105267,34.32262356909273,-50.102162172989,-57.70946861134677,-2.0816846273191785,-0.6708282716718703,-0.5053941876082957,0.17863061204809683,0.06595956498532499,-0.0717177403049809,nm,0.0
88.12446,31.432811109661156,-45.90542080840775,-61.31868819437164,-0.9108028242341689,-0.9432819820528835,0.4830284179825684,0.2594625777639655,0.4580798863514301,-0.7293204770492099,nm,0.0
88.14348100000001,22.97708387933959,-42.66697533296996,-65.26096359830638,0.12493366012299824,-0.8505042966747794,1.1047680793870756,-0.10334397877027057,0.7555767082997377,-1.0462110153669493,nm,0.0
88.15299999999999,16.29451061080562,-42.297367632771845,-65.97386898204506,0.5922700041154969,-0.6555235148187742,1.0878766183289466,-0.34503917318844485,0.9162878953136464,-1.0480345942449336,nm,0.0
88.16251399999999,8.238367054850533,-42.329939164273334,-65.30185970965839,0.9740786579646393,-0.3871501883928848,1.0514752494921558,-0.5040821928603022,1.0711394309012594,-0.952128357278145,nm,0.0
88.172032,-0.44758496859058106,-42.27217192535625,-63.51251941367404,1.5287094139534076,0.33785263250709935,1.0298910841187165,-0.5521539905125079,1.1526176182770314,-0.8120148564279963,nm,0.0
88.18155100000001,-9.609758398072051,-41.92354558427547,-61.43293315754238,2.284553940021048,0.5160956302609788,0.7779529047052682,-0.5749273621719702,1.2273456282464426,-0.8119723839729486,nm,0.0
88.200593,-24.87486902568881,-40.67358521134706,-59.675261508279235,2.7858755198302805,-0.10558104611440021,-0.0726073975317564,-0.414542394867842,0.9119579382627641,-0.7887371378699187,nm,0.0
88.210106,-30.282613900810464,-40.61300749501503,-60.13374140498338,2.9655390476522534,-0.3019006980228383,-0.5192294856919778,-0.4106006592682002,0.7075339807046103,-0.7916758401481323,nm,0.0
88.219616,-35.003326740348975,-41.49720414888114,-60.72777300642609,2.2835867301047004,-1.3290196115369377,-0.8462703117573673,-0.5150857863277408,0.5240679502509354,-0.7335705827029815,nm,0.0
88.229127,-37.7093593264604,-42.95610211789245,-60.926151892478856,2.074727479173799,-1.40228872668714,-0.8050758408734796,-0.4602019596283932,0.1999140497886973,-0.39723521147488605,nm,0.0
88.24814599999999,-39.32752522949156,-45.73192690327264,-59.16332418252379,1.3976501164562896,-1.0315422474993117,-0.7572961408605255,-0.25084647825530915,-0.08712518824591632,0.21354137273252075,nm,0.0
88.257655,-37.95988549923082,-46.48090537085755,-57.05211097344255,1.161380758067358,-0.31834315248755896,-0.7190141982688021,-0.03623587710132845,-0.24886864532888256,0.6269754370180184,nm,0.0
88.267166,-34.95073096665804,-46.939440635147754,-54.47957550475948,0.9053584594286007,0.7453758560541645,-0.6783132621435128,0.14788570203605075,-0.40257477666061015,0.9601716496224352,nm,0.0
88.276681,-30.606202633755558,-47.6003385609215,-51.90421360265219,0.3059509275741324,1.325953647525453,-0.6297281651202573,0.24005924977107973,-0.562180489975406,1.150746616233472,nm,0.0
88.28619,-24.440069245408232,-48.78294513964682,-49.97819022045617,-0.28962999857152366,1.6010299974692788,-0.46430838484833264,0.3284634355715953,-0.7994695288640465,1.2937485540752252,nm,0.0
88.305399,-7.090855315960027,-51.64661292341605,-50.92844641768456,-1.4256083877767967,1.522012025946866,0.5829713376666352,0.5305665536573114,-1.06813298984686,1.1376752098494882,nm,0.0
88.333909,17.74135853054438,-52.12146959035055,-59.203207959705665,-1.9368004584906868,-0.8380895602326501,0.48575531049807263,0.4273393837784365,-0.6925062330603913,0.7123654399991463,nm,0.0
88.34324000000001,21.851147064738782,-52.50909556069389,-60.87248076614648,-1.8642006154847233,-1.1395752689296343,0.2743132729045604,0.1762698493620548,-0.49056119484734634,0.5662778204881735,nm,0.0
88.35256999999999,23.73361742703323,-53.383458137582,-61.90645675395311,-1.8521884934678101,-0.8508132686523578,0.03506396609182127,-0.05125244985667495,-0.29664694224654753,0.405427096633801,nm,0.0
88.37155999999999,22.253575643492642,-55.22018859359647,-62.06857507842063,-1.585380617858704,-0.10328399327536247,-0.323195359772628,-0.20965832011835536,0.057386176234443496,-0.09658886521932084,nm,0.0
88.381065,20.300329472837713,-55.3182162347462,-62.21255602883943,-1.2985036075915763,0.2812737625588553,-0.34261678091412723,-0.12472119985516814,0.17402792106673318,-0.34997858983961433,nm,0.0
88.40982,13.57702102664795,-52.98579759289022,-67.68716493980519,-0.3417497969493559,0.370288515575387,0.22348300984015274,0.05652430387161343,0.32981725026402164,-0.8298117039824174,nm,0.0
88.41933499999999,10.395443163629151,-52.159308896743916,-70.65472322753781,-0.055018648859738555,0.18431458042482843,0.4127913665994893,0.014717907819928383,0.40831579589337064,-0.8436188682188773,nm,0.0
88.42884799999999,6.653234191424604,-51.51753956174395,-72.53142330091156,0.15626831785585255,-0.149118476197889,0.3291369284097889,-0.027286663059357657,0.4684793841763605,-0.7283744537368503,nm,0.0
88.438537,2.7950250202890943,-50.95582788164795,-73.27873752227431,0.516231874986417,0.12932615788077056,0.4749543102056905,-0.03844641356427245,0.48454733889516416,-0.5255454611880995,nm,0.0
88.45755,-4.8950937366355065,-49.780658147915354,-73.01301337699853,0.7514265713704132,-0.20402987333647263,-0.11063970780765725,-0.024130782769783272,0.4603752714988502,-0.29381758180163114,nm,0.0
88.467073,-7.272137332421603,-49.268350051383656,-72.86384388575586,0.8844944357942525,0.0063166541211269805,-0.1645055715407167,8.359587783677141e-05,0.3153832119809399,-0.16211609148384282,nm,0.0
88.476584,-8.696328358729804,-48.903868174087194,-73.15521340773286,0.7870269239096193,-0.06933273074132057,-0.25680617452843846,0.006583796810622413,0.1900675325912072,-0.1267433765814509,nm,0.0
88.4861,-9.040052728975166,-48.67169797843586,-73.8343644416521,0.5920345251463786,-0.11882681439943844,-0.29343099408318046,0.021937848905135567,0.04690322448720559,-0.06741702276163661,nm,0.0
88.49560500000001,-8.54756785229492,-48.48734941652764,-74.68932003853834,0.4572223447796109,-0.009630019376212925,-0.11508236276111325,0.04286207834901252,-0.06256138957371417,0.0041845719889831755,nm,0.0
