timestamp,roll,pitch,yaw,acc_x,acc_y,acc_z,gyro_x,gyro_y,gyro_z,markers,motor_input
87.00246100000001,-20.31373637253332,-50.006603016942826,-51.74123185837526,-1.5557562043927895,2.8080571383935036,1.4793886445039752,0.5887398447642698,-1.054827162686642,1.6878904585359373,nm,0.0
87.01180400000001,-10.445889542331633,-50.61654738845673,-51.0868048055954,-3.0544605690661517,2.434853498276117,1.1957620735489078,0.686135126231836,-1.0751900683477003,1.654821040117303,nm,0.0
87.030813,9.487615721622385,-51.29518918860614,-51.64860272156342,-4.329969694133378,1.4039592240229297,-0.06719478715675924,0.7114619971604541,-0.9864069426627808,1.3761356324341827,nm,0.0
87.04032799999999,17.78403892958129,-50.828241045286155,-52.675193869243536,-4.101362632196922,0.6841185437072126,-0.5258734185968127,0.7127681219928513,-0.7813784027572748,1.0866714100427333,nm,0.0
87.05917099999999,27.295316900860062,-47.21397156952745,-55.81647851688182,-2.838752350052484,-0.6224442809728584,-0.8067682750328594,0.6025128822050293,-0.14802884722842663,0.35487016308910413,nm,0.0
87.068679,28.306946689598714,-45.19779357637296,-56.437039272312546,-2.5009513079506305,-0.9943285334407734,0.057369881450763244,0.4130662610241048,0.0946595731106725,0.019595908715078422,nm,0.0
87.08783700000001,22.544958579171407,-42.061796671404736,-56.593267418308116,-0.9031298780379868,-1.2278153313968143,0.685191585212727,-0.09828770340531348,0.6270608663153578,-0.5275102081484316,nm,0.0
87.097343,17.337632717904224,-41.40691399759026,-56.52741839547216,-0.2756416697022186,-0.9785569581906987,0.7504177466808646,-0.32194850668144454,0.7077263734085332,-0.6828688317508367,nm,0.0
87.106852,11.477098349738972,-41.116402143239824,-56.50338756708302,0.188227156930313,-0.5682666795399611,0.9857465415696215,-0.44176634606319637,0.7541493921244661,-0.7703382342547176,nm,0.0
87.11639400000001,4.883207478586518,-40.63676693496472,-56.51652929657049,0.8100169196752767,0.03656018295355467,1.1245338447159146,-0.475518226694486,0.8721911275637787,-0.8670672128209177,nm,0.0
87.135423,-10.157813395195966,-39.43015952867252,-57.374611367952156,2.0552536093637066,0.1372493343765656,0.5243164372727719,-0.5536538664771197,1.0105323782854287,-1.076185004084737,nm,0.0
87.14493100000001,-17.744797551893647,-39.48382666156315,-58.51823062341888,2.9801774495270523,0.45687971539703837,0.7959359672602552,-0.6396160855030695,0.977343032623019,-1.1911011095228798,nm,0.0
87.16378,-29.483791385858705,-40.745778256390764,-62.138391836340226,3.3010490261264285,-0.3675881934825963,0.6801771544988643,-0.4850977132039654,0.5326268753201356,-0.9210385009250983,nm,0.0
87.17346900000001,-35.55991097936813,-41.796711372254016,-63.724398196216384,3.7635881386490575,-0.4442757705471714,0.06711171976723232,-0.606342716507036,0.7164038652182602,-0.8942469929582962,nm,0.0
87.18298100000001,-42.88699263560611,-42.85367997014981,-64.01722262578005,1.9682906003631722,-2.027834889465005,-0.6527231050697367,-0.6698443965126611,0.8797119052842991,-0.841937445400135,nm,0.0
87.19249400000001,-47.21991939869011,-43.39199790335582,-63.37526347618206,2.075302820895366,-1.4525618540294154,-0.9887967533652406,-0.3846694442235607,0.5155541417437954,-0.3504419427048065,nm,0.0
87.201999,-49.78427703967216,-43.75217492666316,-62.194620569376895,2.4576808841720177,-0.7916131166548602,-1.3839673872522575,-0.24384672661025109,0.29211515148396433,-0.09852715438652973,nm,0.0
87.221024,-50.756997408847006,-45.30225310727588,-59.451253459719865,1.1679453817506562,-0.8400819346504939,-1.5386480447404705,-0.10613125311619413,-0.2143735729798786,0.36701508502196556,nm,0.0
87.249731,-34.468044421924255,-48.91863255782366,-57.612593630388574,0.374393593850336,0.8195756622993355,0.0026207245696800506,0.321978019224155,-1.0046214543984602,1.1586224637072686,nm,0.0
87.25925000000001,-25.107456447947932,-50.06709843230097,-57.009962837455866,-0.07236676643789934,1.9517208159201525,0.8070110321912068,0.4584906906710709,-1.157700880529457,1.4980601321073936,nm,0.0
87.268752,-15.294466894794724,-50.89054069293622,-56.35963997425205,-1.3469906801089477,2.6280472879007797,1.337363378338732,0.5426567355437847,-1.1465668496125296,1.6346407197682506,nm,0.0
87.278088,-5.460573306618339,-51.44317287426715,-55.54329270464843,-2.8329672562019295,2.4767211924216315,1.1441221002973725,0.5939598079953876,-1.0977829976830442,1.7000284114108437,nm,0.0
87.297111,13.844069671056998,-52.69940800253152,-54.5721961317384,-4.201608133125525,1.2891637034225139,0.06297711013196612,0.5611410234338451,-1.0227836200705338,1.5269445830634678,nm,0.0
87.30661799999999,22.592403634068642,-52.69494677259487,-55.2159306961396,-3.875884611655893,0.5019784932237199,-0.44763453738214143,0.6101924536520086,-0.8821388913490605,1.2644028277869634,nm,0.0
87.316123,29.847391640091214,-51.64184176445489,-57.37343366042501,-3.6558108075530082,0.15522073764034255,-0.42990977373595896,0.6641636763249422,-0.6441197984454569,0.9090392453432781,nm,0.0
87.325448,34.51174417709757,-49.74429192049477,-58.847933640772624,-3.048207957585037,-0.6822846013120368,-0.4608613702076943,0.6354526178757953,-0.315743519150747,0.4256204829451179,nm,0.0
87.334956,36.68334542853942,-47.52927124050982,-60.29486387658735,-2.177927751127497,-1.328562939524942,-0.43972096903319957,0.5284727257150538,-0.037060986473274556,0.03407762836665808,nm,0.0
87.344428,36.51576973605299,-45.503469265590624,-61.428150375816514,-1.7342428625591004,-1.3978769044965216,0.03638918653195757,0.343246740287565,0.20389089501417046,-0.2543282759234779,nm,0.0
87.35412500000001,33.930030309018946,-44.00754723611042,-62.12706096840386,-1.0966758657263989,-1.35617923137742,0.10981327315217124,0.08943414409502579,0.4518487582772637,-0.5076874717067045,nm,0.0
87.373142,23.40723331085437,-42.51857287300349,-61.87575673113926,-0.19202860241674458,-0.3130381052589638,0.7308393003275246,-0.31660258460595053,0.8406584517444725,-0.7512547092375299,nm,0.0
87.392212,6.710526321995374,-41.058991445896275,-60.30778073464867,1.0501869677199804,-0.004170251723247843,0.5586559215382823,-0.5166585311422691,1.223915883695967,-1.0199170068944414,nm,0.0
87.401714,-1.8729989045169289,-40.22289817675407,-59.78546762752322,1.7725892007001742,0.48862826755035993,0.9778476308687499,-0.5127340358412054,1.2007694526127635,-1.0143771970926576,nm,0.0
87.411228,-10.80445577783511,-39.61663431072529,-59.97576392820128,3.078185943119504,0.765032753043148,1.0683265674403062,-0.5910164490382223,1.2354688153837547,-1.1837279095383553,nm,0.0
87.42054200000001,-19.707406572588482,-39.63011742715066,-61.495365131957115,3.2604206415328254,-0.6407411446058762,0.15258813110690195,-0.6824174486870835,1.1862766229526056,-1.437337212485585,nm,0.0
87.468291,-43.67996080937924,-46.03987372168339,-62.174383092576434,1.759611183667912,-1.1201393088087939,-1.3295989405707052,-0.1952633614350932,0.36175022673935314,0.11933259146386901,nm,0.0
87.49684500000001,-42.4450162768209,-46.07254333019245,-55.27364503930651,1.0254978382969075,0.28738388891197947,-1.4058149985165704,0.16856203802299155,-0.48394514989929804,0.8638722289837472,nm,0.0
87.506336,-36.33903839788685,-47.7312768832563,-54.11800467908512,0.898228799603688,1.2646795997127644,-0.49653465517692874,0.20616415658424897,-0.8819113227709608,1.0533614057000578,nm,0.0
87.516032,-28.0027169482793,-49.98226949949176,-54.05646927150781,-0.1717517516338859,1.240015577925651,0.4062674951763801,0.2760402825976819,-1.1623990462482114,1.1833168264982263,nm,0.0
87.52553499999999,-16.381997868668222,-51.780488634776326,-54.95457302355764,-0.8884920003157948,2.5863139625420484,1.3997772624327367,0.5574642754650958,-1.4129150464220346,1.5525234805868173,nm,0.0
87.53505000000001,-4.289770814866985,-52.67412868645146,-56.299568736188164,-2.539190937715909,3.1033564321816107,1.9099412603432437,0.6839292373633964,-1.3371016980622592,1.6478518925970937,nm,0.0
87.54437999999999,6.257830604355816,-53.02518776752191,-56.8569445502606,-3.9131436671784536,1.7476670813848219,0.8564651076934386,0.638885393557976,-1.1169510110025858,1.586312005638351,nm,0.0
87.55389,16.036457839343672,-53.4005344299899,-56.31570336597117,-4.2686881589443075,1.1517593224543783,0.1775107663069708,0.5806742303344163,-1.0342855985314736,1.6770273291890365,nm,0.0
87.563403,24.3905144933088,-53.753682604060735,-56.404472073398956,-4.09490509523428,0.8029891881296931,-0.339904517384342,0.48340681495179494,-0.8844879370300669,1.518753523919372,nm,0.0
87.582236,34.73063367199586,-52.66764769784453,-57.42442126867405,-2.951585456052061,-0.6210696713775332,-0.7209171398739976,0.4350723091449707,-0.33734858928063305,0.6678547246817039,nm,0.0
87.601216,37.43029515814526,-48.905075673818104,-59.326617936896994,-1.3080237264335313,-1.415591342282538,-0.08657752261860673,0.3767374287596302,0.16371110252267185,-0.19756185846988272,nm,0.0
87.610906,35.641315404262635,-46.81224646823888,-60.71573356764442,-0.621068003373019,-1.527573800529503,0.2688499884175053,0.24307310089143783,0.4037714635034451,-0.5464918432164675,nm,0.0
87.639444,20.13979632535767,-42.90911579558818,-63.147496159876304,0.6130969519631131,-0.44575233354587834,1.2196456274860383,-0.31129548801918006,0.9504687697233857,-0.997270100350474,nm,0.0
87.648953,11.449449346919334,-42.41574288415968,-62.72032005214171,1.2011696532673586,-0.5018600181548813,0.9621980530697966,-0.49943399889445406,1.1711149223588668,-1.094849597724564,nm,0.0
87.65845300000001,2.1305213561203336,-42.049701743636994,-61.71779378038632,1.7945713904704057,0.23255072905277066,1.1588958922505246,-0.5854304217975643,1.2436125210390372,-1.0535056673667949,nm,0.0
87.667958,-7.712477071912593,-41.78768544436167,-60.91250586147981,2.7955537466747975,0.5322584888008325,1.1460555138253594,-0.6653384777914602,1.2996207203944485,-1.1540072694056522,nm,0.0
87.706051,-35.5407505964502,-43.684284751857675,-63.444075028462485,2.282254588643604,-1.5457696427142538,-0.9040472364289318,-0.6658816659718233,0.8003530874857685,-0.9657010568537862,nm,0.0
87.715562,-40.26518299332902,-44.59254814057587,-62.59944114279954,1.2295175385852646,-2.0695827673895315,-1.2256635613109037,-0.4798898444079821,0.5153367664968629,-0.48261341678631503,nm,0.0
87.72508099999999,-41.84653771973589,-45.05784674203955,-61.08853673788529,2.415370790504112,-0.4594769736627023,-1.0780776201785065,-0.19787932538344222,0.14684396344634063,0.08672684692505724,nm,0.0
87.7536,-37.22695953982509,-46.42542557810287,-55.5680175469547,1.1462037998073176,1.0859512301453915,-0.7635678213890346,0.22860332337395894,-0.6112058341204466,1.0351867243570314,nm,0.0
87.763126,-31.065914328694763,-47.74703043485397,-54.10115054483484,0.27691334585428773,1.680471446406757,-0.05146147548234958,0.2592725504928877,-0.8490002922689669,1.2030689917329096,nm,0.0
87.772818,-22.1454834536204,-49.46529001684589,-53.40262351284628,-0.6572956697844639,1.9328914636594996,0.23303056762144034,0.41388267439722176,-1.1668401524700662,1.484560378428897,nm,0.0
87.78215,-10.389503210326321,-51.18280741013049,-53.73146146018421,-1.666675428612341,3.53531187368801,1.1511187846122788,0.6104490532873181,-1.4250596730987222,1.7494966377168433,nm,0.0
87.791638,1.6684939013438551,-52.40365942121905,-55.307124834887546,-3.4948458079566627,2.9146137091215656,1.1843956864525778,0.6633251031031703,-1.3703125727086598,1.5842824944133422,nm,0.0
87.81065799999999,25.33535606979372,-52.16226939933363,-59.74748817257536,-4.080687059794148,0.7690155475635266,0.07677491999538832,0.8273403531673239,-1.1633784152087998,1.4000204882139302,nm,0.0
87.81999200000001,34.4624361274877,-50.93044199517697,-61.507525692068356,-3.556640290663112,-0.1905623418911857,-0.15066518326547731,0.7716080036024338,-0.8836050266619194,1.0775124571895092,nm,0.0
87.829456,40.343294435965376,-49.28065667876565,-62.62732430222768,-3.0863887383385804,-1.1193790497497222,-0.26475950482873273,0.6461321621519631,-0.5265734930537249,0.6769120968204185,nm,0.0
87.838975,43.42971082212297,-47.65443769420936,-63.29341926111382,-2.3456813942052137,-1.5761767309131605,-0.3224751896336138,0.47748203632209557,-0.23077247945622684,0.3262335379489538,nm,0.0
87.84848299999999,44.01373084949529,-46.343273871858656,-63.90254311740459,-1.656078786979878,-1.571540599441251,-0.24565653425819034,0.2717821948552751,0.03160026437135145,-0.03985751523311203,nm,0.0
87.86767499999999,39.04481156044783,-44.36093339191593,-65.27913070300922,-1.0350395002781898,-0.846564492750142,-0.09241397524815705,-0.02306138344047104,0.49255478110583367,-0.5974487521028713,nm,0.0
87.87719899999999,34.06510087891838,-43.24253462155797,-65.82846678725465,-0.8202187991687045,-0.06614892205266122,0.2929475566964118,-0.09557058611818475,0.7341594656312065,-0.8035354937133925,nm,0.0
87.886705,27.180923244257553,-41.779454234062776,-66.16648694945162,-0.11882289526912439,0.13275928185973293,0.2343354551326328,-0.14899947024638774,1.0338872901480314,-1.0021697722948752,nm,0.0
87.89621,19.0255992178845,-40.13891355595649,-66.23445161250595,0.48775081030792067,0.31314831607352134,0.3431922383891246,-0.20212094588882243,1.2475731593662902,-1.0864977021889317,nm,0.0
87.90573699999999,10.036617670568516,-38.719641986300495,-65.95767361737686,0.9852839080793702,0.32390875886380927,0.9995275214570927,-0.3100550248323699,1.3732373896363905,-1.0892848349407114,nm,0.0
87.91527300000001,0.561040174408822,-37.43879761467569,-65.14480630148985,2.0185992369306156,0.48671167327181286,1.6437293231439352,-0.3923543714051146,1.4532347475389729,-1.0078572574113192,nm,0.0
87.924781,-9.864641918890682,-36.0664608347439,-64.25942365158153,3.5065737853056076,0.038914482639538686,1.3767588071712102,-0.4751756544315557,1.6177788033044653,-1.0707860981477002,nm,0.0
87.93411900000001,-19.781062669705467,-35.187349185667536,-64.16978995581283,3.6444711042598583,-1.1633417477027879,0.20324138989423207,-0.5529837922655593,1.51922696599787,-1.1356297331286755,nm,0.0
87.94363100000001,-27.13515254977879,-35.82020791945544,-65.10759858494427,3.1680850801234883,-1.7565464730744322,-0.7727197559378121,-0.6374793055150993,1.019765308211966,-1.0383474388264844,nm,0.0
87.953316,-31.09634551933376,-38.22167576463374,-65.89152687701188,2.065082089253888,-2.487991534869705,-0.5824805802113479,-0.7100256251980803,0.36837326331515496,-0.629246861131068,nm,0.0
87.962831,-33.72168924177227,-40.68528858034313,-64.98803248123406,3.348841379438773,-0.36389438404158564,0.14508774634146593,-0.6273003565508855,0.15595593401760396,-0.14735833762757755,nm,0.0
87.981856,-41.6733866671076,-42.05199004480434,-58.34343779618164,0.8074092631493822,-1.268360515847313,-1.7517057957623128,-0.21306610874471787,0.376601143791118,0.40236294290891017,nm,0.0
87.99136100000001,-41.56205627642778,-41.165046387376265,-54.10815953507179,1.8245590633751425,0.9902378865780513,-1.7208288089419634,0.14845637534710626,0.07603895369467889,0.8702126881449975,nm,0.0
