timestamp,Roll,Pitch,Yaw,Acc X,Acc Y,Acc Z,Gyro X,Gyro Y,Gyro Z,Acc Magnitude,Gyro Magnitude
0.0,101.56144945000555,48.22200483254634,-164.7865943349427,1.4948320388793945,-0.16030913591384888,-2.4423584938049316,-0.5799555903764363,0.04210107203284031,0.11178101087200323,,
0.009512000000000853,96.96563968266697,47.479626167353956,-165.6956181929396,1.0020408630371094,0.026268720626831055,-2.3872928619384766,-0.783133232307074,-0.10352067395416749,0.16067687617596652,,
0.019199999999997885,91.56715205072699,47.252334323960866,-167.09160433973798,0.40130993723869324,0.5188130140304565,-1.612794280052185,-0.874396632125098,-0.1910535990351045,0.054091883687763194,,
0.028715999999995745,84.74208094180345,48.08752390162393,-168.80455891592703,0,0.6231558322906494,-1.0608539581298828,-1.1088836155991453,-0.23408728975221654,-0.17946248110201235,,
0.038140999999995984,77.0651830849248,50.04432070216272,-170.91862972966643,-0.21846598386764526,0.08684265613555908,-0.8945074081420898,-1.2096064335004977,-0.22369525298461673,-0.4357993880361413,,
0.04773699999999792,69.66927046493812,52.53813864549375,-174.2787904545928,-0.3417963981628418,-0.1350286602973938,-0.2681427001953125,-0.936748852730697,-0.2805849927251953,-0.6063353760172666,,
0.05724599999999924,61.80607229627053,54.58745453370989,-179.98757048196714,-0.39180123805999756,-0.47043296694755554,1.198073148727417,-0.6275191432742971,-0.47496937277555606,-0.6633583469984554,,
0.06656699999999915,54.33294822707125,55.36843389197024,172.50869795457697,-0.30785059928894043,-1.334470272064209,2.0647566318511963,-0.23142266494001149,-0.6761485460970398,-0.6028713637614,,
0.07608199999999954,50.290160088274746,55.05497369129891,165.5996921957604,-0.5971841216087341,-1.7116267681121826,3.723520040512085,0.36492036803148614,-0.6910704450453883,-0.45058805574387956,,
0.08559299999999581,50.59167384375551,54.38402508656285,160.87027921382466,-1.011915683746338,-1.9856730699539185,4.272190570831299,0.8729310884783852,-0.5363889746968833,-0.26419755013013396,,
0.09527699999999584,55.51270010270359,53.85440462696528,158.95205677413847,-1.6514897346496582,-1.3328441381454468,4.486517906188965,1.3385742744112235,-0.2755222055820056,-0.0706125575234347,,
0.11429599999999596,70.36912217545797,54.38335042353278,162.49592669333163,-1.7351386547088623,-1.327582597732544,2.301480770111084,1.1263369081190888,0.31655742768996387,0.02278254214435346,,
0.1236199999999954,79.98414813041045,54.88125972811632,167.36906537857166,-0.7916845083236694,-1.0220274925231934,1.909563422203064,1.1719019924077956,0.5355895872532217,0.036771822408430146,,
0.1331429999999969,89.74171918460773,54.97367727444294,173.39773969967578,0.2989463210105896,-0.9013638496398926,1.1198394298553467,1.0077611039759624,0.6561638600055018,0.036505359927209644,,
0.14273299999999978,97.39288991291318,54.4338620390699,178.2567907766735,1.4969103336334229,-1.2589976787567139,-0.2294043004512787,0.7767381327577818,0.5335911186440678,0.06928024511733216,,
0.15222699999999634,103.63715583763576,53.26127080151038,-178.51560347145832,2.173161029815674,-1.2049336433410645,-1.0382022857666016,0.7626156212530949,0.38663706025095756,0.15987748873230498,,
0.1616560000000007,108.83266334887062,51.56724986201802,-176.39591800099842,1.8542752265930176,-1.0187015533447266,-1.7571860551834106,0.7353032169279926,0.31389280287775884,0.2535390508813137,,
0.17117099999999397,112.37771706371237,49.8297604506096,-175.87564739532297,1.2123796939849854,-1.044924020767212,-2.8824844360351562,0.6499019916968197,0.16227565106328956,0.3013690662603949,,
0.18068699999999893,115.06483094687663,48.34783710119142,-176.51559601838323,0.7264733910560608,-1.065589427947998,-3.1873791217803955,0.655764166283671,0.020117917332148377,0.3052327722380923,,
0.19010699999999758,118.12806777905882,46.97857757535583,-177.00384222523735,0.2162783145904541,-0.9661989808082581,-3.4739999771118164,0.7153185308364546,0.03397396635561481,0.27885298659726193,,
0.19970699999999653,121.57709637966555,45.76604402253115,-177.13899501887963,-0.14748746156692505,-0.967837393283844,-3.6270289421081543,0.7471607973423053,0.06848085767367064,0.2290245026090269,,
0.20920699999999925,125.10830304884918,44.841383883322294,-177.42143654175027,-0.042206525802612305,-1.1246395111083984,-3.6164865493774414,0.7856646258786687,0.031176110302799476,0.18852220546350962,,
0.21873099999999823,129.14099954692315,43.962249066733634,-177.91660687892553,0.26964280009269714,-1.1797122955322266,-3.3783888816833496,0.9134333856239024,0.014255742745297196,0.1962496174189044,,
0.22822799999999432,133.7692242313948,42.90918168497293,-178.7829331995276,0.612292468547821,-1.0029802322387695,-2.6728968620300293,1.08516845477052,0.008260336917835759,0.25886830050572385,,
0.2377350000000007,138.2108156665243,41.79747800734221,179.41680344173892,1.0576493740081787,-1.0430908203125,-1.7726417779922485,1.1680382864300984,-0.058488514627901576,0.3639877493472144,,
0.24726399999999416,142.4776765393618,40.711559309089864,176.31357877612052,1.3928086757659912,-1.0069952011108398,-0.47192978858947754,1.2946079650098397,-0.1594777950104742,0.5141393575149708,,
0.25684400000000096,146.36041134075614,39.6803216694155,171.84834004699457,1.2870724201202393,-0.6439714431762695,1.7314138412475586,1.3789433403161304,-0.25327258840009315,0.6876064327895217,,
0.2663510000000002,148.5356573287918,38.7119400195842,166.22899944356183,0.6886178255081177,-0.3982449769973755,3.4210567474365234,1.1596447182716523,-0.3214869835925433,0.8405558970100936,,
0.27579399999999765,147.73008604490695,37.4965421809549,160.13959998164339,-0.3340863585472107,0.44701284170150757,5.5159502029418945,0.5934119456780721,-0.30816385953151787,0.9324854530311689,,
0.2853059999999985,141.43378015300942,35.5027838973021,154.85313940515303,-0.9298461079597473,1.1377944946289062,5.601683139801025,-0.6304502305677226,-0.1737335377557714,0.9113016857741384,,
0.29481399999999525,130.050463947629,32.57609453849482,151.1684257953246,-0.8069823980331421,1.7200613021850586,5.958796501159668,-1.8656370622653888,-0.010525268008210078,0.8341607974608013,,
0.3043169999999975,115.49933166558075,28.86037254520282,149.65192635689684,0.5307576656341553,3.038865327835083,8.33584213256836,-2.7564211369855482,0.18159418095177643,0.7575528341099053,,
0.31381999999999977,97.7537224360701,25.211593990474604,150.5892081728183,1.555937647819519,3.0944037437438965,7.999384880065918,-3.634415012607123,0.3682511490467425,0.6472373668846148,,
0.3233320000000006,78.79974249238198,22.94634612163456,152.34843437292994,1.9800273180007935,2.248659133911133,7.228021621704102,-3.930454829243108,0.2976385915233078,0.46031393630842804,,
0.333012999999994,61.20861594503431,22.753159716344914,154.09417084219842,2.1806600093841553,2.199845314025879,5.368936538696289,-3.6501362989991333,0.2789862178378722,0.1421577337311412,,
0.34252499999999486,43.48934954174372,24.6419235684062,154.62692444972345,0.7785650491714478,2.8704776763916016,4.547788143157959,-3.5828545224909547,0.29790505400452827,-0.2456784076853087,,
0.3520429999999948,23.80010270454596,26.199273748005698,151.7859856983553,-0.4908178448677063,2.3519163131713867,2.7058258056640625,-3.6897059774603793,-0.0369050536490404,-0.6079341509045897,,
0.36154599999999704,4.657335314099032,25.89945900802003,147.24366226613563,-0.78758704662323,1.942641019821167,2.959834098815918,-3.4093874472164036,-0.27911944907848246,-0.8145758050910941,,
0.38057899999999734,-30.765975281203623,22.065534505247406,141.1318706471271,-0.6898711919784546,2.344578981399536,3.0632753372192383,-3.337709039768087,-0.2908437982521848,-0.5431837679680062,,
0.38990799999999837,-47.81132589876051,21.110284222976535,140.6771432157979,-0.20395427942276,2.922846555709839,5.106780529022217,-3.371816237364312,-0.10645176124759306,-0.19225268020059674,,
0.4089139999999958,-85.30271591934749,24.932402225482583,139.0628632988112,-0.38681212067604065,3.542372941970825,7.195258617401123,-3.7831010771281663,0.3257503832920714,0.43659877547980286,,
0.41842599999999663,-103.80101358145473,27.628879366980435,136.55127184778235,-0.5815410614013672,3.083463668823242,7.746091842651367,-3.472405824025054,0.3964961720561163,0.5711623284961596,,
0.4279319999999984,-120.34911818680712,29.412158931861338,133.5151684725258,-1.6414583921432495,2.575129508972168,5.75399112701416,-3.014623281288221,0.3501317003237479,0.5281286377790475,,
0.43744599999999423,-133.5212661828359,29.990178702390427,131.84516599624266,-2.1087393760681152,1.9839227199554443,3.541269302368164,-2.4639785638460405,0.15121745809263848,0.26259877524281094,,
0.4469619999999992,-142.91140745329992,28.58628634881906,131.36036113470908,-2.886265516281128,1.6555790901184082,2.0856540203094482,-1.8250015338792616,0.25460490080619574,-0.12923430339194653,,
0.4564850000000007,-148.73644943996007,25.311918844652414,132.16160458574467,-3.7524068355560303,1.1406240463256836,1.286102533340454,-1.231189894479359,0.45058805574387956,-0.4917565090924481,,
0.4659769999999952,-151.45022620801228,21.14863467106918,133.455165746345,-3.1015617847442627,0.6970399618148804,1.3099266290664673,-0.6629586532766247,0.5630352228189341,-0.6777473209843629,,
0.4754919999999956,-152.4692876384742,15.503143639443255,133.45582025838496,-2.092425584793091,0.12819457054138184,1.6374990940093994,-0.2199647782475296,0.9526033703633173,-0.5990076577837027,,
0.48508599999999547,-153.04016237625808,8.592230368448009,131.72585273067025,-0.7458307147026062,0.38897451758384705,2.7920899391174316,-0.05022817771006582,1.3396401243361056,-0.4030245028460188,,
0.4945899999999952,-154.8167872170043,1.7161711552713363,128.83361903288247,1.1074531078338623,0.09566909074783325,1.9366706609725952,-0.3017687599822257,1.4490229728771242,-0.15161715181446922,,
0.5040229999999966,-156.86766272451177,-4.2889010458057255,125.14954079035421,3.1601643562316895,0.3580743670463562,1.8122646808624268,-0.4180796330349775,1.365620216255105,0.12856814718889528,,
0.5135319999999979,-159.78062250033526,-10.112682354388406,120.90384938003014,4.923522472381592,1.1473891735076904,2.3570563793182373,-0.6760153148564295,1.3668192974205977,0.30723124084724607,,
0.5230479999999957,-165.5949016570707,-16.259155431742116,117.48032988038275,5.871982097625732,2.015383243560791,1.1869990825653076,-1.3061990829429317,1.3553614107281156,0.24421286403859588,,
0.532547000000001,-173.9347669187179,-22.11947168084456,116.93367690301302,5.616578578948975,2.022796869277954,0.3390272259712219,-1.6851087312384947,1.1564471684970061,-0.14495558978395653,,
0.5420579999999973,174.6659310698367,-26.617988014168077,120.33532728861724,5.673175811767578,2.67799711227417,2.5864243507385254,-1.9978024529507612,0.8859877500581902,-0.6192588063564614,,
0.5610870000000006,141.42470544805352,-26.728273152184443,128.10312682442014,5.787600040435791,2.7180681228637695,5.046828746795654,-3.2801531438244576,-0.10751761117247512,-0.5118744264245966,,
0.5705910000000003,124.75908079854835,-23.608805840945486,126.19037931008977,4.982871055603027,0.3827991485595703,3.035135507583618,-3.49105819771049,-0.6941347635794242,-0.2250275653907193,,
0.5800959999999975,114.00566334969326,-21.597058535824647,121.3536016388412,3.415377140045166,-0.09808355569839478,4.139302730560303,-2.5164716726464804,-0.9901745802154088,0.0831362941407986,,
0.5896059999999963,103.43938794746506,-21.224859437141387,115.41942341918904,0.34751319885253906,2.803632974624634,7.320491313934326,-2.540186833475106,-1.0853016860111304,0.28018529900336453,,
0.5991189999999946,87.31430415354355,-21.602882700516016,111.54915618750222,-2.3467772006988525,0.882477879524231,2.7910091876983643,-3.5029157781248026,-0.7255773363634442,0.13856049023466432,,
0.6086379999999991,73.61992166852882,-21.978428474518875,110.19404201693342,-4.2170233726501465,0.5691859722137451,2.148988723754883,-2.8350275689455984,-0.2732572744916313,0.027578866806322613,,
0.618310000000001,59.79259366355348,-22.583552697077824,111.72373420808175,-4.074296474456787,3.111173391342163,4.125842571258545,-2.644773357354155,0.2011791733214838,0.2188989283226476,,
0.6373350000000002,26.441009277613468,-16.487554025586366,120.49846692565107,-2.750898599624634,2.02497935295105,3.245999336242676,-2.714186833712098,1.1683047489113187,0.17226799410905863,,
0.6468500000000006,10.83303841805071,-12.178796954089385,122.23286216533978,-1.6759446859359741,4.114825248718262,5.16896390914917,-3.0299448739584003,0.9159647791954973,0.0383705972957532,,
0.6563680000000005,-8.291910418259224,-10.199902925725704,122.10140884457397,-0.596767783164978,2.8906006813049316,3.1191940307617188,-3.8265344615671095,0.3857044415666858,-0.03970290970185574,,
0.6658709999999957,-26.66553371636545,-10.821292118201999,122.26232924180202,-0.38441532850265503,3.7087032794952393,6.331235885620117,-3.6654578916693126,-0.1404257276032079,-0.01212404289553313,,
0.6751999999999967,-47.36340929605889,-13.312145748963268,124.11056596018652,-1.3719381093978882,5.055937767028809,7.328697681427002,-4.058356820228952,-0.6309831555301638,-0.016254211354451008,,
0.6942039999999992,-89.33097217032935,-17.26861969503581,131.27912308186123,-3.548159599304199,3.246748447418213,7.5170087814331055,-3.7164854568230394,-0.7503583471169514,-0.14522205226517704,,
0.7038060000000002,-107.37985002187516,-17.326543816246378,133.81814745450188,-3.543513059616089,3.4886460304260254,5.636582374572754,-3.45455283778328,-0.49202297157366864,-0.08726646259971647,,
0.713318000000001,-122.66541103092486,-16.16407488501472,133.05286237563294,-3.0470643043518066,2.8949875831604004,3.0540614128112793,-3.096960187985358,0.022915773384963714,0.26886064355149286,,
0.722808999999998,-134.47519847642738,-17.930078239361144,129.3882573763098,-2.2042322158813477,3.0037152767181396,3.1746621131896973,-2.571229712537295,0.7587519152753974,0.15641347647643836,,
0.7323260000000005,-144.88697764591222,-23.65384197855877,126.00702267485458,-1.5414326190948486,3.3450517654418945,3.374250888824463,-2.3152924993249973,1.2736906602340299,-0.2639310876489135,,
0.7512830000000008,-174.90847444988177,-40.28544659776239,131.18686671930908,3.2700746059417725,3.786743402481079,6.359851837158203,-2.9029755016568277,1.5173705993101847,-1.2215972451554202,,
0.7607870000000005,160.11628746554575,-46.14865423992743,141.57403424790007,3.92069673538208,4.2000651359558105,6.586772918701172,-3.556474736850124,1.3490995424194334,-1.3624226664804588,,
0.7702979999999968,132.37385427110232,-44.851696129305935,150.78836650838605,5.188282489776611,4.895532608032227,7.784867286682129,-4.22489587099177,0.4938882089422122,-1.2302572757950867,,
0.7799909999999954,108.49036414639666,-40.082213082648394,153.78973105300906,5.475128650665283,4.608238220214844,8.146078109741211,-4.365188367354367,-0.1136462482405468,-1.0590551316109105,,
0.7895040000000009,88.58114858876063,-35.08457672150079,150.71929425001736,3.066899538040161,1.9164645671844482,7.537420749664307,-4.35066616212785,-0.6459050544785121,-0.9274226658879792,,
0.8085189999999969,52.19003175769362,-30.40897478345529,139.22021613444718,-1.5129265785217285,1.6319924592971802,5.433938980102539,-4.28285146065723,-0.5894150084597645,-0.6764150085782604,,
0.8178449999999984,34.808944911870526,-30.97279544337696,136.6247246952568,-3.472656726837158,0.30720576643943787,3.093888759613037,-3.7374027615988497,-0.40289127160540866,-0.2524732009564316,,
0.8275349999999975,18.21322283416475,-32.65759417472418,137.48482847582176,-2.0302276611328125,1.6737242937088013,4.659048557281494,-3.224329254008761,-0.24900918870056504,0.2775206741911594,,
0.8370439999999988,-0.8219628768096103,-30.179187933949372,141.8834789871231,0.1885325312614441,2.0776174068450928,2.91641902923584,-3.342771826911277,0.5943445643623438,0.6653568156076092,,
0.8465479999999985,-18.132966653939807,-24.495361611350727,146.66519094462126,1.1972332000732422,1.546893835067749,2.728593587875366,-3.0143568188070002,0.9728545189360759,1.0244150090522441,,
0.8560579999999973,-31.538746876654024,-19.11459120951866,150.46428691830286,2.8086647987365723,2.147833824157715,3.495701313018799,-2.3912343064728416,0.6701531402695784,1.0904977043949304,,
0.8653890000000004,-43.12646758585869,-13.946373822236197,151.59821604446643,3.3989720344543457,2.562523365020752,2.5476174354553223,-2.246411947929495,0.6801454833153475,0.7969892813305404,,
0.8844139999999996,-66.83749450476398,-12.379321050268404,151.7436514250862,0.4287954568862915,2.7392492294311523,3.9092519283294678,-2.4052235867369185,-0.3092297094563999,-0.15374885166423327,,
0.8939249999999959,-79.50969904460975,-15.55087225041442,154.16261452839137,-0.49062907695770264,2.290757179260254,5.940725803375244,-2.411885148767431,-0.6465712106815634,-0.4775007663471509,,
0.9034329999999997,-91.47048192206981,-18.06534948946882,157.38514220844053,-2.0142056941986084,1.1897510290145874,5.036915302276611,-2.1997810137159064,-0.6680214404198144,-0.45884839266171534,,
0.922466,-108.56558874789353,-15.84124781932756,164.7151518272397,-2.0346603393554688,0.55131596326828,4.617557525634766,-1.235453294178887,-0.6403093423728815,0.31842266505850747,,
0.9319769999999963,-112.58517117201178,-12.574060662122465,163.60342145830265,-2.615495204925537,0.924089789390564,3.2540671825408936,-0.8517473212213549,-0.03956967846124548,0.6834762643306038,,
0.9414799999999985,-113.9643937526637,-9.47500959774227,160.9661986882059,-2.5089738368988037,1.1480050086975098,2.267737865447998,-0.3695834614528451,0.21929862204447836,0.7698101082460486,,
0.9510760000000005,-113.43429442235238,-7.6829365385903055,158.5077239349957,-1.663818597793579,1.2503819465637207,2.1006853580474854,0.04010260342368651,0.2897779483273028,0.5192021446581604,,
0.9605719999999991,-112.1319454907706,-8.358795506800769,157.092645368459,-0.6785154938697815,1.1124006509780884,1.423425555229187,0.22862480888719613,0.2993705976512411,-0.021050536016420155,,
0.9700029999999984,-111.37435906517847,-11.612851708538065,157.4638631991266,0.968920886516571,0.7925868630409241,0,0.17892955613957134,0.12497090369241841,-0.6519004603059737,,
0.9795169999999942,-111.66571608544314,-16.68838201316026,159.66172551723184,2.2333459854125977,0.8345666527748108,-0.6508848667144775,0.07460949474174233,-0.10192189906684443,-1.132732007668381,,
0.9892079999999979,-114.01754047613653,-21.991588148709,163.69339165953568,2.6589274406433105,0.7552016377449036,-2.5510659217834473,-0.17080245046234582,-0.3666523741594194,-1.3060658517023216,,
0.9987229999999983,-118.67592565340429,-25.456958092237713,169.55308862953564,2.351755380630493,0.17482870817184448,-3.506096839904785,-0.42660643243403384,-0.7186493118517109,-1.128601839209463,,
1.0082109999999957,-124.04773017595714,-25.792987267011775,175.92462693800448,1.7118233442306519,-0.2168184518814087,-3.9481496810913086,-0.4938882089422122,-0.9971026047271421,-0.6842756517742653,,
1.0177399999999963,-128.97598332140697,-23.276789463681023,-179.32370050039896,0.4695519506931305,-0.2745710015296936,-3.921304225921631,-0.5747595719926365,-1.0224165404430905,-0.1267029098203517,,
1.0272609999999958,-133.44534557780142,-18.64342818715869,-176.81792834599858,-0.6468901634216309,0,-3.6389055252075195,-0.7111883623775367,-0.9677917317928862,0.3909004599504857,,
1.036757999999999,-137.99355983936562,-13.016964204946571,-176.43139027376097,-1.2998216152191162,0.8130434155464172,-1.7384616136550903,-0.8923828496074824,-0.8432205218222987,0.7563537529444129,,
1.0460829999999959,-143.70783598776396,-8.028180298167877,-178.01607398028048,-1.484347939491272,1.7819328308105469,-0.1300569772720337,-1.201346096582662,-0.5638346102625955,0.899577336600436,,
1.0555899999999951,-151.26714330909184,-4.886128344930292,179.16992301216462,-1.2183140516281128,2.2030718326568604,0.7472981214523315,-1.5721286392009992,-0.2250275653907193,0.8314961726485961,,
1.065106,-160.09820732991062,-3.6792171657580894,176.41430439032206,-0.543876051902771,1.6521745920181274,0.2785666584968567,-1.8030183791785697,0.0034640122558666085,0.615928025341205,,
1.0747939999999971,-167.9615172972979,-3.6438876320791094,174.71469142066653,0.4110232889652252,1.0963014364242554,-0.06560438871383667,-1.5885160817960604,0.0750091884635731,0.3237519146829176,,
1.1128299999999953,171.53521838426153,2.7346302437944114,179.3769203600443,0.9895514845848083,-0.2551218867301941,-0.5538552403450012,-0.4138162333354494,-0.585551302482067,-0.3429372133307942,,
1.1223349999999996,171.6533403184736,5.419488862989951,179.5043743774871,0.7190895080566406,-0.6678891777992249,-0.5922303795814514,0.03144257278401998,-0.5442496178928883,-0.07833996947882944,,
1.1318659999999952,174.4231227060801,6.8606195565246475,177.97902654836358,0.2329176962375641,-0.7867587208747864,-0.49537980556488037,0.5995405827461439,-0.34053905099980963,0.30749770332846654,,
1.1413549999999972,179.8485382659584,7.40816434776443,174.75890706564343,-0.33856359124183655,-0.8617453575134277,0.37603694200515747,1.178830016919529,-0.15534762655155634,0.6721516088787323,,
1.1601669999999942,-159.23212219825916,10.179701721027588,163.7548696441519,-0.9319952130317688,0.5527317523956299,2.8715763092041016,2.6398438014515757,-0.199713629674771,0.8726646259971648,,
1.179116999999998,-127.57406767743383,16.051272103416743,157.4699987989058,-0.8817629814147949,1.9384641647338867,5.753217697143555,3.217934154459469,-0.5002833084915044,0.2859142423496055,,
1.1886359999999954,-109.72728884166584,17.014698903390045,158.56642135334678,-0.6221309304237366,2.431929588317871,5.745204448699951,3.421511490111937,-0.5743598782708057,-0.09179632478046512,,
1.198049999999995,-91.4869448841654,15.66148811325983,159.95996812438133,-0.4225112795829773,2.932114362716675,5.769992828369141,3.4926569725978127,-0.5198683008612117,-0.37677794844579876,,
1.207575999999996,-75.21793322858679,12.955759055747137,160.06518666912302,-0.31918323040008545,2.10153865814209,3.465790033340454,3.1952848435557257,-0.34307044457140445,-0.5134732013119195,,
1.2172610000000006,-59.754409801719,10.68720115791451,158.6202493009943,-0.39404773712158203,1.4815928936004639,1.551478624343872,3.116012255392624,-0.12896784091072602,-0.44952220581899754,,
1.2269450000000006,-43.774675521585486,10.122187133807296,156.4015475194091,-0.7211911678314209,0.7398732304573059,0.957414448261261,3.2463124087094526,0.0877993875621575,-0.2278254214435346,,
1.2362699999999975,-24.960094550375814,11.491084376173562,153.41501176349928,-1.291862964630127,0.49576660990715027,2.8752760887145996,3.80082083212933,0.29444104174866165,0.035173047521107094,,
1.2458600000000004,-3.242537189757871,13.23895251726475,151.23103724772903,-1.4726369380950928,2.112224817276001,6.725116729736328,4.333346100848516,0.30509954099748204,0.17892955613957134,,
1.2554779999999965,18.720947747513943,13.149791317607242,152.10038371693935,0.03693990409374237,3.3232927322387695,7.068745136260986,4.365188367354367,-0.006528330789902454,0.16640581952220743,,
1.2649899999999974,40.507926410137145,11.939179072761245,152.1990596853353,1.31927490234375,1.8052172660827637,7.247143268585205,4.365188367354367,-0.21410260366067846,0.13243185316659264,,
1.2744849999999985,62.13547372553086,10.811017025840147,151.49785798500167,1.408063292503357,2.680849075317383,7.53193473815918,4.365188367354367,-0.2617993877991494,0.08593415019361393,,
1.2838399999999979,83.39068949404037,9.872870827673845,149.01896699644024,2.050511360168457,2.9970903396606445,7.877633094787598,4.351465549571511,-0.536788668418714,0.02997702913730719,,
1.293332999999997,102.44894479289736,9.83603891713345,146.1895082083457,1.776110053062439,1.2211837768554688,7.877442836761475,3.9193966362724564,-0.57142879097738,0.031042879062189218,,
1.3028429999999958,118.49564952411845,10.28435555813264,143.7876876367905,1.0271704196929932,0.3699187636375427,4.53058385848999,3.3037350734124726,-0.4882924968365815,0.07687442583211664,,
1.312355999999994,132.38516470983328,11.049066281647033,141.0883554445836,0.40173888206481934,0.16421222686767578,3.3214738368988037,2.887787140227259,-0.5345237373283397,0.17879632489896108,,
1.3219449999999995,143.8374284131246,11.670722849262068,138.40374559893087,-0.32035550475120544,-0.1755094826221466,2.7033796310424805,2.4057565116993596,-0.4569831552931718,0.3048330785162615,,
1.3313749999999942,153.41176372979496,11.624726063457205,136.0090200882636,-1.0724177360534668,-0.4364314675331116,1.5996122360229492,2.020851457576335,-0.24860949497873427,0.4012924967180856,,
1.3408909999999992,162.0839513541127,11.157630724797222,133.69085607593422,-1.2526737451553345,-0.5894762277603149,1.0262449979782104,1.8351271081656408,-0.09752526812670605,0.45205359939059236,,
1.3504669999999948,170.82180276383394,10.12331512314102,131.43628697476782,-1.0717997550964355,-0.3568538427352905,2.275519847869873,1.83992343282761,0.08580091895300367,0.47536906649738686,,
1.3599779999999981,179.23494540967602,8.1835154757095,129.17597263920422,-0.9822478890419006,-0.41337597370147705,2.287076473236084,1.7634487007173238,0.3368085762627225,0.4743032165725048,,
1.369498,-172.3133109406823,5.870043783592409,126.60660646260582,-0.8154087066650391,-0.535753071308136,2.312201976776123,1.7619831570706115,0.48189739728728925,0.4772343038659304,,
1.3789929999999941,-162.91046549210793,3.586295465404475,123.51836423176923,-1.021538496017456,-0.18544548749923706,3.613821268081665,1.9402465570071314,0.567698316240293,0.4994839210478428,,
1.388510999999994,-153.05416197465178,1.3398962943973554,119.88435338336784,-1.9622879028320312,0.3175930082798004,4.1998372077941895,2.0111255770117866,0.6785467084280244,0.5010826959351659,,
1.4074469999999977,-132.91930484657365,-2.011908306250918,112.98655424375725,-4.30291223526001,0.7435603141784668,4.151950359344482,2.1005237394612672,0.6062021447766563,0.2777871366723799,,
1.4169629999999955,-121.61105899068376,-3.4509780570039914,110.98218610215496,-4.440728187561035,0.9989091157913208,4.558248043060303,2.252007660035126,0.4825635534903406,0.008526799399056265,,
1.4264709999999994,-108.8377153524761,-5.969218683691154,109.6854248161529,-3.9704208374023438,1.0020525455474854,4.63264274597168,2.542984689527921,0.43819755036712593,-0.35146401272985045,,
1.4359830000000002,-93.263861451751,-9.6100001941291,109.04512267510934,-2.330981492996216,2.0008692741394043,5.666698932647705,3.1070857622717374,0.2535390508813137,-0.6981317007977318,,
1.445488999999995,-76.92749825576591,-14.090898966123616,108.40103065850519,0.1096002459526062,2.1313514709472656,5.233560562133789,3.2500428834465405,0.03757120985209167,-0.912633998180241,,
1.4549929999999947,-61.13539206244865,-18.20210286819452,106.77847245599024,1.4780935049057007,1.1996575593948364,3.6438088417053223,3.0773751956156508,-0.014788667707738212,-0.8878529874267337,,
1.4646849999999958,-45.329866162590804,-21.20283119610598,105.75370328102224,2.151031494140625,0.9768193364143372,2.5065789222717285,3.1020229751285475,-0.21716692219471428,-0.6036707512050616,,
1.4741969999999966,-30.5090824623397,-23.586804262485163,107.01194874171696,2.4761228561401367,0.7861308455467224,2.1469807624816895,3.0703139398633073,-0.5329249624410166,-0.11484532940603907,,
1.4836979999999969,-17.421822757619907,-25.605962841998448,110.65212257269148,1.9033763408660889,0.210713192820549,2.012444496154785,2.9301546747413196,-0.6519004603059737,0.437664625404685,,
1.493227999999995,-4.661260978476743,-28.018190060331488,116.2909786988042,1.1840670108795166,0.3386780023574829,1.07774019241333,3.0696477836602556,-0.6802787145559578,0.8942480869760259,,
1.5027270000000001,9.223888716155852,-31.49383830680594,122.83270940925608,0.71807461977005,1.1308960914611816,2.815166711807251,3.4345681516917415,-0.6633583469984554,1.163241961768129,,
1.5122280000000003,23.952013033634945,-35.57032924249563,128.7781817445648,0.6926938891410828,0.7855883240699768,5.001150608062744,3.6109663142597186,-0.5118744264245966,1.1837595728221082,,
1.5217579999999984,41.5757716857194,-39.88361727064763,132.68436379039616,1.222424030303955,0.9296439290046692,4.936481952667236,4.012258810977804,-0.4047565089739521,0.9875099554032037,,
1.5312619999999981,62.83266278265647,-43.92805129410708,133.31837352193153,2.2664341926574707,2.237717628479004,6.908716201782227,4.346535993668931,-0.4357993880361413,0.6970658508728497,,
1.5405879999999996,83.9759989364048,-46.37950030747385,132.11193864845663,2.2430949211120605,1.4633448123931885,7.908870220184326,4.068748856996551,-0.31669065893057413,0.4190122517192494,,
1.550106999999997,102.95843641454385,-47.54318385738944,130.23834860399603,1.8420052528381348,0.5946366190910339,7.802013874053955,3.5335589634651607,-0.2540719758437547,0.2440796327979856,,
1.55959,119.67101064541593,-48.463948359814566,128.15849241943786,1.1038885116577148,0.19126427173614502,5.0808844566345215,3.0438009229818666,-0.20477641681796063,0.26886064355149286,,
1.569113999999999,134.13189590346298,-49.983024711963864,125.6295797608573,-0.5701871514320374,-0.1679525375366211,2.8467438220977783,2.5188698349774654,-0.09366156214900868,0.437664625404685,,
1.5787039999999948,147.90130660942555,-51.52065198505796,120.95383192639517,-1.7283542156219482,-0.6153624057769775,1.5196911096572876,2.0384379813368887,-0.14522205226517704,0.6497687604562095,,
1.5882179999999977,161.9579826220259,-52.711733876969255,114.4437423661869,-2.1620194911956787,-0.506767749786377,1.0435160398483276,1.7916937237266979,-0.13509647797879773,0.8215038296028272,,
1.5977139999999963,175.79607321395562,-53.59056987426076,107.33617945227427,-2.550638198852539,-0.05277898907661438,1.0242925882339478,1.6378116408218542,-0.0038637059776973704,0.8666692201697034,,
1.6071509999999947,-171.8727326300225,-53.33583860477299,100.8376005037676,-2.2798354625701904,-0.33258727192878723,-0.6657463908195496,1.4298376742292478,-0.036105666205378875,0.7711424206521511,,
1.6166569999999965,-160.14555408085187,-51.423749138867166,96.35571935856237,-1.5113605260849,-0.18059059977531433,-1.2086396217346191,1.643807046649316,-0.2507411948284984,0.6195252688376819,,
1.6261869999999945,-148.76869105154384,-48.90492509730005,94.3537859312724,-1.5334646701812744,0.21146732568740845,-0.6425871253013611,1.9768851481749512,-0.3563935686324299,0.4447258811570284,,
1.635754999999996,-137.7767207293175,-46.312527530034096,94.88194697968123,-2.2781500816345215,0.39900606870651245,0.9194681644439697,2.2858483951501305,-0.47110566679785876,0.2487427262193445,,
1.6452699999999965,-126.30688881052063,-43.938918070251844,97.92464834666353,-3.2646939754486084,0.8096137642860413,2.562105417251587,2.7349709072472974,-0.650568147899871,0.06022052075583488,,
1.6547799999999953,-113.05697659444306,-42.76543940344081,102.49133741816911,-4.126981258392334,1.7717597484588623,4.977219581604004,3.287081168336191,-0.7078575813622804,-0.13056661579804907,,
1.6642939999999982,-97.54322208970684,-43.95893941243396,106.83363558325979,-4.343181610107422,2.702430248260498,6.442668437957764,3.709557432311307,-0.5606370604879495,-0.40382389028968035,,
1.673718000000001,-80.03738150432831,-47.61880225876002,109.50435095132438,-2.9566566944122314,2.9086785316467285,7.374946117401123,3.8942159317971186,-0.40182542168052654,-0.7330382858376184,,
1.6832329999999942,-60.64737694563524,-52.62203157038314,109.15133303536358,-0.5072380304336548,2.736833095550537,7.140311241149902,3.832929561116402,-0.30736447208785633,-0.9680581942741068,,
1.692931999999999,-40.838756629351224,-57.27943803233414,106.02797184951153,2.2215921878814697,1.5554122924804688,4.912973880767822,3.4589494687234184,-0.3246845333671894,-0.957666157506507,,
1.7024309999999971,-22.427054438565794,-60.28071575269125,103.23961578233485,3.9749114513397217,0.694206178188324,3.0819830894470215,3.215402760887874,-0.37264777998688087,-0.568231241202734,,
1.7119479999999996,-9.302365449019936,-62.23424443319881,106.01063486208098,4.026103973388672,0.29343628883361816,1.1770669221878052,3.121474736257645,-0.4621791736769717,0.14522205226517704,,
1.721457000000001,-4.3463411868797115,-64.9859016514673,118.16509791741795,3.3196070194244385,0.37388715147972107,0.5497922897338867,3.1790306322012745,-0.6864073516240293,1.0054961728855882,,
1.7309649999999976,-8.511965792803336,-67.58589957279793,141.17465150134078,1.7312180995941162,0.9223890900611877,1.1555275917053223,3.393532929583784,-0.728108729935039,1.7749065874098058,,
1.7402909999999991,-17.235903526907734,-67.9706412566277,171.2932025616956,-0.43901729583740234,2.122664213180542,2.8950767517089844,3.8485176162678014,-0.5900811646628157,2.189522208188917,,
1.749803,-22.330235654129716,-67.23441630236383,-160.36429910305182,-1.720001220703125,3.2209224700927734,6.522672176361084,4.307366008929517,-0.6155283316193743,2.0987917333333335,,
1.7593169999999958,-21.36852185764447,-67.85826459339373,-138.34529421315372,-1.467715859413147,3.42887544631958,7.631775856018066,4.365188367354367,-0.7671454834338435,1.5474808596881018,,
1.7688229999999976,-12.769240476901937,-71.21466791143123,-124.28582786227646,0.13513803482055664,4.520748138427734,7.677016735076904,4.365188367354367,-0.9434104147612097,0.7422312414397259,,
1.7783329999999964,9.06318719979724,-75.86413026463467,-124.34419877769936,1.340933918952942,3.934105634689331,7.749931812286377,4.365188367354367,-0.9479402769419584,-0.0386370597769737,,
1.7878509999999963,47.77298617420366,-77.75952808461311,-142.26047786051535,1.4021947383880615,2.3348114490509033,7.74271297454834,4.2620673871220305,-0.7335712108000594,-0.5461148552614319,,
1.797345,81.13529476021799,-75.6969341112027,-156.16200159925725,0.6052587032318115,1.5435433387756348,6.747124195098877,3.9760199135318146,-0.4116845334856854,-0.6529663102308556,,
1.806871000000001,100.24486874821369,-73.55114534153967,-157.8078851610744,-0.5155074596405029,0.6000924110412598,5.006500244140625,3.515173052260946,-0.10458652387904951,-0.43526646307370037,,
1.8163750000000007,113.85542525010516,-73.73202043330885,-156.2922451411241,-1.0778405666351318,-0.4535008668899536,2.9678351879119873,3.023549774409108,0.08087136305042428,0.004663093421358896,,
1.8354029999999995,158.94851217232417,-81.35386028083548,-174.27022317304383,-1.30147123336792,0,2.1023807525634766,2.6670229745360676,0.36318836190355286,1.0333415021731311,,
1.8448959999999985,-140.44627784536885,-81.8347912838231,137.78216395885184,-1.1968023777008057,0.3211309313774109,1.9771897792816162,2.629451764683976,0.2948407354704925,1.3276493126811826,,
1.863901999999996,-90.16589691922856,-69.79005369936297,116.2675299990985,-1.6550873517990112,1.639808177947998,4.8375959396362305,3.0463323165534613,-0.1901209803508327,1.245978562187097,,
1.8734409999999997,-80.43886763555913,-65.49065166169231,121.36107136354602,-2.3168232440948486,1.5631483793258667,5.8639912605285645,3.007029100573437,-0.3738468611523732,0.890117918517108,,
1.8829379999999958,-71.02644233781083,-63.937623947230705,127.3574185179033,-2.7954416275024414,1.6957066059112549,6.385659217834473,3.059255746892656,-0.4708392043166383,0.43313476322393624,,
1.8924489999999992,-60.582520735402674,-64.99837680284112,132.11796752346646,-2.3481173515319824,1.9858342409133911,6.982650279998779,3.0664502338856097,-0.5218667694703656,-0.009059724361497283,,
1.9019539999999964,-48.762113426044515,-67.49009995856362,133.2686995001249,-1.3503515720367432,1.424896478652954,6.21906042098999,2.7124548275841645,-0.4227427264563364,-0.32654977073573294,,
1.9114809999999949,-36.28944484658322,-69.84191738853852,131.10898012846934,-0.46712014079093933,0.6436219811439514,4.33194637298584,2.2001807074377373,-0.27885298659726193,-0.4114180710044648,,
1.921168999999999,-28.261210267849545,-71.60996589078499,130.97889536792374,0.5960502624511719,-0.03486722707748413,3.4685757160186768,1.6307503850695109,-0.3142924965995896,-0.18945482414778142,,
1.9306699999999992,-30.573471180697304,-72.57046201103708,138.84943398639166,1.2213910818099976,-0.6328680515289307,1.4989900588989258,1.030143952398485,-0.4146156207791109,0.31868912753972795,,
1.940179999999998,-44.58564728842645,-71.7580362635285,157.15970677704965,1.1566821336746216,-0.46691930294036865,0.5025426149368286,0.6409754985759327,-0.5561071983072008,0.966059725664953,,
1.9496749999999992,-63.47925473474904,-67.60659697727066,179.43761229365236,0.8402360677719116,-0.048105061054229736,0.10956592857837677,0.34413629449628647,-0.7575528341099053,1.5454823910789484,,
1.9591999999999956,-77.08608461168649,-59.91419367724345,-164.1373013015092,0.20097988843917847,0.22262218594551086,-0.5182569026947021,0.1726676878308894,-0.8304303227237142,1.909736602907383,,
1.9685330000000008,-83.40585301694517,-50.594818799792584,-154.27159537834223,-0.664605975151062,0.3241139352321625,-2.0316989421844482,0.30669831588480506,-0.7626156212530949,2.011791733214838,,
1.978037999999998,-83.9490841564053,-41.52119891552412,-147.55311987361924,-1.5278956890106201,0.5129697918891907,-2.4820497035980225,0.8175068923845195,-0.6916033700078293,1.8962802476057472,,
1.987634,-79.50008300960924,-33.94679038897115,-142.01695052495876,-2.679774522781372,0.6836564540863037,-1.2733004093170166,1.542018378823082,-0.6193920375970716,1.6158284861211623,,
1.9970629999999971,-69.91431975548494,-29.29861432662944,-136.85501409352497,-5.358150959014893,1.4666190147399902,2.628533124923706,2.4374655469646003,-0.5704961722931083,1.1138131715017248,,
2.006563,-54.99838831875024,-29.627138123584952,-134.26395973730988,-5.981439590454102,1.142465591430664,4.524643421173096,3.212338442353838,-0.38663706025095756,0.11617764181214163,,
2.0160829999999947,-33.21127736699553,-32.29859283203167,-137.95257840438197,-2.9858145713806152,2.5367443561553955,6.42346715927124,3.9257917358217487,0.11724349173702366,-0.9098361421274256,,
2.025774999999996,-7.921378845048563,-32.09069840201737,-145.6233250563894,-0.7979679703712463,2.5367517471313477,7.146517753601074,4.157347632002371,0.5361225122156626,-1.3460352238853979,,
2.035288999999999,15.32870023729387,-29.106070514059162,-152.60724155393095,3.316054344177246,1.3852773904800415,7.081027030944824,3.8744977081868006,0.5006830022133352,-1.3690842285109717,,
2.044785999999995,34.68209639846235,-24.44904459591631,-155.32712453902607,5.641696453094482,0.1878836750984192,5.554681301116943,3.594312409183437,0.5967427266933284,-0.9147656980300051,,
2.0542899999999946,52.343734357596645,-22.411174980870733,-153.34019677844196,4.629278659820557,0.27215486764907837,2.9237072467803955,3.6324165439979694,0.4278055135995261,-0.13709494658795152,,
2.063803,70.20829454805728,-26.46264373427369,-152.8049837278522,3.6752891540527344,0.4689089059829712,3.1863462924957275,3.6270872943735597,-0.3172235838930152,0.7564869841850231,,
2.073312999999999,88.25537451163014,-34.28107977133824,-155.0379725648439,1.098370909690857,0.8272086381912231,3.8342201709747314,3.388603373681204,-0.6857411954209782,1.4659433404346265,,
2.082468999999996,107.76151658808269,-41.991474538054625,-162.04583174452753,-1.6303987503051758,0.9050469398498535,2.610631227493286,3.036872898470133,-0.8927825433293132,1.6803124065765251,,
2.0919699999999963,130.92694733126748,-45.19687389476595,-174.16472039238775,-2.282620429992676,1.1092486381530762,3.1500234603881836,2.9618637100065603,-1.232522206885461,1.416381318927612,,
2.1016349999999946,153.48212244929505,-43.28127827906238,176.41608232248697,-2.377739906311035,1.3585853576660156,3.2478013038635254,3.201813174345628,-1.1451225130451346,0.8304303227237142,,
2.120660000000001,-167.04515519525108,-35.75156076641613,177.79411508813988,0.08915174007415771,2.6839048862457275,8.304627418518066,4.284317004303943,-0.7672787146744539,-0.5379877495842063,,
2.1301739999999967,-148.66386727404108,-35.12689482277367,-176.35009519390175,1.6925742626190186,2.7462542057037354,8.689330101013184,4.365188367354367,-0.49029096544573536,-0.8474839215218267,,
2.139522999999997,-129.32518572028593,-37.21120178053612,-172.22479926300224,2.391791820526123,3.350313663482666,8.495711326599121,4.365188367354367,-0.13509647797879773,-0.7864640133223304,,
2.149218999999995,-107.9948484539809,-38.93761621633511,-171.51600230342908,2.640864372253418,3.201476573944092,8.231317520141602,4.365188367354367,0.05649004601874777,-0.3639877493472144,,
2.1587359999999975,-85.00664669627494,-37.471821174563445,-173.48893696796773,1.5070916414260864,2.5435259342193604,7.920729160308838,4.365188367354367,0.2651301688144058,0.3237519146829176,,
2.168227999999999,-63.632275742634775,-32.07186202821038,-173.31650727371954,-0.34848546981811523,2.531641721725464,6.882922172546387,4.30350230295182,0.25473813204680595,1.0498621760088027,,
2.1777429999999995,-46.33510267874041,-25.34949024384111,-168.35422393886202,-1.9277746677398682,2.608431339263916,4.922911643981934,3.9425788721386414,0.04636447173236845,1.6047702931505115,,
2.1872469999999993,-31.78753252775842,-19.745508533506605,-160.7055016185572,-3.7479963302612305,2.4058408737182617,2.8399736881256104,3.5015834657186997,-0.03344104139317379,1.8064823914344363,,
2.1967519999999965,-17.16455603266514,-16.899890920216095,-154.028645284959,-6.8228325843811035,1.7475993633270264,3.3072502613067627,3.3519647825133845,-0.01958499236970736,1.390800920730443,,
2.206444999999995,-1.4133858825662209,-15.183997148050054,-152.41931999386694,-5.011875152587891,1.2740612030029297,4.469573974609375,3.2497764209653193,0.2783200616348209,0.3573261873167016,,
2.215966999999999,16.587401325574653,-11.415680522603095,-153.87247817915923,-4.769515037536621,0.8501265645027161,6.710953712463379,3.543151612789099,0.7015957130535985,-0.38677029149156783,,
2.2254699999999943,35.64493857888338,-6.5257215194773455,-156.56034928468094,-2.557068347930908,1.7504701614379883,7.183387279510498,3.736203680433358,0.6360459426733532,-0.9172970916016,,
2.2349789999999956,50.77330585638363,-0.8683999980518882,-158.82200483925706,0.07073172181844711,0.5740132331848145,7.282814979553223,3.004364475761231,0.5057457893565248,-1.1130137840580634,,
2.244302999999995,61.736905951283525,3.8451770281403808,-160.4512164705752,1.5779104232788086,-0.819275438785553,5.838626861572266,2.209640125521065,0.24168147046700106,-0.9723215939736349,,
2.253822999999997,70.0730034989583,5.796734524279555,-162.29697038829065,1.163866400718689,-1.1490731239318848,3.568117141723633,1.7072251171797967,-0.18852220546350962,-0.5124073513870375,,
2.2633399999999995,75.10147434492214,4.814618195705059,-164.68486820436303,0,-1.4421956539154053,3.869865655899048,1.0582557441672487,-0.5249310880044014,0.040235834664296755,,
2.272843999999999,77.10287500153181,1.7846987455055758,-167.2256003662841,-1.609755277633667,-1.6292016506195068,2.283789873123169,0.43726493168285413,-0.6504349166592609,0.4619127111957511,,
2.2823530000000005,77.66957119359581,-2.0057516601418954,-169.61158161432826,-2.1216888427734375,-1.1808116436004639,1.7747204303741455,0.11990811654922875,-0.6436401233881379,0.6312496180113842,,
2.2918579999999977,77.18858609194888,-5.186051174345935,-170.69502098716873,-1.7239726781845093,-0.7078434228897095,1.0113918781280518,-0.10245482402928546,-0.3615895870162298,0.5694303223682262,,
2.3013739999999956,75.87044872947213,-7.064641069979768,-170.82003567630488,-1.172924518585205,-0.42485833168029785,-0.1348751187324524,-0.2591347629869443,-0.1235053600457056,0.35506125622632734,,
2.3108959999999996,73.98264007801119,-7.728577404503405,-171.92548700064177,0.45135971903800964,-0.448106050491333,-0.7601758241653442,-0.39902756562771124,-0.2582021443026726,0.06634915782390657,,
2.320383999999997,71.9757841479114,-7.40486049513171,-173.9476927354006,1.9524366855621338,-0.242723286151886,-1.0507686138153076,-0.447656968450454,-0.37651148596457823,-0.18439203700459178,,
2.329901999999997,69.59997702387045,-6.635739127054466,-176.76869433075987,2.3427398204803467,-0.2561078667640686,-1.624772310256958,-0.5371883621405448,-0.4904241966863455,-0.3348101076535687,,
2.3394130000000004,67.42608256556407,-6.65492939299071,178.52395085789635,2.578355312347412,-0.47992515563964844,-2.113908290863037,-0.5366554371781037,-0.8842557439302569,-0.3442695257368968,,
2.3489179999999976,65.73190819480747,-7.868739521169753,172.95538100538073,2.0954480171203613,-0.5926908254623413,-0.8194730281829834,-0.47243797920396124,-1.1231393583444427,-0.22169678437546295,,
2.3584559999999968,63.71167218707163,-10.004027866307442,168.00379937516735,0.6873536109924316,-0.7570512294769287,-1.0285634994506836,-0.5507779486827907,-1.07983920514611,-0.036771822408430146,,
2.3679360000000003,60.92822316288933,-12.922146870845411,163.66610458193554,-1.22818124294281,-0.9084960222244263,-1.1065129041671753,-0.7221133241075777,-1.036938745669608,0.1168437980151929,,
2.3774429999999995,57.52660517600259,-16.132925886542793,159.8175643482259,-2.4877827167510986,-0.7450369000434875,-1.6274068355560303,-0.866535988929093,-0.9816477808163526,0.16560643207854592,,
2.3869529999999983,52.63311877309063,-18.31140402865834,157.29197937930422,-4.175490379333496,-0.4722244143486023,-1.056112289428711,-1.12180704593834,-0.6576294036522146,0.07620826962906538,,
2.396460999999995,45.00589774686069,-17.920202940021436,156.30795938206657,-3.943788766860962,0.1193842887878418,-1.739972710609436,-1.5809219010812758,-0.1011225116231829,-0.18732312429801737,,
2.405971000000001,35.10729301077437,-16.387841698875878,155.78908894715127,-1.9152379035949707,0.6260310411453247,-0.28194594383239746,-2.004996939943715,0.1594777950104742,-0.2787197553566517,,
2.415664999999997,22.862607087538336,-13.679821406014685,156.25912929685677,0.2009892463684082,1.8960812091827393,2.359177589416504,-2.419346098241605,0.5076110267250684,-0.18852220546350962,,
2.434673999999994,-10.56997904542894,-11.960771457562393,157.93616090446196,4.049332141876221,2.547966718673706,3.598428249359131,-3.5792572789944783,-0.03397396635561481,0.1965160799001249,,
2.4535239999999945,-42.53147324017278,-14.500066896369411,161.99115180697223,0.8715237379074097,2.1926517486572266,0.2362285852432251,-2.9278897436509452,-0.6536324664339069,0.1433568148966335,,
2.463130999999997,-56.18576619811935,-18.40819091219008,165.91999068294092,-0.47512567043304443,0.8293353319168091,-1.6623610258102417,-2.501549773698132,-1.0958269540193406,-0.10725114869125461,,
2.4820549999999955,-68.4020363190206,-24.352172149969896,173.68900722141888,-2.8450357913970947,0.30880528688430786,-3.9906792640686035,-0.4306033696523414,-0.857609495808206,-0.1879892805010686,,
2.4915710000000004,-68.78484863365243,-25.786479043946454,177.06142433191016,-2.346039056777954,-0.3815736770629883,-3.8608815670013428,0.21690045971349378,-0.6858744266615884,-0.04902909654457353,,
2.501066999999999,-63.84906804414845,-25.465348035313976,177.96144313901996,-2.6659934520721436,-0.4237191677093506,-3.243420124053955,1.073577336837428,-0.13469678425696696,0.11924196034617748,,
2.510670999999995,-53.61155514978171,-24.398456128624495,177.50658991295742,-2.345327615737915,0.7384989261627197,-0.893078088760376,2.0187197577265708,0.17000306301868434,0.13496324673818746,,
2.5201159999999945,-41.604727258193236,-24.58705162098093,177.34828609088794,-0.6366631984710693,1.0554388761520386,0.2111591100692749,2.398295562225185,-0.015854517632620243,-0.05235987755982988,,
2.529782999999995,-28.773366787457434,-26.622778698445302,177.04531910893093,1.5207085609436035,0.7343450784683228,1.4670708179473877,2.5500459452802646,-0.31389280287775884,-0.28511485490594396,,
2.5393979999999985,-14.643642307625518,-29.108640928230805,175.5564523904559,2.359534740447998,0.9567856788635254,2.750030994415283,2.696600309951544,-0.3774441046488501,-0.4348667693518695,,
2.5488029999999995,-1.5864379820584493,-32.231719285910565,173.39014704193602,2.2880120277404785,0.7817712426185608,3.3685593605041504,2.3996278746312876,-0.5790229716921647,-0.46337825484246403,,
2.558308999999994,8.62149952048212,-36.07474798697608,171.19601531000015,2.067570686340332,-0.13751214742660522,1.4164161682128906,1.8036845353816207,-0.8027182246767812,-0.3209540586301023,,
2.567822999999997,16.588174063415558,-39.67689204090013,169.73199839228252,0.04643213748931885,-0.5681654214859009,0.8615676164627075,1.4219770310332427,-0.7664793272307922,-0.07341041357625003,,
2.577168999999998,22.63196709070284,-43.63502962036682,168.84923988433778,-1.6055700778961182,-0.3397534489631653,-0.061900556087493896,1.0995574287564276,-0.8028514559173915,0.13669525286612078,,
2.586735999999995,25.808115348911286,-47.09792070206002,168.39522555005522,-2.4258992671966553,-0.32589465379714966,-0.8787819147109985,0.5784900467297235,-0.6702863715101887,0.22129709065363218,,
2.596255999999997,26.208513792268516,-48.76576561231846,168.85373794114923,-2.7796826362609863,-0.03709810972213745,-1.5161070823669434,0.1557473202733871,-0.2848483924247234,0.1967825423813454,,
2.6056799999999996,24.10063336807006,-48.59628263594188,169.89750701590276,-2.2853376865386963,0.8447749018669128,-0.7683824300765991,-0.25766921934023157,0.07767381327577817,0.1055191425633213,,
2.6151899999999983,18.798503114310865,-47.20846821607905,170.73879085456434,-1.2137993574142456,1.2058056592941284,-0.6921151876449585,-0.9291546720159125,0.28831240468058994,-0.0014655436467127957,,
2.6248739999999984,10.884823013484958,-45.437459158455354,171.17148482072477,0.24592649936676025,2.035435199737549,1.1677982807159424,-1.5143062807761487,0.34666768806788134,-0.03797090357392244,,
2.6343889999999988,-0.6578493325921813,-43.758654909709676,171.4612650098357,1.5860979557037354,2.2982325553894043,1.4193952083587646,-2.2627993905245565,0.3273491581793945,0.006261868308681946,,
2.643899999999995,-14.666215224635446,-42.7083197497049,172.27607730063755,2.2841179370880127,2.0977888107299805,1.5168657302856445,-2.685542116980893,0.18132771847055595,0.1412251150468694,,
2.653411999999996,-29.893178582028607,-42.34972741570816,174.3909429264601,2.625450372695923,2.473809003829956,2.437605619430542,-2.7549555933388357,-0.06368453301170149,0.31176110302799476,,
2.6629159999999956,-46.8235232688856,-42.030213271546835,178.06566320444733,2.515390157699585,2.5968942642211914,2.601797580718994,-2.887653908986649,-0.30056967881673335,0.46337825484246403,,
2.6722509999999957,-64.53362541975856,-41.087680092339056,-176.76506077219503,2.1936635971069336,1.9939213991165161,1.3229517936706543,-2.8504823928563883,-0.546248086502042,0.5888820834973233,,
2.681751999999996,-80.81486320830126,-38.91721190077223,-170.67949830308532,1.8693687915802002,1.6969759464263916,0.5114535689353943,-2.466909651139466,-0.7747396641486279,0.6886722827144038,,
2.7007739999999956,-106.41030961644825,-30.634979198843645,-159.32888761835036,0.33636635541915894,1.0688755512237549,-2.701239585876465,-1.7030949487208789,-1.0734441055968178,0.752223584485495,,
2.7102859999999964,-114.42007500997802,-25.26758799723739,-154.56243892712857,-0.834094762802124,1.079118013381958,-2.3320693969726562,-1.146854519173068,-1.1770980107915954,0.70772435012167,,
2.719787999999994,-119.41258417108217,-19.98873101240376,-150.69320344030626,-2.096449375152588,0.8471628427505493,-4.315256118774414,-0.6929356824139319,-1.1279356830064118,0.6133966317696101,,
2.729309999999998,-120.83552259699164,-15.351332352287914,-147.40166914257165,-4.268052577972412,1.0124558210372925,-2.569356679916382,-0.07714088831333717,-1.0208177655557673,0.4826967847309508,,
2.7388229999999965,-119.45868985471556,-12.861082656549462,-144.41223133363337,-7.075089931488037,1.8409569263458252,-0.27033254504203796,0.42887136352440813,-0.7640811648998077,0.1345635530163567,,
2.7483239999999967,-118.14337223096024,-15.677778350914869,-142.04108092735947,-5.9166388511657715,1.4999431371688843,-0.39447876811027527,0.3877029101758396,-0.14322358365602322,-0.7207810117014749,,
2.7578399999999945,-115.9399151043275,-21.613844108143045,-141.04214667347077,-2.2017760276794434,-0.15170276165008545,-0.5912665128707886,0.512140888905817,0.35985758088829645,-1.1497856064664933,,
2.777026999999997,-102.8162811245095,-31.66232755390396,-146.92815911852068,1.9973005056381226,-0.21048051118850708,0.4455220401287079,1.0234823903679724,0.8349601849044627,-0.5639678415032059,,
2.7865579999999994,-95.63887063905555,-31.701372991314283,-149.42733203035888,4.005816459655762,-0.47849470376968384,-0.4248701333999634,1.150584993910155,0.4593813176241563,0.06368453301170149,,
2.796053999999998,-86.98994872876686,-28.26472567692813,-150.7616257320199,3.379444122314453,0.4322960078716278,0.24316340684890747,1.5707963267948966,0.2632649314458622,0.6901378263611165,,
2.805384999999994,-79.47567376653608,-23.16295861528874,-148.50992786120952,1.9466006755828857,1.0742359161376953,0.07927186787128448,1.6813782565014075,-0.2432802453543241,1.051993875858567,,
2.814889000000001,-73.4419596460163,-18.668365175890294,-143.2434739652869,0.6324766874313354,1.4292893409729004,1.3580031394958496,1.5670658520578093,-0.6991975507226139,1.0863675359360123,,
2.824397999999995,-68.15985085417287,-15.927228459095462,-138.52274711152165,-0.8897922039031982,1.6014196872711182,1.445693016052246,1.3313797874182698,-0.6415084235383739,0.7955237376838276,,
2.833909999999996,-63.363950051166114,-15.49644958148019,-135.88379763662527,-1.6387104988098145,1.432347059249878,0.45664846897125244,1.0998238912376481,-0.4052894339363931,0.2668621749423391,,
2.843426000000001,-58.69917719147464,-17.029004892675196,-135.733527963468,-0.5844442844390869,1.2474160194396973,0.7413251399993896,0.9379479338961892,-0.15015160816775644,-0.27911944907848246,,
2.8531149999999954,-54.197860456336414,-18.771085830867094,-138.59081665607627,0.8669707775115967,0.7986592650413513,0.09835940599441528,0.7167840744831674,0.2900444108085233,-0.6235222060559895,,
2.862620999999997,-50.40420910386865,-19.747606218968873,-142.30526307140624,2.3065848350524902,0.7547789812088013,0.7806873917579651,0.5010826959351659,0.4703062793541972,-0.6244548247402613,,
2.8721419999999966,-48.99711476552139,-19.67953897547408,-143.99261668850366,4.3285112380981445,0.7101202607154846,0.8642997145652771,0.15707963267948966,0.2781868303942107,-0.23288820858672427,,
2.881450000000001,-49.561269795863076,-17.298978624366598,-142.992956702242,5.001337051391602,0.4904928207397461,0.5658321380615234,-0.05342572748471192,0.18119448722994566,0.4579157739774436,,
2.8909710000000004,-49.90050826017594,-12.541723486919723,-138.97734892680717,4.702371120452881,1.0912156105041504,0.3987547755241394,0.14082542132503864,0.027445635565712355,1.2097396647411078,,
2.900478999999997,-49.97865308266701,-6.096909687510404,-132.8098143484886,3.7650904655456543,1.8216673135757446,0.4405256509780884,0.19025421159144296,-0.10751761117247512,1.7599846884614576,,
2.9099939999999975,-50.12513039339675,0.998423509695021,-126.02423279136907,2.3244452476501465,1.807271957397461,-0.3245307207107544,0.0386370597769737,-0.14175804000931042,1.9549019934742593,,
2.919514999999997,-49.51246268065266,7.414452162883625,-119.60009445169409,1.0089133977890015,1.7328858375549316,0.048635244369506836,0.035439510002327604,-0.16427411967244335,1.8035513041410107,,
2.929026999999998,-48.430003899764486,12.43641717080861,-114.45440896134204,0,1.4006282091140747,-0.39687204360961914,0.046231240491758196,-0.11790964794007493,1.419445637461648,,
2.938527999999998,-47.02445120093459,15.934449959339634,-110.90959076563551,-1.0996625423431396,1.1832489967346191,-0.8623883724212646,0.11471209816542884,-0.04996171522884531,0.976052068710722,,
2.9480310000000003,-45.981182418133955,17.765091029238675,-108.43915737389625,-2.599207878112793,0.9725096225738525,0.6887978911399841,0.07287748861380904,-0.1028545177511162,0.5867503836475593,,
2.9575439999999986,-45.23017741579103,18.24836863124747,-106.70365785026951,-4.48804235458374,0.2687218487262726,-0.5121771097183228,0.05036140895067608,-0.18012863730506365,0.29537366043293345,,
2.9767399999999995,-43.35948057061178,18.524834010726646,-111.513602912246,-4.3700032234191895,-0.629744291305542,-0.06156080961227417,0.35439510002327607,0.6337810115829791,-0.591813170790749,,
2.9862469999999988,-41.41658949715593,19.762869325705967,-116.71686967788116,-2.9941701889038086,0,1.6007976531982422,0.757952527831736,0.8739969384032673,-0.6078009196639794,,
2.995756,-39.71257320285781,20.82548983021018,-121.50600604009021,-1.7801989316940308,0,1.6173127889633179,0.7027947942190907,0.7731408892613049,-0.5947442580841746,,
3.005268000000001,-38.09387045038501,21.2841461313603,-125.21718154641222,-0.305800199508667,-0.20372217893600464,0.4403330087661743,0.6299173056052817,0.5467810114644831,-0.5507779486827907,,
3.0243049999999982,-33.97580952899743,20.83704740736508,-131.25182735263724,0.7348976135253906,-0.07256859540939331,-0.10817152261734009,0.6276523745149074,0.21783307839776553,-0.551444104885842,,
3.0338259999999977,-31.432665483235606,19.290841220399084,-133.68481826111673,0.8920609951019287,-0.03700888156890869,-0.26707208156585693,0.6978652383165114,-0.0038637059776973704,-0.5900811646628157,,
3.043313999999995,-28.96937734923555,17.27681763455695,-135.97556810457294,0.6334730386734009,0.23948398232460022,0.8367359042167664,0.6540321601557377,-0.1264364473391312,-0.6093996945513025,,
3.0528249999999986,-27.600262285331905,15.50471428735713,-138.36815307833743,0.5093733072280884,-0.27090930938720703,0.044220685958862305,0.42287595769694675,-0.09632618696121376,-0.5963430329714977,,
3.0623329999999953,-26.034436359665147,14.669132193931526,-140.86197327455486,0.5148119926452637,-0.09608089923858643,-0.27314305305480957,0.45591730536828967,0.06501684541780403,-0.5274624815759962,,
3.0718399999999946,-25.3757232407019,14.73785280362028,-143.34330420520476,1.0056800842285156,0.3085671365261078,0.6787877082824707,0.26992649347637493,0.21663399723227325,-0.4475237372098438,,
3.0811769999999967,-27.026152823181434,15.608050778905502,-145.7598324211035,1.9472947120666504,0,0.3881648778915405,-0.1926523739224275,0.3567932623542606,-0.35919142468524523,,
3.0906769999999995,-29.541845730495638,17.086776522288357,-147.9626244794032,2.8241078853607178,0.2748868465423584,1.1716539859771729,-0.3709157738589476,0.4513874431875411,-0.24074885178272928,,
3.1001929999999973,-33.30483716442163,18.597399951626446,-149.766362114087,3.5394814014434814,1.0879766941070557,2.0182831287384033,-0.6376447175606763,0.4218101077720647,-0.1342970905351362,,
3.109698999999999,-39.12549009420473,19.767610588776087,-151.09326541994582,3.872067451477051,1.3153560161590576,1.8651463985443115,-1.0749096492435306,0.31842266505850747,-0.059021439590342596,,
3.1192099999999954,-45.36674966042245,20.405594867266245,-151.86515511468122,3.69781756401062,1.7042186260223389,2.383486032485962,-1.1954839219958104,0.168803981853192,-0.013589586542245922,,
3.1287169999999946,-52.227119177413556,20.380185210179533,-151.98416220307953,3.2481977939605713,2.0127038955688477,2.4655821323394775,-1.3673522223830386,-0.017453292519943295,-0.006661562030512708,,
3.1382270000000005,-59.24075733242449,19.90312195451575,-151.44658060875153,2.365152359008789,1.213533639907837,0.6007909774780273,-1.445825423102478,-0.17599846884614576,-0.00866003063966652,,
3.147724999999994,-64.28592540453197,19.387302566230947,-150.2975098229436,1.3411455154418945,1.4030381441116333,1.2601946592330933,-1.0910306293573713,-0.2787197553566517,0.02118376725703041,,
3.157242999999994,-68.91444739629068,19.339245930407156,-149.14765436301937,0.4268181622028351,1.6421711444854736,1.244123935699463,-1.0021653918703317,-0.23208882114306273,0.07993874436615249,,
3.166750999999998,-73.82895384063508,20.157551656149025,-148.62025037425207,-0.4452153742313385,1.0316628217697144,-0.33437564969062805,-1.0165543658562393,-0.06501684541780403,0.1859908118919148,,
3.1762659999999983,-77.33562486152233,21.910387240343567,-148.36681097535006,-1.3504494428634644,1.0630669593811035,-0.7816557288169861,-0.7142526809115726,0.02624655440022007,0.3477335379927633,,
3.1857709999999955,-80.21827342100691,24.39575430462298,-148.26633949871672,-2.347323417663574,1.1736819744110107,-1.2892975807189941,-0.5775574280454518,0.06701531402695783,0.4868269531898687,,
3.1952789999999993,-82.62049218308309,27.30142272215222,-148.75704270582938,-4.0065155029296875,0.13045471906661987,-3.0484488010406494,-0.4306033696523414,0.1625421135445101,0.5571730482320828,,
3.2144809999999993,-86.92379710741001,24.97877675130764,-155.40829436374463,-3.3572654724121094,-0.6784058809280396,-2.0491721630096436,-0.27418989317590303,0.738633997943249,-0.7544885155758692,,
3.2239959999999996,-88.81273376823087,22.116749455564474,-160.60222501040917,-2.5761380195617676,-0.6829639673233032,-3.570343017578125,0.04503215932626591,0.9196952539325844,-0.6125972443259486,,
3.233331999999997,-88.978855679108,21.048979562748965,-163.91233872753307,-1.4969319105148315,0,-2.361931800842285,0.21796630963837582,0.6003399701898052,-0.2304900462557397,,
3.2428290000000004,-90.26209614008694,21.72251696668081,-166.74763965446448,-0.8454856276512146,0.0942491888999939,-2.068258047103882,-0.036771822408430146,0.5322588062379654,0.12630321609852094,,
3.2525189999999995,-92.10909626670676,23.20626042871523,-170.67385323327295,-0.7520145177841187,0.30943989753723145,-1.3933031558990479,-0.05182695259738886,0.7326385921157876,0.30749770332846654,,
3.2618519999999975,-92.83809413108199,24.223599707246148,-173.83460337992224,-0.46467360854148865,1.0284340381622314,-1.1818937063217163,0.12856814718889528,0.5868836148881695,0.22476110290949877,,
3.2809549999999987,-93.08282510072357,20.97729569041039,-176.99624652839543,0.9902121424674988,1.3427737951278687,-0.17643289268016815,0.10298774899172647,0.30270137866649743,-0.5283951002602679,,
3.2904649999999975,-92.30596036582185,16.43335817194373,-177.51588152406805,0.6691598892211914,1.3089972734451294,-0.6160317063331604,0.1938514550879198,0.12243951012082357,-0.9094364484055949,,
3.2999069999999975,-90.61813163881747,10.990230419253203,-176.79841848520977,0.9221590161323547,1.2478052377700806,0.7594545483589172,0.3037672285913795,-0.1532159267017923,-1.0987580413127662,,
3.3094139999999967,-88.96737631119848,5.833692989353429,-176.87189993832422,0.4232361912727356,0.7882357835769653,0.7904717326164246,0.33427718269112766,-0.0386370597769737,-1.0373384393914389,,
3.318912999999995,-87.1381156864049,2.0507517375128614,-177.92351173074306,-0.28214624524116516,0.6723745465278625,1.6198233366012573,0.3859709040479063,0.14295712117480275,-0.7680781021181152,,
3.3284239999999983,-86.01442153493768,0.1466116249290983,-179.1677375493108,0.03769492357969284,0.8582562804222107,2.801670789718628,0.23701837704564216,0.20730781038955545,-0.399960184311983,,
3.337939999999996,-86.16172652352668,0.10233507423075436,178.86749131916423,0.6422861218452454,1.1268333196640015,3.6387155055999756,-0.02118376725703041,0.39223277235658827,-0.041434915829789046,,
3.3474359999999947,-86.89446860042311,1.376754355350047,176.68653590529345,1.5075472593307495,1.235900640487671,4.400820255279541,-0.13336447185086442,0.4593813176241563,0.22209647809729366,,
3.3569549999999992,-86.69099897374726,3.084530832466536,175.3141096357046,2.312274694442749,1.3545920848846436,3.4928345680236816,0.05968759579339386,0.30296784114771796,0.3198882087052203,,
3.366443999999994,-85.40779347192488,4.1689810723824285,174.69147120759396,2.0068883895874023,1.6258703470230103,3.236868143081665,0.2732572744916313,0.14375650861846423,0.20197856076514528,,
3.375971,-84.04553491436093,3.6965730621259167,175.3305159670942,1.2207903861999512,1.238002061843872,2.9970133304595947,0.27139203712308774,-0.14748698335555135,-0.08739969384032674,,
3.3854809999999986,-82.22806982835655,1.5090050441745848,176.88295559277407,0.8593508005142212,0.70231032371521,3.3028039932250977,0.3563935686324299,-0.3883690663788909,-0.40075957175564453,,
3.3949779999999947,-79.84398085005886,-1.6443193139599257,177.5351929231969,0.2602003514766693,0.5630308389663696,3.4337503910064697,0.4848284845807149,-0.27592189930383637,-0.6024716700395694,,
3.4045069999999953,-77.64925517509131,-4.827244101092002,177.20400658874823,-0.2571500241756439,0.2545732855796814,2.0514538288116455,0.4452588061194694,-0.1104486984659007,-0.6351133239890816,,
3.4141890000000004,-75.92378457265012,-7.19862333202561,176.82899215832265,0,0.24009370803833008,2.02475905418396,0.3483996941958146,-0.07913935692249097,-0.4768346101440996,,
3.4237040000000007,-75.70268202967863,-7.882666539415309,176.31325019731767,0.31181126832962036,0.08001315593719482,1.0239622592926025,0.03943644722063524,0.044499234363824886,-0.16041041369474604,,
3.4332139999999995,-76.85101316869596,-6.601805046316022,175.99334683857316,0.2058883160352707,-0.08967727422714233,-0.7034568786621094,-0.23182235866184225,0.12057427275228003,0.2267595715186526,,
3.442541999999996,-78.40263268944302,-3.8792549433295096,176.61900345132153,-0.10571995377540588,0.10894954204559326,-2.3492093086242676,-0.2939081167862207,0.0063950995492922,0.5491791737954677,,
3.452030999999998,-79.65619514925153,-0.5455783393144445,177.8768629470952,-0.6531942486763,0.2892844080924988,-3.4247188568115234,-0.23488667719587808,-0.10312098023233673,0.6926692199327114,,
3.4615559999999945,-79.65176035828341,2.486007408219298,179.25986998108016,-1.3908554315567017,0.07781726121902466,-4.680258274078369,0.0039969372183076245,-0.15334915794240253,0.6379111800418968,,
3.471064999999996,-76.01467625009904,4.186177979978762,-178.77784350507648,-2.2596402168273926,0.11109137535095215,-5.68025016784668,0.7133200622273008,-0.3121607967498255,0.40808728998920857,,
3.4805840000000003,-67.34945297553034,3.6606574891362924,-176.4740804455768,-2.161187171936035,0.6689457893371582,-3.4791958332061768,1.710555898195053,-0.4820306285278996,0.03983614094246599,,
3.490089999999995,-53.97957678456698,0.9332332279131561,-175.73193340347177,-1.9183882474899292,1.3228213787078857,-1.4817492961883545,2.676615623860006,-0.43566615679553106,-0.39449770344696256,,
3.499597999999999,-36.362903412424195,-3.329441389048309,-177.47895512312311,-0.5687706470489502,1.961238145828247,2.078707218170166,3.5272970951564795,-0.42660643243403384,-0.8005865248270173,,
3.509284000000001,-16.039902528806984,-7.3126562717264445,178.14578407265597,1.7334567308425903,2.163358688354492,6.062970161437988,4.005464017706681,-0.4064885151018855,-1.017486984540511,,
3.518788999999998,4.392572661270235,-8.822144895031505,173.45641290658523,2.9971559047698975,1.4266222715377808,6.7090301513671875,3.9706906639074044,-0.22342879050339623,-0.9208943350980768,,
3.5283019999999965,23.482864018479567,-8.77717998367787,170.97905310473377,2.8517754077911377,0.5167896747589111,4.693610191345215,3.75325727923147,-0.12150689143655179,-0.48496171582132513,,
3.5378119999999953,41.64760687296523,-10.097721580025935,171.2240338838106,1.558775544166565,0.5215690732002258,4.1145734786987305,3.652267998848897,-0.2093062789987093,0.17892955613957134,,
3.5566479999999956,71.30437394508863,-20.154809398181087,173.65241788630217,-1.9962035417556763,0.1536198854446411,1.8865737915039062,2.8071822396580552,-0.39609647833428563,1.163241961768129,,
3.566156999999997,84.79268687671214,-26.42044799521621,172.42600425231439,-2.213235378265381,0.41379058361053467,1.478884220123291,2.6081347661863354,-0.4932220527391609,1.1781638607164777,,
3.575671,97.92377243614028,-30.848909722251832,170.21568155678483,-2.0121703147888184,0.4209267497062683,1.3757104873657227,2.422810110497472,-0.3797090357392244,0.8922496183668721,,
3.5851979999999983,110.24008012439734,-32.55351461992438,168.06641932017408,-1.1605461835861206,-0.4236038327217102,0.12350672483444214,2.2468116416513264,-0.28418223622167216,0.41581470194460324,,
3.594882999999996,123.6097194539798,-31.928892791746858,166.56720183859105,0.22751867771148682,-0.46280422806739807,-0.06602349877357483,2.5239326221206553,-0.2952404291923232,-0.0014655436467127957,,
3.6042029999999983,138.27170036251206,-30.566786693375615,166.66363755870046,0.8288072943687439,-0.09777379035949707,0.818530261516571,2.9528039856450623,-0.1783966311771303,-0.2223629405785142,,
3.613538999999996,154.86549280640173,-29.822708624092026,167.82959356404672,0.43670013546943665,0.040463000535964966,1.2709789276123047,3.446958657068496,-0.024914241994117528,-0.256336906934129,,
3.6231889999999964,175.14154673914933,-30.015435437545413,168.9404469479195,-0.5790593028068542,1.772770881652832,4.012567520141602,4.177732011815739,0.07594180714784488,-0.18212710591421744,,
3.6327,-163.4903692158861,-30.446668653982844,169.731359444193,-1.284622311592102,2.8916468620300293,8.242444038391113,4.365188367354367,0.06075344571827589,-0.15068453313019745,,
3.642216999999995,-142.20807215502566,-30.691221046347653,170.68297603117452,-0.49480944871902466,2.7822349071502686,8.668116569519043,4.365188367354367,-0.04316692195772235,-0.17426646271821242,,
3.6516559999999956,-121.07330926519674,-31.039334321246546,171.9141581070118,1.2196872234344482,3.937079429626465,8.371026992797852,4.365188367354367,-0.12417151624875687,-0.19878101099049922,,
3.6612659999999977,-100.1025379454719,-31.521625805950723,173.44676278099132,2.839484930038452,3.5585923194885254,8.094680786132812,4.365188367354367,-0.22449464042827827,-0.18865543670411988,,
3.670769,-79.55887051992931,-31.670215441328534,175.75687003069734,3.9311280250549316,2.2536518573760986,6.379866600036621,4.362523742542162,-0.40808728998920857,-0.0337075038743943,,
3.6802789999999987,-59.60534971070325,-30.75375607894061,179.2621989737908,3.4668121337890625,2.9741101264953613,7.204617977142334,4.365188367354367,-0.513206738830699,0.3786431858143423,,
3.699301999999996,-20.7959295478492,-25.008186325463413,-170.5648688620234,-3.8126513957977295,2.515077829360962,6.404726505279541,4.365188367354367,0.011058192970651094,1.2070750399289027,,
3.708991999999995,-1.7749390836453998,-24.097758972775914,-163.91844155623946,-5.5457258224487305,3.529186964035034,7.059804916381836,4.365188367354367,-0.07034609504221419,1.2249280261706768,,
3.718503999999996,18.137176109186164,-23.94846108490918,-159.3461054095863,-5.725614070892334,4.583786964416504,7.122504711151123,4.365188367354367,0.1377611027910028,0.8233690669713708,,
3.728006999999998,39.59804899006598,-22.839289165751044,-158.57852858984486,-2.592942476272583,2.9949731826782227,7.280891418457031,4.365188367354367,0.2524732009564316,0.011457886692481857,,
3.737643999999996,61.67752899443479,-19.32801203728536,-160.29154215413644,1.5180469751358032,2.2678699493408203,7.543328762054443,4.303102609229989,0.18785604926045837,-0.7558208279819719,,
3.747034999999997,79.7669094256355,-13.308934463916987,-160.63720341152043,3.7016079425811768,1.3842451572418213,7.507288932800293,3.6064364520789702,0.32481776460779965,-1.1692373675955905,,
3.7563479999999956,91.67531101978521,-7.457030347712071,-159.80490042706035,3.3681976795196533,-0.19372540712356567,4.507147789001465,2.419612560722826,0.23968300185784722,-1.163241961768129,,
3.7658579999999944,100.05878135287585,-3.682564273488783,-161.0939091315853,2.8903656005859375,-1.654811143875122,2.8341686725616455,1.6601944892443774,-0.3448024506993378,-0.7310398172284647,,
3.775379000000001,107.07369149120574,-2.620317513931132,-163.3074075631379,0.8321934938430786,-1.3328766822814941,3.2542595863342285,1.3873369084745764,-0.49202297157366864,-0.10791730489430588,,
3.784887999999995,111.0279707993831,-3.6270355242851755,-165.68945062859203,-1.9562151432037354,-1.1486862897872925,1.8077329397201538,0.7730076580206947,-0.39609647833428563,0.3410719759622507,,
3.7943929999999995,113.25547829758023,-5.050011988407318,-168.76948706319604,-2.6080596446990967,-1.0793888568878174,0.5721744298934937,0.4066217463424957,-0.47390352285067405,0.49069065916756605,,
3.8039029999999983,115.5877875854079,-6.568527745475693,-170.23700639266212,-2.3904266357421875,-0.2669610381126404,0.7526248693466187,0.4445926499164181,-0.15215007677691025,0.39276569731902927,,
3.8134099999999975,117.15442409216347,-7.691570503463128,-168.8904028030204,-2.465020179748535,-0.4498826265335083,-0.03667005896568298,0.35452833126388633,0.3278820831418355,0.07767381327577817,,
3.8229359999999986,119.31150280307784,-7.048739489122041,-166.9448125753219,-1.036741018295288,-0.5750085115432739,-0.11021354794502258,0.4892251155208533,0.26779479362661085,-0.3011026037791744,,
3.832431999999997,121.80712816202366,-5.07433485104681,-164.4246485843102,0.9773414134979248,-0.4641358256340027,1.1733238697052002,0.5602373667661187,0.2194318532850886,-0.6004732014304155,,
3.841941999999996,123.85374195756559,-3.0818021207007145,-160.6714030188463,1.4343928098678589,-1.143276333808899,-0.18425166606903076,0.47043951059480743,0.4019586529211368,-0.7464946411392541,,
3.8514569999999964,127.35258169361428,-0.8988700081363311,-157.48356098768105,1.6823079586029053,-1.3694257736206055,-1.1742948293685913,0.7298407360629723,0.2526064321970419,-0.7317059734315158,,
3.860960999999996,132.57443357523158,0.8083623371859343,-154.91195224959893,3.1324284076690674,-1.3094680309295654,-1.3418729305267334,1.0530597257834489,0.16347473222878187,-0.5978085766182104,,
3.8704859999999996,138.94022831441612,0.42298542091037356,-151.84332046431376,3.562950611114502,-1.7084546089172363,-0.33763980865478516,1.2750229726401323,0.47243797920396124,-0.3914333849129268,,
3.8799789999999987,147.67595887396993,-0.5575875024059033,-150.12202655367406,5.270915985107422,-1.4521092176437378,-0.63949054479599,1.756653907446201,0.3519969376922915,-0.1641408884318331,,
3.8895009999999957,159.10507684146424,-1.5991765845174042,-150.27053081608545,5.908123970031738,-0.5029071569442749,1.3091477155685425,2.2950413507522383,0.16174272610084856,0.11524502312786986,,
3.8990109999999945,171.53733538821305,-0.8386727595375087,-152.35897808123633,5.199398517608643,-0.29525312781333923,1.435038685798645,2.487294030952835,-0.2653966312956263,0.3615895870162298,,
3.9085059999999956,-174.31573775228225,3.2389551559250798,-155.1694735575145,4.494861602783203,0.3560614585876465,2.5114173889160156,2.849816236653336,-0.8434869843035191,0.5391868307496985,,
3.918098999999998,-158.13580549343456,9.315657845363946,-156.90838898451693,3.3380260467529297,1.6177425384521484,6.362888336181641,3.2816186874711706,-1.1146125589453864,0.6231225123341587,,
3.927603999999995,-142.056478626776,15.271340649895423,-156.92745477798596,1.1637578010559082,2.197457790374756,6.288843154907227,3.224595716489981,-1.0469310887153773,0.5947442580841746,,
3.9371249999999947,-126.6895481620051,20.251866368602816,-155.0633744048252,-0.37998679280281067,1.6270363330841064,4.567526340484619,2.9679923470746323,-0.9657932631837323,0.4604471675490384,,
3.9465629999999976,-110.43817730890281,23.636760939645804,-152.3546262459394,-1.6254719495773315,1.7739108800888062,4.032871246337891,3.0569908158022816,-0.7798024512918177,0.35066462528618897,,
3.956056999999994,-94.22107946939835,25.064468812556086,-150.635245892461,-3.5716066360473633,1.815195083618164,2.6611528396606445,3.1120153181743166,-0.3802419607016654,0.20797396659260675,,
3.9655659999999955,-79.87541915095622,23.1881956542201,-151.59942072629792,-4.643372535705566,1.1725705862045288,1.8707152605056763,2.9582664665100835,0.1453552835057873,-0.3902343037474344,,
3.9752729999999943,-67.85002089949006,20.53133081677094,-156.89254361540253,-3.432490587234497,-0.11618924140930176,1.7946295738220215,2.8078483958611065,0.787396632006602,-0.7908606442624686,,
3.9847779999999986,-56.23038727758376,21.303142939423935,-164.7535089927309,-4.217543601989746,-0.17076724767684937,2.342803478240967,2.892583464889228,1.3626891289616796,-0.5593047480818469,,
3.9942859999999953,-43.91185954621269,24.538244428051506,-170.49217493800424,-3.0470478534698486,-1.0212013721466064,1.8703176975250244,2.918963250530059,1.2185329266213845,-0.18838897422289938,,
4.003805999999997,-26.657743639110837,29.48998397988084,-172.50739235721596,-2.4601149559020996,0.08651602268218994,2.7535083293914795,3.642941812006179,1.0094931101038958,0.27538897434139537,,
4.013115999999997,-4.451642589415853,33.800751385086535,-171.0284452341413,-2.0234901905059814,2.3798158168792725,5.935463905334473,4.295908122237035,0.7566202154256334,0.47217151672274077,,
4.022801999999999,17.486323966959564,33.95219805093797,-168.26453825045863,0.2379004955291748,1.4582594633102417,5.934456825256348,4.090865242937854,0.07101225124526546,0.4504548245032693,,
4.032319999999999,38.89160012571786,31.716157598732728,-166.58674100079605,1.2438180446624756,1.1729283332824707,5.970568656921387,4.110317004066951,-0.27432312441651335,0.45778254273683333,,
4.041819999999994,59.71282099183362,29.299899773305203,-166.21559444406722,0.25125038623809814,1.856778621673584,6.155529022216797,4.137895870873274,-0.28005206776275426,0.40582235889883417,,
4.051344,76.48889883475292,27.03270866499755,-168.4684935105244,-0.05252039432525635,0.723320484161377,4.7619547843933105,3.5784578915508165,-0.5521102610888933,0.2689938747921031,,
4.0606579999999965,91.71434348458776,25.822640296644302,-171.50804274725812,-0.2454051971435547,0.13116270303726196,3.5161564350128174,3.3259846905943844,-0.5806217465794877,0.18066156226750466,,
4.079676999999997,122.54556833028582,25.70377144968747,-173.84621045939275,-0.3592696189880371,0.14765805006027222,2.831301689147949,3.0508621787342105,-0.1398928026407669,0.01438897398590745,,
4.089269999999999,137.07853579090056,25.32584323903151,-173.57130666922455,0.5934534072875977,-0.4320390224456787,1.8570281267166138,2.8933828523328895,0.07514241970418334,0.021450229738250916,,
4.098777999999996,152.6495234016294,23.381615873243202,-173.1042556798468,1.0893362760543823,-0.025435268878936768,2.125556230545044,3.0860352262553175,0.3567932623542606,0.14988514568653596,,
4.108294000000001,168.27304357471468,20.772657607036813,-174.18766689862017,1.7169225215911865,0.08227437734603882,3.141976833343506,3.216335379572145,0.41474885201972117,0.36039050585073745,,
4.1178059999999945,-175.48259562267648,18.580214615399285,-177.50453772172565,2.249168634414673,0.5255663394927979,4.085943222045898,3.482131704589603,0.3885022976195011,0.6492358354937685,,
4.127305999999997,-157.93914320573361,17.601986292380413,177.2377084868149,1.6148871183395386,1.4374516010284424,4.917691230773926,3.844387447808884,0.4107519148014136,0.9282220533316408,,
4.136817000000001,-139.26559288706,19.269256426927413,171.56157283459882,0.7218810319900513,2.4864847660064697,7.027825832366943,4.102456360870947,0.26672894370172884,1.0948943353350686,,
4.146136999999996,-120.72802521131126,22.894267739761297,167.04465362621877,-0.39614948630332947,2.6450507640838623,7.872469902038574,4.041303221430839,0.16947013805624328,1.0988912725533764,,
4.155586999999997,-102.11174304437988,26.733657114189675,164.3601828805268,-1.4677398204803467,2.5194833278656006,6.887899875640869,3.9583001585306516,0.16267534478512033,0.8931822370511439,,
4.165093999999996,-82.02286850007954,29.23242552930983,163.9926124532972,-1.2945408821105957,3.2505180835723877,7.297255516052246,4.063419607372142,0.035439510002327604,0.5000168460102838,,
4.174779000000001,-63.10725970358155,29.281767566964024,163.90393273569,-0.6288895606994629,2.7438104152679443,7.540622711181641,3.803352225700926,0.006128637068071692,-0.00013323124061025415,,
4.184474999999999,-46.42352739032364,27.373444257728742,162.3721084290019,-0.12311515212059021,1.8840856552124023,5.846317291259766,3.4929234350790335,-0.011591117933092112,-0.4745696790537253,,
4.193970999999998,-30.283777620435632,24.198460073324064,159.80133573926665,0.7263777256011963,2.1199138164520264,4.3300065994262695,3.4616140935356237,-0.22329555926278596,-0.7656799397871308,,
4.203489999999995,-15.789560699193862,21.649704573995862,156.22989023879035,0.6995611190795898,1.1178958415985107,3.7772433757781982,3.1867580441566696,-0.2240949467064475,-0.8132434926849914,,
4.213000000000001,-1.0689517367053947,20.884877945711924,152.83072225652646,-0.17590677738189697,-0.22559359669685364,2.8246874809265137,3.200880555661356,-0.07034609504221419,-0.656830016208553,,
4.222521999999998,17.630599715541535,20.78368293257369,151.0641329210903,-0.2880896031856537,0.1191796362400055,6.066165447235107,3.877029101758396,-0.07967228188493199,-0.33067993919465083,,
4.232023999999996,39.04031421337968,21.01809057107682,151.53103775452888,-0.5677953958511353,0.8223487138748169,7.265010356903076,4.260735074715928,0.07154517620770649,0.04996171522884531,,
4.241540999999998,59.540636200912196,20.476624233078706,153.6038412843215,-0.9106693267822266,-0.09310096502304077,7.516124725341797,3.964562026839333,0.21290352249518613,0.33201225160075337,,
4.2508669999999995,79.0635283903937,18.128748928407205,155.177394450427,-0.7163221836090088,0,7.681647777557373,3.811346100137541,0.1008560491419624,0.5423843805243447,,
4.260365999999998,97.32714719053484,14.861010752544136,155.70970633790685,-0.8439579010009766,0.8269391059875488,7.375706672668457,3.6328162377198003,0.07021286380160395,0.6549647788400094,,
4.269878999999996,112.20651499908138,11.854167462454996,155.59660102698123,-1.2761410474777222,0.25585538148880005,5.149624824523926,2.9910413517002055,0.12084073523350053,0.584485452557185,,
4.279387999999997,124.8357362642213,9.962109141953533,154.9017398292097,-1.114586353302002,-0.037364184856414795,3.588718891143799,2.5620367569351874,0.049295559025794036,0.3939647784845215,,
4.298491999999996,146.6310759291043,8.75325742156411,155.80053755200368,-0.3838842809200287,-0.30375683307647705,2.526594877243042,2.0287121007723403,0.175598775124315,-0.12164012267716205,,
4.307992999999996,156.49316623458543,8.657278034731826,157.566726222618,0.33962780237197876,-0.5184999108314514,2.1731722354888916,1.9282557453522085,0.17186830038722786,-0.30350076611015897,,
4.317508999999994,166.5825004277304,8.260003460675524,159.48877483512973,0.9600933194160461,-0.3218635618686676,2.8867993354797363,1.9706232798662695,0.18452526824520202,-0.3412052072028609,,
4.3270259999999965,176.21273224078774,7.230553152588385,160.86301043277834,1.16750168800354,-0.6477091312408447,2.7376527786254883,1.8982787162149013,0.23315467106794477,-0.24394640155737538,,
4.336521999999995,-173.5958216163452,6.196068558497666,160.9957878406811,1.17616605758667,-0.4947212040424347,2.5119786262512207,2.0446998496455704,0.1950505362534121,-0.036105666205378875,,
4.346035999999998,-162.50782928478142,5.667583509585,159.8325322518632,0.9366554617881775,0.21077021956443787,3.3485937118530273,2.2513415038320748,0.14002603388137713,0.20011332339660176,,
4.355548999999996,-151.53386834326642,5.817221981692864,157.91834341193044,0.46003806591033936,0.49491310119628906,3.624457836151123,2.2426814731924085,0.10978254226284942,0.3583920372415837,,
4.365060999999997,-140.5920979509084,6.678789318291268,156.13140158414484,0.149734228849411,0.627343475818634,3.287689447402954,2.2368192986055573,0.04383307816077362,0.3870367539727884,,
4.3745679999999965,-129.1445057130934,7.70439171535296,155.08747652349044,0.042077794671058655,1.0996496677398682,3.617767810821533,2.325418073611376,-0.0095926493239383,0.28737978599631825,,
4.384081999999999,-117.83397806603928,8.108384162415339,154.88214223832563,0.14397794008255005,1.2887883186340332,3.877044200897217,2.277588058232295,-0.022382848422522698,0.08513476274995241,,
4.393509999999999,-107.08591808800382,7.53666598399357,155.26970338986416,0.46812817454338074,1.1088836193084717,3.7226638793945312,2.148753448562179,-0.03903675349880447,-0.14029249636259766,,
4.4030249999999995,-96.67032078684738,6.185841462460994,155.7660791206801,0.8573246002197266,1.011844515800476,3.512962579727173,2.0808055158509497,-0.05262634004105039,-0.29031087328974386,,
4.422031999999994,-78.42165746660068,3.7341897181034946,156.2415571954191,1.080169439315796,0.5188565254211426,3.524160623550415,1.6933690681563305,-0.0772741195539474,-0.1869234305761866,,
4.431545,-71.14402253761071,3.9085045109551895,156.72439028025818,0.8865412473678589,0.24410516023635864,2.8839895725250244,1.4580826972386214,-0.09566003075816248,0.054091883687763194,,
4.450747,-60.61365678978778,7.652189675061034,159.3561575131696,0.0741148293018341,0.4905066192150116,2.2425906658172607,0.8313629414079858,-0.08433537530629089,0.5559739670665906,,
4.46031,-58.05812662866251,10.487567721150112,161.19238039618068,-0.17958085238933563,0.4105926752090454,1.0389597415924072,0.4609800925114794,-0.03450689131805583,0.6685543653822553,,
4.469777999999998,-56.53136420616529,13.394953137932545,163.18487983865174,-0.39467939734458923,0.5043102502822876,0.3253498077392578,0.24367993907615484,0.02691271060327134,0.6620260345923529,,
4.479092999999999,-55.71842261100847,15.938690342559013,164.83751760709865,-0.6728358864784241,0.17427712678909302,-1.2545545101165771,0.10325421147294697,0.05995405827461438,0.5603705980067291,,
4.488613999999998,-53.61938410035996,17.912328858537958,166.1860094311642,-1.0620020627975464,-0.463678777217865,-1.6984882354736328,0.3671852991218605,0.05475803989081446,0.4323353757802747,,
4.498120999999998,-48.29812831611058,19.526144576008967,167.1381326778273,-1.8671215772628784,0.08539319038391113,-1.1154656410217285,1.0320091897670287,0.09845788681097783,0.32188667731437404,,
4.507810999999997,-41.08603685080806,20.479779174914686,167.7230776795632,-2.933377504348755,0.13034963607788086,1.0036375522613525,1.4335681489663348,0.08966462493070106,0.16427411967244335,,
4.517319999999998,-31.577229949469206,20.18548117053221,167.88791577818174,-3.4100899696350098,-0.2951601445674896,2.3448290824890137,1.9217274145623062,-0.042500765754671085,-0.06261868308681946,,
4.526832999999996,-17.898584123207176,19.153994268873486,166.99392612518548,-2.845834493637085,0.24152639508247375,3.969372272491455,2.8342281815019366,-0.0961929557206035,-0.31629096520874334,,
4.536344,-1.1245396723349559,18.68411585714143,164.8326060862764,-1.932248830795288,1.404999852180481,6.816722393035889,3.5387549818489603,-0.020917304775809907,-0.5213338445079245,,
4.545846999999995,13.902697252332041,19.757712288210474,162.22611059080785,-0.5530352592468262,0.7479133605957031,6.737796306610107,3.227393572542797,0.13469678425696696,-0.6351133239890816,,
4.555360999999998,26.37576212563052,22.017502931125886,160.51240040897625,1.087624192237854,-0.7685935497283936,4.448875904083252,2.6680888244609497,0.26579632501745704,-0.5651669226686982,,
4.564869999999999,38.99028366277845,23.844853018279654,160.64407080168425,1.68820059299469,-0.3983497619628906,3.7535738945007324,2.561903525694577,0.2598009191899956,-0.2607335378742674,,
4.5741919999999965,49.43601503518541,23.333240780519517,161.23010130497244,1.681725263595581,-0.5492092370986938,3.0358216762542725,2.051894336638524,-0.010125574286379316,0.14375650861846423,,
4.583703,56.61570767929064,20.27347801015713,161.66492283939334,0.8164551258087158,-1.2986079454421997,1.918489933013916,1.4122511504686943,-0.3157580402463024,0.5334578874034577,,
4.593393999999996,62.173597644502756,15.828988174938612,161.79128551630532,-0.7210373282432556,-0.7300605177879333,1.819397211074829,1.111814702892571,-0.4441929561945873,0.7735405829831357,,
4.602913000000001,64.77796034545415,11.474898573506463,161.53650686839822,-1.9467918872833252,-0.4434864819049835,1.5561294555664062,0.5406523743964115,-0.44539203736007965,0.7530229719291565,,
4.612227999999995,65.28382025430533,8.360556769609062,161.38475937756158,-2.1711299419403076,-0.5325025320053101,0.18048307299613953,0.1139127107217673,-0.30203522246344616,0.547713630148755,,
4.621916999999996,65.58559223147671,7.158128083427421,161.96732431511055,-1.7188082933425903,0,0,0.05209341507860938,-0.006661562030512708,0.26206585028036994,,
4.631253999999998,65.2525436025558,7.648153009020132,162.81550215216132,-0.8104548454284668,-0.138080894947052,-1.2278803586959839,-0.08113782553164478,0.18226033715482767,-0.024114854550456002,,
4.640760999999998,65.27516948097879,8.701629644108163,162.93120598162315,0.6839450597763062,-0.1070777177810669,-2.102391242980957,0.00866003063966652,0.09739203688609578,-0.1869234305761866,,
4.650264,65.30471262357678,9.572198563857233,162.58388925610004,1.8655109405517578,-0.3937506675720215,-3.238936185836792,0.02438131703167651,-0.0011990811654922875,-0.19198621771937624,,
4.659779,66.2330505745214,9.719225305262906,162.42035483582205,2.339448928833008,-1.0069859027862549,-4.282909393310547,0.19878101099049922,-0.029044410453035407,-0.04503215932626591,,
4.669297999999998,69.45487753160528,8.764607723523543,162.57088949104013,2.083639621734619,-0.3571940064430237,-4.3230462074279785,0.6476370606064455,-0.05622358353752725,0.1833261870797097,,
4.678798999999998,71.61791821386615,6.941527974362752,162.7074136350634,0.9738837480545044,-0.12365061044692993,-3.240527629852295,0.43673200672041307,-0.10778407365369562,0.34826646295520436,,
4.688311999999996,71.86118381126235,4.643676214830714,162.33322068910567,0.19759300351142883,-0.5487416982650757,-4.285765171051025,0.06368453301170149,-0.22662634027804232,0.4086202149516495,,
4.697820999999998,71.75331074238679,2.6893116430817083,162.19401793544867,-0.3769065737724304,-0.11151546239852905,-2.661482810974121,-0.012390505376753635,-0.16027718245413575,0.35812557476036316,,
4.707332999999998,70.05626340604493,1.8400748474217892,162.7579539242829,-0.675733208656311,-0.20413625240325928,-3.010500907897949,-0.3368085762627225,0.03930321598002497,0.1926523739224275,,
4.716844999999999,67.32785993211913,2.070269387063064,163.2167673193788,-0.46309781074523926,-0.2704092264175415,-2.1493020057678223,-0.541984686802514,0.09059724361497283,-0.014522205226517704,,
4.726362999999999,63.70486015204191,3.1463404482092994,163.16222979100246,0.22959193587303162,-0.17147958278656006,-0.9346969127655029,-0.7174502306862187,0.06768147023000912,-0.20557580426162217,,
4.736039999999996,59.03800480962493,4.718553923344316,162.69534702751645,0.5321995615959167,-0.36002662777900696,-0.03910115361213684,-0.920494641376246,0.057289433462409285,-0.32601684577329193,,
4.745551999999996,54.17219132665059,5.89460554754302,161.65609482515958,0.40965375304222107,-0.5085819363594055,1.0315783023834229,-0.9411454836708354,-0.11204747335322375,-0.3531960188577838,,
4.75506,49.64728590160579,6.00212865217821,159.6553724211302,0.37394431233406067,-0.7935328483581543,2.536614418029785,-0.8498820838528114,-0.3651868305127066,-0.3093629406970102,,
4.7645649999999975,46.0698158573182,5.144238069118648,157.48209739788308,0.17628581821918488,-1.190658688545227,3.3599157333374023,-0.6600275659831991,-0.49708575871685834,-0.21250382877335536,,
4.774082999999997,43.964024341858654,3.8026975022923732,155.87668330172517,-0.49560922384262085,-1.3153800964355469,5.171982288360596,-0.38410566667936274,-0.4731041354070125,-0.0863338439154447,,
4.783592999999996,42.628766641143066,1.8821404796091479,154.49670372828209,-1.3050074577331543,-0.5985699892044067,5.3792924880981445,-0.2432802453543241,-0.5208009195454835,0.015454823910789482,,
4.793096999999996,40.328146676632784,-0.7040953891420229,152.95901482130003,-1.1751928329467773,-0.7327734231948853,5.405794620513916,-0.4493889745783873,-0.6381776425231175,0.06821439519245012,,
4.802599999999998,39.48252234228681,-2.6582445167668864,152.46119607795893,-0.7527598142623901,-1.0524123907089233,2.4864232540130615,-0.1662725882815972,-0.40808728998920857,0.13096630951987984,,
4.812117999999998,41.28298693600941,-3.2308551754654844,153.30953074539633,-0.985268771648407,0.06056821346282959,2.020122528076172,0.37424655487420394,-0.0191852986478766,0.16320826974756136,,
4.821614999999994,43.025134885786215,-3.3857950288146044,154.04104466202062,-0.5516965389251709,-0.029174089431762695,0.5143907070159912,0.3619892807380606,0.032108728987071254,0.08966462493070106,,
4.831147999999999,45.655615099563505,-3.1468463486556186,154.43326261997024,0.3708832263946533,-0.23804312944412231,0,0.5355895872532217,0.040768759626737774,-0.01971822361031762,,
4.840658999999995,49.69398532273589,-2.108366001658105,154.89859224753792,0.605905294418335,0.055789947509765625,-0.6178674697875977,0.81777335486574,0.15747932640132042,-0.13216539068537214,,
4.8499709999999965,53.82717482141809,-1.1191968798611243,154.6541388980671,0.7537029981613159,-0.11926388740539551,-1.6710118055343628,0.8320290976110373,0.029577335415476424,-0.22462787166888853,,
4.859482,58.23252334253318,-0.5133286669278941,153.724046324354,1.0094965696334839,-0.45586633682250977,-2.4166996479034424,0.8859877500581902,-0.14375650861846423,-0.24021592682028828,,
4.869,63.1333181722024,0.041652112999005425,153.11637278602484,0.7017390131950378,-0.4614117443561554,-2.986809253692627,0.9879096491250347,-0.11018223598468019,-0.18772281801984808,,
4.878504999999997,67.43539974165853,0.3037029785491202,152.64739344525933,0.3120087683200836,-0.6689525842666626,-4.0031914710998535,0.8692006137412981,-0.12004134778983899,-0.11258039831566477,,
4.888016,70.8098694182467,0.09171949783289228,152.04895848585267,0.22559283673763275,-0.8868566751480103,-4.534994125366211,0.6836094955712142,-0.18039509978628412,-0.023848392069235495,,
4.897520999999998,73.21381079362487,-0.3608436113274352,151.8816757718818,-0.30373403429985046,-0.709962010383606,-3.744297504425049,0.48855895931780197,-0.10978254226284942,0.058488514627901576,,
4.907029999999999,73.54092699612818,-0.9576764388449649,151.8366140446974,-0.8409462571144104,-0.679516077041626,-3.2564048767089844,0.07234456365136802,-0.09379479338961892,0.09526033703633173,,
4.916539999999998,71.95241028516956,-1.7011578991526917,151.44854488542177,-0.9988552927970886,-0.755676805973053,-3.1295526027679443,-0.3133598779153178,-0.16867075061258177,0.10218836154806493,,
4.926064999999994,69.02177486310042,-2.382744313269043,151.2863458380183,-1.1615358591079712,-0.34317076206207275,-1.665763020515442,-0.5820872902262005,-0.13003369083560806,0.09792496184853682,,
4.935558999999998,63.985143691179566,-2.848772416726906,151.5611294552078,-1.3865772485733032,-0.157528817653656,-0.9111553430557251,-1.000699848223619,-0.04290045947650183,0.08326952538140886,,
4.945256999999998,57.88164091452684,-3.304299487129302,151.983689366153,-1.147100567817688,-0.2909442186355591,0.044586181640625,-1.2126707520345332,-0.024514548272286767,0.09232924974290613,,
4.954765999999999,52.08932012260232,-3.6552646492821603,152.92249531845488,-0.5105189085006714,0.07906574010848999,1.6391992568969727,-1.143656969398422,0.06435068921475276,0.13416385929452593,,
4.964275000000001,46.43191387091267,-3.7124529790161884,154.5043375807542,0.1860809624195099,-0.09157752990722656,2.246833086013794,-1.1075513031930428,0.18918836166656092,0.18319295583909948,,
4.973770999999999,42.16697106970744,-3.6515798438230815,156.33724493417833,0.7766451835632324,-0.3925165832042694,2.8566417694091797,-0.8252343043399143,0.2272924964810936,0.22249617181912443,,
4.992795000000001,40.23732126342035,-4.004892323447202,158.54672949688333,1.0667083263397217,-0.5001875162124634,3.0126922130584717,0.020650842294589397,-0.008793261880276773,0.11204747335322375,,
5.002316999999998,41.66433968873237,-4.512630910046115,158.16500540324964,0.569382905960083,-0.8754866123199463,3.2607805728912354,0.2849816236653337,-0.16027718245413575,-0.021050536016420155,,
5.011827999999994,45.066657582037976,-4.854493541926025,157.0599078591808,-0.050711970776319504,-0.8396035432815552,2.2874600887298584,0.6674885154573733,-0.23848392069235497,-0.1453552835057873,,
5.021321,49.5022528439403,-4.566644862115364,155.78429867046896,-0.6813248991966248,-0.7699872851371765,2.1345038414001465,0.871199082350452,-0.18905513042595065,-0.24714395133202147,,
5.0306659999999965,54.095601614842145,-3.496535062667197,154.88828875915365,-0.9503698945045471,-1.0137063264846802,0.6973838806152344,0.9115681482553589,-0.05182695259738886,-0.3092297094563999,,
5.0401859999999985,58.78719494625,-1.963980659363747,154.58406456761702,-0.6803841590881348,-1.1870867013931274,0.2565630078315735,0.9420781023551072,0.0770076570727269,-0.3144257278401998,,
5.049755999999995,63.182254223885664,-0.35188407231662244,154.99421489014756,-0.21793366968631744,-1.4958528280258179,-0.5855666399002075,0.8883859123891746,0.1901209803508327,-0.26219908152098015,,
5.059266999999998,67.41672547090712,0.8370299917593941,155.89562707417258,0.23786883056163788,-1.7313618659973145,-1.3565444946289062,0.8545451772741703,0.2284915776465859,-0.15654670771704865,,
5.068773999999998,71.86385264311512,1.2843030330125131,156.8897395082494,0.5060220956802368,-1.6064493656158447,-1.7920080423355103,0.8945145494572466,0.18585758065130456,-0.027179173084491845,,
5.078202999999995,76.14018418117331,1.0801970533975833,157.7533017668275,0.48977240920066833,-1.576570987701416,-2.2651655673980713,0.8604073518610214,0.12630321609852094,0.07714088831333717,,
5.087717999999995,80.49598137920553,0.5002965386026454,158.3344858795097,0.20515196025371552,-1.7038450241088867,-3.1099183559417725,0.8781271068621851,0.06368453301170149,0.12923430339194653,,
5.097232999999996,85.84134240398929,-0.1135352477620901,158.49007862486127,-0.18180963397026062,-1.3536072969436646,-3.055877685546875,1.0775742740557357,-0.004263399699528133,0.11977488530861849,,
5.106738,91.59674113729521,-0.3638877578231064,158.3644275026322,-0.3962631821632385,-1.342166781425476,-3.0579748153686523,1.1596447182716523,-0.03797090357392244,0.04463246560443514,,
5.116246999999994,98.23101496166095,-0.17148333637819366,158.29202336615276,-0.41950100660324097,-1.4913544654846191,-2.9968435764312744,1.335643187117798,-0.029444104174866172,-0.04210107203284031,,
5.125765999999999,106.48477930097039,0.24708541797763894,158.42849845244044,-0.37169140577316284,-1.2607064247131348,-1.8421874046325684,1.6599280267631566,-0.0029310872934255913,-0.0927289434647369,,
5.135278,115.94941325224687,0.5434032304931126,158.64045885328335,-0.28965967893600464,-1.3568729162216187,-0.9790828227996826,1.9018759597113781,0.03384073511500456,-0.0863338439154447,,
5.144787999999998,127.15540355958142,0.2754234029618659,158.67876243100343,-0.3941328227519989,-1.114665150642395,0.42904239892959595,2.2504088851478032,0.0868667688778857,-0.002398162330984575,,
5.1543649999999985,139.7901707508362,-0.7121988871274768,158.11481952745194,-0.649270236492157,-0.5708606839179993,2.135650396347046,2.53712251494107,0.1485528332804334,0.11617764181214163,,
5.163875999999995,152.66667785470602,-2.1574941895565454,157.8046312104305,-0.8025875091552734,0.09627091884613037,3.227686643600464,2.583753449154659,0.19478407377219156,0.20797396659260675,,
5.173398999999996,163.59870152903537,-3.6359458332421504,157.1520623879481,-0.6538984775543213,0.5085289478302002,2.465298891067505,2.1893889769483064,0.2147687598637297,0.2267595715186526,,
5.183006999999996,170.32083085116022,-4.827692201358873,156.5224544937499,-0.19347387552261353,0.4051383137702942,-1.752727746963501,1.3439035240356338,0.19251914268181725,0.1714686066653971,,
5.192506999999999,172.37812039156253,-5.754576559213391,156.1962614474563,0.3274615406990051,0.4919453263282776,-4.758809566497803,0.4132833083730084,0.16200918858206906,0.08726646259971647,,
5.202007999999999,169.25710455721276,-6.58841571699192,156.27822835487913,0.6594724059104919,0.5936821699142456,-4.211941719055176,-0.6156615628599845,0.1557473202733871,0.005595712105630674,,
5.211525999999999,161.9612988325147,-6.990325691588872,156.57008615262458,1.0092346668243408,1.2449790239334106,-2.355829954147339,-1.4463583480649191,0.08073813180981401,-0.04116845334856853,,
5.220856999999995,150.451734227869,-6.765012892892016,156.90362606180875,1.2964229583740234,3.2481255531311035,2.088282346725464,-2.2889127136841667,-0.02624655440022007,-0.08393568158446013,,
5.230362999999997,131.9961475493568,-5.816565812838028,157.31954848894384,1.1886811256408691,4.546422958374023,4.970787048339844,-3.678381322008507,-0.10831699861613663,-0.18918836166656092,,
5.239872999999996,110.25048458576751,-4.0126804785532215,157.4432204696441,0.7566927075386047,2.4527926445007324,4.544053554534912,-4.3438713688567265,-0.17826339993652007,-0.3288147018261073,,
5.249383999999999,89.77308885861142,-1.7899592221441654,156.91673612082215,-0.16934049129486084,2.3591556549072266,7.166986465454102,-4.097260342487146,-0.19371822384730955,-0.4271393573964748,,
5.259080999999995,68.99742914449233,0.45272409674715136,155.5543369948111,-1.0198262929916382,3.380375385284424,5.561798095703125,-4.154683007190166,-0.19811485478744792,-0.4992174585666223,,
5.268588999999999,47.27012035718417,1.840633676765326,153.25952151071274,-1.3401354551315308,2.268223762512207,3.692838668823242,-4.332813175886075,-0.2566033694153495,-0.4862940282274276,,
5.278093999999996,27.068645426232653,1.8792396939686413,151.34456787761204,-0.9153899550437927,2.3050594329833984,4.3338189125061035,-4.024516085113947,-0.23821745821113444,-0.31655742768996387,,
5.287592999999994,6.905518397994954,1.4448931386821746,150.9438665216097,-0.4303317964076996,3.446106433868408,4.427786350250244,-4.027313941166763,-0.11884226662434672,-0.05649004601874777,,
5.297114999999998,-14.332721973901176,1.3179176000709187,152.03454319389962,0.13304463028907776,3.3187217712402344,3.2733235359191895,-4.250076575467108,-0.0514272588755581,0.21250382877335536,,
5.306439999999995,-35.044818266161826,2.160433449210779,153.91274103475294,0.49446678161621094,4.631298065185547,6.028771877288818,-4.150552838731247,-0.015454823910789482,0.4092863711547008,,
5.315958999999999,-56.63036660753305,4.044772454514882,154.97914673814952,0.40823397040367126,6.444096088409424,7.439911365509033,-4.325485457652512,0.09885758053280858,0.41674732062887504,,
5.325464999999994,-78.51466493108468,5.678271423888396,154.46601267812335,-0.15481476485729218,6.216292381286621,7.792887210845947,-4.365188367354367,0.20903981651748876,0.25993415043060586,,
5.335052999999995,-100.51374403241671,5.833145190720304,152.88791892876228,-0.8772932887077332,5.91935920715332,8.172554016113281,-4.365188367354367,0.3048330785162615,0.023581929588014985,,
5.344556999999995,-122.48223098560855,4.12303052053957,151.435692037922,-1.3650156259536743,5.036453723907471,8.526667594909668,-4.365188367354367,0.3857044415666858,-0.21863246584142706,,
5.354065999999996,-143.3371970566729,1.5466098029605464,151.23854241638418,-1.1783690452575684,2.850701332092285,7.2827653884887695,-4.1653415064389865,0.37051608013711684,-0.3578591122791427,,
5.363566999999996,-159.94568007947893,-0.7021715195384848,151.96955186915528,-0.5041592121124268,1.4894320964813232,4.350176811218262,-3.3183905098796003,0.3161577339681331,-0.3487993879176454,,
5.3730799999999945,-172.53699336581232,-2.2189724371787203,152.75931004389653,0.3446041941642761,0.7819969654083252,2.8173699378967285,-2.5092771856535268,0.2462113326477497,-0.23115620245879098,,
5.382602999999996,177.8757990864186,-3.233265318710625,152.91175626857043,0.9025171995162964,0.5786061882972717,2.4558660984039307,-1.9105359903510446,0.18998774911022243,-0.044898928085655654,,
5.392102999999999,169.88307119956247,-4.0196516880333055,152.24774715564305,1.0608394145965576,0.7993153929710388,2.766890287399292,-1.6011730496540346,0.13083307827926957,0.1438897398590745,,
5.401613999999995,161.68186300029726,-4.678621391461209,151.04492618817756,0.7948790192604065,1.4989506006240845,3.8160934448242188,-1.6527335397702028,0.057289433462409285,0.2604670753930469,,
5.411034999999998,150.60981839888746,-5.366136209314644,149.96520257162283,0.32566946744918823,2.7129323482513428,5.149930000305176,-2.2281592679658906,0.027179173084491845,0.24807657001629327,,
5.420558,134.03027912854452,-6.090454880369608,149.79644669878704,0,4.2146315574646,7.47676944732666,-3.3153261913455645,0.08286983165957809,0.11071516094712121,,
5.430073999999998,112.65221143573717,-6.370893211241221,150.81605515708978,0.17353683710098267,5.367801189422607,8.369633674621582,-4.250476269188938,0.1898545178696122,-0.06994640132038345,,
5.439758999999995,90.64689169090497,-5.73464365316275,152.37329930426233,0.6313437819480896,5.445936679840088,8.0022611618042,-4.365188367354367,0.2679280248672211,-0.19345176136608902,,
5.449281999999997,68.72885416602519,-4.419374288033862,153.24720121930244,0.9260256290435791,4.991547107696533,7.6293206214904785,-4.365188367354367,0.20824042907382723,-0.2342205209928268,,
5.458787000000001,46.910527989501425,-3.1169155410149534,152.91592418718332,1.0360608100891113,4.231298446655273,7.30888557434082,-4.365188367354367,0.07167840744831674,-0.2624655440022007,,
5.468294,25.113654633794052,-1.844981272988115,151.91067600115187,0.16251567006111145,4.880598068237305,7.0860066413879395,-4.365188367354367,0.07660796335089615,-0.319222052502169,,
5.487308999999996,-18.361399247000904,-1.3254667688802233,148.7875667685914,-1.0106003284454346,2.9189016819000244,5.6711320877075195,-4.338542119232316,-0.02344869834740473,-0.31122817806555375,,
5.496638999999995,-38.307018899006714,-1.6200954107175354,148.12411536402468,-0.26251301169395447,2.844188690185547,4.23421573638916,-3.9894762688334504,-0.0005329249624410166,-0.1505513018895872,,
5.506153999999995,-56.47283248160541,-1.0941012874617875,148.20034702072195,0.5740689039230347,2.9782447814941406,3.322019577026367,-3.6293522254639337,0.04862940282274277,0.08326952538140886,,
5.515657999999995,-73.17263227205875,0.3671371786750429,148.63316483248832,1.0826917886734009,2.682981491088867,2.805682420730591,-3.335444108677713,0.03450689131805583,0.297771822763918,,
5.525164999999994,-87.84127755103565,2.3869595402526613,148.83450475271533,1.0791374444961548,2.9313924312591553,3.8705403804779053,-2.9301546747413196,0.01532159267017923,0.4016921904399163,,
5.534749999999995,-101.82567784480503,4.059899160345116,148.6081928262993,0.4150853157043457,3.1769497394561768,4.3497633934021,-2.7897289471381117,0.005196018383799912,0.3334777952474661,,
5.544259999999994,-115.0682114708981,4.759128937590088,148.49234614499647,-0.4016146957874298,2.1194982528686523,3.7184550762176514,-2.64210873254195,-0.03410719759622506,0.1354961717006285,,
5.55377,-125.27815498627282,4.562069128730355,148.908301749816,-0.9901546835899353,1.6060261726379395,3.9700191020965576,-2.0435007684800786,-0.06368453301170149,-0.08087136305042428,,
5.563282999999998,-132.42705901951106,3.766051861952051,149.7338540078377,-1.3553714752197266,0.916113018989563,2.90971302986145,-1.435833080056709,-0.04010260342368651,-0.23262174610550373,,
5.572724999999998,-135.69933664555148,2.9230080558138276,150.62936233389226,-1.3593244552612305,0.07725292444229126,1.4138269424438477,-0.6581623286146555,-0.022915773384963714,-0.2507411948284984,,
5.582228000000001,-134.31481019461833,2.2795553698899664,150.98563179760595,-1.1912035942077637,0.0871201753616333,2.0925214290618896,0.28138438016885675,0.029044410453035407,-0.14642113343066934,,
5.5915509999999955,-130.0790184038035,1.6905096394007044,150.3116826393159,-1.2124584913253784,-0.14067339897155762,2.812739372253418,0.8601408893798009,0.1674716694470895,-0.0017320061279333043,,
5.601059999999997,-123.95257121650546,1.386838353161682,148.86764546107358,-1.2077528238296509,-0.5181235671043396,2.0550577640533447,1.2417151624875689,0.25580398197168797,0.12057427275228003,,
5.610576999999999,-115.24177866902008,1.6430103767445607,147.41209185556536,-0.8216671943664551,0.5593618750572205,1.7660901546478271,1.7590520697771859,0.216500765991663,0.18372588080154048,,
5.6201659999999976,-106.60794524226218,2.0174339868783178,146.3468133990116,-0.2851674258708954,1.5984253883361816,1.9414535760879517,1.7427978584227346,0.16081010741657678,0.14135834628747965,,
5.639109999999995,-96.29720990520028,1.2988535210124215,144.58959031054926,0.9552359580993652,0.5347439646720886,-4.001715183258057,0.9554012264161325,0.0127901990985844,-0.12856814718889528,,
5.648621999999996,-90.92789746197607,0.2399938134784506,143.50296634499998,1.5265047550201416,0.6377637386322021,-5.0118865966796875,1.0822373674770946,-0.011457886692481857,-0.21743338467593476,,
5.6583029999999965,-84.5576310238674,-0.9340482117576167,142.3293620492431,1.892509937286377,0.05937850475311279,-7.372591972351074,1.282750384595527,-0.010791730489430587,-0.24034915806089852,,
5.6676299999999955,-73.64827619682706,-1.662960158891111,140.6592069810938,2.3536391258239746,0.13931500911712646,-5.924864768981934,2.1913874455574605,-0.02851148549059439,-0.1505513018895872,,
5.6771519999999995,-56.830619050356965,-1.5000054318197968,138.6403077245135,1.7311102151870728,1.2552427053451538,-1.5363292694091797,3.3740811684546865,0.020251148572758632,0.01638744259506126,,
5.686656999999997,-36.095923008897536,-1.0246397364142674,137.39792791396596,1.0203369855880737,2.166273593902588,1.678222894668579,4.162676881626781,-0.07314395109502952,0.1854578869294738,,
5.696337999999997,-14.36204133750023,-1.062076221039983,136.9957367888265,0.07906381785869598,3.5708043575286865,6.809652328491211,4.365188367354367,-0.17226799410905863,0.31815620257728694,,
5.705867999999995,7.364542001989047,-1.8190862975959714,136.3907966723729,-0.9574806094169617,3.3147189617156982,6.999749183654785,4.365188367354367,-0.1833261870797097,0.3037672285913795,,
5.71537,29.114569749803092,-3.312094891728239,134.67369751861239,-0.7717203497886658,2.856555223464966,7.019509315490723,4.365188367354367,-0.27485604937895436,0.1573460951607102,,
5.734382999999994,71.489587434757,-3.4429248075136303,130.71058010097008,0.07707210630178452,1.3736331462860107,5.229485034942627,4.117511491059904,-0.16707197572525873,-0.24834303249751374,,
5.743704000000001,90.96188913871764,-1.9552719717765192,129.83323808534843,0.772543728351593,0.776311457157135,4.382452964782715,3.897546712812375,-0.14029249636259766,-0.32761562066061495,,
5.7532250000000005,109.76487498077107,-0.7672650360364234,129.93926762385476,0.8908726572990417,0.5881529450416565,4.550083160400391,3.772442577879347,-0.0337075038743943,-0.2438131703167651,,
5.762726999999998,127.51457003407292,-0.7021260319867906,130.24580037405732,0.6914415955543518,0.13602644205093384,3.7048068046569824,3.5619372177151454,0.036105666205378875,-0.04596477801053768,,
5.772303999999998,145.44427521111928,-1.518045838235356,129.36980624008714,0.4539434611797333,0.3240925073623657,3.5024147033691406,3.5936462529803856,-0.013989280264076687,0.23568606463953962,,
5.781825999999995,164.32168352796577,-2.504076811954647,127.00415377345173,-0.2510916590690613,1.1562092304229736,4.509392738342285,3.769644721826531,-0.03397396635561481,0.5097427265748324,,
5.791318999999994,-176.29285671724895,-2.439098760734739,123.77639288901564,-0.8760625720024109,1.3792684078216553,5.036179542541504,3.8597090404790633,-0.09232924974290613,0.6388437987261687,,
5.800843999999998,-155.24378850096318,-0.5502099064978253,121.11556401421862,-0.8484750390052795,2.3463282585144043,5.973256587982178,4.206643191028165,-0.24860949497873427,0.6076676884233693,,
5.810354999999994,-133.4859565492561,2.2392599516883336,120.44981169803225,-0.7805224061012268,3.8084030151367188,7.4855055809021,4.364655442391927,-0.3902343037474344,0.43140275709600295,,
5.8198599999999985,-111.59468155619628,4.499937139505663,122.663017103437,-0.5915637612342834,3.6265509128570557,7.688879489898682,4.363189898745214,-0.6317825429738253,0.1394931089189361,,
5.829294999999995,-89.51283589936239,4.717957234016159,126.59292192040694,-0.7305108904838562,3.6886277198791504,7.785645484924316,4.3635895924670445,-0.7953905064432174,-0.10631853000698281,,
5.8389469999999974,-67.65109459693329,2.7307844174603875,128.9019875060422,-2.0539276599884033,4.143180847167969,7.610965728759766,4.353464018180665,-0.5458483927802112,-0.3053660034787026,,
5.8483189999999965,-47.488432413790825,-0.18283849582658826,128.34271999932707,-2.1655192375183105,3.480198860168457,7.315279006958008,4.0459663148521985,-0.23115620245879098,-0.5602373667661187,,
5.8579969999999975,-30.181884235286265,-2.3317465919360214,125.44636637832929,-0.7756145596504211,1.7211222648620605,5.25019645690918,3.4586830062421976,0.01692036755750228,-0.7290413486193107,,
5.867515999999995,-13.398560356623241,-2.4546446861972777,121.91033073664599,0.7711542844772339,1.143833041191101,3.2971363067626953,3.3371761148056462,0.22889127136841667,-0.6732174588036143,,
5.877026000000001,2.668323758204545,-1.3348780337266573,120.05079139151138,1.9977552890777588,0.24747714400291443,3.9335711002349854,3.2116722861507867,0.24714395133202147,-0.35559418118876834,,
5.8865359999999995,18.78235763048941,-0.2542136420786745,121.32625980505536,2.341623067855835,-0.7487354874610901,3.9564437866210938,3.237119453107345,0.24927565118178552,0.2063751917052837,,
5.896041999999994,37.30269020889493,-0.6173842603659785,125.77301388461795,0.9449724555015564,0,5.48980712890625,3.7204823940413476,0.3442695257368968,0.8185727423094016,,
5.905552999999998,57.0007120422231,-4.304549876833605,130.64034813184378,-0.6155200004577637,0.8997359275817871,7.340322971343994,3.9894762688334504,0.20157886704331457,1.2042771838760873,,
5.914894999999994,76.04486757679524,-10.189186040472148,132.77789788505422,-1.1655919551849365,1.1427271366119385,7.731463432312012,3.870634002209104,-0.09179632478046512,1.250774886849066,,
5.924391999999997,94.45919152368496,-15.121224374615158,131.82246379741366,-0.9182054400444031,1.1764540672302246,7.376540660858154,3.650003067758523,-0.2805849927251953,0.9677917317928862,,
5.933903000000001,111.44578183414404,-16.857215930018604,129.26981168227942,-0.30609968304634094,1.6419620513916016,7.0801849365234375,3.2668300197634323,-0.41394946457605963,0.44539203736007965,,
5.943410999999998,123.33598365652554,-15.310764448096124,127.52993383258173,0.4801383912563324,0.5423043370246887,5.223156929016113,2.291177644774541,-0.45205359939059236,-0.12603675361730043,,
5.952998000000001,130.97237664064403,-12.321826997145383,127.90430694974332,0.36462751030921936,-0.481418639421463,3.3477859497070312,1.553875959237394,-0.3153583465244716,-0.5262634004105039,,
5.962519999999998,136.68636720285045,-9.041401651005744,129.35958502359034,0.3601275086402893,-0.41564175486564636,2.1606216430664062,1.2050765713197487,-0.2600673816712161,-0.6773476272625322,,
5.972223999999997,139.7963566462294,-6.207203034786164,130.9946294288895,-0.08079934865236282,-0.8959559202194214,1.8777847290039062,0.6733506900442245,-0.2188989283226476,-0.6249877497027023,,
5.981665999999997,141.30187914033982,-4.243429179920185,132.04053625255148,-0.41218018531799316,-1.599001407623291,0.3315582275390625,0.3278820831418355,-0.1827932621172687,-0.41581470194460324,,
5.991156999999994,142.8987412465025,-3.5663230147907807,132.28129127341114,-0.79688960313797,-1.300615906715393,0.5025042295455933,0.33041347671343035,-0.08913169996826004,-0.12616998485791067,,
6.000653,143.93678579217314,-4.130699779005563,131.9776335472886,-1.0368099212646484,-1.2034788131713867,-0.644302248954773,0.21117151636725287,0.04290045947650183,0.11111485466895198,,
6.010337,145.3414316667953,-5.357523461381507,131.3143684231986,-0.7450968027114868,-1.19009530544281,-2.10292911529541,0.27765390543176965,0.11204747335322375,0.24514548272286768,,
6.019852,147.9716404624042,-6.719764723830689,130.61854776844504,-0.0789525955915451,-1.0683629512786865,-1.619990587234497,0.5193353758987708,0.14002603388137713,0.2607335378742674,,
6.029375999999999,151.96350092607324,-7.714854579388363,130.18282568344478,0.4040171504020691,-1.3119596242904663,-1.4743232727050781,0.7956569689244378,0.11750995421824419,0.1697366005374638,,
6.038696999999999,158.50991040737358,-7.744689966914743,129.99856705278634,0.7148451805114746,-1.0400890111923218,-1.3093831539154053,1.3131271074546649,-0.021583460978861175,0.03077641658096871,,
6.048220000000001,167.72225006827333,-6.740318714892005,130.14077032652546,0.5097070932388306,-0.7074712514877319,0.19640755653381348,1.8553782567383996,-0.19611638617829413,-0.09046401237436259,,
6.057628999999999,179.5254439884922,-5.12445855109664,130.6721512524573,-0.05686997249722481,-0.1770971268415451,1.9458606243133545,2.3813751946676827,-0.3220199085549843,-0.14628790219005905,,
6.067116999999996,-166.5469351486808,-3.882251347118013,131.51947918134138,-0.9675801396369934,0.26016852259635925,4.23285436630249,2.8090474770265983,-0.2785865241160414,-0.14522205226517704,,
6.076628999999997,-151.02262574145257,-3.607830656143216,132.35286677427558,-1.723348617553711,0.9856441020965576,4.954959869384766,3.126404292160224,-0.1235053600457056,-0.14069219008442838,,
6.086131999999999,-135.01505094629366,-4.292162945565176,132.91818550747212,-1.4480764865875244,1.6045522689819336,4.95141077041626,3.220065854309233,0.02997702913730719,-0.17813016869590978,,
6.0956429999999955,-119.85694244572066,-5.869929807769165,132.78968493623827,-0.5248813629150391,1.7264714241027832,2.9881949424743652,3.039803985763559,0.20131240456209404,-0.24088208302333952,,
6.105097999999998,-105.99196705097822,-7.560028433690933,132.0690496525998,0.6907114386558533,1.566352367401123,-0.12702643871307373,2.766280248790707,0.25273966343765214,-0.26139969407731867,,
6.114587,-93.10603524809034,-8.514671176709708,131.2575653335592,1.5594452619552612,1.115867018699646,-3.8830811977386475,2.5645681505067826,0.17906278738018158,-0.16707197572525873,,
6.124098999999994,-78.57576904742818,-8.210727719015411,130.52944918160347,1.7032856941223145,0.6963769793510437,-4.473334312438965,2.895381320942043,0.13696171534734128,0.04543185304809667,,
6.133604999999996,-59.11275761516688,-6.59916526940719,130.4231006763444,1.1099541187286377,1.6215933561325073,-0.7424602508544922,3.9012771875494625,0.12510413493302866,0.2897779483273028,,
6.143301000000001,-37.51511391780227,-4.721169470271624,131.77715965158075,0.4308229386806488,3.2291858196258545,5.57571268081665,4.357860649120804,0.037171516130260915,0.4580490052180538,,
6.152809999999995,-15.919214979299651,-3.875302594782193,134.0734203896519,-0.30329111218452454,4.2903900146484375,7.030087471008301,4.365188367354367,-0.06688208278634758,0.48362940341522265,,
6.1623129999999975,5.707231925255182,-4.8389064444131655,135.9240741071242,-0.4898848235607147,4.404414653778076,6.9995036125183105,4.365188367354367,-0.2380842269705242,0.3480000004739839,,
6.171818999999999,27.4630898792041,-6.984312012441349,136.03452599872338,0,3.859325647354126,7.110281944274902,4.365188367354367,-0.41954517668169033,0.13962634015954636,,
6.1815269999999956,49.4065289929804,-8.276576604091943,134.70341543115296,0.20569629967212677,2.716521978378296,7.345885753631592,4.365188367354367,-0.3807748856641064,-0.05129402763494785,,
6.191029999999998,71.38891723803053,-8.083324184143484,133.18430991724486,0.07141900062561035,1.9272371530532837,7.179245471954346,4.365188367354367,-0.25580398197168797,-0.18838897422289938,,
6.200351999999995,93.2921643338838,-7.108899600645503,132.14838762031548,0.17392095923423767,1.61841881275177,6.650869369506836,4.365188367354367,-0.19052067407266346,-0.2270260339998731,,
6.209869999999995,115.0475317646792,-6.309913253518832,132.237334730358,-0.09502533823251724,1.3670344352722168,6.4583635330200195,4.365188367354367,-0.03384073511500456,-0.16533996959732541,,
6.219376999999994,136.75832124656085,-6.37561236421675,132.73483801637474,-0.3843289911746979,1.2274978160858154,6.840814113616943,4.365188367354367,0.0767411945915064,-0.05262634004105039,,
6.228960999999998,158.54576741191218,-7.064309916884001,132.55196244530546,-0.4321347177028656,1.162272334098816,7.8390960693359375,4.365188367354367,0.08593415019361393,0.10018989293891113,,
6.238282999999996,-179.53310377364082,-8.005642461178136,131.377446907369,-0.7646465301513672,2.025949001312256,8.941692352294922,4.365188367354367,0.13203215944476188,0.2602006129118264,,
6.247807999999999,-157.4934599043286,-8.411814066757739,129.47454447998456,-1.1574270725250244,3.117072820663452,8.904900550842285,4.365188367354367,0.14402297109968473,0.35053139404557876,,
6.2573209999999975,-135.49409663666114,-7.747650927857694,127.8249868105534,-1.2530659437179565,3.2402215003967285,8.697680473327637,4.365188367354367,0.05835528338729132,0.34320367581201466,,
