timestamp,roll,pitch,yaw,acc_x,acc_y,acc_z,gyro_x,gyro_y,gyro_z,markers,motor_input
27.51433800000001,-1.9440609690405832,-19.52087055818088,157.32210373629508,0.3081222479134784,-0.5010753131613495,1.7238935404096736,-0.16179679082563772,0.24753190430143945,0.3228596263098784,nm,0.0
27.523853000000003,-0.1591793737386106,-20.75281818788525,158.200867509891,0.7802464721725653,-0.4172885807258981,1.5231657012632016,-0.22004389546210626,0.36907191756696767,0.29668053750111556,nm,0.0
27.53336999999999,1.9475597703739576,-22.506901095590216,158.61785524062336,1.1054274058877471,-0.27355015870772853,1.1778764470327407,-0.23858613350480468,0.4845058077419657,0.23654724981931396,nm,0.0
27.55238700000001,6.035371132666858,-27.265155907786095,158.53811724155858,1.6224485850348418,-0.22728749278728552,0.362193071944829,-0.1276398609266464,0.6086732045553255,0.1269824874440559,nm,0.0
27.56171599999999,6.7368822870742,-29.994361777139417,158.7709002890318,1.7512023591762793,0.05210324051774953,-0.5900787401708096,0.07832518794380719,0.5675918572004253,0.04119913378365505,nm,0.0
27.57123100000001,6.702229579962878,-32.68253749924557,159.5327025419184,1.9387274586856624,-0.05325399552532832,-1.1407900178655466,0.19042009404952734,0.5152969457913817,0.03792686263451801,nm,0.0
27.58073999999999,5.58627592420804,-34.95241971683591,160.80943730650205,2.0456761592640165,-0.29280662270556124,-1.5558575232659146,0.3222055958401493,0.3799048004979378,-0.0028397041308445624,nm,0.0
27.590332999999987,3.392680426716029,-36.466345175346675,162.3439141080667,1.6583760764787139,-0.22407266083742103,-2.196236917305745,0.42852967410445625,0.19091509727333877,-0.08847596828272285,nm,0.0
27.59984800000001,1.086126991498024,-37.02088346846428,163.86679260291982,1.310313806500551,-0.3052964739480701,-2.2999990433548403,0.38176897010889244,0.014684756797073293,-0.12429509448451838,nm,0.0
27.60934499999999,-1.0133327602411408,-36.67648152994954,165.04729914592448,0.8705697417954364,-0.39450573066248057,-2.160182733171658,0.3022399110301949,-0.14076649475583883,-0.19395964311096248,nm,0.0
27.61888400000001,-2.826107657008138,-35.61987272921668,165.58604135613922,0.35450213172449835,-0.24386426968058503,-1.9799996051116828,0.22763323958149848,-0.26367809328907044,-0.2858042105290063,nm,0.0
27.637801999999994,-4.719785120992143,-31.825663951985973,165.43093663956952,-0.49954128242339435,0.11640170978475076,-0.9328040856144888,-0.015393193435738506,-0.43208707995312085,-0.2922800615180094,nm,0.0
27.65700000000001,-4.7782013562264,-26.004074448246183,165.65851470001914,-1.3048988822169605,0.26116787588489254,0.5108317087674642,-0.15726561162740052,-0.5864941671060537,-0.14702478979748748,nm,0.0
27.666511000000014,-4.473881211816243,-22.78491768966675,166.01326097031065,-1.9857624775881164,0.38460639807324176,1.2535114819166955,-0.21266328025445638,-0.5990323244095617,-0.023769342558664683,nm,0.0
27.67602500000001,-4.127133855692358,-19.854501235513307,166.43431921482383,-2.5989056762426124,0.4595023451005439,1.6342708673028272,-0.20643519534892177,-0.5412539180007513,0.0884867239215403,nm,0.0
27.695269999999994,-3.7655489635738584,-17.127924526807686,167.42018319422016,-2.3830308967221114,0.3532782924245134,1.8883321866074416,-0.06173995167396845,-0.12884457220580767,0.25517705047028544,nm,0.0
27.704564000000005,-3.5245872398871714,-17.477584177230078,167.77875732774984,-1.5383189966147892,0.2395651541236282,2.046918074622842,-0.03399539886044686,0.09177856435400536,0.2595318785505048,nm,0.0
27.714065000000005,-3.0544238406535604,-18.483722657203685,168.77141693266913,-0.36126520341105806,-0.07666513689057128,2.1389696204574444,-0.05167709780424681,0.22863755463444999,0.22577422293240948,nm,0.0
27.72357199999999,-2.6463761380633373,-20.151745185634617,169.4409816014166,0.34849909994479145,-0.10165151070880846,2.045961610525164,-0.0177748127635931,0.35566077271275187,0.1591930816147991,nm,0.0
27.733087000000012,-2.246681687767279,-22.05817593681421,169.81506372618364,1.027226459589831,-0.19705386017966936,1.6277703850786722,-0.010075074813292718,0.4020018625014514,0.10200593217760047,nm,0.0
27.742591000000004,-2.0629635868264384,-24.035233077749616,169.36109734980263,1.187614838022578,-0.24515642366240592,1.1890388619744352,0.03514238598871004,0.40835948082660173,0.05036103796621893,nm,0.0
27.752106999999995,-2.279643758631455,-26.184360194404903,169.19251478489716,1.350760940621366,-0.21178733961460236,0.22621059972590785,0.11456426144777299,0.42830727317160544,0.012687497739810517,nm,0.0
27.761627000000004,-2.7482129867521845,-28.77504743743295,169.50140847166628,1.45640616277342,-0.24998004167153703,-0.09387481625842796,0.1723427968523005,0.5075707966633519,0.0178229304673586,nm,0.0
27.770948000000004,-3.458902886041926,-31.3681308314565,170.25577755416532,1.629106214353733,-0.3660222566646735,-0.6962033790712937,0.20587877211051026,0.5031186307021971,0.026276455683133616,nm,0.0
27.78997799999999,-5.515999258774693,-35.759351924461676,171.17814194799467,1.7856720067836347,-0.4678276204108218,-2.0481162541795173,0.23359384094764063,0.3959373452238156,-0.0451212815939632,nm,0.0
27.809075000000007,-6.8464235531105375,-38.09228731311319,170.5433993949505,1.2498907038928353,-0.3518945497561379,-2.425835993457897,0.08315851614601122,0.14363702904667852,-0.17316670054915623,nm,0.0
27.818578000000002,-6.640104192976213,-37.64692750462479,169.32170457302422,0.7643634755127557,-0.18332934019715114,-2.2937615715997772,-0.05248451274002395,-0.06880049175562752,-0.21807336570375746,nm,0.0
27.827920000000006,-5.8564463793949315,-36.20305997860643,167.72491647634965,0.18149253970095666,0.007585609557853459,-1.7911451492277863,-0.18501037137835966,-0.24497742279016657,-0.2245452554702457,nm,0.0
27.837343000000004,-4.743856661007527,-34.065297185095176,167.34239866318362,-0.4207730014447514,0.18959852216674836,-1.0440623480903393,-0.2708973103595406,-0.3680928859002576,-0.19193112263157738,nm,0.0
27.84721300000001,-3.6535283494558537,-31.510482985863213,167.13428638758546,-1.1030048443348641,0.40236453579249887,-0.3032152443451867,-0.29244794013037323,-0.44772666348058404,-0.13827705577070154,nm,0.0
27.85673299999999,-2.7639678783173722,-28.783009068743148,167.25600432321974,-1.8715106198936966,0.6910934607464315,0.4251484999546649,-0.2722755745078079,-0.4871653698742926,-0.06255126100133851,nm,0.0
27.86623499999999,-1.8446787507748827,-26.135745404914857,167.81097567755887,-2.6823216436760604,0.8789294815927622,0.6874433588722257,-0.27637000120601796,-0.4705705146451422,0.07144037798347772,nm,0.0
27.875743999999997,-1.1066003727697111,-24.29216995125122,168.67454348755948,-2.9906109027933727,0.5972286052676281,1.473174161696505,-0.2107218384786178,-0.32149743395875635,0.18732214569153838,nm,0.0
27.894768,-0.8463429130680957,-23.2367100812441,170.32085792150204,-1.9030128359075573,0.31761885834883646,1.333527986383898,-0.024200572097273103,-0.006878317166567555,0.20040300906005803,nm,0.0
27.913793999999996,-0.274315607726876,-24.31015594933085,170.86685313384663,-0.09358875033569206,-0.2184161420686937,2.083326304928859,-0.020411608064484908,0.1567485471933141,0.13429464395268792,nm,0.0
27.92328900000001,-0.8915398262188841,-25.0862224123698,171.08950129127587,0.3837956636028914,-0.08651534082783907,1.662770660063115,0.1297220448474845,0.14840966327373137,0.04396564734765609,nm,0.0
27.932808999999992,-1.3809295168131963,-25.874947385344097,171.3993673757351,0.8043051549731345,-0.1161671577854477,1.157813220398944,0.10574219901157382,0.1553554652453789,0.04493233190897084,nm,0.0
27.94232600000001,-1.5910389815400494,-26.959439090592745,171.81259174743437,1.2822541181782763,-0.6512355639051797,1.1828960524368153,0.0629472001461253,0.22217725176865868,0.058525746687494634,nm,0.0
27.951831999999996,-2.4208664775632536,-28.518535914431435,172.2974474681261,1.3365949332285647,-0.4851041277776564,0.48598035219002167,0.18216232005584715,0.3021066157606794,-0.03000290459753634,nm,0.0
27.970674000000002,-3.247651294980968,-32.43594953613461,173.05952522346078,1.8838884409965089,-0.692631808949645,-0.39002306163014155,0.08702630234956808,0.4141097415094042,-0.032227713358212284,nm,0.0
27.980175000000003,-3.584777345148836,-34.626589437772964,173.22301791939253,1.9824841383411245,-0.4447747414847366,-1.2212245395129528,0.10058405110701042,0.442008107067372,-0.08704781595901886,nm,0.0
27.989689999999996,-3.519115542990451,-36.77942208116254,173.33886289843326,2.083579071444279,-0.42152286292094404,-1.5364893488672657,0.03164441850543733,0.44237012272961923,-0.07777763107063403,nm,0.0
28.008789000000007,-3.4441705414905748,-39.15085887239201,173.649648865121,1.4031853161227157,-0.060219259963449935,-2.146583550687243,0.017048552249154393,0.16157024574788645,-0.13999049005774494,nm,0.0
28.01829699999999,-3.4670750848533425,-39.01028667895033,173.96616859311746,0.9494655635096846,-0.013197656552668741,-2.0287780609791217,-0.005533247632520356,-0.01565091699627967,-0.12456113053147025,nm,0.0
28.027805999999998,-3.675601275026663,-38.05193721363341,174.39910057108597,0.40009070585594825,0.0875380951068136,-1.6725012169569604,0.008293319521585813,-0.1814408946444935,-0.12721736645595896,nm,0.0
28.037330999999995,-3.956049133741398,-36.23468563900673,174.89270445789055,-0.16529931202746714,0.2005737414787797,-1.2111721810488583,0.0071397658934458435,-0.3537571980145984,-0.12020227515000984,nm,0.0
28.046760000000006,-3.992353943017422,-33.65681347371803,175.39404297394495,-0.6603790536125889,0.21810255710815246,-0.6343726872091522,-0.040199282017986795,-0.5025663141343648,-0.087552306850962,nm,0.0
28.056453000000005,-3.7516815433827837,-30.68213498859634,175.9201196153558,-1.1078516497472135,0.19420680323020553,0.10227752989896101,-0.08730477063481015,-0.579088306342656,-0.07054220936763307,nm,0.0
28.06595999999999,-3.3580870740568276,-27.592213412820957,176.21275844816665,-1.9647846037223244,0.2237413749203854,0.9560649317588277,-0.11334128438485098,-0.6009212513260962,-0.0748677577793378,nm,0.0
28.075467000000003,-2.900410600618865,-24.69295151069331,176.1216576315578,-2.9564354101477126,0.33105212560581004,1.2504608772743673,-0.1256755758941258,-0.5617459841849703,-0.058351406918870044,nm,0.0
28.094488000000013,-2.778999652797834,-21.96732879995836,175.86352616291148,-3.1368888430235784,0.11704027854536127,1.4558523458313024,0.011526483529505504,-0.14099400884844712,0.0476604056886,nm,0.0
28.113507,-2.83441756357306,-23.22224415053825,176.02376260786505,-1.1014922496813835,-0.14983482078636243,1.520678050176773,-0.02559377307825388,0.1895020112324226,0.16936908699208447,nm,0.0
28.123019999999997,-2.6749119369232535,-24.336897501165822,176.1852300008587,-0.08355981069275792,-0.4306533276918924,1.6694054060393106,-0.01924983288445387,0.2371747037823575,0.20165159449533826,nm,0.0
28.142041000000006,-2.3782005809786435,-26.973587633671798,177.33789041295333,1.2978013119775458,-0.4568886956980951,0.9621103773451791,-0.06055781292840224,0.29319960797800876,0.22390017332693934,nm,0.0
28.15154899999999,-2.086411821613691,-28.335664584118447,178.11247178611026,1.8630430665307987,-0.4478692046274125,0.3787102489108162,-0.04840163952042919,0.2866973530540628,0.1670250002196442,nm,0.0
28.179914999999994,-0.8342051265863499,-32.99393084179142,178.88404319855618,2.1191769809962717,-0.04539914135071744,-1.0390328864976337,-0.07652970875353246,0.31353468115800326,0.027126748469135487,nm,0.0
28.198921000000013,0.12593092736425146,-35.45758438087925,179.45558400082083,1.6678071311910567,0.23457803965652457,-1.738317794858042,-0.09028062113976393,0.23343009747549398,0.032041107682675415,nm,0.0
28.218018999999998,1.1383497060679315,-35.910420708422855,-179.6208172195148,1.1077790495689734,0.1993683910648916,-1.774951552523295,-0.07618951546022378,-0.011840192245562757,0.029840296867164984,nm,0.0
28.227553999999998,1.24703320481092,-35.082613506141456,-179.2739725719321,0.6109479612838451,0.33333769604218916,-1.6789360142736611,-0.023588387276150723,-0.15451447018732736,-0.03544221573976875,nm,0.0
28.23697899999999,1.4281494135619404,-33.480330175736945,-179.09415837601122,0.23325972233186643,0.3810935463266074,-1.2514079775838627,-0.0321132883785034,-0.30991769862426793,-0.06102778248463181,nm,0.0
28.24666099999999,1.684653584747085,-31.169504363017104,-179.0843757080044,-0.13480154069002326,0.3411311140998055,-0.6005906103771785,-0.042003726927736455,-0.45211707037009113,-0.08961216613676937,nm,0.0
28.25616199999999,1.7619161555908545,-28.372610939581005,-179.32900207209957,-0.7327026239737003,0.359385378685006,0.1080434356642231,-0.01162955596806501,-0.5487602553730456,-0.13604478104174364,nm,0.0
28.275204000000002,1.024411280104557,-22.11304562847894,179.70115925794835,-2.7924097868269,0.32495424854017374,1.2822896303010909,0.09486027077472453,-0.6186903636784318,-0.14615321175480636,nm,0.0
28.28470200000001,0.04471324649479449,-19.878928110056602,179.3565105023872,-3.540430681243913,-0.04897428813972863,1.722814066814995,0.17083262747153372,-0.4374948750012875,-0.0848567371689694,nm,0.0
28.294213000000013,-1.6339010136684375,-19.02696660905157,179.0638555024333,-3.5988866445745735,-0.06863779980279024,1.734303701463845,0.3062821410135922,-0.1646759255748419,-0.0481907881381065,nm,0.0
28.341764000000012,-6.144687639080022,-24.386126937130104,177.7589161369059,0.6571339564462295,-0.43061237744837755,0.8660815355186474,0.08733352491321528,0.3229725586779917,0.12624308123329278,nm,0.0
28.360779000000008,-5.917396571626148,-27.968837481666167,177.17921038310266,1.4525872182113893,-0.3929020082808546,-0.1023821808734625,0.016679934767103152,0.4030570845546037,0.07981202218052054,nm,0.0
28.370123000000007,-5.201454593962896,-30.290880405754855,176.91431003576577,1.824446606555585,-0.36859927454478386,-0.3353057430459376,-0.10606727598178699,0.4836845748930774,0.10508361876497117,nm,0.0
28.379627999999997,-4.220107565315902,-32.61376825320708,176.7830854007039,2.1750525306757966,-0.33974478750141807,-0.5652474052483277,-0.14842007201636878,0.48617106986501646,0.0884074786126402,nm,0.0
28.389141999999993,-3.399835286443311,-34.61945776635967,176.78822723618111,2.114670969889923,0.13479611575757863,-1.434098700894282,-0.12186335233209306,0.42081367049390234,0.043343964487129225,nm,0.0
28.398649000000006,-2.1749351959415413,-36.29059538028696,177.13840268516577,2.0570144122338974,0.2448237341834511,-1.7816232421251315,-0.1905015156759143,0.35619076892091395,0.10970308398277821,nm,0.0
28.40816000000001,-1.0181144628987118,-37.38028035533708,177.75972344403544,2.1162220924414896,-0.007303132346100863,-1.6494108368160914,-0.18423853370696253,0.2373289001264435,0.13225734148494778,nm,0.0
28.417745999999994,-0.8375383327637144,-37.57634770107734,178.4447914991087,1.3617033267872043,0.42121339594464574,-2.0999543953994606,-0.03523562610140244,0.052014313508501324,0.016184010716623,nm,0.0
28.446208000000013,-0.5647824216090022,-33.677581252466794,179.91254542000146,-0.2543919021311682,0.44969147904664186,-1.1369386287676568,0.019543284238723507,-0.3679921051277824,-0.0995711990134811,nm,0.0
28.45591300000001,-0.39751159327107394,-31.160131013513023,179.74106169563694,-0.6740657257097029,0.2736578109883477,-0.3462041800124964,-0.03540536997757497,-0.49237593959515985,-0.12078884119280596,nm,0.0
28.48442700000001,-2.4130585207728283,-22.616762538815124,177.08310914440048,-3.2239109404965767,-0.19560104419171245,1.6721995160143792,0.1891864249632396,-0.49929273759915865,-0.31487623657314084,nm,0.0
28.493933,-4.421327160744722,-21.154326073733888,175.85749561507672,-3.7347855950971143,0.04071908721034866,1.506294242294101,0.34702190083935575,-0.3037325074108427,-0.3288040863370362,nm,0.0
