timestamp,roll,pitch,yaw,acc_x,acc_y,acc_z,gyro_x,gyro_y,gyro_z,markers,motor_input
28.503446999999994,-6.3515201434824755,-20.82636038326194,174.65073335028242,-2.9773245373372976,-0.37911108273668453,1.2846462016784819,0.3475856420663663,-0.08451097508595833,-0.25066493968930564,nm,0.0
28.522459999999995,-7.649235622253466,-22.61026460219082,172.45852779461083,-0.984342711374682,-0.7579516275792261,1.8288246899320417,0.012760793440019185,0.21889113472834779,-0.007069477083229223,nm,0.0
28.53196700000001,-8.036995366759616,-23.652151932833977,172.09831609807597,-0.13895398076199234,-0.8604650097553301,1.548483702014075,0.09496615739639634,0.2095038647495544,0.07827533738011513,nm,0.0
28.55099100000001,-6.583560365059134,-26.140436443095886,173.1016635647561,1.249462443599032,-0.930205898309291,0.9292780807404886,-0.24562268626889702,0.31610731106851425,0.4270385970888878,nm,0.0
28.560505000000006,-4.987820353185588,-27.631294046823616,173.71187379376735,1.7813008834730926,-0.6373031237118479,0.28167480465435496,-0.252842073605014,0.34369375338297814,0.4117945414072174,nm,0.0
28.569840999999997,-2.908777135522161,-29.520669156983445,174.4075226176695,1.9706339424770216,-0.13882635620109213,-0.28670055059593197,-0.3300023675383961,0.42752579023088255,0.3922777138491335,nm,0.0
28.57934800000001,0.16938401494387295,-31.646113881595824,174.9305272185306,2.359058772215199,-0.1676235546782322,-0.4187354545319831,-0.49595483827815856,0.4851865871394281,0.40996437333063684,nm,0.0
28.588853999999998,3.1498774134559486,-33.67627530820305,175.14804770784664,2.6839570989536825,-0.03811669281013568,-0.764222988360154,-0.4738500047017266,0.4593952290674374,0.31191252926326524,nm,0.0
28.59836999999999,5.393615651670042,-35.453624107181035,175.1843689812028,2.4294448862327087,0.5628457097610065,-1.710082077794357,-0.34795153288360375,0.3962727016200556,0.1669198610566617,nm,0.0
28.607876000000005,7.544589736760222,-36.762742995544535,175.1640142479198,2.2874029920288583,0.6700696357779464,-1.9944609439082417,-0.33383001563610537,0.30083904274013284,0.15611952498455528,nm,0.0
28.617400000000004,8.918943737740054,-37.272413639330466,175.3470900300698,2.0353675251234176,0.6097908767834843,-1.9816606843890607,-0.21928273070634577,0.1304222661743738,0.09446461715508801,nm,0.0
28.626985999999988,8.970943476497464,-36.82814044603425,175.7629987562112,1.307928297189604,0.7799971478116654,-2.14645764629188,-0.022995915838542852,-0.07668051345715127,-0.029282151011722848,nm,0.0
28.63649799999999,8.488635858115217,-35.45467662463019,176.3152258885034,0.8153095716875021,0.700736440897558,-1.6774068114780316,0.051921640568087936,-0.26804973251941966,-0.062447744853138754,nm,0.0
28.655635999999987,6.611691373982747,-30.34655605431249,175.65862879595815,-0.4436812417739046,0.4652273500861622,-0.38448638963957765,0.12800891562094827,-0.5775146008392036,-0.21730568074779666,nm,0.0
28.665119000000004,5.530889619283208,-27.064915593964468,174.63503646280964,-1.0925747869281015,0.2982738496972821,0.7659520046324921,0.12626633952364066,-0.6589141614132287,-0.31125784470898465,nm,0.0
28.674634999999995,3.7940162995758584,-23.620584959296405,173.2060470935748,-2.211739325894931,0.2328098370751671,1.5355243824836544,0.23288183374325422,-0.7068643607611049,-0.4374830945622303,nm,0.0
28.684144000000003,1.2489913130918093,-20.73041020459431,171.66676479422017,-3.476540971564749,0.27304716467679707,1.5313291026897051,0.3861477306514699,-0.6229066512801423,-0.518367232150309,nm,0.0
28.693651999999986,-1.6827182479856957,-19.314558069728413,170.07960654027855,-3.9501620587284534,0.3234761513319272,1.6909597630936688,0.4938690696971314,-0.35500968135874506,-0.4933866059617324,nm,0.0
28.703165000000013,-4.485396438830357,-19.083539653274016,168.61357865001096,-3.3419836359106587,-0.1604171346426765,1.4637947327431273,0.5070845639608298,-0.1318010731359828,-0.40682631113446516,nm,0.0
28.712673999999993,-6.73650169668513,-19.80661491633047,167.30528033959519,-2.591998412246281,0.11947900953303889,1.0496714368614612,0.4418239678304906,0.06444034883230322,-0.3122857348154621,nm,0.0
28.76022499999999,-7.802383568692922,-25.194868280294674,169.6625185351157,1.186855911168744,-1.0629293880914124,0.583752055490626,-0.15070467222095998,0.344058495540655,0.3917637466155336,nm,0.0
28.769565999999998,-6.186096149075811,-27.247570745046588,170.36156180867638,1.4312565201963545,-0.34350823060382296,-0.2295552070949103,-0.21985910905723186,0.4683812314863982,0.2826560631939889,nm,0.0
28.779079999999993,-3.0472169747231055,-29.858157866322298,170.25476467346243,1.9340609181894837,-0.4134036311270325,-0.3209058235746523,-0.4617883671829074,0.621196120779567,0.27856578651944003,nm,0.0
28.78857400000001,0.4835279172132203,-32.60488936262295,169.46623347797495,2.4230735060869284,-0.44235972092005194,-0.4404945182197874,-0.5041261511226244,0.6606298711336239,0.20807696088075345,nm,0.0
28.807591000000002,5.439277231499927,-36.79838847109375,168.69900275968394,2.5666755537134747,0.3771580717052013,-1.8020389791907896,-0.2907505867959582,0.4351790672803749,0.12763989119192187,nm,0.0
28.817114000000004,6.45639357513295,-37.801584440554095,169.42805376815593,2.4186478387253496,0.28040585241025,-1.907479643961988,-0.1288794694395073,0.2398153172178599,0.13970376854986055,nm,0.0
28.826704000000007,5.641270948407895,-37.813021177524355,170.26740994452723,1.7003357411690978,0.47996448779738676,-2.185174974151582,0.12061911193700976,-0.007985244214960002,0.06713658211504572,nm,0.0
28.836219999999997,4.045807030678477,-36.77595072251233,171.61271998500172,1.148644430076588,0.38465269644579175,-1.904010784650889,0.21149154972593878,-0.23262896739123162,0.07496922418748984,nm,0.0
28.855158999999986,0.2818767348972592,-32.45128134959523,173.4852285605156,-0.002852473602567037,0.1391437543913047,-1.03258020224172,0.24989121480768992,-0.5077663550711219,-0.08878854603136803,nm,0.0
28.86484200000001,-1.10301365581448,-29.776833583187845,173.8006876075403,-0.49541538396752616,0.06587743168497577,-0.4318105818049933,0.17285584871807477,-0.5450830237254488,-0.19181723052391542,nm,0.0
28.874351999999988,-2.196490640011649,-27.079975403772895,173.26417890700677,-0.977136141135652,-0.01937894265009342,0.1540160670951883,0.12656458766564427,-0.5450392075217111,-0.3063595031336331,nm,0.0
28.88386700000001,-3.3721232463603927,-24.595286916697386,171.81938650349846,-1.5512752314032052,0.04363224257635375,0.5240340191304991,0.13977839284786253,-0.5079200833640658,-0.39293423607941247,nm,0.0
28.893385999999992,-4.690550437532369,-22.550179120481918,170.21707228780434,-2.0204453538150644,0.3027851256496192,0.2857980668369329,0.1692620682375124,-0.4293734062032471,-0.39571456339786487,nm,0.0
28.902879000000013,-5.905226484265702,-21.244073295377053,169.028383107554,-1.9947063387338735,0.08686594369806001,0.508045330525432,0.16969361088752127,-0.284823097583583,-0.30053518343273833,nm,0.0
28.912406000000004,-7.058581917703505,-20.503605937801265,168.1893640778923,-1.8104294796714757,0.13259847784578666,0.48520237728377696,0.17725107111289884,-0.17501939179530163,-0.19072504873865648,nm,0.0
28.94092900000001,-9.134200789929166,-18.97960887716801,167.3076784305713,-0.37206342705749146,-0.4453259076983923,0.34542347116155214,0.04832236847979634,-0.09976077901723478,0.08322887788600063,nm,0.0
28.950435,-8.70133708525391,-18.310515645664115,166.69409128021255,-0.05040267711983835,-0.6783703584671195,0.5723255966605887,-0.11511548199209139,-0.09752264439359412,0.1007931071415024,nm,0.0
28.959944000000007,-7.7774328776080734,-17.464155230894686,165.60823105803357,0.12523001787520718,-0.5357578494275981,0.4997872031392232,-0.21644194120270588,-0.10677652225667122,0.05370468067642215,nm,0.0
28.969291,-6.249404133193326,-16.62178992054777,164.09676255585998,0.15425044412006558,-0.3084698114475026,0.5851772087480808,-0.3308452281828648,-0.06933795195400536,0.021538341573153822,nm,0.0
28.978798000000012,-4.25911165439286,-15.808742876950602,162.2429946081131,0.07861727382347028,-0.09829157877996392,0.9420694377278274,-0.4171458788152639,-0.02637225133023639,0.013714253429637354,nm,0.0
28.988306999999992,-2.2195354231077706,-14.94536059790342,160.6009318603508,-0.07099260209451036,0.29898976969088326,0.7829427228982471,-0.4316732483418968,-0.020089504003768306,0.026699291675680553,nm,0.0
28.99799200000001,0.05015465571780161,-14.19560544386437,160.52136717634878,-0.19676871852069147,0.36121712663202626,0.733495196591792,-0.46781098950254973,0.01833446337502015,0.09523205582509703,nm,0.0
29.01701700000001,2.857334793441073,-13.882889606932302,161.23608720152367,-0.2098493150707704,0.7598052919910803,0.32195013565925973,-0.18887099452966005,0.08923454664870359,0.1392537982640488,nm,0.0
29.026522999999997,3.928552442370441,-14.263971801039236,161.8001672181128,-0.05506094797297184,0.5893411861142152,0.46663134279295454,-0.17680483753509418,0.15147962454322567,0.16115899200391556,nm,0.0
29.036034,4.476205877993509,-14.896643184599741,162.21520341876217,0.1501014211017374,0.45803267773060474,0.46248735985496925,-0.06564906824491702,0.16636767881086306,0.10675049512104058,nm,0.0
29.07411300000001,3.421551453270932,-18.205547657120633,161.37612126039522,0.43599795486235876,0.28059636018466655,-0.13191416929556476,0.16837259839776672,0.11450339858662555,-0.1254107449771587,nm,0.0
29.08360400000001,2.6865102948168884,-18.834919163181308,161.18508997096467,0.38303585272206664,0.1451250792591259,-0.04569288532220768,0.16895263073838235,0.08793835836309952,-0.08806400083650993,nm,0.0
29.093117000000007,1.6833002800073584,-19.31743708077569,161.30697733752098,0.3023312392310127,0.06059331988045816,-0.09838516921142809,0.2071998141960874,0.04388794719154362,-0.044068284594418215,nm,0.0
29.10261299999999,0.5350067229269441,-19.675943741429766,161.73148913478215,0.21419214762841565,0.00918369659119598,-0.18643425553633214,0.2246802708738553,0.012866819305344045,0.00569305305685425,nm,0.0
29.112122,-0.584445740814113,-19.923274076227443,162.32195669241045,0.18751265805094397,-0.18813835644399196,-0.08679007919896288,0.21220279950762128,-0.004450662745091426,0.039974170045535815,nm,0.0
29.121657,-1.8648399890529366,-20.072403161233762,162.85211266459496,0.16050944099881362,-0.1955367981366849,-0.19509467502000072,0.23511478834751684,-0.030045186288823723,0.0164175156627991,nm,0.0
29.131158,-2.9909159318723373,-20.181971892186212,163.16256245315247,0.11799787355577965,-0.10744419908204383,-0.3854047891666446,0.20520325303641462,-0.02729104849113167,-0.017241059549804733,nm,0.0
29.15017800000001,-4.281303391409786,-20.444455972035325,162.96704832548403,0.039841234499391316,-0.3087367140303245,-0.21873914838276123,0.12334493080096368,0.004047583859310215,-0.09379536824376863,nm,0.0
29.169185999999996,-5.114377393262477,-20.741594512531012,162.43539643090187,0.013202269766879928,-0.2419371411442476,-0.05410949916499003,0.04638529199541472,0.030728232663788727,-0.05743752609100204,nm,0.0
29.18820199999999,-5.715301868183938,-20.842212379966437,162.82322823499555,-0.008308380364788034,-0.1172031228622984,-0.172252560296326,0.045542502197234845,-0.0038284071305109604,0.04723610300937644,nm,0.0
29.197733999999997,-5.827524055650408,-20.734021360765045,163.2421837189937,0.053703572470503044,-0.2436738318008502,-0.10525230380367258,0.010279562596641948,-0.013140116884506918,0.10262039052333984,nm,0.0
29.216752000000014,-5.98959639870802,-20.435990458537493,163.90825295190885,0.1438329572989486,-0.18934822229389767,-0.16272377982531283,-0.013049512658840474,-0.0159998523854456,0.0885276934517118,nm,0.0
29.226259,-5.868536178440092,-20.253203142057163,163.903444155309,0.16321182596535516,-0.2035171533611459,-0.09514708998665482,-0.035635013147977006,-0.015126909171722864,0.04481466873927234,nm,0.0
29.235769000000005,-5.759700877209027,-20.068237666561814,163.6007682088839,0.13679302195154758,-0.08095097521199765,-0.13959991582316536,0.0,0.0,0.0,nm,0.0
29.245351,-5.555346662822401,-19.773645709308227,163.10135053310984,0.10428043296297623,-0.031680133069496075,-0.039180906516793484,-0.04476433347711459,-0.008124767135339628,-0.03183836901173161,nm,0.0
29.254865999999993,-5.483354738695738,-19.516308288991002,162.6067195259057,0.06003367719884084,-0.026204974740500726,0.05495666173924621,-0.02671461830533874,-0.018567574640263727,-0.038718125945796565,nm,0.0
29.283395000000013,-5.9609741612656855,-18.81305703584929,162.28302621208297,-0.04888124622180241,-0.0805927258123816,0.02399554024532568,0.03981578307051295,-0.04976058394581439,0.038030531044850865,nm,0.0
29.292899000000006,-6.1193869172794235,-18.615770948981577,162.26388546528807,-0.048195336829468645,-0.13463217265851557,-0.014520471854910823,0.04200205530497743,-0.04817940828878108,0.048815451441931106,nm,0.0
29.30241000000001,-6.08634380370107,-18.429766221282463,162.1205015218989,-0.07102620833783002,-0.19717288904779223,-0.021188482542717452,0.023594236422549805,-0.036398374038455555,0.041076445966535306,nm,0.0
29.311939999999993,-5.909595562950656,-18.31567416441135,161.63887605262727,-0.08870920355588578,-0.18997407131981375,-0.07356071274932995,0.0,0.0,0.0,nm,0.0
29.321442999999988,-5.541881329243462,-18.263562466672997,160.7764574635823,-0.0850956103460711,-0.17000500126784096,-0.07386326635207138,0.0,0.0,0.0,nm,0.0
29.330951,-5.027014374481906,-18.235114532264124,159.85630518796555,-0.09788641288759561,-0.1212766261424672,-0.041125499619242424,-0.06873843681697031,0.019498034479425257,-0.01955018916096965,nm,0.0
29.340462000000002,-4.482533292391694,-18.21972609873566,158.9847724392236,-0.08841203641659814,-0.03137582390227325,-0.03592090276632657,-0.09312376311778413,0.02761021270426776,-0.012933510422933071,nm,0.0
29.349973000000006,-3.9190561206866033,-18.18112302440667,158.19281638850686,-0.0639396942875555,0.025583352687758167,0.022617485278418465,-0.11222277387824477,0.03167648183620048,0.01541077367642186,nm,0.0
29.37849399999999,-2.642746521742138,-17.73233899505938,157.1959716453678,0.050967616896578256,0.15309532906755047,-0.038631674378980324,-0.11660625327809962,0.01265714057825825,0.09774751019532706,nm,0.0
29.40702300000001,-1.4538831974882536,-16.917146121454,155.8485691032043,0.08619494083720636,0.16059625014216955,-0.047766149560359496,-0.07313782648689007,-0.013832369216929374,0.014383057486604654,nm,0.0
29.416537000000005,-1.2039494591140092,-16.629956646655202,155.1151924887832,0.07790848659397283,0.12864418606973096,0.05538410551448842,-0.09605924809253784,-0.0012150367157223623,-0.003268882379440897,nm,0.0
29.425995,-0.9178815281609926,-16.363738605393547,154.29155861084575,0.06598766254750824,0.11378436131076328,0.13330912376711057,-0.07416637123642951,-0.010469223371278483,-0.02295768526305735,nm,0.0
29.43557100000001,-1.0899348501107997,-16.163335142743346,153.76621420982735,0.04734153262024882,0.21385892216226116,0.019305333297266192,-0.03681096600206542,-0.027343635202564276,-0.029148599722936507,nm,0.0
29.44509500000001,-1.1792021608102379,-15.967807897001304,153.3015897743,0.023838131483175786,0.14847481558314854,0.04389500504517113,0.0,0.0,0.0,nm,0.0
29.454588,-1.3888072661401778,-15.79024241072852,153.41651939720848,0.022990000742205755,0.11247949422016078,0.06206595203880491,0.0,0.0,0.0,nm,0.0
29.473603999999995,-1.723144820171151,-15.506788309603737,153.24349078353512,0.0,0.0,0.0,0.0,0.0,0.0,nm,0.0
29.492631999999986,-1.7275299990666604,-15.12902906769903,152.27551507122763,0.018949096903321295,-0.04317314946849904,-0.08408679671114243,0.0,0.0,0.0,nm,0.0
