timestamp,roll,pitch,yaw,acc_x,acc_y,acc_z,gyro_x,gyro_y,gyro_z,markers,motor_input
26.002246000000014,1.176300469649569,-18.2049537607783,159.74053175837807,0.11037684456523442,0.09081661718748395,0.048548188649633395,0.0,0.0,0.0,nm,0.0
26.011773000000005,0.7855685852875876,-18.096762020901167,159.54591533177043,0.09606042801249305,0.05636393196903113,0.04375458169562256,0.04690703112290346,-0.012481002692507664,0.027740038225457526,nm,0.0
26.021274000000005,0.3905198518191506,-17.992447094188233,159.32940153476673,0.07669675187764677,0.026098421643512323,0.034526816993511206,0.054282379599488235,-0.016185055487343624,0.02602798687688976,nm,0.0
26.030783000000014,0.019837143832700195,-17.896948134060555,159.0760468515453,0.05609474421916892,0.007393280816119363,0.024179230087089543,0.05451945108597523,-0.01740607179423622,0.026068269262858944,nm,0.0
26.040309000000008,-0.29342208753044935,-17.80159059772411,158.78763739772793,0.0406398801564458,-0.015939415982265958,0.017750402146645756,0.04799680177046434,-0.016442123064332285,0.03019105420374034,nm,0.0
26.04982100000001,-0.5478769406231737,-17.71388760172034,158.4914600562031,0.028139298474436393,-0.01108920968610047,-0.009660650875984656,0.03979798591801923,-0.013462758587883233,0.037669696378717844,nm,0.0
26.059320000000014,-0.7470090521662804,-17.641142140217,158.18583443942077,0.0,0.0,0.0,0.03025563391507205,-0.008723290052012117,0.04796410981329816,nm,0.0
26.068827,-0.8861992520019671,-17.57703037999195,157.94859066767287,0.008057564544382837,-0.0037545024920310195,0.028025085710966482,0.019710897435880174,-0.0037023452751845033,0.058971050716612315,nm,0.0
26.097363,-1.1409075184319555,-17.494531881418105,157.41334300566967,0.03692185220448716,-0.016469404036875322,0.04123810119231673,0.00760542381267744,0.01727068437027941,0.06593998840116583,nm,0.0
26.106876999999997,-1.207935358047204,-17.499203891989364,157.15035302488502,0.053385167153559475,0.00734280258586626,0.04516473950037431,0.008249687566697866,0.020990860940141676,0.05851858905065832,nm,0.0
26.116388,-1.2791136093222357,-17.520893774158004,156.8223866007627,0.05193854041017231,0.006296190668833519,0.046158358460947124,0.010616935584838299,0.023442299162956783,0.04948544782733467,nm,0.0
26.125901999999996,-1.3577877552455109,-17.57561525926059,156.44396020406427,0.013700352985294977,-0.007298168889747768,0.04885671424117481,0.015298547884283899,0.025858298634291257,0.04165078689294106,nm,0.0
26.135413,-1.4375377780313803,-17.670814890522816,156.11088448926654,0.010975941393749845,-0.005988042961526104,0.03911301847092801,0.020576417064708207,0.02877835802921314,0.03695684992660396,nm,0.0
26.144914999999997,-1.5061526156850453,-17.804809574548234,155.7757018362165,0.009960041486279592,-0.005552577811910952,0.035376100477984805,0.024949518344308256,0.032285291625516695,0.03569811311939165,nm,0.0
26.154426,-1.550003058970828,-17.97121154046908,155.45258095873518,-0.01758885978365185,-0.03767519658060131,-0.0010701603126684303,0.027604161129778107,0.03608829813514219,0.036370421337172915,nm,0.0
26.173440999999997,-1.5149545164797604,-18.31001466308953,154.80162306161944,-0.03454481713709637,-0.07186093751949656,-0.0020018735562025453,0.023097495206471953,0.04345605421029836,0.037356806596097886,nm,0.0
26.182961000000006,-1.4165745569947312,-18.426810267757894,154.42478809451606,0.0014316437992504775,-0.1018587180423821,-0.017459368228324095,0.014742716472862308,0.044220514057795306,0.035725238776542274,nm,0.0
26.192464,-1.2761415284206337,-18.483701490248123,154.0282721158832,0.02846103551941651,-0.10953265232777208,-0.026607758944463177,0.004444647700864265,0.04284798461514884,0.03230372044610268,nm,0.0
26.20197300000001,-1.0843552590662526,-18.48574865365537,153.68433509470765,0.04838822729411668,-0.10301216001850248,-0.031182605968717095,-0.010533188846028468,0.041213412757583015,0.030141471794798737,nm,0.0
26.211486000000008,-0.8577185770366973,-18.439720310592552,153.274977952152,0.053582423882997575,-0.08221165166613634,-0.029062996270981935,-0.0251766270273664,0.037632423208470905,0.02922360539421441,nm,0.0
26.23049900000001,-0.4499708232423935,-18.342609156386935,152.47975555019133,0.0,0.0,0.0,-0.03726601418003955,0.029653157495046628,0.03087509021753574,nm,0.0
26.240032000000014,-0.3113997068528477,-18.32886639888719,152.1912005005454,0.010231879666944471,0.03478876404062804,0.058274994748871184,-0.03310082207903301,0.02593614797307737,0.03227715154595179,nm,0.0
26.24954299999999,-0.2521413485103279,-18.335004887809585,151.9419940660142,0.007639235555032071,0.0588114624485659,0.09170548813845668,0.0,0.0,0.0,nm,0.0
26.258983999999998,-0.18968281811977097,-18.347219624743463,151.67786226266256,0.024204462301068246,0.06278131401778812,0.12387835494828026,0.0,0.0,0.0,nm,0.0
26.268482000000006,-0.1717122486007669,-18.39616551151722,151.35671169155125,0.07367525564842181,0.04026897000958201,0.13637510165309072,0.0,0.0,0.0,nm,0.0
26.296986000000004,-0.083680484480435,-18.636232571406566,150.16433764332973,0.11855016243874472,0.03882842907236981,0.24765457412831454,0.0,0.0,0.0,nm,0.0
26.30649600000001,0.05311773994713581,-18.666910237768644,149.73176322941183,0.12582022511166852,0.04455450441095279,0.25518209805942677,0.0,0.0,0.0,nm,0.0
26.31602000000001,0.2599664603328088,-18.7191996084346,149.28763924931053,0.10595953854348686,0.055880813293442654,0.3234142378838349,-0.029002778976899093,0.04295421203920177,-0.01503044153640241,nm,0.0
26.32552000000001,0.5029308981884555,-18.809057260966203,148.74499592952478,0.10458087469881144,0.06405714716756898,0.4430027456895672,-0.030599520043152573,0.05316901816725704,-0.030105906621588196,nm,0.0
26.33502999999999,0.7623302675918396,-18.874318639065823,148.0860137514363,0.12113374805399348,0.06368539917401024,0.525906880580557,-0.035272396524264664,0.050921925227629075,-0.049764759090867174,nm,0.0
26.392099,1.890800359459067,-19.958964789627892,144.0239816369195,-0.347177329621065,0.52424181200188,0.3261197441974547,0.039290320208616225,0.11329892078062698,-0.09493731032084111,nm,0.0
26.40160499999999,2.0136504605901733,-20.730540895981182,143.5425262243884,-0.3880749072966558,0.5656069159186962,0.3422194645349508,0.07322933208024343,0.15221278157286122,-0.09051312785191118,nm,0.0
26.411117999999988,2.1743875033917472,-21.76715335404094,143.2091321874826,-0.38286545052258203,0.5793960758664668,0.28706472866886845,0.10007817921613872,0.19857964087903965,-0.0892224884972898,nm,0.0
26.42062899999999,2.391606008007787,-23.02217519618191,142.93606904110524,-0.33067688733407136,0.43906706798533857,0.3016818813431395,0.1189083594173032,0.23930265429712125,-0.09193603861794121,nm,0.0
26.43015600000001,2.3956707707642977,-24.435453701234067,142.75205421930113,-0.2244670957807659,0.40618154186724553,0.1842769501599158,0.17010977947096687,0.24061121404710292,-0.119763821912736,nm,0.0
26.439682000000005,2.2775907345624655,-25.91430503270349,142.15219038871848,-0.1340988476292302,0.45357422600638075,0.004177398397952284,0.19812908584577968,0.2357855297151108,-0.13214527258083994,nm,0.0
26.449180000000013,2.158124420041605,-27.351533320762464,141.62166859128678,-0.09438360269337684,0.3870384938158129,-0.06704918142636677,0.19525877197768077,0.22730378109830393,-0.11870463872578974,nm,0.0
26.45869400000001,1.85724901276136,-28.709398584314975,141.2241197373073,-0.06878293727357315,0.35566681956654445,-0.15053689874687107,0.21203377448818367,0.19349370627482976,-0.10942850921912577,nm,0.0
26.468207000000007,1.2869273105163095,-29.994895198624846,141.00989534477648,-0.06844547668059425,0.32431455814891397,-0.2070490252913617,0.24008341387848028,0.15200228775106317,-0.10011500254149885,nm,0.0
26.487232000000006,-0.5977952171236665,-32.090609212801,141.14883452039436,-0.13826573158975713,0.11727493839077084,-0.40640298476956715,0.2601439719621309,0.04883601352946607,-0.08113344147747964,nm,0.0
26.506040000000013,-3.560380390356169,-33.63681364927545,141.48639073834542,-0.07152228274287087,-0.24303269835228547,-0.6528199190615723,0.3092895632701258,-0.04082321529019277,-0.15341397037606988,nm,0.0
26.515378,-5.35077081173291,-34.32584869883482,141.481593198803,0.05520472108253996,-0.2617093484975743,-0.9309590139385484,0.3202881986336012,-0.06309708327716343,-0.20084904976392493,nm,0.0
26.524907000000013,-6.73283550101435,-34.95634619768611,141.34846889718014,0.2562884016652111,-0.9712006276888268,-0.7399833409886928,0.2587080874346408,-0.029279359767640643,-0.18315029551832931,nm,0.0
26.534402999999998,-8.265804775980188,-35.486628532321696,141.04166979172655,0.5599775521091701,-1.5071824236319906,-0.6972772306402528,0.2642390916849069,-0.060435860241496164,-0.23730977024509983,nm,0.0
26.543907999999988,-9.751581372862407,-35.75184795536743,140.63055490451472,0.9711232710386304,-1.7613034151386022,-0.7888167628077402,0.2236329730686334,-0.09767674672838608,-0.25413654674443753,nm,0.0
26.553356000000008,-10.528630281987502,-35.55508403320442,140.26408942114688,1.3763802202957025,-2.3240979790781418,-0.656571605370706,0.0751489450340645,-0.0970495550513498,-0.16251313502647702,nm,0.0
26.562864999999988,-10.759103156917138,-34.896198070618155,140.04087021823355,1.5768924837221037,-2.534581125313632,-0.6287484249686023,-0.052776107195722094,-0.11162130747088951,-0.06979888650445068,nm,0.0
26.572377999999986,-10.58535031863464,-33.81660614155637,140.00901519477574,1.4516564775335123,-2.2094016437848945,-0.592467558498194,-0.15811721999232245,-0.13335518313668743,0.014605771196095105,nm,0.0
26.581884000000002,-9.966656660665496,-32.35565018028656,140.13249408748973,1.1143460847245479,-1.7001489859205572,-0.25645459135742504,-0.26471749295929947,-0.1438022405082241,0.09341081277597642,nm,0.0
26.59164100000001,-8.912115787431297,-30.950110069708177,140.40924559043168,0.6004409962441675,-0.8430523395076029,-0.238750437227981,-0.31569364881085743,-0.08758611752300019,0.16691396054129257,nm,0.0
26.60118399999999,-7.342437896110878,-30.245114536105653,140.87460361536762,-0.014732682878595426,-0.0423847840774938,0.026268798396040557,-0.2965813694052648,0.07647028869225213,0.2534695545301982,nm,0.0
26.620172999999994,-2.896802769891741,-30.394079770251622,143.32135197573083,-0.6030303539431924,0.7321627944550521,0.3344474115967755,-0.31238782984022223,0.3087177076667755,0.3644806232964624,nm,0.0
26.629684999999995,-0.5014419143649389,-30.862843380209394,145.02145113624354,-0.3890530732646038,0.6037164122742495,0.49483229903983555,-0.28266455648238253,0.3290420898840803,0.352035975535019,nm,0.0
26.658399000000003,5.635498608320388,-30.962384529900593,148.0235845958891,-0.15398627558054506,0.945529319712263,0.6091862388966338,-0.3333096763882082,0.10306104895983963,0.2618081815908428,nm,0.0
26.667902999999995,6.569510277098019,-30.121850332871887,148.2178620703458,-0.5166902690622384,1.4567967156831503,0.34574503704158743,-0.22717582990737517,-0.043891547430076526,0.13177688164968612,nm,0.0
26.67741799999999,7.124836818229244,-29.252607719177472,148.40261865030092,-0.9444521683036451,1.6643586751632462,0.7137693592229604,-0.17523297868378346,-0.08344833335206318,0.08967703542095012,nm,0.0
26.686919999999986,6.9339378563817755,-28.53493037011261,148.67810936987948,-1.3940458393680695,1.7328339946827895,0.8805277766549566,-0.04806360942323407,-0.12615588735794725,0.03422239778632446,nm,0.0
26.696444000000014,5.906774941742745,-28.376199152200467,149.04247206865523,-1.6377784124470935,1.7244096345807103,0.7197698682251743,0.1367849608244446,-0.1067867728938145,-0.027361223789757878,nm,0.0
26.705938000000003,4.581174678601115,-28.848719756429414,149.42516276421,-1.6393724857534007,1.5301668016374945,0.4306368542328423,0.2471432596175062,-0.023915900917440572,-0.05250301647806913,nm,0.0
26.724961000000008,1.5890501913853794,-31.023540986352785,150.36083747150755,-0.969951882026948,0.49589793079689837,-0.12340453175148741,0.38648088227288335,0.0962699454943871,-0.07357181718454067,nm,0.0
26.753321,-4.773100779715769,-35.999465023662964,151.32466194103216,0.8013886205753316,-0.7864765519469283,-1.3407084483670115,0.44699970866813526,0.11938398601563056,-0.21316859637097196,nm,0.0
26.762835999999993,-6.812299793715681,-37.22841987515009,151.23634548035093,1.2886987161516013,-1.1356763649123904,-1.6697092888500307,0.40528206739485845,0.07245522548951716,-0.2601082852422354,nm,0.0
26.772158999999988,-8.657873098985887,-37.791049474518516,150.97508735225549,1.6214592564770838,-1.6567401574946832,-1.5331486434060793,0.31103218856234893,-0.028899187994730888,-0.27583328803252877,nm,0.0
26.781667999999996,-10.585952480824377,-37.308198576149806,150.61692151994188,1.6816932764874635,-1.7922796514176047,-1.3466013863406985,0.22029480514950125,-0.21966447666755792,-0.30523713585937123,nm,0.0
26.791177000000005,-12.295971054445609,-35.67256743531915,150.32384494481116,1.3845494445395292,-1.624674919894984,-1.1201656217960423,0.07864572542940446,-0.40659686045479665,-0.2604363729280936,nm,0.0
26.810397999999992,-14.00463796930551,-29.829902502016637,150.12797878846618,0.44121313279481056,-1.255396455134564,-0.13909608891437938,-0.23643466940950827,-0.5856788144290133,-0.06416870735904855,nm,0.0
26.819897999999995,-13.857383761690874,-26.79132963141793,151.76156607338513,0.04163586832182919,-0.9087548197008275,0.3760530349598893,-0.31069787995515946,-0.50955926520546,0.0187397503934371,nm,0.0
26.829401999999988,-12.790567921722158,-24.205230268572134,153.52459806067506,-0.3666454600927931,-0.6806634824788754,1.0342792708876012,-0.4036266727066756,-0.36367054115479314,0.07620951123817671,nm,0.0
26.838910999999996,-10.919768873743577,-21.9520157313282,155.1119571055287,-0.6898136457811482,-0.337019995488278,1.5301021415735134,-0.5026102972481817,-0.25176290984213856,0.06828227077634966,nm,0.0
26.848488000000003,-8.31622481586645,-20.189498840211133,157.226224962316,-1.0870349814012905,0.15929043414886704,1.5800150571692806,-0.5860932413643912,-0.12643269770168505,0.05090848730150036,nm,0.0
26.858120000000014,-5.134177754641943,-19.223565468961002,155.39762540088407,-1.405290490456314,0.6414273160379191,1.8011513256087857,-0.627950688892552,0.0838596226372651,0.06358989491558652,nm,0.0
26.86762300000001,-1.816134257536294,-19.034085304423407,153.87930831482606,-1.499274492078243,0.8957918237671996,2.175607852835723,-0.5829547146909875,0.2535089663202859,0.1071330589371694,nm,0.0
26.886637000000007,3.3818830027367173,-20.02984140316198,153.57804575069025,-0.7758515691134883,1.0128981502158334,1.6173382963291931,-0.3208219155755133,0.3390386956538112,0.14124148841984113,nm,0.0
26.896164,5.509936380506163,-21.40364400377312,153.66617773431045,-0.3925351674225696,0.8936516976433295,1.5392646978597087,-0.23719309299241106,0.4371430031791272,0.16515304576740003,nm,0.0
26.905665999999997,7.080624081488679,-23.06028083670403,153.8553235381927,0.023826523564077537,0.7021062579159364,1.422470013679974,-0.11711603074132486,0.43981808058003563,0.15359313193739468,nm,0.0
26.924682999999987,8.405373055190068,-26.706046032111704,154.5229153393871,0.5265549098637535,0.5158710201116338,0.2409792591219946,0.0776361423853095,0.4049078902372059,0.1197997493304118,nm,0.0
26.934200000000004,8.506974806089847,-28.965514440376364,154.9779703786943,0.7591051057007582,0.29775494196659047,-0.07059848513914337,0.1733759251273678,0.4304465915015755,0.0979628486262039,nm,0.0
26.943551000000014,7.9298234280746485,-31.314998573821875,155.5694186830999,0.905871712479492,0.25827837743774973,-0.5894553692278958,0.2840756538576225,0.3991225432327769,0.05818506326165771,nm,0.0
26.953075000000013,6.903447840867971,-33.50551531319234,156.39178860932736,1.1121792353831381,0.02103008449739678,-0.9957736500297943,0.3334110020211927,0.3436552113925038,0.05277861579043217,nm,0.0
26.962559999999996,5.217350030587499,-35.474598615042744,157.37756202023198,1.2699972103398132,-0.26205478097628243,-1.328884651278793,0.40706795972283105,0.2670525832360206,0.005017421602168405,nm,0.0
26.972061999999994,2.803843772891105,-37.06325671310709,158.36765091531308,1.2475355882953392,-0.40334552945071955,-1.639436977216003,0.4771911686744542,0.16162477948364803,-0.08822222214520826,nm,0.0
26.981650000000002,-0.00787787708713623,-38.00777415373641,159.16598125737934,1.1742178054715227,-0.607167443438885,-1.7770865450045736,0.48128829127279066,0.028377305831925194,-0.1831463190329845,nm,0.0
26.991086999999993,-3.0660997575171227,-38.284808083863375,159.53827559259318,1.0168313558315738,-0.7918575128776112,-1.74118967215382,0.4672407854672401,-0.10404818304168562,-0.30311920800496805,nm,0.0
