timestamp,roll,pitch,yaw,acc_x,acc_y,acc_z,gyro_x,gyro_y,gyro_z,markers,motor_input
40.524564999999996,23.942478506970893,-20.805455637396967,174.20327022424016,0.5466466180077402,2.599878870866224,0.1886787244136327,-0.9289067176336748,0.11208630306998336,0.6456834951283892,nm,0.0
40.534088999999994,27.28821467148895,-21.136054716603862,175.97333315402102,0.48001655373101615,2.444673240158812,-0.1751209945488868,-0.6265412112104565,0.12830800750635168,0.5872835740015984,nm,0.0
40.553121000000004,28.566777662430322,-22.30399848040711,179.94859199413347,0.13211956615074938,2.0044005042106776,-0.16166428913881575,0.030635811149672697,0.1109979521646091,0.40091786904547877,nm,0.0
40.56280799999999,26.86241643310812,-22.486641551236218,-177.73480953633324,0.12547766196678767,1.3970697676784742,-0.14341111783361668,0.304857820942033,0.050493608333193864,0.3272365409301642,nm,0.0
40.581829,19.313445699543898,-22.0875118926464,-173.60368394443216,0.1291233253199724,0.3233938226252621,0.6046847000464285,0.8171463398864811,0.011268180383278554,0.044476938232269156,nm,0.0
40.60083700000001,6.825552867714677,-19.661983909473424,-170.7609863234233,-0.17558935393996122,-0.7660806237531519,0.533211156812994,1.2851850442563864,-0.07914319616373572,-0.2331522289277735,nm,0.0
40.61034799999999,0.18833359690626864,-18.411979479504613,-169.9815609171749,-0.18750921508980825,-1.3526109122075223,0.6855068351217095,1.2709260659988995,-0.026160168025748585,-0.28029393047542994,nm,0.0
40.619856999999996,-6.478658639423204,-17.345603105535936,-169.60874732073324,-0.2798608075936553,-2.13117966567186,0.9881427839066005,1.2789953775013156,0.025883860110610293,-0.33676429042158806,nm,0.0
40.648213,-24.798634449007647,-15.046295525306002,-171.65166421519106,-0.6685231739362393,-2.57361493370165,-0.5553474638886394,1.013546459306434,0.12999801643017586,-0.5067638923457193,nm,0.0
40.65753000000001,-29.15633595898594,-15.601528406590461,-173.17486871289188,-0.7532199660841662,-2.0756879706943656,-1.0707647359417423,0.8123789238335639,0.23309436554392665,-0.5322962647568331,nm,0.0
40.67656199999999,-32.909737802747586,-18.085155362582,-176.9649870879306,-0.3044988754197966,-1.5827651355413406,-1.1877414594764706,0.18411430530705816,0.3071292727536858,-0.45801323476064687,nm,0.0
40.68609699999999,-32.76288445773356,-19.52257527988362,-179.0325534709841,-0.07273454708150216,-1.1454211607061717,-1.0560620781362446,-0.04333301850062148,0.2990737319164968,-0.4001909903263588,nm,0.0
40.70517699999999,-28.69287030038359,-21.37260479450356,176.79662879972417,0.3093017360339932,-0.6098646028958338,-0.6180310745929699,-0.47396747839515946,0.1707529203031592,-0.23008143671793402,nm,0.0
40.73388299999999,-13.203653142257252,-21.344957915688152,171.94448895740803,0.098693988118341,0.49397747286024485,0.2311918827452915,-1.333533604420478,0.08735781934908989,0.26054996989848567,nm,0.0
40.74338399999999,-4.957486851323816,-20.245230739862254,170.98679925383715,0.2842364841242734,0.8513772447472753,0.9555952667892281,-1.5644465953352462,0.02477322349173837,0.3934125613412229,nm,0.0
40.752902000000006,3.6110085236643084,-19.258068423762477,170.50507355549087,0.31248942865543505,1.452922553369219,0.9219723054208928,-1.6313886006701086,0.07747520629152124,0.48037474491157894,nm,0.0
40.762339999999995,11.877268319297881,-18.866811735080166,170.50361676818366,0.2854136081481745,2.143086129656264,1.1695888194973654,-1.5624707402889522,0.1926516465477269,0.5355729008149925,nm,0.0
40.77203,19.20236492163591,-18.70018051755109,171.1523735342154,0.3296409426279125,2.6912536333520896,0.9911644866800047,-1.3834868744071398,0.19914964789036663,0.5960415307380809,nm,0.0
40.781361000000004,25.135201291462103,-18.666496252035817,172.49580794348643,0.4900820109265349,2.6302331463033735,0.2995728076999804,-1.122877590635905,0.16301321260401105,0.6424304848843554,nm,0.0
40.79085699999999,29.131688966618036,-19.179992506886208,174.07777337877297,0.539196991726743,2.4151775485916147,-0.11229384165614724,-0.7483172023897272,0.19934256427200445,0.568795442518692,nm,0.0
40.80038400000001,30.693043223449326,-20.06639315723011,175.67804397980638,0.4453201066219416,2.2891214066498953,-0.14011237456171605,-0.2863844857536489,0.21133373135404276,0.41797871472560544,nm,0.0
40.829102000000006,23.615979125805012,-20.99055453718926,-178.94930159332452,0.3088403077648992,0.6914677177880009,0.24644114283182503,0.7241179714697207,0.047104719473424574,0.03591884705558182,nm,0.0
40.838617,18.28430887497604,-21.047299408308135,-177.59676738670592,0.07363786708986211,0.19084834414955612,0.863500650167348,0.9863949164304318,0.05057914335474428,-0.11779493910339361,nm,0.0
40.84812099999999,11.682193819940633,-20.608415402355146,-176.35142466769702,0.04370342398993533,-0.3911982185052856,1.227770298289504,1.2293197927983526,-0.012521045491977802,-0.22544389495126674,nm,0.0
40.857618,4.4988287240545075,-19.968479142678568,-175.29774814185654,-0.3444574166362196,-0.8727466897224293,0.8404280075915234,1.3459590002874844,-0.018798978593158728,-0.29133256873966007,nm,0.0
40.86713499999999,-2.3039351015509735,-19.303791077499287,-174.46581103123185,-0.40388966927656916,-1.5337770663506691,0.6723677142190971,1.281080763761871,-0.00683156586567005,-0.29343911220658936,nm,0.0
40.876453999999995,-8.809245240412475,-18.70997397731031,-173.9730192683032,-0.6206459042757735,-1.7905331700622698,-0.007978587329075188,1.2290142837460145,0.01739058036586994,-0.3265078803370653,nm,0.0
40.885966999999994,-14.334546897939086,-18.31438804887283,-173.86538566529637,-0.6796171460265829,-1.6378555848639196,-0.7082212005618939,1.043683981075056,0.04420583659727869,-0.32948255691297496,nm,0.0
40.91432800000001,-22.813518612444422,-19.164671753650776,-175.4176849277371,-0.350037739559435,-1.245485485392316,-1.1264304659325761,0.2876003500889496,0.14315015784833934,-0.2550366833604682,nm,0.0
40.923846,-22.986029658121787,-19.662886783319813,-176.24574308274282,-0.12009278531472123,-1.2236458721319348,-0.8236957929717847,0.01844954395738943,0.11413147220120305,-0.17503236116355542,nm,0.0
40.93336199999999,-22.342767165982032,-20.0267738922649,-177.02524808245923,-0.04367872219599052,-0.9155125578287256,-0.6067540421219937,-0.13188575039664388,0.07798156182774778,-0.1101973923480835,nm,0.0
40.952574,-18.704430845461978,-20.14451938780343,-178.12762462044103,0.12854806799856705,-0.5262634253278464,-0.08531331756623728,-0.420056482005302,-0.008892469502706848,0.060568717430946044,nm,0.0
40.98106999999999,-10.710365946417173,-19.65988718934787,-179.42288954981095,0.1460246631179319,-0.08895654495895043,0.30757010814871505,-0.5513703787310018,-0.029116370908837983,0.09184346637035096,nm,0.0
40.990601999999996,-8.215611011472276,-19.579725775621124,179.85499282441697,-0.0048069827725595185,0.32928268111936765,0.16427600156759278,-0.4775150876123264,-0.005517898681999948,0.022362698504652716,nm,0.0
41.019306,-1.9715367792339222,-19.550268009537596,177.1064231324326,0.019366099173489724,0.7390898095587547,0.29019739030658703,-0.27528986328984983,0.016152207075171593,-0.09014597093598854,nm,0.0
41.028816000000006,-0.9089522945862557,-19.53230233745066,176.40631998015647,0.10943981534831612,0.7464355417691774,0.2691246385084148,-0.20722452349619264,0.019994544947461283,-0.0712707206480155,nm,0.0
41.04784000000001,-0.42290603553815587,-19.484848030079583,175.79464136203657,0.20414823504042068,0.6281537616105217,0.0749491310849096,0.0,0.0,0.0,nm,0.0
41.057350000000014,-0.6085243476040667,-19.355226953242223,175.7867898061736,0.2486166025032671,0.4058047672675399,0.13104490248609044,0.0,0.0,0.0,nm,0.0
41.066867,-1.0214613558238121,-19.184511653302316,175.81850320560815,0.23627951677115475,0.22873057318591292,0.16458789434432292,0.06866123878160724,-0.027487473325861586,-0.02325329334085799,nm,0.0
41.07638499999999,-1.5855062916151261,-19.01335180551942,175.7958009886981,0.11055327990607389,0.2165739911141328,-0.025960942836280358,0.09730816958432728,-0.029621896258473692,-0.043726708360997624,nm,0.0
41.08588900000001,-1.956888492784515,-18.886227680600566,175.70619721623933,0.02527426528657833,0.09573378591011704,0.052719184445806,0.061679604271121444,-0.01819768767312899,-0.044257810468458586,nm,0.0
41.095403000000005,-2.2643395223954657,-18.810524478482638,175.56857604182534,-0.019858087960588276,0.027779355988097103,0.08947111441722946,0.05041983868230197,-0.007110003827462119,-0.049559575100514584,nm,0.0
41.10491999999999,-2.5358422891733547,-18.786522461503502,175.45325956677104,-0.11299531104497741,0.08811604389387422,-0.0039036845307461178,0.04445617181257998,0.003649927989310265,-0.042673800876955076,nm,0.0
41.11442299999999,-2.592815944545276,-18.820885900615025,174.7852350558396,-0.10203465255989363,0.0444341819560822,0.037682834572369324,0.0,0.0,0.0,nm,0.0
41.14299600000001,-2.507363772382281,-19.180451829865785,173.70939393957505,0.06671047608366727,-0.010037625248413708,0.04105121893105153,-0.01950101261517268,0.03963521915395415,0.10048810947911786,nm,0.0
41.152541000000014,-2.4411008217187917,-19.1617955871337,173.61384285698645,0.11233003734963522,-0.015262806017959424,0.02701609467401869,-0.020924651346859856,0.0352385259360461,0.11072044740558025,nm,0.0
41.171559,-2.2576314815687697,-19.010882470880713,173.42044278529758,0.11755780102712211,0.05011362153951979,0.029268908080175446,-0.04295348931236596,0.022788540918794706,0.0947510300841973,nm,0.0
41.181070000000005,-2.1861723345178667,-18.924341741234326,173.2302586346063,0.08342998627343354,0.07856925046097782,0.05111972153682804,-0.03815956511369278,0.014647065401577366,0.07135458621491667,nm,0.0
41.190574,-2.2287734920387945,-18.90184907711858,172.97900011273327,0.02619796314740824,0.12243674914515025,0.03222921777844987,-0.025114548799991233,0.008507192464688167,0.05125079818771671,nm,0.0
41.209609,-2.4966705424434967,-18.906551629184268,172.41778507114066,-0.06591440060765914,0.11611201810115476,0.07163814277349563,0.0,0.0,0.0,nm,0.0
41.219116000000014,-2.876050527671827,-19.008498747586717,172.3059124710744,-0.07097269199357019,0.09800521602236589,0.03340556545056225,0.047559379184998016,0.008632834730148494,0.04633016751055919,nm,0.0
41.23813100000001,-3.545833991338439,-19.07428207019821,172.10180090762452,0.0,0.0,0.0,0.06199933543629484,0.005935716142363677,0.05456697800727776,nm,0.0
41.247634000000005,-3.778348207033396,-19.01661992311793,171.93070804148797,0.03847066836407937,-0.057396702792194214,-0.05524476149100567,0.04975505333942888,0.0042626234665372464,0.04756361460247666,nm,0.0
41.257160999999996,-3.853586529624099,-18.88083870820267,171.64598337838007,0.09009554774573818,-0.11289418490957336,0.004436143060477403,0.0,0.0,0.0,nm,0.0
41.276171000000005,-3.876703956847459,-18.642322623134227,170.776029383571,0.021949804716233368,-0.1016199740467022,-0.019726464614805473,0.0,0.0,0.0,nm,0.0
41.285675,-3.895102044358161,-18.5419520652354,170.27913883798797,-0.013796141485881338,-0.0712323839096285,-0.004682611438127582,0.0,0.0,0.0,nm,0.0
41.29518999999999,-3.9038798944287003,-18.51047343648707,169.83584989987594,-0.057747416745394756,-0.044457464916744675,0.01252122180401858,0.0,0.0,0.0,nm,0.0
41.314211,-3.899067229157843,-18.354178962568163,169.12464203924017,-0.04903413116446207,-0.05714632700207905,0.007704344135685085,0.0,0.0,0.0,nm,0.0
41.32372599999999,-3.8999967096795944,-18.281989994410477,168.78853073152675,-0.00727464217031747,-0.07414832405736958,0.022038633089027575,0.0,0.0,0.0,nm,0.0
41.333237,-3.8785097240593696,-18.189945802143786,168.29210897387875,0.004770040750710884,-0.08721903905719243,0.06807740427216187,0.0,0.0,0.0,nm,0.0
41.35225700000001,-3.8000717749719595,-18.031593327938985,166.91522993448226,0.03660767267918119,-0.06929370393544337,0.005778724509452407,-0.005041676587760286,0.012622733511840309,-0.053562732223228327,nm,0.0
41.38079099999999,-3.8035143714846256,-18.18243616271248,164.68396165804708,-0.00033293541325317763,-0.04191748851214973,0.03273347827466254,0.013785942102164264,0.024800166492602638,-0.06015824533315628,nm,0.0
41.390298,-3.885063118178317,-18.327009937449283,164.11842932863897,-0.02681368271462659,-0.03895566869785562,0.041355609572191095,0.027330928923066516,0.031468246634055466,-0.04451279110496116,nm,0.0
41.399812999999995,-3.9338687362095364,-18.467581300784534,163.64343571463405,-0.00539465176551285,-0.07075803333984783,0.044166565250302554,0.02778488991664738,0.03559936392202298,-0.028840692969912828,nm,0.0
41.409322,-3.925674569484548,-18.57970525220624,163.20819152411497,0.010049804967330137,-0.10063400621046867,0.02858433955107799,0.0,0.0,0.0,nm,0.0
41.418824,-3.854554059587838,-18.6826033265247,162.71846532328064,0.027337805861724115,-0.09953010218231277,-0.025006494072185227,0.01248541547701291,0.0439901298538518,-0.027513447312993378,nm,0.0
41.42833200000001,-3.6609299495175596,-18.77757087263149,162.16291338408524,0.04374740218924073,-0.10964751127489157,-0.0041592900317392505,-0.00814407884027433,0.05265744892040672,-0.03547628617222995,nm,0.0
41.437858000000006,-3.421827901770584,-18.83618003769237,161.61498003862104,0.06426713360386932,-0.09059061719026613,0.01361850360061387,-0.022782952296721077,0.05303159084375476,-0.04638394394681747,nm,0.0
41.45687100000001,-2.905218349998301,-18.921178897224006,160.54093623713442,0.051250216345084205,-0.021204553612756544,0.04184254878155748,-0.04096098008458857,0.04955241547823465,-0.04208306256456707,nm,0.0
41.48541599999999,-2.4758357382261136,-19.06736005426565,159.78113709831496,0.0,0.0,0.0,0.0,0.0,0.0,nm,0.0
