timestamp,roll,pitch,yaw,acc_x,acc_y,acc_z,gyro_x,gyro_y,gyro_z,markers,motor_input
42.502939999999995,-7.40455560162658,-23.066133872130465,178.03757997779294,2.0107201280358535,-0.5317667154220969,0.9517007416312466,-0.14506128015092432,-0.23726679359109887,0.14586591823890002,nm,0.0
42.550493999999986,-1.794218115993706,-17.641913432683342,-176.90504249085413,1.410047583145627,0.08611037033172804,1.0417987129219786,-0.24883002512609706,-0.028601362551968105,0.11286217347315469,nm,0.0
42.560001,-1.138567104730923,-18.250156808933742,-176.745760384933,0.6351634430959339,0.15033157098907865,0.7758603091307618,-0.13986385022460354,0.125782358618513,0.022772523469632724,nm,0.0
42.56951000000001,-1.0682255188060712,-19.6165536888493,-176.91387483287824,-0.06621871312000617,0.41617927977171665,0.32861633290478154,-0.037030130421216605,0.28379117515312025,-0.06484776556571027,nm,0.0
42.58854600000001,-1.5390088438978988,-24.015051448899793,-177.9448961374622,-0.15752296865088455,0.25469833221551424,-0.07810168587304328,0.06436468990393233,0.4893420115970602,-0.14983202951659233,nm,0.0
42.598038,-2.4127548842843427,-26.48879031176425,-178.61218097020227,0.08918528705600572,0.3010212012712183,-0.6233131343858264,0.13577984148510347,0.511479115295555,-0.18995113044431805,nm,0.0
42.60739000000001,-3.3532479527824957,-28.76401103879337,-179.19054140051898,0.4996506044415442,0.06890910006573342,-0.7991242851966591,0.1504794107560695,0.470534319989046,-0.19637540344983073,nm,0.0
42.635919,-7.238073227475099,-31.033443035850148,179.966889349957,-0.21336679606045147,-0.19844256724305892,-0.9162947256766152,0.20091454565706163,-0.022295749446563186,-0.226838294803714,nm,0.0
42.64543499999999,-8.587668898803434,-30.11789736843898,179.8829433350496,-1.1946128221692283,0.0753399856150527,-0.976542006138613,0.22613305053716004,-0.17039118844508414,-0.24469745704750717,nm,0.0
42.654870999999986,-9.274526776544052,-28.843170948119557,179.3993632711518,-2.031279484740733,0.02958232844049317,-0.5787308972994644,0.11126646283873293,-0.2435885441825659,-0.16397088207261332,nm,0.0
42.664389,-9.568810676056893,-27.508891714070945,178.958763314016,-2.8808485768423986,-0.14487596565340619,-0.19164574371814727,0.041360728845409804,-0.2554197678327073,-0.11561152457047966,nm,0.0
42.68345500000001,-9.740681115735523,-26.70630452131556,178.95369794928598,-2.9635205889383864,-0.15682830980892884,-0.15349158042478772,0.0,0.0,0.0,nm,0.0
42.69297499999999,-9.480012113191046,-27.259916986381747,178.97911762780694,-2.2608106866921727,0.009830265826542834,-0.32510654379279474,-0.0512810594675467,0.12415968206554258,0.029128779697215106,nm,0.0
42.721676,-7.264335638361817,-28.678566205937322,-179.83973877260513,0.24085774725574588,0.07532618385349042,-0.7993961504483789,-0.1601626147666203,0.06215961824857008,0.16060103099822753,nm,0.0
42.731052000000005,-6.170284769607994,-28.392434988553656,-179.30096117203624,0.9424097296009862,-0.00834678245820683,-0.3006554699046342,-0.19950851031588807,-0.04665766957689997,0.2123836680092251,nm,0.0
42.74070599999999,-5.215388107017613,-27.490550336559217,-178.07361866222854,1.399083121569153,0.06147656408728225,0.18717886896415994,-0.17165353921331028,-0.17338151558406611,0.22135656201044251,nm,0.0
42.759725,-3.4648790210877634,-24.265683565793516,-175.31610362616098,2.0643545213270147,0.06953516955297875,1.342958357677514,-0.1291293672218199,-0.3536677157204297,0.22782497100014745,nm,0.0
42.778741,-1.851047937483993,-20.898857201102327,-172.771982051699,2.4386873782590675,0.18341460357991432,1.5726135932846688,-0.12325076614802867,-0.3140546678777352,0.18509042012177554,nm,0.0
42.78825900000001,-1.1523903714312755,-19.81600106818405,-171.93620147119373,2.212365483676584,0.3341107282169821,1.277596420800939,-0.10944323502025001,-0.22210575005723396,0.128053904941051,nm,0.0
42.79776000000001,-0.421166609223566,-19.33765023079409,-171.4356360097595,1.5445184416382842,0.35378275344794724,0.6939355759883424,-0.1315844348108534,-0.10461517562146098,0.07730461367874368,nm,0.0
42.807265,0.14304738303166134,-19.631371066134324,-171.3270457568494,0.938815128344291,0.06202773730524861,0.8559283324378293,-0.12353597627500205,0.05238642784384457,0.013680862597980981,nm,0.0
42.826291,-1.0692535187817038,-22.546027558286756,-172.18469267833828,-0.5361621145215136,0.21074378600513408,0.30881178915050084,0.0835395707559387,0.3898005968006679,-0.13997647193366175,nm,0.0
42.84532999999999,-3.7976291544765126,-27.74620846658617,-172.94703537385232,-0.28681136848891375,0.0707686329471755,-0.12324676270264642,0.2258677784287469,0.5989978308409417,-0.1984376954829517,nm,0.0
42.86415400000001,-7.526019086285787,-32.607169613172175,-173.2827632624843,0.5212108440418728,-0.13693502004450286,-0.9599226259180719,0.25897661422290147,0.47925542315927966,-0.2381802367584502,nm,0.0
42.88321300000001,-11.568299256482872,-34.524429599239134,-174.21531614276307,0.15174282516949356,-0.042086730679396896,-1.3439160584251568,0.3099789455585797,0.14507252184931088,-0.3710612556740704,nm,0.0
42.89265599999999,-12.925094900660149,-33.94716494539595,-175.2132863800138,-0.5475586287627768,-0.09630776226268394,-1.1864419843181908,0.22682553561029054,-0.08249412814368805,-0.35083042782571333,nm,0.0
42.90215699999999,-13.841948806867984,-32.57617185518404,-176.32468167201503,-1.2585752027672836,-0.28725173522679504,-0.7695697649149861,0.1661687326799712,-0.2503731795809917,-0.3213538203068709,nm,0.0
42.911654,-14.696669503277343,-30.97466935127539,-177.32857292931365,-2.2371838900995966,-0.18697145856463793,-0.4531739697922796,0.15610219138929393,-0.29990460880800573,-0.2892819578040174,nm,0.0
42.921155999999996,-15.206133241940698,-29.47317427366089,-178.0705567516187,-3.0902967660005496,-0.27405492398075215,-0.24125283844363163,0.09337876208755568,-0.2845377555490624,-0.1981537912398749,nm,0.0
42.93067199999999,-15.55800367126638,-28.493028854383855,-178.49366487974152,-3.3109069669970634,-0.25016215692553023,-0.16707048801942287,0.060816464156275146,-0.1819178486744762,-0.11715868062204025,nm,0.0
42.940180999999995,-15.638580499549285,-28.27466212690282,-178.55778575868922,-2.710821481701085,-0.26851096712292566,-0.4637295801899087,0.0,0.0,0.0,nm,0.0
42.949704,-15.324454998529164,-28.571891845308215,-178.36626488525576,-1.94299356909716,-0.1890235130507982,-0.5398749275267384,-0.06363013839904623,0.07041352948152416,0.06991484953105645,nm,0.0
42.959215,-14.78474919750789,-28.90445635882203,-177.94143694933877,-0.703945704332022,-0.4293141377695084,-0.5333360169229814,-0.10373319909438455,0.0758423131404608,0.13857511574422107,nm,0.0
42.978228,-13.623806128122576,-29.175064378519725,-176.55048325252216,0.7516361358798332,-0.28623654637797447,-0.8503772417077555,-0.1462146603916347,-0.0002097449109088482,0.22942196946185123,nm,0.0
42.98773600000001,-12.605612709703248,-28.627718347706637,-175.87611450856062,1.3968460538588443,-0.4325563610572922,-0.4974592685778908,-0.1784172697866335,-0.10916662287123638,0.23466289467083068,nm,0.0
42.99724699999999,-11.458220915259883,-27.524151393779093,-175.39732972685755,1.6341916839801207,-0.32530761861062046,-0.26861670160389983,-0.1931035246837715,-0.22389929896522073,0.2047568860087638,nm,0.0
43.00694300000001,-9.862780118244714,-25.98437397981686,-175.10123904889278,2.001304726280605,-0.40375543313636064,0.34483302679047056,-0.26676893323199147,-0.3191497207913411,0.20337688451822572,nm,0.0
43.025983999999994,-5.394754143807734,-22.310388504984314,-174.91800312448004,2.5394650493953517,-0.038739546097116925,1.4202355428030917,-0.44040427996453213,-0.4034079770666031,0.210143489570755,nm,0.0
43.035526000000004,-2.5283179679293504,-20.763405855021563,-173.9915137253777,2.390613093461437,0.267362731908035,1.5301029803325668,-0.5072849411505055,-0.3528384654153963,0.2086121255952513,nm,0.0
43.04503700000001,0.5916446361929609,-19.64897208809337,-174.07427220232714,2.07814412252445,0.49186542883532275,1.3982378947350236,-0.5687900803279391,-0.27204017555645776,0.19666612527283223,nm,0.0
43.05454800000001,3.4181002720880467,-19.1205931142809,-174.35280669213432,1.5041647786495238,0.4389371584305218,1.3787422585624052,-0.5294395110993356,-0.14849699583806156,0.12893221304584385,nm,0.0
43.083084000000014,6.620133447269081,-21.411359148423834,-176.20027447987584,-0.76178206999499,0.6625174243684303,0.8100710417153112,-0.09116608565417841,0.2874390488609902,-0.1078585700034139,nm,0.0
43.092589000000004,5.8521559349781285,-23.131519269684663,-176.6967266851287,-0.9279305922447219,0.7505597291202772,0.2877906193896292,0.11183641028610136,0.36326663119232366,-0.1607122162645295,nm,0.0
43.10211100000001,4.7802180718336125,-24.93171821045667,-177.0348866642843,-0.5184212563233003,0.5073113949108171,-0.02685515936530655,0.16723309263643854,0.38147696473752757,-0.15770694244802258,nm,0.0
43.111613000000006,3.2363298236194664,-26.52955669949178,-177.4083238330757,0.05197294683202952,0.2627376587823971,-0.2621297552108684,0.2539894777427064,0.3441055587693782,-0.2110679319631576,nm,0.0
43.121139,1.3346130927088613,-27.41741480735454,-178.00065177317512,0.2502559922368966,0.21033586413177977,-0.6320675630410887,0.32356807515424096,0.20253643433480983,-0.2929274752535717,nm,0.0
43.13064,-0.3478208783524942,-27.261363141816485,-178.83854848593023,0.23356701868953636,0.047194877765147046,-0.7128771003377433,0.29191965938457876,-0.011401771918220529,-0.3238030371765856,nm,0.0
43.14014599999999,-1.941983571843866,-26.23069667796716,-179.8115225102199,-0.2698791872463231,-0.09977882764686459,-0.4410907071689164,0.2797582888857382,-0.19116282190445458,-0.33962415666517975,nm,0.0
43.14965599999999,-3.7549110775420718,-24.632971232465845,179.33725679342996,-1.121698979004169,-0.143750536350168,-0.08940096420354146,0.31917738610532714,-0.30918223859262184,-0.32735174106666115,nm,0.0
43.158985,-5.783691100533932,-22.798671208617723,178.87072149041498,-2.377828129427858,0.08577729783091269,-0.03321582362610771,0.35911089292947235,-0.3607624141210489,-0.25769054995022317,nm,0.0
43.168487999999996,-7.4254874432509546,-21.174389553446026,178.9782249004551,-3.2216688769820037,-0.20806109446825863,0.019233153092224564,0.29176464501034105,-0.31852465386555046,-0.10235917078654173,nm,0.0
43.17799600000001,-9.037727737226076,-20.52454676868514,179.5637801601381,-3.5307190824319576,-0.2969316712784251,-0.011585571610950845,0.29308612498051273,-0.12155667503389296,0.0017614039791034003,nm,0.0
43.21623199999999,-10.800000582832746,-24.142066531510107,-177.2342703212286,-0.036789221764076944,-0.1252520405932381,-0.4137035066898724,0.08403010883589918,0.24194108841482861,0.13806273729075125,nm,0.0
43.22575599999999,-10.402380121693826,-24.85873533193416,-176.52528823006918,0.7772689547822499,-0.2666695116143217,-0.33207231909911566,-0.08744490147530351,0.15153680542812123,0.23805003698263494,nm,0.0
43.23524599999999,-9.602826143630653,-24.991991399529375,-175.37953891925457,1.5533122060927187,-0.5207506047353871,0.040805614345876616,-0.15471160452917565,0.027966252853990455,0.271276622368105,nm,0.0
43.244763000000006,-8.948102854584914,-24.686806711205346,-173.9296836056199,1.6315225657532908,-0.1404610452490862,0.19287719979853057,-0.1207896111070545,-0.060887956760708996,0.2488017045446624,nm,0.0
43.263762000000014,-5.9122931463268955,-22.74533494177366,-170.63656256491686,1.8469186995146634,-0.07079698762552232,0.8881774386689177,-0.2709185699670603,-0.26042685907634455,0.31681202356443117,nm,0.0
43.273292999999995,-4.134318006365019,-21.758687126845384,-169.12708714294536,1.8618203262931927,0.25727722151427007,0.7186658497205514,-0.2977945144360665,-0.2436255328358855,0.3033354471451613,nm,0.0
43.28279699999999,-1.9760803459566532,-21.131825880071432,-167.91802943862965,1.9022847164231134,0.28955780292839034,0.7999135608109694,-0.3780497070422719,-0.19496800701450626,0.2768704787187948,nm,0.0
43.301818,2.1399729265630536,-20.72195227380841,-167.33950926123248,1.3948524679129506,0.37065659435117954,0.14542417406323782,-0.36422994360523614,-0.07284340726211637,0.05916423564425873,nm,0.0
43.320846999999986,4.334816155340074,-22.374869435526197,-168.95453401044503,0.05794273391885802,0.46422868516347704,0.05916483811311053,-0.2102272923567511,0.1866137339779353,-0.1466267795714199,nm,0.0
43.33034699999999,4.5655941760955345,-23.887776607082014,-169.9161922574741,-0.2553620700552628,0.34631266890366785,0.10560731262688301,-0.10734519925053046,0.2997108300767502,-0.17706547806413592,nm,0.0
43.34937199999999,2.9167480565981405,-28.05907968155016,-171.25802319843294,-0.20617344966713358,0.2433697992557457,-0.439489493519757,0.10301057619945926,0.4731944248224202,-0.1889997584045927,nm,0.0
43.35888600000001,1.7222336252385648,-29.967682168207993,-171.61024945827117,0.20014516338690197,0.1021266242395614,-0.7549512125899086,0.14019438266437093,0.4193266169725486,-0.1878656510510974,nm,0.0
43.377746,-0.3308161723769734,-31.61772880542876,-172.6786981421915,0.48220789813472814,-0.008119452419910203,-1.2521098477746657,0.12330906595406892,0.10737564302931875,-0.2573955537190737,nm,0.0
43.39693199999999,-1.231304901599261,-29.21248611879187,-174.4009967016451,-0.35904196140196626,-0.01930258303171314,-0.6424059133640293,0.09756442533784247,-0.3240180257385597,-0.29045612772270324,nm,0.0
43.41595699999999,-2.2332631466399184,-24.45232399288539,-175.19058903838683,-2.0164890941893145,-0.05206632858508236,0.17772209608147752,0.13919665025775493,-0.4656556792533219,-0.14420631090979102,nm,0.0
43.425264999999996,-2.9060960124745576,-22.12301483934906,-174.90712679457513,-2.806507398503262,-0.07582414633956283,0.09435531272100978,0.15551460468691602,-0.44258842388377867,-0.024103757059058414,nm,0.0
43.434785000000005,-3.783008321337281,-20.55233814329244,-174.3305954435529,-2.915063787037218,-0.23846111668956374,0.27786251498172926,0.18346016045446617,-0.28676759387798395,0.07360784293118902,nm,0.0
43.444300999999996,-4.880946579576438,-19.833427618348928,-173.79920586775862,-2.4324010531056923,-0.16158138105158673,-0.005496096312882867,0.21116670967064793,-0.11128340272511214,0.09831053828622902,nm,0.0
43.49203299999999,-10.003553980541463,-20.69578545536586,-174.59664202030743,0.8458770193743086,-0.4063098754828128,0.6423324138759021,0.22056427284220462,0.009369468912513472,-0.032804471468622996,nm,0.0
