timestamp,roll,pitch,yaw,acc_x,acc_y,acc_z,gyro_x,gyro_y,gyro_z,markers,motor_input
22.50225900000001,6.532455711213244,-29.464252472570827,-174.44475245923704,-0.15727953555001103,0.21817611702899747,0.6213845366398004,-0.192326046251139,0.0916590246196471,0.07774867626476778,nm,0.0
22.51179300000001,7.412284942874976,-31.019312176695486,-174.35883236118218,-0.8785240626968013,0.2810123303121218,0.4039384576064478,-0.1917135707950435,0.30508342901711527,0.09790787117008945,nm,0.0
22.530813999999992,9.926637662395674,-36.11761655775096,-174.03655303954713,-0.43893474023035445,0.1650601194982576,0.1992881241716629,-0.2934370085983894,0.5548139341174327,0.17199696525676939,nm,0.0
22.54031599999999,10.954080008452094,-39.22521943245469,-174.19204145226902,-0.07220676434571194,0.3127029640748835,-0.22440191629204814,-0.2362215373174584,0.6118752877267344,0.09324391188285505,nm,0.0
22.559172999999987,13.225300931105396,-43.730056475237284,-174.97114934604713,0.24833639982137728,0.28289923645328613,-1.1578740222436692,-0.2258743826786551,0.3565173001860433,0.08348206705115727,nm,0.0
22.568754000000013,13.966776421631986,-44.55208413059118,-175.33458861478655,-0.15352241375098055,0.26475631246551035,-1.320083400554202,-0.13072284026573713,0.1643809440082806,0.029745942294312933,nm,0.0
22.578215999999998,14.258266054044404,-44.303446942166104,-175.31367536283784,-0.7981126343248507,0.20803522868376823,-1.2223574835012454,-0.04816851006736899,-0.04371540837126949,0.04405256665533869,nm,0.0
22.587702000000007,14.17674115380614,-43.2025429740358,-174.73278257588404,-1.204823101535849,0.06582478590419252,-0.6034493427190725,0.020116299396501877,-0.20940486473920616,0.10381288728122988,nm,0.0
22.597205000000002,13.525304877977103,-41.70937927364768,-173.68566715184926,-1.845376806040744,-0.07165547561250184,-0.13680184492547726,0.11509376129892745,-0.2786725576402824,0.12019547110246374,nm,0.0
22.606700999999987,12.5838011360543,-40.245253820285924,-172.3501370514942,-2.383612773849371,-0.30497197364338,0.2608995134359691,0.16600925693188,-0.2647277851481869,0.14223367327175918,nm,0.0
22.616231999999997,11.69209222266972,-39.17752900061472,-171.1323063249317,-2.554749441091982,-0.47132062968029936,0.25352032898766547,0.15566369456867737,-0.1829769656019598,0.12817916487383543,nm,0.0
22.625727000000012,11.375929422177549,-38.70144124874976,-170.39719352501066,-2.265116985876241,-0.4175218132670802,0.151064021413394,0.052853989783850405,-0.0774025873550147,0.1058212363878703,nm,0.0
22.635422000000005,11.76918413016515,-38.50110628749172,-170.0494289090642,-1.5397893366943618,-0.3037865114111476,-0.004066628233051423,-0.06496458686834,-0.041307476353131846,0.11711220950839926,nm,0.0
22.644957000000005,12.090464957058177,-38.52660797282879,-169.98187250344543,-0.5142700306335296,-0.16827287589070347,-0.0284576314718373,-0.06162657299957135,0.004921975721331205,0.051908486945547117,nm,0.0
22.65444500000001,11.997316191961607,-38.591127483493544,-170.0714723400199,-0.001669941438936981,0.1312941529728142,-0.47075341281941135,0.0009708065389858557,0.023917953659180036,-0.059207567058340974,nm,0.0
22.663950999999997,12.134089699717466,-38.31181932038665,-170.27527949150354,0.8806121657220178,0.31173172496818147,-0.3174432140145159,-0.022605275433756906,-0.05011551837476109,-0.0616947150436943,nm,0.0
22.673295999999993,12.023525610919846,-37.42071154041112,-170.53491667096566,1.8216763240833682,0.3892653484678523,-0.07697430057569345,0.03631290978810901,-0.1641905657554741,-0.1160797864259565,nm,0.0
22.68280200000001,11.15988089033464,-36.14320943264266,-170.94677186489182,2.0918685964696775,0.5880043668361419,0.21377156673392408,0.16757714216056818,-0.22081965556728803,-0.2429528471474598,nm,0.0
22.69249099999999,10.03237125123257,-34.510140461820406,-171.4123359416928,2.3602587145741682,0.6153409249247536,0.6945526777713354,0.22231217443786266,-0.28510879458540445,-0.2842496384367144,nm,0.0
22.701997000000006,8.666413607527318,-32.73270476459985,-171.86375330202316,2.4105779914063565,0.4083849900605151,1.3879901996189983,0.2676079214890612,-0.3087943942137178,-0.3053592890294353,nm,0.0
22.71151599999999,6.855478464139343,-31.217740416954307,-172.27911159928567,1.8478581230276503,0.20054262158031352,1.2141113636213883,0.3370749146407437,-0.2473774752224466,-0.3339909995897034,nm,0.0
22.721013999999997,5.17030251800695,-30.34554149940684,-172.54511742078148,1.0390390571124482,-0.06581390334001065,0.8407880610138057,0.3008556721167606,-0.12412559921172159,-0.2779588546443686,nm,0.0
22.73051799999999,3.8269526830887908,-30.140567897155165,-172.54528578313096,0.5043462748615745,-0.3078583354562917,0.6991364018854633,0.22601330973299874,0.00016507876535798167,-0.18871257603914202,nm,0.0
22.740036000000003,2.822873143818857,-30.62083409650479,-172.57792711353707,-0.04228607808051878,-0.3500904189792824,0.348672762599599,0.14986298194443895,0.12810895805127595,-0.10965912480235471,nm,0.0
22.759052999999994,2.971284265258971,-33.694207720720215,-172.34813265780286,-0.3802484744917232,-0.3375900550954051,0.049614030912496894,-0.12963362832200406,0.3673270535431488,0.06919174819996349,nm,0.0
22.76858200000001,3.9174130747721647,-36.02849616692689,-172.34663278170189,-0.25029994300547753,-0.13970093472186365,-0.15172856335016838,-0.226260238637567,0.45268391393339763,0.10776759284424091,nm,0.0
22.77808300000001,5.432123062456411,-38.525511914803204,-172.524750347161,0.07759100742615858,0.05051317220652102,-0.27863276083007305,-0.31517737431389725,0.4738483174460108,0.14737850904359281,nm,0.0
22.787596000000008,7.261160064128764,-40.74059857794693,-172.86857944471635,0.3529629078138386,0.2121330873890009,-0.5049894427533356,-0.3464319761460807,0.4138881950783655,0.16419766396695137,nm,0.0
22.79692800000001,9.170285534718257,-42.42446207210123,-173.01055814975496,0.3268403990167034,0.36385823688943686,-0.9775494271998693,-0.33641365595309003,0.30826809798478433,0.16960327147309587,nm,0.0
22.815964000000008,12.242053118250096,-43.886650101601695,-173.46151379339497,0.2845867340712568,0.4048452682675513,-0.7589068533362145,-0.17616973319373014,0.05840349449203107,0.12860956117624445,nm,0.0
22.835148000000004,12.654175489479893,-42.4932895536402,-172.57759335076776,-0.3760230133929196,0.31821483018381674,-0.42563244192319233,0.0013499875246650152,-0.1761677988052281,0.13046072672787787,nm,0.0
22.844677999999988,12.098662614390632,-41.40923198610146,-171.89966668187677,-0.7399218526758888,0.23651593584499114,-0.13329231376046158,0.10033782439888625,-0.19495447540597088,0.06013843540381091,nm,0.0
22.854195000000004,11.253581112396141,-40.22155118394742,-171.2926599600289,-1.0166081384026684,0.15158745442290397,0.020176430550520534,0.15052132024699225,-0.2075826800440451,0.009614734218186934,nm,0.0
22.863668999999987,10.416410975070466,-39.04692530021113,-170.89798351212337,-1.0010179051295733,-0.04407424527357979,0.166820533502326,0.15307384382546002,-0.2033721426850132,-0.029286616354887135,nm,0.0
22.873197000000005,9.464694759581047,-38.08492200656394,-170.83554361707843,-1.0051155469276147,-0.14644142574800734,0.07617424291472707,0.16692405779134453,-0.1573940407693413,-0.10768093881720363,nm,0.0
22.882695000000012,8.510175182009354,-37.40219412648015,-171.0869722300924,-0.7672191773968439,-0.17553525549230226,0.14145371188835384,0.1601233731356833,-0.10194349922152213,-0.1686690249752575,nm,0.0
22.901735000000002,6.7184407412504505,-36.31670382391777,-171.69054240038662,-0.44107439534002774,-0.11708007532401228,-0.21573997989870053,0.1255184782455209,-0.07726623888564052,-0.16948178708486167,nm,0.0
22.91124400000001,6.168671051448154,-35.84388275938093,-171.67625393987836,-0.13271840785854053,-0.25844955016843063,-0.0678167043222827,0.09161249035545076,-0.07089709331951614,-0.10464176434275325,nm,0.0
22.939805000000007,4.9764222166868795,-33.997595731272206,-169.826539912118,0.04896831418154817,-0.29010530816547475,-0.004511175354854238,0.03090526571026767,-0.13170820310400486,0.11711720598166563,nm,0.0
22.949322999999993,5.105394204770827,-33.23492766279229,-169.1531230539902,0.05144633933388239,-0.21184145100869245,0.016271301224975724,-0.00383058344019136,-0.14467131901633984,0.14766804377444842,nm,0.0
22.96828099999999,6.473408856818511,-31.73255606220388,-168.01888036038991,0.24014513930344905,-0.013546548366982854,0.26872115034095895,-0.11569637172775364,-0.16869785409301014,0.13804471045910963,nm,0.0
22.977802999999994,7.4239557756710575,-30.963792046191575,-167.95678777981976,0.25128304763772397,0.10058849187071978,0.25115351824669946,-0.1376456236408358,-0.17558562299755778,0.09032379603634509,nm,0.0
22.98730900000001,8.401490906843526,-30.22941931671829,-168.15054214148606,0.25531328493495276,0.1874784438911177,0.23579037014754986,-0.1451478990598033,-0.16998612156464596,0.04509252935607132,nm,0.0
22.996823000000006,9.174392291540089,-29.58363389553026,-168.46597364841088,0.2513695527861104,0.2924093161739922,0.3611023251920822,-0.1159093723142852,-0.14507600034353227,-0.0012510725445573794,nm,0.0
23.006336000000005,9.672589663750285,-29.022395927164396,-168.75459565474418,0.15556413330827135,0.3329884102560085,0.3920442822947836,-0.07382104059530832,-0.11858630659443894,-0.021415754959299767,nm,0.0
23.015849000000003,9.855383268028437,-28.536264245051843,-168.90750413590865,0.14274162917795538,0.3355490527013956,0.44268267039310605,-0.02337134420127454,-0.09291558317655306,-0.015926043761771758,nm,0.0
23.025361000000004,9.70905898865942,-28.21156725428808,-168.83186076966277,0.0922009543473585,0.2879177301799945,0.34811873087586004,0.02710485480287636,-0.05001141025103563,-0.0017442061807300187,nm,0.0
23.034864999999996,9.375242173672818,-28.092794645288087,-168.56838150902684,0.10216396930100781,0.20988181874474007,0.2655272688724713,0.05169674656025629,-0.0029711497125903133,0.01828234510661568,nm,0.0
23.063399000000004,8.33078577995074,-28.402325632150617,-168.1143675185446,0.2242167868977187,0.08046896304386197,0.1252075236457173,0.025566431486336447,0.04848073846807569,-0.010335138085646118,nm,0.0
23.072934000000004,8.239052215192821,-28.568352816616663,-168.322019040182,0.18798946161811872,0.06491672916835553,0.0932969960906358,-0.001704212340025108,0.04474098713079636,-0.04103997542282332,nm,0.0
23.082438999999994,8.282900544285,-28.754688510752192,-168.7036847934909,0.12610588655870666,0.04306345053353494,0.06484494816113331,-0.02565227979049409,0.04400771571800219,-0.06281387676629714,nm,0.0
23.091957000000008,8.415263537769683,-28.980329260679675,-169.07285834709876,0.05097936164631691,0.0833618538826207,0.05297566953013896,-0.042134238129720995,0.04888186626994909,-0.0637391014073072,nm,0.0
23.101364999999987,8.529895343775665,-29.229333104889626,-169.34126143584692,0.0005816848506269499,0.11183153926573632,0.03798725976880612,-0.0396663262608019,0.05427481445282376,-0.045177531182574726,nm,0.0
23.120565,8.3480114585918,-29.714149539585836,-169.1734177567366,-0.0009003158132049942,0.11997699718901267,-0.03229570353483316,-0.008901158910302453,0.060876836823265695,0.022188480008935776,nm,0.0
23.139503999999988,7.877366001448055,-30.09498043926321,-168.48157167595366,0.04160032367954539,0.07593209377549684,-0.10996726361064406,0.012533572205485056,0.050614920237761596,0.04447469243886288,nm,0.0
23.15854200000001,7.648949571100364,-30.207423427180316,-168.23581521990965,0.03002896704220045,0.031213229310233542,-0.14431734894617912,0.0,0.0,0.0,nm,0.0
23.168054000000012,7.656413977326496,-30.134158648303707,-168.38161928590225,-0.012385202546692627,0.017838951627809005,-0.12247131064295891,0.0,0.0,0.0,nm,0.0
23.177611000000013,7.678046051369719,-30.065065819709787,-168.60404107407973,-0.05915775383548095,0.01250264515595371,-0.09591364232010868,-0.014437037153422748,-0.02115009117885093,-0.04469888524257371,nm,0.0
23.187114000000008,7.70279654830594,-30.000369065259434,-168.80314686915926,-0.10416614717772518,0.006968353844450067,-0.0591978491037371,-0.01403752952102664,-0.029007811113728927,-0.03973520159647422,nm,0.0
23.196631999999994,7.711625453147803,-29.942137802183527,-168.8905281662115,-0.11998374663893957,-0.006233280493214799,-0.033344988642627964,0.0,0.0,0.0,nm,0.0
23.206148000000013,7.69577060178853,-29.882832764914674,-168.83229797109794,-0.11299923119393333,-0.03420905218900274,-0.03214023317035303,0.0,0.0,0.0,nm,0.0
23.215658999999988,7.699942565858473,-29.78900712984144,-168.67101611041136,-0.0809922460467257,-0.02594893658746992,-0.032865191622083914,0.0,0.0,0.0,nm,0.0
23.22517400000001,7.766223899729801,-29.648910499601687,-168.49929360582252,-0.007473184242238196,-0.043902010770697976,-0.028243281895248974,0.0,0.0,0.0,nm,0.0
23.24418700000001,8.169502005698273,-29.264634518823264,-168.72782157740758,0.04610496476432845,-0.033636977625745954,-0.014741091690395086,-0.038666583062383054,-0.03009720351869561,0.011496330102811732,nm,0.0
23.25369599999999,8.477781996057873,-29.035264817327672,-169.00447234162135,0.0570469259347271,-0.009729168957951229,0.026473514721727116,-0.052632770492861546,-0.034103130690033436,-0.010086490152724763,nm,0.0
23.263213000000007,8.79093884122567,-28.812346381800378,-169.33690298155858,0.026968209445796098,0.014614248005466929,0.05309960231821508,-0.058845017249469736,-0.03776545709398278,-0.023572914128371262,nm,0.0
23.272732999999988,9.070567626628403,-28.602185158029993,-169.6358354505463,0.034937488937733956,0.01921251067712755,0.06936757485055048,-0.05684622518559309,-0.03808467186610695,-0.02244317967424889,nm,0.0
23.28223700000001,9.277962908665028,-28.424192604258867,-169.8360050883705,0.0016801912668133474,0.013849178649954143,0.09060281651649123,-0.04632605792537505,-0.03303285600099719,-0.009089261144712849,nm,0.0
23.291753,9.415396985776693,-28.273434935972297,-169.86692395588793,-0.002153328962327924,0.013334358125583552,0.09235340746096322,0.0,0.0,0.0,nm,0.0
23.30126100000001,9.514214490611996,-28.13231145400921,-169.80449129735027,0.013896417119024061,0.017524228149239665,0.09108255670627735,0.0,0.0,0.0,nm,0.0
23.310775000000007,9.626960062461153,-28.007305396702105,-169.74337920641997,0.04298004525319518,0.024931861503386034,0.08786407487474136,-0.02675991204652311,-0.01223333715683098,0.04059161373455285,nm,0.0
23.339304999999996,10.249132056840207,-27.698328238948985,-169.8893086108231,0.01712777036627927,0.06746907722761604,0.05468076688176333,-0.06478146219173898,-0.008594503771292943,0.016092822787804884,nm,0.0
23.34880899999999,10.474937219925357,-27.651298035481442,-170.07306314433944,0.014384251392436794,0.12288537192269301,0.06747756050352363,-0.0734517929404432,-0.0060442622145280255,0.006614100154672348,nm,0.0
23.37734599999999,10.505506982157542,-27.639139847607936,-170.21108433377654,-0.013653204585022238,0.23288866868422434,0.04992011251212639,0.0,0.0,0.0,nm,0.0
23.386853000000002,10.249170579612981,-27.658663727666948,-170.06544207374526,-0.013856807541195877,0.23311470532436182,0.05069469531348354,0.0,0.0,0.0,nm,0.0
23.396376000000004,9.905852641385348,-27.662637697902934,-169.87725880641864,-0.013273418945772667,0.2093720695352846,0.04527433065908585,0.0,0.0,0.0,nm,0.0
23.405873000000014,9.522986871171529,-27.64992355557707,-169.7358267051506,0.019490832192066192,0.1802467296309009,0.020027255318786515,0.0,0.0,0.0,nm,0.0
23.41538399999999,9.146594923448593,-27.62842413337302,-169.69157411659708,0.02672770180174332,0.14513926248713763,-0.0010424568041554946,0.0,0.0,0.0,nm,0.0
23.424881,8.809491009821707,-27.605830807183402,-169.76254270629786,0.01027423038172468,0.11070909716041749,-0.034310072047703734,0.0,0.0,0.0,nm,0.0
23.453424000000012,8.085002014498412,-27.67918567703623,-170.07571725022362,-0.018605152573031927,0.0763238038469469,-0.009861062733258721,0.0,0.0,0.0,nm,0.0
23.46293700000001,7.902061311232359,-27.733109610856154,-170.08566997226418,-0.01565864448674138,0.06467596707570496,-0.008158239941355153,0.0,0.0,0.0,nm,0.0
23.472430000000003,7.713808250212134,-27.7462868104059,-170.0128220647007,-0.013092596814021366,0.05413701594443703,-0.006663596787708289,0.0,0.0,0.0,nm,0.0
23.49147099999999,7.367099920225806,-27.651342976180118,-169.70280173832907,0.0736250491977181,0.013376219994639922,-0.03920574865873745,0.0,0.0,0.0,nm,0.0
