timestamp,roll,pitch,yaw,acc_x,acc_y,acc_z,gyro_x,gyro_y,gyro_z,markers,motor_input
42.00839400000001,-0.9695627383239905,-15.677045309673135,160.22700299509333,0.28937078022513624,-0.10961418421132235,0.23591213992394863,0.0,0.0,0.0,nm,0.0
42.07499100000001,-2.1770718363174875,-17.948473199048067,158.25818168764224,-0.2301021433482878,-0.018980483197986668,-0.01981290553081315,0.07402108028653936,0.10430933020441618,-0.0626692751405001,nm,0.0
42.113054000000005,-1.6693516248964475,-21.002926573891184,156.4011481489889,-0.37463682047025215,0.3579259301929317,-0.0529919595756558,-0.012143303313897987,0.14949326514762482,-0.042868602157084525,nm,0.0
42.122545,-1.2084275381006486,-21.45140171212916,155.9502891868323,-0.44244776904306504,0.48854947543617516,-0.03245496568267313,-0.04446341439718805,0.13084346625235327,-0.035392493537907695,nm,0.0
42.14154199999999,-0.47011718159058263,-21.957949746204427,155.4351690655703,-0.7972992899552498,0.7818121003516817,-0.05309319818529186,-0.032075593145760174,0.07035150201691855,-0.03159405713428955,nm,0.0
42.16055499999999,-0.6716573773307075,-22.09957790888394,155.43957834030013,-1.1466352491220002,0.9696078159054903,-0.0730029311784294,0.0,0.0,0.0,nm,0.0
42.18909099999999,-2.970692355998725,-23.02267993767905,156.49091784927958,-0.8953503134138757,0.5869552186843323,-0.23024807310048906,0.19970477683706656,0.018369512754646596,-0.03664856031102327,nm,0.0
42.23663500000001,-10.558216554402227,-23.593225187922407,159.25580911349667,0.7050374186925605,-0.7150855614871003,0.018312648262892757,0.23856923215760276,-0.11693793979927454,-0.07474003499941931,nm,0.0
42.25565599999999,-12.218635987020049,-22.519454725098754,162.4156308449549,1.535770641163481,-1.3411372736540381,0.4507988198714314,0.06941644687467877,-0.15538525708843712,0.10967610171137152,nm,0.0
42.264993000000004,-11.808138254424943,-21.490212943634848,164.5353744090899,2.0435933137875915,-1.439070629793578,0.4620247650956404,-0.1331286321473931,-0.1634143838489017,0.220830814311465,nm,0.0
42.274497,-10.24610053500049,-20.527533933984405,166.67721030140325,2.3392965759136324,-1.4762976739627505,0.618112607410244,-0.33341557358660573,-0.10397913858445192,0.2963073077979134,nm,0.0
42.284018,-8.06057242969779,-19.873202563312628,168.44123519523706,2.2235517726966316,-1.0228728073464923,0.6984004449682719,-0.43336803102976834,-0.030349740926922587,0.27079108625819326,nm,0.0
42.31272000000001,1.0060343961251572,-20.330485390800206,169.78878615450384,0.28346325404397127,0.18825738400082026,0.7484790977717805,-0.5122265491722617,0.25656163021699163,0.029086336474223578,nm,0.0
42.32223300000001,2.922989297851325,-21.642813575876275,169.23377937513806,-0.37483805873630344,0.8610770322269427,0.13014995427620454,-0.3113592758078058,0.33528521074927686,-0.055974152381142325,nm,0.0
42.33174500000001,4.532929122237532,-23.371107583935807,168.81986907586875,-0.34017401372323897,0.7872741012656014,0.05737845387318682,-0.23341489247204408,0.40845183433885135,-0.02564375298472491,nm,0.0
42.34127599999999,5.017565217518148,-25.49186252819724,168.40119335410716,-0.01916363434074326,0.6852335275311654,-0.11349464743903194,-0.008616606751950208,0.4464346288486008,-0.04621995384848923,nm,0.0
42.350584,4.372375171480485,-27.690595281459895,168.60166105187432,0.27312374990093463,0.6855300949797634,-0.6730229733568708,0.19390734900098974,0.4217103879367066,-0.08446038618065892,nm,0.0
42.379144,-0.4686777528679999,-30.584112183600997,169.6495870210424,0.24326460394258573,0.07760956002373467,-1.098849227785256,0.3319329794404425,-0.02958842139400322,-0.27461590085784576,nm,0.0
42.388834,-2.1880162597237325,-29.717554784440214,169.55083440002218,-0.4240735491319013,-0.005866150213571748,-0.7287662232650073,0.25714542828882864,-0.21004317480046877,-0.30484246856780156,nm,0.0
42.41716199999999,-7.165155503152526,-25.15917542328264,169.4785866900043,-3.200309118887916,0.41761696717809205,-0.1116607610622628,0.19194097609829136,-0.3099123179580331,-0.1787800453189281,nm,0.0
42.42666199999999,-8.404401116171448,-24.41202653968521,169.9482080033757,-3.4340592023425676,0.3226981474704245,-0.04148596620912669,0.19069525961036424,-0.17347334225874603,-0.08178977458541675,nm,0.0
42.43619100000001,-9.294541013904029,-24.377973306809956,170.49442402804368,-2.8722593394862543,0.20116043029088151,-0.44433442900145215,0.15397811793545776,-0.020705894205357303,0.00019462995720541848,nm,0.0
42.445693000000006,-9.356934957380199,-24.841936300030884,171.02996636084646,-2.122795364301115,0.2937045787053424,-0.545204918364038,0.021087825712011843,0.1031823394894696,0.09428210558214754,nm,0.0
42.464898000000005,-9.272356395298909,-25.778665008068746,172.79914880270886,-0.3890023235305872,-0.041680031716543824,-0.6808849943789538,0.06064800136499943,0.08770162612241665,0.1637062158542585,nm,0.0
42.474410000000006,-9.03767815589407,-25.827322873880977,174.16359144633563,0.3154686355344682,-0.1690696411589268,-0.6410335363509168,-0.046732074182961304,0.027360493288268964,0.22970259501806575,nm,0.0
42.502939999999995,-7.40455560162658,-23.066133872130465,178.03757997779294,2.0107201280358535,-0.5317667154220969,0.9517007416312466,-0.14506128015092432,-0.23726679359109887,0.14586591823890002,nm,0.0
42.550493999999986,-1.794218115993706,-17.641913432683342,-176.90504249085413,1.410047583145627,0.08611037033172804,1.0417987129219786,-0.24883002512609706,-0.028601362551968105,0.11286217347315469,nm,0.0
42.560001,-1.138567104730923,-18.250156808933742,-176.745760384933,0.6351634430959339,0.15033157098907865,0.7758603091307618,-0.13986385022460354,0.125782358618513,0.022772523469632724,nm,0.0
42.56951000000001,-1.0682255188060712,-19.6165536888493,-176.91387483287824,-0.06621871312000617,0.41617927977171665,0.32861633290478154,-0.037030130421216605,0.28379117515312025,-0.06484776556571027,nm,0.0
42.58854600000001,-1.5390088438978988,-24.015051448899793,-177.9448961374622,-0.15752296865088455,0.25469833221551424,-0.07810168587304328,0.06436468990393233,0.4893420115970602,-0.14983202951659233,nm,0.0
42.598038,-2.4127548842843427,-26.48879031176425,-178.61218097020227,0.08918528705600572,0.3010212012712183,-0.6233131343858264,0.13577984148510347,0.511479115295555,-0.18995113044431805,nm,0.0
42.60739000000001,-3.3532479527824957,-28.76401103879337,-179.19054140051898,0.4996506044415442,0.06890910006573342,-0.7991242851966591,0.1504794107560695,0.470534319989046,-0.19637540344983073,nm,0.0
42.635919,-7.238073227475099,-31.033443035850148,179.966889349957,-0.21336679606045147,-0.19844256724305892,-0.9162947256766152,0.20091454565706163,-0.022295749446563186,-0.226838294803714,nm,0.0
42.64543499999999,-8.587668898803434,-30.11789736843898,179.8829433350496,-1.1946128221692283,0.0753399856150527,-0.976542006138613,0.22613305053716004,-0.17039118844508414,-0.24469745704750717,nm,0.0
42.654870999999986,-9.274526776544052,-28.843170948119557,179.3993632711518,-2.031279484740733,0.02958232844049317,-0.5787308972994644,0.11126646283873293,-0.2435885441825659,-0.16397088207261332,nm,0.0
42.664389,-9.568810676056893,-27.508891714070945,178.958763314016,-2.8808485768423986,-0.14487596565340619,-0.19164574371814727,0.041360728845409804,-0.2554197678327073,-0.11561152457047966,nm,0.0
42.68345500000001,-9.740681115735523,-26.70630452131556,178.95369794928598,-2.9635205889383864,-0.15682830980892884,-0.15349158042478772,0.0,0.0,0.0,nm,0.0
42.69297499999999,-9.480012113191046,-27.259916986381747,178.97911762780694,-2.2608106866921727,0.009830265826542834,-0.32510654379279474,-0.0512810594675467,0.12415968206554258,0.029128779697215106,nm,0.0
42.721676,-7.264335638361817,-28.678566205937322,-179.83973877260513,0.24085774725574588,0.07532618385349042,-0.7993961504483789,-0.1601626147666203,0.06215961824857008,0.16060103099822753,nm,0.0
42.731052000000005,-6.170284769607994,-28.392434988553656,-179.30096117203624,0.9424097296009862,-0.00834678245820683,-0.3006554699046342,-0.19950851031588807,-0.04665766957689997,0.2123836680092251,nm,0.0
42.74070599999999,-5.215388107017613,-27.490550336559217,-178.07361866222854,1.399083121569153,0.06147656408728225,0.18717886896415994,-0.17165353921331028,-0.17338151558406611,0.22135656201044251,nm,0.0
42.759725,-3.4648790210877634,-24.265683565793516,-175.31610362616098,2.0643545213270147,0.06953516955297875,1.342958357677514,-0.1291293672218199,-0.3536677157204297,0.22782497100014745,nm,0.0
42.778741,-1.851047937483993,-20.898857201102327,-172.771982051699,2.4386873782590675,0.18341460357991432,1.5726135932846688,-0.12325076614802867,-0.3140546678777352,0.18509042012177554,nm,0.0
42.78825900000001,-1.1523903714312755,-19.81600106818405,-171.93620147119373,2.212365483676584,0.3341107282169821,1.277596420800939,-0.10944323502025001,-0.22210575005723396,0.128053904941051,nm,0.0
42.79776000000001,-0.421166609223566,-19.33765023079409,-171.4356360097595,1.5445184416382842,0.35378275344794724,0.6939355759883424,-0.1315844348108534,-0.10461517562146098,0.07730461367874368,nm,0.0
42.807265,0.14304738303166134,-19.631371066134324,-171.3270457568494,0.938815128344291,0.06202773730524861,0.8559283324378293,-0.12353597627500205,0.05238642784384457,0.013680862597980981,nm,0.0
42.826291,-1.0692535187817038,-22.546027558286756,-172.18469267833828,-0.5361621145215136,0.21074378600513408,0.30881178915050084,0.0835395707559387,0.3898005968006679,-0.13997647193366175,nm,0.0
42.84532999999999,-3.7976291544765126,-27.74620846658617,-172.94703537385232,-0.28681136848891375,0.0707686329471755,-0.12324676270264642,0.2258677784287469,0.5989978308409417,-0.1984376954829517,nm,0.0
42.86415400000001,-7.526019086285787,-32.607169613172175,-173.2827632624843,0.5212108440418728,-0.13693502004450286,-0.9599226259180719,0.25897661422290147,0.47925542315927966,-0.2381802367584502,nm,0.0
42.88321300000001,-11.568299256482872,-34.524429599239134,-174.21531614276307,0.15174282516949356,-0.042086730679396896,-1.3439160584251568,0.3099789455585797,0.14507252184931088,-0.3710612556740704,nm,0.0
42.89265599999999,-12.925094900660149,-33.94716494539595,-175.2132863800138,-0.5475586287627768,-0.09630776226268394,-1.1864419843181908,0.22682553561029054,-0.08249412814368805,-0.35083042782571333,nm,0.0
42.90215699999999,-13.841948806867984,-32.57617185518404,-176.32468167201503,-1.2585752027672836,-0.28725173522679504,-0.7695697649149861,0.1661687326799712,-0.2503731795809917,-0.3213538203068709,nm,0.0
42.911654,-14.696669503277343,-30.97466935127539,-177.32857292931365,-2.2371838900995966,-0.18697145856463793,-0.4531739697922796,0.15610219138929393,-0.29990460880800573,-0.2892819578040174,nm,0.0
42.921155999999996,-15.206133241940698,-29.47317427366089,-178.0705567516187,-3.0902967660005496,-0.27405492398075215,-0.24125283844363163,0.09337876208755568,-0.2845377555490624,-0.1981537912398749,nm,0.0
42.93067199999999,-15.55800367126638,-28.493028854383855,-178.49366487974152,-3.3109069669970634,-0.25016215692553023,-0.16707048801942287,0.060816464156275146,-0.1819178486744762,-0.11715868062204025,nm,0.0
42.940180999999995,-15.638580499549285,-28.27466212690282,-178.55778575868922,-2.710821481701085,-0.26851096712292566,-0.4637295801899087,0.0,0.0,0.0,nm,0.0
42.949704,-15.324454998529164,-28.571891845308215,-178.36626488525576,-1.94299356909716,-0.1890235130507982,-0.5398749275267384,-0.06363013839904623,0.07041352948152416,0.06991484953105645,nm,0.0
42.959215,-14.78474919750789,-28.90445635882203,-177.94143694933877,-0.703945704332022,-0.4293141377695084,-0.5333360169229814,-0.10373319909438455,0.0758423131404608,0.13857511574422107,nm,0.0
42.978228,-13.623806128122576,-29.175064378519725,-176.55048325252216,0.7516361358798332,-0.28623654637797447,-0.8503772417077555,-0.1462146603916347,-0.0002097449109088482,0.22942196946185123,nm,0.0
42.98773600000001,-12.605612709703248,-28.627718347706637,-175.87611450856062,1.3968460538588443,-0.4325563610572922,-0.4974592685778908,-0.1784172697866335,-0.10916662287123638,0.23466289467083068,nm,0.0
42.99724699999999,-11.458220915259883,-27.524151393779093,-175.39732972685755,1.6341916839801207,-0.32530761861062046,-0.26861670160389983,-0.1931035246837715,-0.22389929896522073,0.2047568860087638,nm,0.0
