timestamp,roll,pitch,yaw,acc_x,acc_y,acc_z,gyro_x,gyro_y,gyro_z,markers,motor_input
33.50589099999999,3.4870891813169167,-38.915617243115115,-174.56316348124534,1.417889325223915,-0.053693963022892394,-2.1367152319306446,0.6398911391271251,0.5225141406676451,-0.11574240945369645,nm,0.0
33.51539700000001,-1.1173959621893177,-40.101153436024404,-172.6729483966699,1.1761273878750789,-0.2856501191579869,-2.5809603877582896,0.6703113527480536,0.32746794370168597,-0.2720427401882552,nm,0.0
33.52489800000001,-5.398617073320047,-40.182252789163364,-172.03945006684495,0.6920741778959276,-0.36246984449196556,-2.759368582378211,0.6384351518482266,0.11424994734668174,-0.42465123482014144,nm,0.0
33.534414,-8.606082290265835,-39.235724548289575,-172.38448113752113,0.0449393811586944,-0.3107034870527046,-2.667886953320706,0.5067919179575084,-0.10950656514552946,-0.4777444448398959,nm,0.0
33.54393300000001,-10.504825693383024,-37.389672668169624,-173.43474066613433,-0.2515584810517845,-0.6338437030144844,-2.0447500863677046,0.3336598423412709,-0.31844877471741945,-0.44416772287091355,nm,0.0
33.553358,-11.927310825834695,-34.89402970033783,-174.79246403371948,-0.9737854957363737,-0.5485539419488602,-1.5986413437429712,0.2724334588838964,-0.46171211043393456,-0.4380167423770905,nm,0.0
33.57238100000001,-12.200963903024217,-28.325425240483607,-176.8523650389369,-1.9413966436647763,-0.7816751751355169,-0.09408916825480376,-0.018787641124570837,-0.6975708224330261,-0.13450449542969176,nm,0.0
33.58183299999999,-11.507795271796343,-24.580392421293183,-177.2114357650365,-2.520416396176391,-0.693846867336499,0.2673853544789874,-0.09270891466293567,-0.7432399412895787,-0.00955958353006392,nm,0.0
33.60109800000001,-8.713935860521977,-18.563333417958248,-176.29929381574797,-2.1576074502574145,-0.7856602410179196,1.263869675155821,-0.26904261868651674,-0.5403041785713159,0.24045188873846307,nm,0.0
33.61059599999999,-6.8617862565644,-16.58747587139614,-175.38540269427256,-1.3305683769819105,-0.7919420504065261,1.9037181554114648,-0.33203965714262784,-0.40861470348366064,0.2934443254041248,nm,0.0
33.62010699999999,-4.8573922108829874,-15.257488415275189,-174.62191610995544,-0.424808974445508,-0.4242873705309301,2.0693925911775968,-0.36959861530298455,-0.28754032510978483,0.2608829045985456,nm,0.0
33.629620999999986,-2.1082710913932763,-14.814442778333534,-174.29528371903257,0.2789423671995695,-0.07103653473887875,2.6936811208524074,-0.5290453964290057,-0.1285237386202217,0.20552207336920783,nm,0.0
33.63913400000001,1.290017303469645,-15.0885471671281,-174.57728231224894,1.0547372872916403,0.17734685325412797,3.248194832891254,-0.6682160684715585,0.0017115960201441684,0.11582030396300952,nm,0.0
33.677189999999996,8.894789013822995,-22.304817117298885,-179.15720867338953,0.9208519875956278,1.1037027229393015,1.2280186605065202,-0.16194447985678548,0.5728019101764363,-0.13372431098220547,nm,0.0
33.68670599999999,8.517173445529634,-25.749076559886166,-179.30684775383307,0.8028198860044257,1.0784122374241025,0.21838771141957508,0.05109554407214817,0.7013091516446014,-0.06386282253143968,nm,0.0
33.715113,2.7409447085455563,-36.96552915723555,-175.28975850589262,1.1972688744099227,0.24093723081548124,-2.0757530201276513,0.39427398735941305,0.7198188726908874,0.04209314562432746,nm,0.0
33.724626,-0.14017605180517895,-39.417822661864776,-173.65763704399905,1.1853056641333453,-0.02128198256492287,-2.699190964690491,0.39477727429204434,0.5431091737219857,-0.02979913675063138,nm,0.0
33.73414,-2.868671389704026,-40.70252509471856,-172.67351096108422,0.9866385121021212,-0.21869833090825747,-2.9312150356552302,0.37547636819047836,0.3160164922965447,-0.1537605193029904,nm,0.0
33.74364399999999,-5.397494755171736,-40.69299186993097,-171.97602893575427,0.46635771633140105,-0.2177523231421535,-2.9331831976540714,0.3715791788524691,0.06222243499598862,-0.3011226181252697,nm,0.0
33.75315599999999,-7.207462299937802,-39.461162165393745,-171.8074737189935,-0.353836065143447,-0.06340602788619333,-2.769490407170027,0.301780120610685,-0.19222911906129284,-0.32782131031280004,nm,0.0
33.76268300000001,-7.984034355515324,-37.239590943459454,-171.75580353367326,-0.5946316919941806,-0.5358624713811615,-1.8241826474562768,0.1782803088412515,-0.41055481815196326,-0.23017673576121173,nm,0.0
33.77210600000001,-8.824590725625072,-34.32220927834914,-171.57432844688688,-1.3386554674522215,-0.6320212709659948,-1.192929143706826,0.21494334337483556,-0.5455463162868519,-0.21868563067271465,nm,0.0
33.80063200000001,-8.329348876983982,-24.48898075457625,-171.6549500351739,-2.7381904294882498,-0.9476595242424359,0.38294160845238806,-0.046654792100759755,-0.6062605562973209,0.10403592292619543,nm,0.0
33.81031999999999,-6.87370525542308,-22.229645233690906,-171.2327371837473,-2.0512756544067594,-1.0342382322468995,0.9475638069927198,-0.2063142362863567,-0.47620450010107357,0.19932552150173208,nm,0.0
33.838852,-0.48534033339926724,-19.371275453441346,-170.34110126387597,0.9481685477760452,0.2534965929975807,2.2229982946839617,-0.4628237949898587,-0.14559565161661703,0.20979648625170244,nm,0.0
33.848375000000004,2.620475612889457,-19.664996357152305,-170.95828060442122,1.8457398139449912,0.5051169402149562,2.648547869420965,-0.5975849858923753,-0.025240246955818668,0.15429600553817344,nm,0.0
33.857879999999994,5.297768855410479,-20.361706139898942,-172.14886669425957,2.0211381216543405,0.742264116826646,2.6531330937847395,-0.5280954966600534,0.07522993565925447,-0.003419231948927465,nm,0.0
33.86738199999999,6.933905621324356,-21.55328217429569,-173.77487885913317,1.3759915454495584,1.3034337152229434,1.6385783273983672,-0.34195510121080686,0.20988733268900348,-0.17741784686905185,nm,0.0
33.876897000000014,8.446655296701318,-23.47677382896056,-175.35249746950805,0.7971848151229568,1.3406194927038302,1.2717017504475012,-0.32398795020471594,0.3673930088618916,-0.1786561410003516,nm,0.0
33.88641100000001,9.040635030987001,-26.057315751439443,-176.21413689791808,0.5156469573102568,1.2008285751297894,0.9875024402767518,-0.15505401873835095,0.5176042016937106,-0.12580230784000737,nm,0.0
33.89591899999999,8.043613207686674,-29.16099376220527,-176.04733045385325,0.19504484827930268,1.1594541952349033,-0.15011921508788614,0.12513281406540316,0.6422892888868789,-0.06168047173314777,nm,0.0
33.905271,6.085510392283034,-32.721363239206774,-174.70154120820197,0.5127119444360346,0.7673354342305044,-0.6820684141245006,0.2680907640933194,0.7479565368827009,0.06600880499127187,nm,0.0
33.92434499999999,-1.6233821430366369,-39.15181560783208,-169.97283355297512,1.0885577304170946,0.13874569358125569,-2.317325790233912,0.5929911199669269,0.6810844396493859,-0.040085245877970715,nm,0.0
33.95288199999999,-12.757276488690863,-40.378483299960514,-167.54461759061422,0.17794055654458446,-0.06610517031540214,-3.1556399322489446,0.4578506635989041,-0.04529806159967926,-0.45688724122833424,nm,0.0
33.96239700000001,-14.273735723508864,-38.60766741232529,-168.62546083528702,0.01904275498504568,-0.5342050074979283,-2.2352490225160637,0.29404739215488906,-0.28748799879228615,-0.4069125331834353,nm,0.0
33.97191599999999,-15.762577641962293,-35.98651604530217,-169.8254692394295,-0.6599101693855062,-0.6125946423628748,-1.6204348552382182,0.3229746064113017,-0.459963863765723,-0.4182864992800659,nm,0.0
33.98127400000001,-17.13992783992617,-32.72949074822627,-170.47688200625316,-1.44437178267357,-0.42888580866702336,-1.2026224911720853,0.32789890283607925,-0.5921795765820652,-0.2835682507871493,nm,0.0
33.99078700000001,-17.67240238863303,-28.98337930945266,-170.21363847111385,-1.6561253603688153,-0.7680230445458816,-0.5776123806966645,0.20788050522272086,-0.7127453122990673,0.00016370386254316554,nm,0.0
34.00028800000001,-17.55288467736712,-24.940784874709784,-169.12573435786214,-1.785158730872956,-0.8730194078771882,-0.15985805535703604,0.11563158079525007,-0.7889901829410844,0.23027097893792625,nm,0.0
34.00998799999999,-16.30261442782592,-21.030843186842397,-167.4633513047919,-1.4641766421679447,-0.852342527668307,0.16036081073965439,-0.07595127956531002,-0.8025240975936736,0.4314650992909885,nm,0.0
34.01931999999999,-13.794740562547151,-17.899235497626535,-165.5923384430353,-0.7499175334467043,-0.9610859689852613,0.9788196603028139,-0.32405645599898003,-0.7096175325519102,0.5419148808658565,nm,0.0
34.03847300000001,-6.231305617589025,-14.364960411114978,-163.54617810168446,0.3004804370142771,-0.13900744196477183,2.0012862402582265,-0.733040785192496,-0.4695498898468937,0.3405973438808767,nm,0.0
34.057413999999994,1.6383347154788277,-13.343380833933084,-165.620528568053,0.3333062685344836,0.765187798744154,2.5483250278686436,-0.6075507240945432,-0.2305968559070145,-0.16236083974288665,nm,0.0
34.06691799999999,4.154244772183046,-13.301913736741781,-167.64141150285425,-0.04835870007453591,1.079623039782835,2.210203909833658,-0.48479980216421786,-0.11196947246212173,-0.2925114924758458,nm,0.0
34.07662500000001,5.505220091892554,-13.801991533203429,-169.448004463853,-0.27650820342148014,0.9658653762782787,2.2789724124526405,-0.28717857421408965,0.055518751582419756,-0.30254555807844014,nm,0.0
34.086128,4.904903715872715,-14.818491508057772,-170.50523347773685,-0.5471387669615392,1.0219218939162877,1.5488606822242161,0.06986158734944624,0.23054934838087907,-0.24539059795062873,nm,0.0
34.095642999999995,3.3745852272097836,-16.326478647618313,-170.50038261323846,-0.4478660698340092,0.7270649127673348,1.1165679159524189,0.23185977335196292,0.3564904455217554,-0.08483670758759745,nm,0.0
34.105158999999986,1.0942215594629119,-18.23192585979146,-169.61325749356087,-0.004024661341995232,0.15859092403017877,1.0119203623636672,0.3539734890568604,0.4611016701072776,0.039072797734400554,nm,0.0
34.114667,-2.0358730188685437,-20.250549419086433,-168.40407692203686,0.22511689512009497,0.028066897979029202,0.4489782161637328,0.49410358807967,0.5196460331009729,0.0334504804392625,nm,0.0
34.133701,-7.293710511441219,-23.94479596825677,-167.40106557057527,0.684370094213206,-0.3894280391953096,-0.45391777491991636,0.3467497693471574,0.4589279435436989,-0.17331420278458484,nm,0.0
34.15253000000001,-9.291955547383491,-27.692466868408044,-169.97288479117753,0.424867063784203,-0.39581252768613495,-0.7915862866774742,-0.019200569270884742,0.3880723202186099,-0.361397376243739,nm,0.0
34.17173399999999,-8.698578690989441,-30.3229596614455,-173.39661239900215,-0.030651207767625296,-0.04583974489716404,-0.7900577796608008,-0.1129962600526781,0.21854656526810412,-0.25740078519808424,nm,0.0
34.18119100000001,-8.086943983325655,-30.954603106786454,-174.01180456696343,0.020807602255406905,-0.1238063215893605,-0.5103959784939207,-0.1269572810185277,0.12563778515112262,-0.06018833953479827,nm,0.0
34.190679999999986,-7.84693922103493,-31.156923888356147,-173.6926928633055,-0.04314281135059154,-0.026447072082982588,-0.5641554581215293,-0.05371712785951911,0.047283302451737556,0.08920769962348106,nm,0.0
34.20018200000001,-7.6482891302625395,-31.07151705929353,-172.7454938421771,0.0015646652414299336,-0.01818890426269491,-0.6505539757445495,-0.040460194953690666,-0.009747059267855384,0.2106620087814265,nm,0.0
34.209768999999994,-7.262725277177944,-30.898855399837537,-171.7261385612031,0.16735710144908805,-0.11706454902725037,-0.5742965067780044,-0.06981397412004912,-0.032127857571774505,0.24420692023673973,nm,0.0
34.219267,-6.663888518669659,-30.725608771520573,-171.1921109117727,0.10342257403370327,-0.01195533408221747,-0.6841493925259879,-0.1057510768290042,-0.038659386796210546,0.16859250141180765,nm,0.0
34.247804,-2.6468578316431928,-30.17848191170103,-173.62654209855776,-0.16274277622620736,0.20239645484039698,-0.40232193925449594,-0.22233795358426617,-0.05443201966718172,-0.12984465859807834,nm,0.0
34.26684399999999,-0.501893648014813,-29.650001936882905,-174.887664742499,-0.1597729089099724,0.2299003414536616,-0.14477697806153111,-0.15188396201490828,-0.061050079700938994,-0.019196657460997645,nm,0.0
34.27633499999999,-0.3349679252839363,-29.334780121650006,-174.4184910844711,-0.1963668699285281,0.30350431356251756,-0.29523967525279826,-0.031955551553425186,-0.05469866755185938,0.05414124061637302,nm,0.0
34.285844999999995,-0.4250255205965654,-28.967010515442823,-173.38796485954032,-0.011749652578166035,0.17535428538078165,-0.26829915355590245,0.014421510292632876,-0.060745063840627125,0.14694080492115055,nm,0.0
34.295355,-0.7405078427639753,-28.4884472633472,-172.18650836497062,0.1847516978706726,0.05691538811875635,-0.26901204473846996,0.057747498539876665,-0.07740019292514144,0.16731418864622985,nm,0.0
34.30484999999999,-1.0696967915975972,-27.89331869328155,-171.22737409295922,0.2525163841180474,0.04286950299299541,-0.3692071566215859,0.06530758013522873,-0.09896379736324945,0.1250330079921228,nm,0.0
34.31437,-1.0847309869328716,-27.191564207363378,-170.74654244763843,0.34123529329366903,-0.05487910611428649,-0.24425114824421765,0.015258803591374983,-0.1279382538289994,0.05836859174517983,nm,0.0
34.32389900000001,-0.936873142385101,-26.370880613034213,-170.83375454110075,0.2591386787872226,-0.0548468830254283,-0.18914574672492276,-0.009145714567134812,-0.15605069175167485,-0.0356591931222776,nm,0.0
34.33341300000001,-0.6545650714803118,-25.467918449496718,-171.25125123688943,0.097751071781293,-0.01152381613112879,-0.1319411941325027,-0.031299056338736954,-0.1761108593175389,-0.0933053337304359,nm,0.0
34.342918,-0.3427489644049227,-24.533079553003187,-171.6465479660551,-0.03120580427072511,-0.004582170474494784,0.014395797973154177,-0.0372251855138784,-0.18309119132353716,-0.09244471933292515,nm,0.0
34.35244399999999,-0.21933860676144967,-23.58422518325276,-171.73850529483076,-0.18570077580970223,0.05054288084008414,0.026279304490190215,-0.003964502710357428,-0.18077013314808368,-0.045842362681420834,nm,0.0
34.371465,-0.323752473764434,-21.76546721944296,-170.79771128648844,-0.18607522861832637,0.0473370364076649,0.11832131057124794,0.03520632121561326,-0.1617993827866068,0.12427692597534111,nm,0.0
34.38105300000001,-0.5266298026421385,-21.075405505942406,-169.88557278911964,-0.12566579695419633,0.06949406518730346,0.04386393437347461,0.036335568290500775,-0.14468076315729544,0.16545808058100114,nm,0.0
34.39048199999999,-0.47171786350431927,-20.391072983450677,-169.2146217139482,-0.0013672172856454064,0.08198188235855428,0.13000054520116186,0.004890976402376341,-0.1265276012769188,0.15800850519984747,nm,0.0
34.40949499999999,-0.11942356348068653,-19.39778251620384,-169.19405664998823,0.04480912747419699,0.146691360145247,0.20310785220612526,-0.02662017161233324,-0.0826503484600551,0.007291151572485552,nm,0.0
34.428516,-0.22753210696374596,-18.918963912497844,-170.4964452666628,-0.051119316699285974,0.16345797855290858,0.3523451259727079,0.0315461719453412,-0.016913242001669115,-0.10557043379959798,nm,0.0
34.46654699999999,-3.5403196711229277,-19.571456117997506,-170.81507854100957,0.03997092598630872,-0.16413098704861653,0.35339605749515984,0.17734272293649134,0.09707694771708712,0.07226310695698172,nm,0.0
