timestamp,roll,pitch,yaw,acc_x,acc_y,acc_z,gyro_x,gyro_y,gyro_z,markers,motor_input
1.502436000000003,-27.12268034890696,-40.860138107173505,-28.089936758128353,0.599504031385644,-0.3176556090817928,-1.002336317646317,-0.0633032380622352,-0.04922960722561802,-0.05347103632379309,nm,0.0
1.5119830000000007,-27.38208153860713,-40.84186295014108,-28.12353245323914,0.5050857070708733,-0.26522627733136417,-1.025011415068462,-0.035243024472358005,0.008636325016156144,-0.03573218706859187,nm,0.0
1.5215000000000032,-27.544359183268533,-40.39323593348622,-28.044904379277735,0.3806206576065763,-0.038831257398165724,-0.9732051158086084,0.018254747149058205,0.07776120123961802,-0.0004322296379968914,nm,0.0
1.5502350000000007,-26.609568708005025,-36.07306591638201,-27.60900180379256,-0.23720042507715408,0.7858126759252893,-0.2904171051565871,0.28926754199100846,0.2783917059482203,0.11486372886893384,nm,0.0
1.5597329999999943,-25.25914114201539,-33.66967050148315,-27.66539884687834,-0.4573582751816599,0.9590660325884433,0.23858161939913836,0.4183284206657268,0.3098837997995109,0.14740345837945903,nm,0.0
1.5692339999999945,-23.307911223176077,-31.139100202427915,-27.78983368867131,-0.5724146024112347,0.9631015420317298,0.8992920644342864,0.5266122738449857,0.2812810463407682,0.18797082339417762,nm,0.0
1.5787409999999937,-20.587985241548736,-28.85778778373855,-27.87290266922113,-0.5333921193575091,0.7817477738146426,1.5188446983362995,0.6295847699741043,0.16975339361583994,0.25842248994107714,nm,0.0
1.588265000000007,-17.5560715398893,-27.226835153694324,-27.856638701147407,-0.24794237707085845,0.9048006755099464,2.581419075576654,0.6258970291324011,0.02413829118825409,0.2906329575974517,nm,0.0
1.6072810000000004,-13.406837761247774,-26.47641823213589,-27.716263105766018,0.15767335964475573,-0.7681674804196026,1.9423036215471032,0.31060410569128805,-0.20126474792436916,0.20402728508366647,nm,0.0
1.6548410000000047,-14.530431273769471,-36.61181089401027,-27.21977825822636,-0.7715260057313053,-0.13624635945426317,-0.11106585760942018,-0.46161947180377305,-0.2954674612479137,-0.19079372003228426,nm,0.0
1.6643689999999935,-16.635513877899157,-38.56589912727422,-27.15450866279732,-0.7110686757113938,0.09451235331117644,-0.49260112600897515,-0.4764862004309148,-0.20929939604763853,-0.2411659601872426,nm,0.0
1.6736839999999944,-19.16937521097368,-40.106305040389046,-27.029220159591556,-0.39412412150435217,0.04901452597385325,-0.8238677910749013,-0.4908142757042066,-0.10957819014330622,-0.2930512551854666,nm,0.0
1.6830149999999975,-21.965258120933584,-41.15707571929068,-26.83383142915394,-0.007242621037927079,-0.12164348437049854,-1.0140118105256117,-0.47544305540388526,-0.008658098827938034,-0.32139596862798925,nm,0.0
1.692539999999994,-24.837268867128802,-41.76602104773005,-26.558815075305155,0.360095105920519,4.531765503837246e-05,-0.958547768152811,-0.44151015872890176,0.0713718896381383,-0.32112367037200396,nm,0.0
1.7020499999999998,-28.040015317118403,-42.10523796548157,-26.24845089970339,0.6591500482150956,-0.36911262010423396,-1.0703221566539571,-0.4595645040762194,0.13825134650696572,-0.36129893871220714,nm,0.0
1.7212490000000003,-33.04849313759603,-42.38445670018769,-25.67088342377104,1.063520353688467,-0.023433672461768508,-1.0614394493915305,-0.3110901881717211,0.11604023039132745,-0.24978983258347956,nm,0.0
1.7401009999999957,-36.97015427902896,-42.44191762728933,-25.58280446201663,1.0024047919203178,-0.35511019450469644,-1.312596869645315,-0.21705290281821593,0.09237408840838106,-0.2078258150196322,nm,0.0
1.7686010000000039,-38.177867927295814,-40.27992296299081,-25.412181371994183,0.29387136866216274,0.4294221689072069,-0.8407556428457045,0.15197104725375324,0.18986650081834153,0.07656473559667065,nm,0.0
1.7783440000000041,-36.886410172237035,-38.43382659709276,-25.283151306485728,-0.004837543883131172,0.8162358019720977,-0.36963216945079047,0.336483284040743,0.23604988457052023,0.19630884146043212,nm,0.0
1.7878220000000056,-34.75007522706369,-36.20908522909299,-25.14664563561718,-0.32280540245802586,0.7799326114872345,0.10447573691230572,0.4955330898940976,0.24532659644168947,0.29268882481402564,nm,0.0
1.7975019999999944,-31.454266024791725,-34.1020317775149,-24.875145813507633,-0.4530758121145221,0.924888768422623,0.7385758453508777,0.6658841430696205,0.14098552288226437,0.4396174531833034,nm,0.0
1.806991999999994,-27.48530961646536,-32.516724873252386,-24.589010017550518,-0.42872683548397394,1.302806477420485,1.7818064986609667,0.7351606813770626,-0.0031644891255466355,0.498106416158351,nm,0.0
1.816512000000003,-23.834021730715442,-31.51038791763583,-24.540756715932087,-0.3760183514987388,0.39460847309362757,2.053454432558065,0.6471431377694301,-0.0882562485095596,0.40083893453568636,nm,0.0
1.8260230000000064,-20.118706315445937,-31.220582143521835,-24.669672689817418,-0.1885317789081586,-0.32695135276680937,1.976452836568587,0.6016367249863211,-0.22565984659689753,0.36425903145323424,nm,0.0
1.835528999999994,-16.72635925255706,-31.842118904611315,-24.848244097593124,-0.0823908982161121,-0.45571480954034627,1.9906080081533093,0.47389906502750917,-0.36948664607495935,0.3217468278906755,nm,0.0
1.8450409999999948,-14.741416324983218,-33.31217134018708,-24.975433848238655,-0.15448303776585,-0.75571608760331,1.68591543462542,0.1801856555311954,-0.42209029344789567,0.19057973222642266,nm,0.0
1.8640759999999972,-13.599850078528503,-37.52848522762655,-24.73794521975701,-0.6202821506877968,-0.44235389574996875,0.8377868019466798,-0.15156290360082936,-0.43914245990545886,0.08016197547238689,nm,0.0
1.8831109999999995,-15.994458953299024,-41.79122471413967,-23.81728507720065,-0.6503498071196255,-0.1922469907093036,-0.42389209797041966,-0.37542868227505855,-0.287703605876865,-0.09479045018375924,nm,0.0
1.8926060000000007,-17.788052289560195,-43.48768598618576,-23.31558470882769,-0.48196907987446497,0.06360211230327655,-0.7122408768011309,-0.3780627544026897,-0.21947176433922902,-0.13926858082006413,nm,0.0
1.9019360000000063,-19.84163592425543,-44.76088401488083,-22.97478689574801,-0.17226670291639473,-0.07768431290309741,-1.0887155379763382,-0.3720089989785229,-0.13200351799922785,-0.2140432607431054,nm,0.0
1.9114990000000063,-21.84993661498467,-45.65373865839744,-22.802637450189163,0.13565974599528316,-0.17916817557400913,-1.1680400777139213,-0.33125360392300474,-0.0679802580161237,-0.24650624086209813,nm,0.0
1.9207930000000033,-23.702909289476338,-46.19455877399042,-22.76172639547384,0.41633033566179073,-0.327418034832444,-1.1889348308755123,-0.28089995617194485,-0.013242654503073974,-0.2536238035632781,nm,0.0
1.9398280000000057,-26.755444394870988,-46.45528671494311,-22.700033998666353,0.8001577075894855,-0.3344935585054847,-1.1168058008287283,-0.18621503319475669,0.060552563864412566,-0.1929740894225343,nm,0.0
1.949350999999993,-28.120216472124405,-46.262438834746995,-22.596796930035985,0.8426084411733213,-0.38139703263626423,-1.1282465600722582,-0.16078093160106088,0.0952483102783066,-0.1716424160180396,nm,0.0
1.9683279999999996,-29.84092929436425,-45.08404385313754,-22.47819781745189,0.6164970350152615,0.0397498471198796,-1.0061266655436754,-0.034476652222399144,0.16091964777217116,-0.08976524353986098,nm,0.0
1.9778299999999973,-30.037946739366596,-43.983492714187115,-22.611942763324105,0.3728332423099974,0.266184696644853,-0.8754279688629094,0.05687826926810016,0.20139569486908915,-0.04880136950610653,nm,0.0
1.997056999999998,-28.440474995422328,-40.60784621840994,-23.268846334625977,-0.2328933347435006,0.776855452649972,-0.2100353304641028,0.30068303160324245,0.26549783082067197,0.079350668293722,nm,0.0
2.006741000000005,-26.65684679759062,-38.52177612704567,-23.630844960606677,-0.4788789151172921,0.9052109411905332,0.39545209044810475,0.4178178919807109,0.2602651859969956,0.1597588344603597,nm,0.0
2.0162399999999963,-24.287969154792034,-36.515023945768235,-23.872353084519915,-0.5369745283195008,0.8082521547666681,1.0234661523924535,0.5055671529168315,0.20263842253178735,0.24469306635293142,nm,0.0
2.0257450000000006,-21.37449423215371,-34.92380249245235,-23.94940604338505,-0.36067167015150303,0.8625777662023686,1.723468957951474,0.5619148773363813,0.08546629437886523,0.3286448812876735,nm,0.0
2.035263999999998,-18.82208498162913,-33.91583421201453,-24.003620387324226,-0.1522407296591719,0.5102920851417664,2.1151882548261387,0.4673623816923628,-0.0008440200875393211,0.2809321994481465,nm,0.0
2.0542779999999965,-14.80398080487413,-34.34503750441975,-24.126323387954564,0.11760045085760473,-0.35815445658943623,1.76671708958163,0.25424916480959464,-0.2715421977733373,0.22037107351209137,nm,0.0
2.0733079999999973,-13.218429550849752,-37.734852405944466,-24.359515642861886,-0.11988670022594822,-0.720229597832062,0.8008130056804326,-0.09878422024898208,-0.40333042984152917,0.02561939250986774,nm,0.0
2.0828190000000006,-12.807970809141473,-40.088881151874,-24.481864622229377,-0.37260185901182596,-0.25998234613759813,0.5781549502484722,-0.1361276555125912,-0.46964723709778794,0.029547741568338556,nm,0.0
2.101836000000006,-13.382206836085096,-44.43630420711285,-24.86057783343476,-0.39053198926145266,-0.30291698364633834,-0.6075938476818441,-0.2263216220478538,-0.3499469585297484,-0.10084705445784121,nm,0.0
2.111175000000003,-13.821202862246425,-46.076689323730236,-25.002865570653913,-0.2804883916200744,-0.16477880872119727,-0.8914709780911415,-0.19461750649218176,-0.2856304929701402,-0.08772004094369032,nm,0.0
2.1206909999999937,-14.494608209255993,-47.32785880445912,-25.06010622242764,-0.04112941198718581,-0.24695524364264393,-1.1006908350582534,-0.1900190699876749,-0.20166711231685716,-0.10616229240025399,nm,0.0
2.130206000000001,-15.282068616624183,-48.093724591203305,-25.065713447266045,0.21540421742440313,-0.35980940542863615,-1.1543257007664214,-0.16146425878583123,-0.10770249002261319,-0.11412815522932887,nm,0.0
2.1397130000000004,-16.041505751354343,-48.39011979347062,-25.061618111058035,0.4475742027112734,-0.44779032222437093,-1.2287569088796586,-0.11740558409395475,-0.024537376022992767,-0.10882571902763842,nm,0.0
2.1587179999999933,-17.60986507502794,-48.29732386574734,-25.08436247540412,0.7576145474510566,-0.6658308571112397,-1.284257772133762,-0.08669441108788524,0.05443166071638644,-0.1214716754219548,nm,0.0
2.168244999999999,-18.176767133035,-47.99876745227088,-25.142320439182765,0.7636073883577651,-0.6101894903511814,-1.2846784228924186,-0.044055873301825754,0.07270859060988984,-0.09207022265488103,nm,0.0
2.177711000000002,-18.599085245165423,-47.506367081622514,-25.22881242867484,0.6641563451623889,-0.40317075789610496,-1.2473245608901111,-0.01039244882913989,0.09986719829843897,-0.07580113378354394,nm,0.0
2.187259999999995,-19.014217363972936,-46.74538020518723,-25.33238417388732,0.45761565097499096,-0.2451314936902875,-1.1984855204640643,0.012996097873035403,0.14839400326688504,-0.07753576731510142,nm,0.0
2.196759,-19.268944512478942,-45.572092199598764,-25.425767613772464,0.12795580831149403,0.13613065729104495,-0.9669211038125661,0.0678583734857147,0.21384943571842133,-0.05141688235408577,nm,0.0
2.2159809999999993,-19.274220774591125,-41.55090794169879,-25.58576221419806,-0.4597980009018856,0.6785056200263248,-0.22146296887079947,0.21251779825602837,0.3950399033988804,0.00394032813771186,nm,0.0
2.225487000000001,-18.834622926354545,-38.85475040880373,-25.611303104741182,-0.6864665090522794,0.9324501490025691,0.44908704250328024,0.2933981179004751,0.4440754991479124,0.05512633047767487,nm,0.0
2.2349810000000048,-18.150230239737844,-36.119980200984415,-25.573684422074955,-0.7709301570783762,0.9599037556688487,1.2032061759358026,0.33436140972881334,0.4330403719918421,0.09396234670504817,nm,0.0
2.254002,-15.683312081533543,-32.01929832426488,-25.34177751231534,-0.22706693340179032,0.7517716985646037,2.4128266109788092,0.37346232778076593,0.18953853785882754,0.19054916782826983,nm,0.0
2.263514999999998,-14.694457173637346,-31.18565000809996,-25.30513631726076,0.06983154925613351,0.24448539135266736,2.428458398791597,0.22422654387809782,0.06467258655828537,0.11292025668177068,nm,0.0
2.2731760000000065,-13.959959838095493,-31.489409475601455,-25.29336883205774,0.28051292374796427,-0.46953719281125045,2.0313329527420954,0.08804181771929831,-0.12276900021294845,0.08054782359593614,nm,0.0
2.2825480000000056,-13.224085722417225,-32.90479199910179,-25.211913938938523,0.21730355961060985,-0.08990996819058492,2.1002714006671703,-0.007597061596688806,-0.323623513986457,0.09653413837628831,nm,0.0
2.3110829999999964,-13.383673140204086,-40.63010980558505,-25.138458443106373,-0.574419479707855,0.07545005019160485,0.3575024949814712,-0.2607987442991492,-0.5215171173236046,-0.008205168865786068,nm,0.0
2.320599999999999,-13.852933630943761,-43.185255877087975,-25.16679582273508,-0.5861550659171703,-0.094306011586618,-0.3471164208102726,-0.2807113512480345,-0.44733048961155664,-0.065538194695689,nm,0.0
2.339584000000002,-14.97500396151247,-46.81083062742838,-25.23833569056434,-0.34876084794869905,-0.08276993460633285,-0.9814094168462072,-0.21574668481476988,-0.2573350016738208,-0.09687748856237871,nm,0.0
2.348934,-15.770869199653506,-47.780138634653696,-25.259680335120283,0.025035062645659,-0.28803641118317624,-1.155904914710046,-0.1810483936244692,-0.14316669712886834,-0.11770911921938274,nm,0.0
2.367987999999997,-17.616945247411753,-48.47812409529104,-25.2009229559541,0.7042214638902168,-0.513801258450253,-1.123794653385359,-0.14028265866768497,0.002767025505016935,-0.13498916486248314,nm,0.0
2.3774580000000043,-18.834835637840435,-48.61435942946719,-25.118704657065226,0.9060559138678166,-0.6874545169873014,-1.1365417113978535,-0.1587174346573763,0.030424826486034163,-0.16209185578016755,nm,0.0
2.386934999999994,-19.97911739646899,-48.698108480651335,-25.032759375282915,0.9926799107428598,-0.8472235642398941,-1.246215345084987,-0.1453540309166835,0.03550576313997735,-0.15041404146323792,nm,0.0
2.3963210000000004,-20.79081954795462,-48.7405260218525,-24.956538982946014,0.905249220393415,-0.567507197999644,-1.3059930109297866,-0.10204056750893611,0.02420934641409858,-0.1023549990434249,nm,0.0
2.4060479999999984,-21.529364531684553,-48.71328422812984,-24.95021200039509,0.7511993362016192,-0.38169295682670706,-1.3976416621226202,-0.08751893799691211,0.032747381118424956,-0.10524926175950167,nm,0.0
2.415594999999996,-22.069519635287268,-48.429794075270394,-25.070081759830494,0.5536810247307773,-0.24600707909987582,-1.4838792218110688,-0.04231822745421981,0.0683857778014846,-0.10039965042390513,nm,0.0
2.4251000000000005,-22.205050388510355,-47.6768693251257,-25.327983869048072,0.2256029479223598,0.17958597263072318,-1.2947167931646033,0.046295648762455455,0.13082821604526315,-0.06714681887101069,nm,0.0
2.4345339999999993,-21.97106287666681,-46.27765791528661,-25.719999338696706,-0.10417126753238039,0.5938738940287214,-0.8867078299461016,0.14814370071760413,0.2257054513890914,-0.03968150315961654,nm,0.0
2.444231000000002,-21.30994606653,-44.12443048963842,-26.187600770820048,-0.3377831072805281,0.8010597139240213,-0.4121204567149837,0.27127934753864513,0.3334014223526708,0.004621880486878867,nm,0.0
2.453738999999999,-20.225210778805092,-41.398960533985466,-26.549441715465456,-0.5360528608693765,0.9821200720125448,0.2133354568543726,0.38422341602255916,0.4045247649669536,0.07894688947028163,nm,0.0
2.463234,-18.870668393086813,-38.56650165993596,-26.629843321157576,-0.705777857017088,1.0993197743985508,1.0807729776236752,0.43898927659010956,0.40037511473739146,0.16160590366789582,nm,0.0
2.491769000000005,-13.410288336496905,-33.172975562363206,-25.70087482524113,0.15279902215602334,0.3413743116025889,2.6576664190841317,0.38473357865538693,0.024015643113149118,0.29474038672029873,nm,0.0
