timestamp,roll,pitch,yaw,acc_x,acc_y,acc_z,gyro_x,gyro_y,gyro_z,markers,motor_input
38.50860499999999,2.844032296501789,-17.70996446817717,-174.20252762149525,0.024785444614140777,0.006674883726150971,0.07933088387725916,0.0,0.0,0.0,nm,0.0
38.518124,2.715779125281454,-17.67066027209198,-174.37133735204313,0.019967326875808874,0.005167770808005154,0.06396550873678968,0.0,0.0,0.0,nm,0.0
38.537149,2.6184397204564047,-17.708737143997887,-174.98816474052137,-0.010103356610507432,0.0017655374771697039,0.06379617154581098,0.0,0.0,0.0,nm,0.0
38.54665600000001,2.6085741701296516,-17.79343152227308,-175.26655151056832,-0.03810517545973277,-0.001118506541160813,0.059007198002853575,0.0,0.0,0.0,nm,0.0
38.55617000000001,2.595087068876352,-17.902791577395508,-175.44622933157973,-0.05247463770663455,-0.002570948752700107,0.054140116704041966,0.0,0.0,0.0,nm,0.0
38.56567799999999,2.560367513664484,-18.024551022952195,-175.60258146666823,-0.050561995961317045,-0.002590487525107863,0.04689842827988207,0.0,0.0,0.0,nm,0.0
38.57519500000001,2.5091326841640242,-18.132328975042665,-175.64830901011888,-0.033419539085154354,-0.0012903178677948035,0.04094182155415882,0.0,0.0,0.0,nm,0.0
38.58469199999999,2.457907919666096,-18.20193860878946,-175.59905542726275,0.002592255455298325,-0.02865508179703254,0.0011731349129910154,0.0,0.0,0.0,nm,0.0
38.59420700000001,2.4288912526497883,-18.233236487077274,-175.5130587721951,0.004526639369627248,-0.04928838080243317,0.0019939019060744236,0.0,0.0,0.0,nm,0.0
38.603717999999986,2.4347813638229416,-18.243301722954786,-175.488862517818,0.03111693596763817,-0.06445669237388303,-0.005567517926918641,0.0,0.0,0.0,nm,0.0
38.62273400000001,2.533247429257994,-18.277655246655304,-175.67712172073823,-0.0015060739129339061,-0.0731111513225142,-0.021232161045377014,0.0,0.0,0.0,nm,0.0
38.63224099999999,2.612544528162757,-18.322988697274926,-175.89730494461134,-0.030203253221732736,-0.07412301311601056,-0.011956556179351444,0.0,0.0,0.0,nm,0.0
38.64177000000001,2.6814708634720126,-18.38510860866236,-176.09087075930734,-0.04051155641509785,-0.0721574580273027,0.018485040819493842,0.0,0.0,0.0,nm,0.0
38.65127699999999,2.7350855723895093,-18.4537079104541,-176.21463907912627,-0.04358668536962043,-0.07945032124132503,0.020110981746734008,0.0,0.0,0.0,nm,0.0
38.67029299999999,2.8277294240354727,-18.56063911217328,-176.34062037998467,-0.029305951563991513,-0.12072731875132531,-0.014762013396084198,0.0,0.0,0.0,nm,0.0
38.689317999999986,3.017669676258297,-18.620948638879433,-176.51113130805822,-0.002380005026637579,-0.1576954013611869,-0.03553136074975933,0.0,0.0,0.0,nm,0.0
38.698812000000004,3.200725574969594,-18.645881220643453,-176.68379524330106,-0.004573132946823623,-0.16284742940989405,-0.04144757628217164,0.0,0.0,0.0,nm,0.0
38.708337,3.4409743793116556,-18.652815214168083,-176.86446069601237,-0.0033303208247898747,-0.152917871008428,-0.034629503231522724,0.0,0.0,0.0,nm,0.0
38.71784199999999,3.728333271819824,-18.624760799325998,-177.0778896206822,0.028340650334285834,-0.13088844518725617,-0.03134824858834543,0.0,0.0,0.0,nm,0.0
38.727362,4.030344253756694,-18.562955667175462,-177.3663305730963,0.04433207075527428,-0.09612985468179495,-0.006099605469862601,0.0,0.0,0.0,nm,0.0
38.736872000000005,4.323263497166584,-18.47757347268525,-177.5441117035256,0.0423785042339111,-0.05442445095646593,-0.00889009143938447,-0.050428965378800386,-0.00012158138769928492,-0.012485815778647784,nm,0.0
38.75588300000001,4.861866453841165,-18.23693910483016,-177.57301065077846,-0.0024964294440493005,0.03613745595997357,-0.002925369796729313,-0.06503477128002769,-0.014689200838082622,0.018036403233055654,nm,0.0
38.774913,5.356081739180536,-17.970671516373972,-177.41141579953862,-0.039695786842859175,0.15747520573390952,-0.0051266156389825415,-0.08865512291330963,-0.02270175826772043,0.028226578857929847,nm,0.0
38.79393999999999,5.874782091669221,-17.880359101823696,-177.5281056772871,-0.11977990849914756,0.3648733604158988,-0.07934774171291363,-0.14185677384594014,-0.019823204379076833,0.019753567756439903,nm,0.0
38.80344500000001,6.6101114236939225,-17.870273955419414,-177.65769425983416,-0.09741683677859408,0.3819171353868975,0.012271002444766812,-0.22830786711802425,-0.01756637320833987,0.04180586993893297,nm,0.0
38.81288000000001,7.928453610415284,-17.788949075155998,-177.8863574052418,-0.023935168000012618,0.43699816730531843,0.23265845237079774,-0.2589500290244484,-0.015199122340407338,0.05083385545991121,nm,0.0
38.82239000000001,9.149318614522885,-17.715363255535216,-178.01708654558243,-0.13162758884361356,0.7209339156618525,-0.08853565811221581,-0.24063952140061803,-0.012457076197826761,0.05272453771442667,nm,0.0
38.831885,10.776740456742253,-17.70402608017679,-178.0141523617834,-0.03410509852175055,0.8590366599246648,-0.013522811752398656,-0.31873681561876244,-0.0026453349397843723,0.10017848993653038,nm,0.0
38.84140400000001,12.520200042657267,-17.795836288003944,-177.95433350774476,0.04600785083827548,0.9313629486849657,0.24681701711776244,-0.3416044044893039,0.016947474890826066,0.12710207194877,nm,0.0
38.850909,13.894701355210083,-17.916945512656298,-177.86598446845153,-0.011593720916258434,1.1050707055685407,0.09143888487284547,-0.2714373581509475,0.024854403246358125,0.1227420463287212,nm,0.0
38.860411,15.036310580875663,-18.03706224467473,-177.71611435180523,0.04380828738442888,1.18003430090885,0.08408730827431236,-0.2270428286814037,0.02568290371466912,0.13003862883293646,nm,0.0
38.89846800000001,13.905237366030972,-18.629468047724572,-175.8957686259461,0.10593161524225261,0.7403305892171241,0.1105713636839764,0.21805218916115135,0.042433532000609175,0.0173145217982652,nm,0.0
38.907971,12.07302375467152,-18.64988587111671,-175.43393820302634,0.09734649151813977,0.4490451697062119,0.1418297234646195,0.3371707668369107,0.040086720922637695,-0.029615590362103324,nm,0.0
38.927007,6.543501063811711,-18.484525461778105,-174.71381142629457,0.2890281847901555,-0.23694732028335583,0.385005997050653,0.5768156938139639,0.04299614997282045,-0.136652795212501,nm,0.0
38.946011,-1.3857106736169698,-18.085202959012207,-174.37224704279265,0.4650754315180142,-0.9443347158388782,0.35759809487458144,0.7565854771690944,0.03527806817584655,-0.2279594140763772,nm,0.0
38.97437600000001,-16.223561365717195,-16.298067210495514,-175.34503275271487,0.10012958103927273,-2.1855878976226752,0.10831706449969358,0.9944260436331791,-0.04988767966674212,-0.41532395965663615,nm,0.0
38.983866000000006,-20.957786489457252,-15.600397377326964,-176.18006611533855,-0.1882390414329719,-2.5455476840343083,-0.007360288153321242,0.9122811848586252,-0.05966264516778093,-0.42620207615054534,nm,0.0
39.002713,-28.748874635492736,-15.089164791617844,-178.5761627063885,-0.8141574678156144,-1.8730089143097197,-0.963410140378416,0.6484906538744333,0.028322259264207093,-0.4318330622985677,nm,0.0
39.012304,-30.661091040183607,-15.637477733498772,-179.91261216196202,-0.8480477006001349,-1.6272631009996776,-1.1266230511925717,0.3620735105235262,0.12718755078231236,-0.3655436792352329,nm,0.0
39.021736000000004,-31.19938255857612,-16.620263218828377,178.7102444183643,-0.7752695621487501,-1.0941675014696022,-1.1964082835912204,0.10032604586050356,0.2083533293309323,-0.30200102473197804,nm,0.0
39.03132099999999,-29.95034468703671,-17.68455373582139,177.30691155444413,-0.5946096312987381,-0.5646683875677907,-1.1002010501471515,-0.23641759364655654,0.23410299159099332,-0.20368933518242194,nm,0.0
39.04101700000001,-26.701621832843635,-18.453525740738616,175.93762889635843,-0.2612445270957662,-0.4164299286619531,-0.6925133079565107,-0.6131382997105194,0.20312610531243167,-0.06941219480057327,nm,0.0
39.05051599999999,-21.860148009088558,-18.623350916728818,174.6670040374277,0.019162466202395534,-0.09788470859312778,-0.46264971608918454,-0.9181377651627431,0.12233365627372265,0.05587391282321298,nm,0.0
39.060035,-15.614756738612686,-18.252470189496062,173.71139529355742,0.24271869180371192,0.24654337559214679,-0.3808526692925158,-1.1928747884512265,0.059530982746574534,0.20492804581715238,nm,0.0
39.07905400000001,-1.0666914044801676,-16.627266844869553,173.07580972058443,0.4009633040426411,1.0795778748501461,0.7317492619947129,-1.4077442290337414,-0.013054812886240285,0.40079431811096927,nm,0.0
39.097995999999995,14.342944182213069,-14.374048535743583,174.13682402737504,0.14718457636511245,2.2118902748862173,1.0287663689438498,-1.5315617930578038,-0.03124162256729116,0.5424764295402493,nm,0.0
39.107685000000004,21.236560084925724,-13.744759446754935,175.13037458155472,-0.17397587418783728,2.6835225400399825,0.7837208134915681,-1.3524946121187165,0.009736630923487513,0.5269788980756392,nm,0.0
39.11702600000001,26.805913381846533,-13.519899181531224,176.3529066585971,-0.42682388380237474,2.7994767268687974,0.14695490303123124,-1.0921203301052778,0.044371230292874896,0.49952112795211157,nm,0.0
39.12653599999999,30.90775880103399,-13.788913136618335,177.6737197751305,-0.322429640259998,2.672837632711951,-0.050216588778637515,-0.8026100520696371,0.10323291501057885,0.4498161082633659,nm,0.0
39.136054,32.89591957677058,-14.576513777105918,178.85014324550818,-0.16012359214205282,2.5151320831948913,-0.2149948279192017,-0.3896937807990062,0.17667870155048532,0.3245218325790689,nm,0.0
39.145568,32.77916243220541,-15.570873218314325,179.89293207497806,0.0207203181897292,2.317154916653516,-0.273192238042362,0.01581297804648649,0.20606453765423166,0.1943388646522546,nm,0.0
39.164770000000004,27.516245898531913,-16.643475866572032,-178.0179383092015,0.6565811605092382,1.3290745908500408,0.5078736104219801,0.6598171366451584,0.08685574056385739,-0.0006021193986157472,nm,0.0
39.174273,22.41160398175868,-16.486196957729483,-177.16846360632067,0.69075932898933,0.6343577171810717,0.6614007261947296,0.9710568131053975,0.01821882389472943,-0.1282585883838647,nm,0.0
39.18379999999999,16.097148705475874,-15.905377600655841,-176.53328941408586,0.6694001460844929,-0.07364149919839491,0.9969670030984221,1.2098513410144518,-0.03993011523248743,-0.23152093906135196,nm,0.0
39.193302999999986,8.666057401333818,-15.033501532277917,-176.10810012777313,0.43155669563628546,-0.7414755878709288,1.0458875934848726,1.433723304517819,-0.07166718100766695,-0.31659636874646735,nm,0.0
39.20279500000001,0.8092393594173982,-14.08012765876085,-175.82676743098853,0.28325563224006606,-1.5323843852918613,1.2643001669399627,1.5241367631184985,-0.0719745704809126,-0.3425319417227699,nm,0.0
39.22181599999999,-16.055140206927323,-12.31543600097699,-175.76963449329537,-0.4437461598230553,-2.808667332264629,0.6957793982366108,1.6818598590822489,-0.033849701876002634,-0.3965136428434933,nm,0.0
39.231144,-23.724780441672056,-11.659254367758843,-176.11896779929694,-0.7211367851316336,-2.842284839081073,-0.12481030418565119,1.500777342505698,-0.01238627636602668,-0.38727071417395964,nm,0.0
39.24066300000001,-30.099128978534374,-11.57170830103352,-176.7693163919172,-0.8011996454839861,-2.8659961136499885,-0.7571445637620517,1.2423417486637414,0.07228365779301774,-0.3841574967419384,nm,0.0
39.250170999999995,-35.260334716787696,-12.33821171615244,-177.69851117193693,-0.7995093325039944,-2.177259240389496,-1.4665470559006237,0.9963835936094042,0.2141338441826824,-0.3959047687426926,nm,0.0
39.2595,-38.46887623852491,-13.968703995938235,-178.7720786951454,-0.6322465173215681,-1.7202498157557522,-1.649645156589171,0.609692648280599,0.35760281238299163,-0.35617751270988124,nm,0.0
39.26902000000001,-39.666242395008084,-16.143967531051413,-179.95950220977224,-0.3837889127718199,-1.699022544388647,-1.4253761944201635,0.22161321918869228,0.45022049332396635,-0.2946480534537166,nm,0.0
39.278603000000004,-39.34390259177302,-18.327851502863787,178.6702326856049,-0.17335625417448233,-1.1652123739212181,-1.2034568881658942,-0.06134223904361126,0.45022159232637043,-0.2497187232692643,nm,0.0
39.307311999999996,-28.1882561986413,-20.756439840862587,174.51788680620706,0.12631522204322562,0.05980114338860766,-0.544349653925011,-0.9629192874795152,0.08049129112894272,0.12353567892102107,nm,0.0
39.31681800000001,-21.590190809862307,-19.94992991088024,173.7006783586665,0.14405339774592488,0.2641115815099497,-0.39300106720185213,-1.2533223031360607,-0.020064306918489958,0.2980579008160121,nm,0.0
39.335836,-6.793618362516749,-18.001932655483884,173.29484507198882,0.04520334719485554,0.9932388222751855,0.7257409732674206,-1.4045732860219315,-0.009622508264231331,0.4523610808666742,nm,0.0
39.34535700000001,1.0225548050490112,-17.16647003384064,173.53258075376104,-0.1700572211901184,1.595412864206753,0.9026564353594826,-1.5075787061732682,0.017604066030554515,0.5173850703381904,nm,0.0
39.354782,9.058226667845233,-16.413049895131092,174.08565629875835,-0.08505998375854372,1.9206918483044706,1.166766024988277,-1.5546576888679051,0.027950207583662217,0.5707635743128575,nm,0.0
39.36448100000001,16.140133825137646,-16.099289264994137,174.89034121717606,-0.16457240145752408,2.439029088888348,0.6621949476657363,-1.3686149156381664,0.07890442525466974,0.5520063837799548,nm,0.0
39.373808,22.24657303927314,-16.34195491921559,175.94491109126125,-0.11706947145508162,2.670034798621737,0.19329043531755044,-1.1745095314055067,0.15177065672716347,0.5457005886079076,nm,0.0
39.383336000000014,27.041087226611964,-16.954022490848725,177.28412872801442,0.165420851810127,2.6367770184401653,0.1321823901983006,-0.9195706141502533,0.1852189123092682,0.5356182914686229,nm,0.0
39.402355,30.166857574868494,-18.48828458764526,-179.50745780942543,0.41626840300312673,2.261132058876028,-0.5457905884136277,-0.11152416464210185,0.16191021276319928,0.35882874291631656,nm,0.0
39.42155700000001,25.879334390959364,-18.795647217775066,-175.81669782108742,0.5003955422811289,1.2647797353904568,0.2912660796764997,0.5847265540244925,0.008898919465033458,0.1688431251886054,nm,0.0
39.43106800000001,20.93319872670326,-17.965407588823652,-174.0667554667557,0.29660874832450657,0.5281277777978022,0.47204607719693437,0.941168092332365,-0.07440096468006287,0.03146008745288519,nm,0.0
39.44056900000001,14.578240645408107,-16.67731518052895,-172.7246334661431,0.27442709281135363,-0.21744143543585925,1.0341513775624867,1.2268186378953827,-0.10726502434707627,-0.11598197580232439,nm,0.0
39.45005499999999,6.798404262548613,-15.208791171249395,-171.93963680893398,-0.06064398464000957,-0.965299583278756,1.2063090251824764,1.5144155441937655,-0.08125712081182783,-0.27534866470683617,nm,0.0
39.459585000000004,-1.506881463186258,-13.712091518426389,-171.59898164986592,-0.2754704483565,-1.663271868521402,1.2968020194786847,1.6276957784703707,-0.054901937932637965,-0.3501431802401916,nm,0.0
39.469087,-9.870274645498494,-12.50533685462574,-171.58892301810928,-0.3658191145399673,-2.7501987113214486,1.4321746066372891,1.6402454881971302,0.011064242870165593,-0.37916320313621027,nm,0.0
39.478421,-18.594353534553637,-11.72430993752259,-171.90692377253404,-0.6884949977853447,-3.1422967416415193,0.5710766050857055,1.7046166671404737,0.10229807843020351,-0.4297420108108207,nm,0.0
39.48791800000001,-26.627278067805655,-11.458007869408991,-172.54621874351028,-0.8367744026917565,-3.145205121129876,-0.18763517988698344,1.5608055704533348,0.17213485286746685,-0.44883297809168693,nm,0.0
39.497266999999994,-33.31297030672113,-11.92783650495166,-173.47878585621723,-0.7711509531293611,-2.9839557469207176,-1.0097031856195646,1.282704464464333,0.2644870462904558,-0.45418829615466766,nm,0.0
