timestamp,roll,pitch,yaw,acc_x,acc_y,acc_z,gyro_x,gyro_y,gyro_z,markers,motor_input
5.506432000000004,-19.44550638444527,-47.70698047671302,-36.913787139795176,1.209281383649878,-0.45003065496913136,-1.7036818684720403,-0.33489705504342426,0.16772302743730627,-0.4725752113991734,nm,0.0
5.515936999999994,-21.733130795650446,-48.07998740162651,-37.47468403020852,1.3170088186121651,-0.7647826941829081,-1.712657066535252,-0.29406705633144486,0.1134483810957173,-0.4475666055837584,nm,0.0
5.527904000000007,-23.288161562497653,-48.27446401752505,-38.15997440645828,1.3127286184925169,-0.3952273096381439,-1.5508565127558418,-0.19251463094493826,0.08403736831353618,-0.3644202892326728,nm,0.0
5.534953999999999,-24.64151329383976,-48.09358085776414,-38.829328574059666,1.167170683126131,-0.41551807615535713,-1.6948663626640832,-0.12377433077558288,0.12849698663122272,-0.33095121742242645,nm,0.0
5.5445179999999965,-25.684575917163077,-47.479098039441574,-39.18085341670493,0.9440762309703582,-0.22874661028841808,-1.7153098133862905,-0.036658717015499026,0.17173496168062383,-0.21989694065360266,nm,0.0
5.554072000000005,-26.329325240363772,-46.24727401051836,-39.16734113535587,0.7329538180561747,0.2984626488017715,-1.4629982843989566,0.08235741617461227,0.23477476564896926,-0.08627767225799633,nm,0.0
5.563479999999998,-26.53393104460948,-44.17041813783656,-38.977862981121376,0.4144118974420198,0.48714530765405417,-1.2372713398607929,0.23487248430799224,0.32874408983452796,0.014011711945668052,nm,0.0
5.573001000000005,-25.80788696325723,-41.30751667537722,-38.65972782218332,0.12681937259822723,0.8988965392358139,-0.7192350997409963,0.43806251593146023,0.3671413759815247,0.16721513621399867,nm,0.0
5.592202999999998,-21.77202165164167,-34.586095298146866,-37.55633685667159,-0.5304259230322074,1.1332379524158693,0.8191914416672978,0.7289031336468431,0.2802885608551224,0.42272733320299855,nm,0.0
5.601702000000003,-17.993741097788995,-31.536605623800238,-36.732523037120465,-0.7934814570508513,1.1502618819361488,1.7216226562841344,0.8713611647396196,0.08995600402963536,0.5801970730313936,nm,0.0
5.613685000000004,-13.307676241967695,-29.2509031397723,-35.86340946066988,-0.8680043749232709,1.2032349677770457,2.89231841362683,0.9212261158869148,-0.12451210922185456,0.6500796463980631,nm,0.0
5.620722999999998,-9.000479390793288,-27.956814564591692,-35.20223982948176,-0.8735482794253081,0.1271780565694924,3.067579664821104,0.7654312343322522,-0.24344885268394603,0.545631516466094,nm,0.0
5.639826999999997,-1.3949100193062192,-29.13364590180922,-34.71774879332243,-0.25440981326602125,-1.2363958263454142,2.6323471489179107,0.369169446192948,-0.5834988954720411,0.36582909125380125,nm,0.0
5.651822999999993,0.13875711487671272,-31.666484424465178,-34.7644104446701,-0.39184456186868316,-1.1434276097842604,2.447011550144348,-0.071428152233618,-0.5818934126300366,0.14522645040627177,nm,0.0
5.6588760000000065,-0.082368548584114,-34.68303421062818,-35.019100683060046,-0.5510258840757698,-1.4790596454966007,0.878613733586071,-0.3761068460621681,-0.48846469721864605,-0.07561679461345486,nm,0.0
5.668392999999995,-0.4258753674889627,-38.060085615591156,-35.33607143296574,-0.8975103422209677,-0.4460582526654625,0.8526325689133055,-0.4351680993129166,-0.5350388875788161,-0.10412888878985528,nm,0.0
5.677903000000001,-2.1190613860789087,-41.32555910874839,-35.69072037265163,-0.9560326735680492,0.0954077908324235,0.16645600986581663,-0.5928953515931512,-0.3948332254501782,-0.2867373124160428,nm,0.0
5.696709999999996,-7.69527467542476,-46.016736121364865,-36.0333484436104,-0.44740649472434807,0.31279396190431946,-1.3021107408003223,-0.5648108012183695,-0.11282450318157464,-0.4059116758962,nm,0.0
5.706280000000007,-11.17931134064609,-47.42325885063131,-35.95509160956137,-0.06340198432186936,0.4355748680333844,-1.4217744859993993,-0.5547878105703363,0.03958565080748331,-0.489305400918944,nm,0.0
5.715812999999997,-15.027105991151783,-48.02078614600621,-35.915104318968204,0.43268137675253854,-0.45502146517769904,-1.7800640774175256,-0.4928105820613009,0.19392851457349766,-0.5584917972464676,nm,0.0
5.7253259999999955,-17.872455492735803,-47.882719760913055,-36.00229434605966,0.8367039258352482,-0.1918900104460154,-1.6571741178789479,-0.2960027256996488,0.2332597078305476,-0.43652925066644405,nm,0.0
5.744198999999995,-23.077097068628554,-46.829194396497044,-36.97291156535389,1.302832704460091,-0.7961069744573395,-1.6953768490338808,-0.20830915976457892,0.2856498685180172,-0.4868664011169084,nm,0.0
5.753702000000004,-24.507332506765277,-46.10993787040646,-37.700065178070474,1.3924904650246992,-0.4569895214352807,-1.457015750588509,-0.07398444536922215,0.22162122187242983,-0.34832786399107096,nm,0.0
5.772722999999999,-26.18893321491218,-44.01433097433128,-39.053938003844834,1.032052596526965,-0.297007549872158,-1.4270283580205676,0.06309358480137335,0.23141058361603514,-0.2085137736495218,nm,0.0
5.782224999999997,-25.997966890394366,-42.467053348268,-39.1959205946665,0.72852723343418,0.33366397738233,-1.0237542342734574,0.2123875616250864,0.2103299736877141,0.0026884112276027382,nm,0.0
5.791754999999995,-25.12742327162713,-40.256086732630806,-38.95786022624393,0.32428255805860856,0.7925554268710433,-0.5848037714806492,0.3762128707173698,0.24853022907658448,0.16748687722174802,nm,0.0
5.801433000000003,-23.520083262501593,-37.41297113744168,-38.3336630113923,-0.23367051049315096,0.9687127330945977,-0.17740825929367743,0.5473996222859029,0.2750253805959531,0.3309305785505285,nm,0.0
5.8109560000000045,-20.839447250692256,-34.41977755774098,-37.27128206176316,-0.7075602641770133,1.3278276018552257,0.5923788376804234,0.707585055398262,0.19359655329765815,0.530925578590477,nm,0.0
5.832419000000002,-12.688500088313578,-29.91698634342349,-34.93318484307647,-1.1409735899459021,1.2070772381388588,2.4450599071820314,0.8470186955734614,-0.14249883318384854,0.6677391920412963,nm,0.0
5.839554000000007,-8.307758235650244,-28.69932725730613,-34.4599470041069,-0.9795049165988342,0.14573595059316993,2.399001263205889,0.7665722683583269,-0.2492208776762083,0.5244593463307429,nm,0.0
5.849061000000006,-4.371652847717833,-28.56248429807119,-34.524844994687506,-0.6417742629140377,-0.7427932582546263,2.5706423960339224,0.5850452311710693,-0.3833680043428553,0.364238712170106,nm,0.0
5.858566999999994,-1.3509307243297848,-29.482669237544496,-34.91128364197472,-0.1602305531938485,-1.4888816540799565,2.2941975461256168,0.32947664737482957,-0.4668311367684011,0.21522259575948244,nm,0.0
5.880090999999993,-0.5529383309901558,-33.98804409790629,-35.46128868807786,-0.3120421888893496,-1.3924942848159991,1.0493419141246314,-0.3845345264933732,-0.38200073077166313,-0.10534476151360136,nm,0.0
5.887140000000002,-1.791192172320007,-37.15238967540627,-35.42598428110257,-0.6097712874069502,-0.6843816164865066,0.7816911900741734,-0.5322878485271194,-0.41343618891247275,-0.13696598959993933,nm,0.0
5.8966470000000015,-3.9778148038808467,-40.23214021632332,-35.21103183383636,-0.8701919039301625,0.2757331421125328,0.4463733732645839,-0.6361970564032986,-0.3197051127736755,-0.22974897993588494,nm,0.0
5.906009999999995,-7.273539018675993,-42.644451423606455,-35.018966014265594,-0.7304207620284973,0.19992800505001743,-0.7825022645235226,-0.6838418179110421,-0.12446523859780678,-0.3965471226479652,nm,0.0
5.915447,-10.478473833579512,-44.527159641170485,-34.90130875350806,-0.49660348375673646,0.37823725704995925,-1.3556095590612143,-0.5988121069670893,-0.056380763340493335,-0.4164053449912569,nm,0.0
5.936933999999994,-17.07709251925471,-46.5785627658451,-35.3926286771383,0.3594242629734139,-0.2393911507077774,-1.582295204873352,-0.4548843931821282,0.1443432397313311,-0.5593936674865654,nm,0.0
5.944013999999996,-19.464748102072384,-46.5263768137864,-36.014147446368796,0.8039900020683769,-0.21912611692371112,-1.4917045946570728,-0.2644096538258403,0.18726129328510874,-0.46741294963938246,nm,0.0
5.953423000000001,-21.701186616734116,-46.23439346847057,-36.642356853987145,1.2029453315582133,-0.32693801226375074,-1.34555423707431,-0.21819324361609668,0.21724821180147402,-0.4455148985428445,nm,0.0
5.972442999999998,-25.23749834264619,-45.269806142835364,-37.588369307644555,1.487005181149725,-0.5518197940336033,-1.2747039833137566,-0.08887269122086028,0.19897362004139024,-0.2773438732155942,nm,0.0
5.981954000000002,-26.209766161066536,-44.45983327423601,-37.92389420119617,1.423936471986855,-0.42055108309284095,-1.4080189494783173,-0.014417215767295547,0.20029781508627514,-0.19945929148646263,nm,0.0
6.000988000000007,-26.51856853278683,-42.24162457946044,-38.07327898438102,0.8127338582951554,0.26589786361987783,-1.2555297950417537,0.1780719117237502,0.16484410980775643,0.03862894996129056,nm,0.0
6.010480000000001,-25.490745161254466,-40.42362729500909,-37.9764546295699,0.33158131738343166,0.672000509452917,-0.9505738720756589,0.34171565286570377,0.1788525168624332,0.1600031949737534,nm,0.0
6.022452999999999,-23.585815866014816,-38.02204437584453,-37.71016993956169,-0.20291422494172376,1.0391139986707059,-0.4525311938841117,0.5245192745892093,0.18540573314810888,0.29870500363490904,nm,0.0
6.029687999999993,-20.803921957186585,-35.29320818756378,-37.16143567078449,-0.6708367198522719,1.3423691257794617,0.3503847790081025,0.6836780538552116,0.14874750223522631,0.445884768929853,nm,0.0
6.039197999999999,-17.13836807380949,-32.54721530333835,-36.4000027784979,-1.0029581568899288,1.2987909258870374,1.201140530118072,0.8144190849944484,0.06178854445367726,0.5645137462058974,nm,0.0
6.077310999999995,-2.083153589394426,-28.039608051411808,-34.711088848674024,-0.26429470472431726,-1.2861671855262709,2.349684156338723,0.39882049138530423,-0.32685765423701957,0.27409254756968354,nm,0.0
6.0868289999999945,-0.5424851520465297,-29.615426367028416,-34.73769265143795,-0.15219825431933925,-1.2300495643028524,2.3234857232303803,0.04220628374065652,-0.4274641886591631,0.1424270154014465,nm,0.0
6.105883000000006,-1.8031139524617514,-35.11639966262929,-34.88752775223026,-0.42290258319547225,-0.8708105696671665,0.8896507296795865,-0.46752991423883933,-0.39639849679905753,-0.12818576120065045,nm,0.0
6.115388999999993,-3.236936025517668,-38.26049170509191,-35.04143516058869,-0.7140056821933758,0.06622862822733204,0.6408706611127725,-0.55013347639528,-0.3981597415164145,-0.20176904336534818,nm,0.0
6.124911999999995,-5.600045312246805,-41.27022967442126,-35.32922829377274,-0.6485054090897975,0.13314608605242392,-0.3028522188478377,-0.6456780289098809,-0.29699566536808225,-0.35895905285496066,nm,0.0
6.134269000000003,-8.092929066359988,-43.74731400222566,-35.64664244133961,-0.5520310672127383,0.19045208382387616,-1.0496064602502417,-0.5892239568493849,-0.2041467367335671,-0.39881424754439354,nm,0.0
6.146236000000002,-10.624913899793453,-45.700914212393954,-35.856898738414245,-0.2808800827637557,0.4126860083290148,-1.296196179768082,-0.5230573009844323,-0.12073684719279239,-0.3962255375089643,nm,0.0
6.153287000000006,-13.658441410197758,-47.07621607207248,-35.912458257673705,0.1547762703268917,-0.1790302276229342,-1.5882266117177586,-0.5035488627203647,0.00896353883107239,-0.4476679047045141,nm,0.0
6.1721840000000014,-18.74707399336407,-47.798368468746375,-35.56970290339048,0.9832442488372081,-0.29673687153588785,-1.4286447000665772,-0.2791100653998371,0.16053552420940947,-0.30943471182104554,nm,0.0
6.200706999999994,-25.42797703770334,-47.66278658729409,-35.017393478635746,1.2888838236951723,-0.3221855801934534,-1.4460300086715185,-0.1874601588550048,0.14081647633454236,-0.24448417636757558,nm,0.0
6.2102119999999985,-26.986675738223724,-47.428409396315864,-35.184416599533,1.0891125916459476,-0.375056668966766,-1.6505605144383328,-0.14972746488283445,0.14713382072383133,-0.25837063010040856,nm,0.0
6.219825999999998,-27.891415120170585,-46.98531969236177,-35.42212458520193,0.8133801954392051,0.005398161833570976,-1.6129377376360017,-0.05363870097876919,0.13122489079615623,-0.1750626034085697,nm,0.0
6.231701000000001,-28.196550792064148,-46.08337503005349,-35.68840573902474,0.5359179540290037,0.6181813184120507,-1.3321232539188281,0.06633921306528838,0.15907748298032764,-0.09217584110554189,nm,0.0
6.238737999999998,-27.93422420051359,-44.42833885594368,-35.98952998653435,0.164796919681266,0.7654270038361123,-1.0687185063932545,0.21963316684172962,0.2346247258786576,-0.017609823547539705,nm,0.0
6.248256999999995,-26.739895289439744,-41.982089811428175,-36.146118637746234,-0.1455503911574221,1.3344541536056787,-0.37047965327415666,0.42519649462805603,0.28067218966874197,0.13743079340262138,nm,0.0
6.257948999999996,-24.92781841579173,-38.97965830471309,-35.99984641098637,-0.4716769172961017,1.4689402213115552,0.43839175202255776,0.5734087482720126,0.3104160631330276,0.26938036183817327,nm,0.0
6.267454000000001,-22.189001133849892,-35.80974065827306,-35.470343173970164,-0.6970201916780803,1.205433373828158,1.1749054372617829,0.7213109032368636,0.2472943894737248,0.4428346122077403,nm,0.0
6.276966999999999,-18.045842278528557,-33.05772373740676,-34.57261692275999,-0.8566282721143244,1.137769444962655,2.075748335720847,0.8742945568549626,0.044609568483665055,0.6515316355838682,nm,0.0
6.286477000000005,-13.207259084169412,-31.21973889880614,-33.56281385411481,-0.6608394935744981,0.8920203170616011,3.0852630537219348,0.8842973996775694,-0.16895928061607776,0.7191082698425334,nm,0.0
6.298456000000002,-8.910955857008481,-30.39828004266873,-32.82759165055078,-0.5382920433418268,-0.6415209892308698,2.713157589872058,0.7075996477440536,-0.2811457103059127,0.5884455693459774,nm,0.0
6.305508000000003,-4.458521646579671,-30.880756903102025,-32.291952784140705,-0.21703413258252285,-1.3591988770806382,2.5155848379450148,0.5944949196795392,-0.508449228723569,0.5614655888741663,nm,0.0
6.315073999999996,-1.2133253261283157,-32.81238824611917,-31.928579423384623,-0.3788969760832688,-0.8115735062405943,2.9173992575797283,0.262477482198752,-0.6351833990979024,0.4151820256036235,nm,0.0
6.324592999999993,-0.580799362051735,-35.382717326600485,-32.016747111523365,-0.464346342530293,-1.4976596456820699,1.1163027743521903,-0.18304812424494826,-0.5063569508227511,0.053146744491069806,nm,0.0
6.336579,-0.08067744128775461,-38.30667677384302,-32.53953414129665,-0.7437938696037711,-1.1158650345389394,0.5347656154204267,-0.24446832332031757,-0.5520349670559145,-0.044494374039339965,nm,0.0
6.352985000000004,-2.025930765566447,-43.95703669749324,-34.33273136306561,-0.8350180983118193,-0.42015852759555655,-0.6787516905240029,-0.5135745143234679,-0.2978361500026665,-0.4384299764746938,nm,0.0
6.3625219999999985,-4.036863969454234,-45.84869708789978,-34.98065402221271,-0.6147190451571926,-0.12220943576853067,-1.2531825867956445,-0.4509300953527549,-0.1634401458589849,-0.4122707954221065,nm,0.0
6.371955999999997,-6.721316815857042,-47.23228639187239,-35.17323537733812,-0.3006700832880843,0.3198224880032607,-1.2159355527139677,-0.46322345370913864,-0.0281624196825725,-0.42646952408397343,nm,0.0
6.409994999999995,-20.24283481013415,-47.07296958335017,-34.79251166240885,1.3242600795284427,-0.4445062851788527,-1.4644721352367216,-0.29059914920026586,0.2971434255525458,-0.4893352894435453,nm,0.0
6.419447000000005,-22.678312870183017,-46.68399864157697,-35.43824696337179,1.3804875610312368,-0.6103454634364799,-1.4415354761750117,-0.23170478260644323,0.2426226022639821,-0.48060182807312735,nm,0.0
6.4289540000000045,-24.20787520699233,-46.23425503938242,-36.423099561869385,1.3416841034912264,-0.12477757796254633,-1.2928910180384952,-0.12220005202593605,0.18409283596113654,-0.4143582264699088,nm,0.0
6.438466000000005,-25.476922393953423,-45.679186024907,-37.47048563771567,1.136411455409513,-0.054933809915749095,-1.3457008254105558,-0.07892385619366414,0.18256007844918515,-0.38736307881846643,nm,0.0
6.447971999999993,-26.238785649699363,-44.83816024786837,-38.19732800142049,0.8029464433434784,0.18832876578933921,-1.1909271255207805,0.01376549733401929,0.1865074940693604,-0.24880195789939655,nm,0.0
6.459948999999995,-26.23596434823646,-43.35415780339021,-38.43675983774663,0.5297490077088214,0.7837927381089411,-0.7710639794457351,0.1799086128775359,0.2204617257200019,-0.042526556342621494,nm,0.0
6.467179000000002,-25.521289748883742,-41.02803459979302,-38.23995800626103,0.14623764898468322,1.0197018688475894,-0.3796390900259906,0.3677325211875,0.28691722476875764,0.14027789569903168,nm,0.0
6.486197000000004,-20.506262972804798,-35.26041188991741,-36.57957713511821,-0.6154261472173201,1.3137218296652957,1.1583267193117388,0.754292228497068,0.1370032227146147,0.5873733050531655,nm,0.0
6.495694999999998,-15.879949667225107,-32.968192740832144,-35.47318569708098,-0.8810942628483195,1.2267754500090386,2.203878359650122,0.887949838091026,-0.0939697197601414,0.743295139088822,nm,0.0
