timestamp,roll,pitch,yaw,acc_x,acc_y,acc_z,gyro_x,gyro_y,gyro_z,markers,motor_input
11.517258999999996,-37.11816284354361,-40.39935132845809,91.31319154162259,-0.3045491867654901,1.0554954664860956,-1.1760106881211634,0.023699998235108235,-0.29479423889178974,-0.24037186748824663,nm,0.0
11.526790000000005,-38.499290441336896,-39.83676552231242,91.32337138434363,-0.4791935769047081,0.8598236127632976,-1.172654075230754,-0.09561904175025786,-0.21106833074400982,-0.1694123744319307,nm,0.0
11.536259000000001,-39.042348659707315,-38.56310329826581,91.26258090318906,-0.4631677697414999,0.4860923775989711,-1.2510357800424778,-0.24098290740352885,-0.08698461902395892,-0.07411618526882799,nm,0.0
11.564773000000002,-32.73187860286154,-31.16018155752557,91.29017037063325,-1.2617466767893,-1.9088754817542002,0.2826304847394388,-0.5865053691021642,0.5728028157408189,0.37492153390039185,nm,0.0
11.574464000000006,-27.70931240336595,-28.466429362797975,91.269884585521,-1.1477022820594007,-2.6823464539478667,1.4402196479846665,-0.54590740934949,0.8657807830343048,0.5000364482597792,nm,0.0
11.583973,-20.9761812684327,-26.66087004296939,91.16977492464777,-1.20798722650212,-2.6920949776918346,2.482664699386048,-0.37394067958595917,1.193418453570405,0.6064153954250114,nm,0.0
11.593484000000004,-14.5835998116932,-25.866214718988683,90.57216392100662,-0.47891729706121666,-2.3168597523580456,3.554689377218101,-0.16388925958645081,1.151964475051422,0.44806696184522604,nm,0.0
11.614964999999998,-4.559888282954931,-26.936131491570507,88.23621018167418,1.2063831614519258,-0.15055280263629578,2.160676348919081,0.22546935059742834,0.8535777853488822,0.17840285854587642,nm,0.0
11.631450999999998,-0.7759290664975782,-31.88165828983917,86.96675950121492,1.7151917942115522,0.7398640579837279,0.7137981208123554,0.6358516865345458,0.1309989356270959,0.028205313294920955,nm,0.0
11.640977000000007,-1.0569663948115848,-35.990977728724296,87.59470238169283,1.2079506886321125,-0.009762141177812989,0.8754757664347856,0.831872175554226,-0.07827809606010823,0.09430056731601068,nm,0.0
11.659851000000003,-6.808889159440191,-44.11921574276719,90.76360384628549,0.3796401892033075,-0.8123656129670315,-0.9633819496444741,0.7670051906746704,-0.5320954851968591,-0.1376177641906435,nm,0.0
11.669509000000005,-10.725731668235674,-47.248428192793924,92.13892833351754,-0.014125989827474776,-0.877668917655307,-1.8791637725818229,0.6522334179879018,-0.5252017422235197,-0.28302673259017774,nm,0.0
11.679005000000004,-14.3850928411144,-49.82458734594122,92.530352930981,-0.27618903834092173,-0.6343482197259198,-2.1707159242087823,0.5473780974488283,-0.45776457114362945,-0.46706098057048645,nm,0.0
11.690977000000004,-17.33875224861627,-51.48775546511412,91.61577302814675,0.04150344485042265,0.24644440650882113,-2.362405892070926,0.3588691711504534,-0.35750942709766387,-0.6362070303787358,nm,0.0
11.698061999999993,-18.94155954853173,-52.137576150237834,89.83129501057985,0.011370290766215506,0.8142029727875899,-2.1103116729198086,0.14530463465702925,-0.19232373941033712,-0.6049897993052057,nm,0.0
11.707457000000005,-20.319984761000807,-52.120206255477356,91.06182180133929,-0.3387839589939548,1.1050012844198398,-1.6084822176589944,0.014879915560946087,-0.16498639716824232,-0.5699427272059585,nm,0.0
11.717004000000003,-22.428257296463116,-51.56476184118387,89.9321178034178,0.02387072898451028,1.7599907629202283,-1.3187562456406121,-0.09628663253626552,-0.25785533568931046,-0.5531863131891588,nm,0.0
11.726512999999997,-24.48259145042823,-50.25446470276057,92.76812476972731,-0.20143567159739495,1.9089085321685186,-1.0384402701321076,-0.23642352907027794,-0.2680071133022586,-0.3692748418651192,nm,0.0
11.736036999999996,-26.475407706620196,-48.27984215832287,96.34114494419754,-0.5356067731603555,1.8335843504878753,-0.9869482305183148,-0.353211446220835,-0.2960806237349609,-0.2084818958236163,nm,0.0
11.764517999999995,-28.646899168077976,-41.373917997055344,102.13926803651904,-0.8223221972113276,0.3090627040759883,-0.9263135924703151,-0.4577650331657554,-0.03351669779801012,0.20083696902386483,nm,0.0
11.776484999999994,-27.058136351713532,-39.03464432783265,102.34812585013566,-0.643186005308165,-0.6024786521395582,-0.5996176799959253,-0.49787288262642304,0.145077090559662,0.2519528768785445,nm,0.0
11.783693,-24.096516098581855,-36.6497932103275,102.16222071341218,-0.5840905164182061,-1.6987526667725148,0.19580108769380222,-0.5546390350586344,0.3638176849341301,0.33070070309595817,nm,0.0
11.802717000000001,-15.305170138882266,-31.647464745222276,101.30473878184651,0.05652069542990411,-2.7271229050312766,2.130375350979252,-0.6374114834003264,0.7008655434160802,0.43681493116190406,nm,0.0
11.812234000000004,-10.362373687223059,-29.597441447887725,100.96787309493541,0.31914509808812086,-2.2151638681500954,2.9812921792656297,-0.5561726135419435,0.7655897117755299,0.4375758681752776,nm,0.0
11.824201000000002,-6.533344236462087,-28.421112486049402,100.75168907492242,0.8533332877807006,-0.6988668023987786,2.8051417802934586,-0.3469663639273489,0.6236043053851666,0.328499572133079,nm,0.0
11.840680000000006,-2.2866983322111887,-29.38000515039173,100.85384887172744,0.8923979133829144,1.4108156804798588,2.001334983113195,0.1827533375908116,0.31064905658235076,0.17615413526817014,nm,0.0
11.869221999999993,-4.676671992582041,-40.09052618065718,102.08944139535043,0.42253742430521213,-0.5004873214569712,0.6864884605229616,0.852018246808695,-0.015171047223749495,-0.07430495854270883,nm,0.0
11.878747000000004,-6.813611696394579,-44.19988704825625,102.14305285743743,0.32065945057300677,-0.7541390174727902,-0.5092930060864256,0.881582706186939,-0.12817243292766226,-0.2744024820312903,nm,0.0
11.890608,-9.09843448084671,-47.826060344687654,101.80700095767371,0.34198370438949516,-0.5596681958112218,-1.6388567483071101,0.7869974451834995,-0.15138285653618966,-0.393667395320331,nm,0.0
11.897650999999996,-11.105029570151546,-50.770037855517835,101.26016680336508,0.012049634959820098,-0.625745049975021,-2.007227414181887,0.6410659365702707,-0.13061597511356018,-0.41067915202204186,nm,0.0
11.907280999999998,-13.557641865939862,-52.85395836553565,100.68763110156002,0.046164002730230864,0.14089495114829484,-2.136533268702859,0.4787901323880241,-0.211024275228579,-0.4967078651925102,nm,0.0
11.916779000000005,-15.879918273066867,-53.693213509841065,100.30108469582048,0.08929246481959668,0.9773034507315679,-2.0673107147936527,0.2274160361174276,-0.23570002936166923,-0.4458328311754196,nm,0.0
11.926209,-17.966299567953897,-53.431689908462474,100.21349466972319,-0.35464070478263865,1.2125983249869712,-1.6692326700736722,0.004277625203139356,-0.24672036305683032,-0.3491597968593299,nm,0.0
11.935748000000004,-20.50619658420702,-52.58792682031144,100.4007234120656,-0.23750664653855744,1.8438582133733687,-1.5710064991422734,-0.09977167981246565,-0.32484506958269616,-0.36401607830578164,nm,0.0
11.945255000000003,-22.69487946257389,-51.45600186561419,100.77451779215352,-0.2911639666407426,1.9948864114297855,-1.3334963948501923,-0.16152830859971204,-0.3004831553920445,-0.265679052957065,nm,0.0
11.954770999999994,-24.19503991114655,-50.02906621434526,101.04427996017654,-0.5976877946379107,1.622897547507772,-1.144995985754813,-0.23290046196751676,-0.2345519330341512,-0.17352289866231105,nm,0.0
11.983239999999995,-25.298666557324257,-44.3096380060415,100.91096631005827,-0.6031953957422121,-0.24796643937373264,-1.0580218035232545,-0.43629003302026304,-0.029185498786362687,0.03764523169183999,nm,0.0
11.992757999999995,-24.281830518420435,-41.36027788577736,100.83493910838794,-0.4453470059842701,-1.1215404876746042,-0.7224542633039225,-0.5965855915170262,0.04208721477077843,0.12769618774127314,nm,0.0
12.002273000000002,-22.393542526953972,-37.672631212126134,100.93445017564167,-0.40009516259227307,-2.1582115105063893,0.03264466878799817,-0.7687194005467223,0.15446017137097015,0.26438084478549384,nm,0.0
12.011957999999993,-19.679005855662265,-33.54310388954073,101.26022269773888,-0.1638653436891525,-2.796518763511172,1.0074481664819428,-0.8851022894862509,0.28267650023977675,0.3846924529599326,nm,0.0
12.021457999999996,-15.789579311890437,-29.308790364496772,101.62920236502895,0.07590361797630177,-2.7310257843147205,1.783898342880083,-0.9515839447949125,0.49206593378626695,0.481770462928022,nm,0.0
12.033438000000004,-11.652105664422942,-25.973459590099807,101.9209738498108,0.16902022141760842,-2.3852538431021864,3.004775602079732,-0.7925717526413594,0.5915920298983354,0.44340288380095383,nm,0.0
12.040475,-8.28307926707287,-23.921806017738074,101.83447834030503,0.6027098482315146,-1.0855946477590905,3.7257225368670333,-0.5172484177963806,0.5235485943091202,0.2669525177962141,nm,0.0
12.059432000000001,-4.182087696357579,-23.42067863527457,100.72480108202818,0.8705398510065002,1.6702872968613542,1.6692963288117753,0.01876434706601628,0.31235291785046504,-0.002231851454397429,nm,0.0
12.078458999999995,-4.759682102722684,-28.996819743686814,99.96579871871268,0.8127008913570066,1.4100167419879477,1.104381045441115,0.7040723844789616,-0.05063448914009396,-0.14723019648073601,nm,0.0
12.097463000000005,-7.799778204550058,-37.00115253917197,100.35378993769298,0.257425591389755,-0.5153057659586519,0.2553321833619428,0.8976586923831207,-0.13413352173707166,-0.13902240127279936,nm,0.0
12.106812000000005,-10.542677566625226,-40.9359036545057,100.81573673620643,0.3190328600230806,-0.6916271883707744,-0.7067982324978308,0.8637956835506273,-0.26636227380319993,-0.25080401412609343,nm,0.0
12.116411999999997,-13.42578696548112,-43.919748794980585,101.27343841031704,0.09693126476551155,-0.7963163584848346,-1.498074514756279,0.6790938505596363,-0.2955016662677485,-0.2949185737492653,nm,0.0
12.126007999999999,-16.73864860346663,-45.990321671191005,101.62242572960243,-0.167573004672695,-0.6801065326031261,-1.7852398272660392,0.5107476571447312,-0.3700503570083372,-0.3951662685819029,nm,0.0
12.135510999999994,-20.293884515982636,-47.121126881935304,101.77489183044942,0.06354946768833365,0.2948848750655521,-1.9783489505949625,0.3323971306037629,-0.42627781148489163,-0.48203176140501425,nm,0.0
12.147491000000002,-23.040785031286656,-47.17767586580658,101.66118422808563,-0.381662653967659,0.6428192254257956,-1.7235622986022856,0.09862546023261523,-0.35725404491620993,-0.42128440181604493,nm,0.0
12.154439999999994,-25.759496823399658,-46.46665400806079,101.29286055757181,-0.5563290213464643,1.094853821827828,-1.5474707346207048,-0.05373743717518913,-0.3871245404332025,-0.46564635936567944,nm,0.0
12.16395,-28.397675762192808,-45.40841396037908,100.94305252046317,-0.3064509628153977,1.6509531678618816,-1.5141380173086636,-0.12535566871792791,-0.39547402942837717,-0.44421885880350315,nm,0.0
12.173460000000006,-30.25460657484671,-44.06312319360216,100.74450675352546,-0.5850947352926438,1.6366366681087259,-1.2469707835390687,-0.2031654276164542,-0.3044195622079118,-0.2958308039346283,nm,0.0
12.192482999999996,-32.359444638836074,-40.29836682403738,100.77460416963785,-0.4023828160027278,1.3456186658972074,-1.4520987524092765,-0.36626958677845756,-0.1806288522148069,-0.06389713750468126,nm,0.0
12.230523000000005,-26.406460768996553,-29.17237445068022,104.13222866861808,-0.21190030898989268,-1.6073485631261466,-0.2674267860967658,-0.7491924970054544,0.37071676208207355,0.5188177580302491,nm,0.0
12.240217000000001,-22.26324327907492,-25.98299584505697,104.99699626382352,-0.11446294722599526,-2.095442077605536,0.529693415132764,-0.7920921424674221,0.5602010654744827,0.5598840629954173,nm,0.0
12.249730999999997,-17.597788426818173,-23.021679695483193,105.41848795482147,0.04751721408462352,-2.1919815672992224,1.4706709116399912,-0.784431885738686,0.6743982256177347,0.4732869812470853,nm,0.0
12.261681999999993,-13.135094508801478,-20.317051794819864,105.23677178292658,0.5555136728344884,-1.4595188085538453,1.636839614869215,-0.7312811297256259,0.6676633502268796,0.29388666529168467,nm,0.0
12.268687,-9.191946486878043,-17.981670427497633,104.61940758846751,0.6792869379964398,-0.7362368113225445,2.1071846942417114,-0.6336499448863878,0.6101978986127143,0.1346437859749977,nm,0.0
12.278244,-6.721090089496998,-16.061850604418197,103.83966081949703,0.7841638040242619,0.16494318872353977,2.166790585800551,-0.47871597366566443,0.3739168610556597,-0.012816797339031636,nm,0.0
12.316447999999994,-10.068579231153405,-14.601607567888475,104.25716928779775,0.10860906368932667,0.3591259642049876,0.8104638223492023,0.2415475132837019,-0.40421846222052227,0.027807701722716124,nm,0.0
12.325964999999997,-12.75156061814686,-15.2470896547131,105.00223239023893,-0.06925801125889076,-0.14383727907771174,0.44393663665585364,0.2664871901352041,-0.4599056655177265,0.01036089165950387,nm,0.0
12.335499999999996,-15.398442311083521,-15.926189185761615,105.50778838982265,-0.15078390282248016,-0.5164672356965726,-0.04915285146104795,0.2758679709096166,-0.44705383978251484,-0.04099386723475121,nm,0.0
12.345005,-17.774546828320144,-16.75328133970879,105.64779121216019,-0.18098690043437604,-0.6039391316490152,-0.2732509427885588,0.29256681461789485,-0.3857419479487462,-0.10501582721198642,nm,0.0
12.364013999999997,-20.611317361654873,-17.92817134421658,104.89523597578848,-0.23406449196217705,-0.3825335568684571,-0.400943394461598,0.14586455670464113,-0.15559758846775887,-0.16075148616057014,nm,0.0
12.375978000000003,-21.22568788785335,-18.120707411113266,104.4381852614258,-0.23964555456884068,-0.12463981369112866,-0.3447221825869195,0.07766217028906346,-0.09428554601691028,-0.1278788123053347,nm,0.0
12.383032999999998,-21.43866509937923,-18.064943175785295,104.28647753795295,-0.15749598288915206,0.18193618750249738,-0.33238400368206406,0.01001351519996997,-0.032952975258423646,-0.04188839681868788,nm,0.0
12.411552999999998,-19.81338043100204,-16.63510345277974,103.13144049407981,-0.009790571787324487,0.32157284209292175,-0.20785913733188716,-0.12075067134704347,0.1438928673683057,0.20288961881754472,nm,0.0
12.421120000000002,-18.406887191336466,-16.323836731480053,102.90007910374753,-0.06909063772333923,0.17504140906099197,-0.10747141688540086,-0.10855847533984789,0.25915455484353883,0.22554076677451992,nm,0.0
12.430605,-16.849879403528977,-16.207452163166632,102.51691869570308,-0.1855407643449891,-0.06387970685652183,0.18018742087441345,-0.07562937827699856,0.2965260280935042,0.1730156121355736,nm,0.0
12.440154000000007,-15.581884070063024,-16.29137555326397,101.82120618991264,0.26658382228972366,0.06238938731925478,-0.022084299005672627,-0.022460174321577858,0.25104223286533545,0.07580386130369311,nm,0.0
12.449627000000007,-13.996686091711547,-16.506491306826828,100.91007917207952,0.3007867258915257,0.07041866972411599,0.12144823605254469,-0.004941233872870859,0.3160323749749828,0.04036273217302511,nm,0.0
12.468622999999994,-11.789400019514911,-17.028519220689788,99.0844243827143,0.5004173412794346,0.22458992485385534,0.15932986421507722,0.03902681535704555,0.16984907078896552,-0.0065703941379094575,nm,0.0
12.497175999999996,-11.595968407523603,-18.152947484140803,99.4274249641744,0.2214707738932697,0.1430740408956691,0.08662284577569244,0.11108936337903934,-0.0462243664341127,0.043193623277470505,nm,0.0
