timestamp,roll,pitch,yaw,acc_x,acc_y,acc_z,gyro_x,gyro_y,gyro_z,markers,motor_input
36.007204,0.3686662956034379,-22.289942053247497,-172.3049004595857,-0.3699127916960766,0.4168855105231862,0.5666860601967012,-0.5597612146558116,0.26395407300452234,0.05303590346360955,nm,0.0
36.01670200000001,2.2685816582872853,-24.50471197188397,-172.84448485301388,-0.9107216479589256,0.7630642246954634,0.2903619364294916,-0.4129461166674078,0.4050283213581883,0.04087247040768821,nm,0.0
36.026216000000005,3.5159137867191905,-27.328921478313482,-172.98639121015745,-0.7276988732831814,0.8224868446502456,0.08621844244875948,-0.3022652781864102,0.5437828275801899,0.07873867101853266,nm,0.0
36.045109999999994,2.8763828753892393,-32.77327800743151,-172.2899262262734,-0.16782621455106894,0.9004316233572108,-1.0662904141853236,0.056957576352473206,0.5000500322772239,0.009990743948695913,nm,0.0
36.05470600000001,1.8593994189257532,-34.200770593970674,-172.02637104740558,-0.03134022743552378,0.6495638050635889,-1.5782255891690034,0.11949690800961794,0.31664022120711954,-0.06036840196181965,nm,0.0
36.06419600000001,0.6497042143211051,-34.75225007712073,-172.3352669668147,-0.47411212980089257,0.48381636360654495,-1.5004711892508966,0.17323124960728484,0.1470438565201143,-0.19943879083524543,nm,0.0
36.07361900000001,-0.5094629715392615,-34.25576990776163,-173.20543796897886,-1.43738069931184,0.31152926016798677,-1.170895265133147,0.19299524250663244,-0.06382361482622097,-0.306033371589706,nm,0.0
36.083166000000006,-1.6225154919951879,-32.9225244248397,-174.33744443027643,-2.4922295368536695,0.08603853052609996,-0.8284835611443592,0.2046045028452252,-0.23424449895350946,-0.35025312433744277,nm,0.0
36.092669,-3.0281031807965304,-31.588903773820338,-175.3280356218742,-3.745257735204517,0.01272591936370049,-0.6540212665839431,0.25252046721100607,-0.23323670759612755,-0.34878556612790074,nm,0.0
36.102175999999986,-4.743380217998386,-31.120936150831415,-175.87017467308792,-3.8030494606548437,-0.2117293868716258,0.08904679982193142,0.2913234901884321,-0.059413543117859936,-0.28728064231934874,nm,0.0
36.12115499999999,-7.977427912394134,-31.050735370559508,-176.12667187673597,-2.43762693730872,0.21127761116782975,-0.9027192555487644,0.2175499181569089,0.017650598232471178,-0.14222789777443692,nm,0.0
36.17838599999999,-12.96413633744213,-25.129661154155706,-172.2565473726535,2.7605922014427224,-0.6587758481213014,1.0064340072094102,-0.020007705352476774,-0.409925815992018,0.17316611808241322,nm,0.0
36.18789799999999,-11.41676694084144,-22.97183257767278,-171.4553352910104,3.233046165883022,-0.8892671086941522,2.029851055227277,-0.22752668481077745,-0.45650848804137073,0.2868903942591344,nm,0.0
36.19741300000001,-9.430702819304708,-21.156003811587865,-170.63270157394956,3.1491316255551807,-0.48207309808939725,2.2017672988437287,-0.3164174003242564,-0.40547510770338535,0.3136671607924407,nm,0.0
36.20690300000001,-6.814453942570575,-20.077096631406267,-169.94076225747577,2.501022736122655,-0.08674822845037701,1.7448487281628362,-0.45608088300659355,-0.28487601144835506,0.32191361896738513,nm,0.0
36.216429000000005,-3.8269450828423492,-19.685388492403764,-169.68632609085648,1.716781084551428,0.03202799056407746,1.278585932132922,-0.5492541184634715,-0.16617977517240437,0.2526669134655992,nm,0.0
36.22594799999999,-1.0929893274285247,-20.079898772757122,-170.03828903904062,0.7138919246990288,0.08302387121818826,0.6030503854647297,-0.5301950544408366,-0.002552886993342767,0.11355366686011432,nm,0.0
36.23544000000001,0.9343666995680157,-21.4989100764346,-170.90202925600235,-0.33927369155802767,0.3305539158965299,0.29075628312070595,-0.4308651845032929,0.22761229379180073,-0.031178382674577825,nm,0.0
36.24496099999999,2.480767556869694,-23.658213643830894,-171.92234961348868,-0.9358778462568346,0.5974797879144793,0.43113096113756755,-0.35682181931693957,0.3950677375567905,-0.08769826061317874,nm,0.0
36.25447399999999,3.61195169664666,-26.181088826880444,-172.73204790936433,-0.8549255639647255,0.6224244944450208,0.09794685269556945,-0.2806136576010524,0.4834771847320205,-0.06883480587500357,nm,0.0
36.273348999999996,3.4362674928407446,-31.440032442441304,-173.29539774348424,-0.04286873587739913,0.7562996036568091,-0.9739744575936509,0.0064324242859721366,0.519120283100766,-0.06921276826517453,nm,0.0
36.29244600000001,1.7891231896880666,-33.77944263446063,-173.47035452377722,0.08703929019121946,0.395257462115731,-1.5856768118293099,0.13383617546268764,0.14999171605842937,-0.14258867827167354,nm,0.0
36.30197100000001,0.9705812944665546,-33.11952038925246,-174.02288865583094,-0.7572356027550011,0.2310780655055412,-1.5241601367206474,0.14106471816076963,-0.1057441689005341,-0.20172048451842126,nm,0.0
36.31137699999999,0.46057733341241824,-31.506883138235345,-174.8861207583172,-1.7202358263258146,-0.004627699631290125,-1.0707596231066974,0.1080793729832327,-0.3021675552901286,-0.22829364435840838,nm,0.0
36.320921999999996,-0.15359422487773036,-29.534704599557454,-175.8189349632091,-3.097784552212086,-0.03168536101991183,-0.6209331776297616,0.12883609437683047,-0.37392671879201356,-0.2502510912042145,nm,0.0
36.33044100000001,-0.7850445993822717,-27.811973295411995,-176.44292060961308,-4.086048758442813,-0.12452257745767248,-0.24553948501549905,0.12541229435856602,-0.3254288843834028,-0.1867713865253122,nm,0.0
36.339935,-1.5969829211673263,-26.983242091466217,-176.6448114106943,-3.8744263461017705,-0.30106323115167943,0.18548882278231163,0.14566098969646551,-0.14557272724394546,-0.11639067471901295,nm,0.0
36.349447999999995,-2.526664727745802,-26.743463742502716,-176.63984060302369,-2.983231746323845,-0.0978404648625411,-0.4550276120112529,0.16025312293855964,-0.026757025051707857,-0.08414490867318962,nm,0.0
36.35895199999999,-2.732874149234963,-26.620648467321157,-176.5345886805058,-1.6709485793974166,0.004105034300372114,-0.8640282882171809,0.0,0.0,0.0,nm,0.0
36.387617000000006,-4.027758779333795,-26.064682639978255,-175.59900325273352,1.8126523056982178,-0.20239923025992196,0.1524643073667897,0.05025148754526478,-0.13149593523192754,0.05117847657389608,nm,0.0
36.397110999999995,-4.250376875360021,-24.83864153809214,-175.13965023096992,2.9654496490809232,-0.5546537155189163,1.0519463447870896,0.051471673641406354,-0.2300906624547111,0.07185333805259894,nm,0.0
36.40662900000001,-4.863117597521839,-23.551088992811497,-174.5600708700924,3.168118329769115,-0.2577583998539405,1.6337669884286143,0.12609785579739646,-0.23540519645839747,0.0647413616905387,nm,0.0
36.41614999999999,-4.574500544038004,-21.975816938873173,-173.75636290545475,3.5138727291618217,-0.30470768731253856,2.3334597645255433,-0.029575312960107313,-0.3080361724498967,0.1819965724012685,nm,0.0
36.42566199999999,-3.665763382035482,-20.2787388232703,-172.8713009961454,3.3673572808726697,-0.3958696704333343,2.5180333267637893,-0.13787706256572194,-0.34628960380176416,0.241107807593865,nm,0.0
36.43515400000001,-2.67733921435275,-18.989229764607582,-172.17893845875747,2.384492911328317,-0.005862582507476964,1.7733800779333402,-0.16024789933092598,-0.26946430099264257,0.2030903688992104,nm,0.0
36.463705000000004,1.6176304940995567,-20.991397321251668,-172.58842345874936,-0.5893243526551624,0.09983688130672631,0.5155016697702719,-0.2976779488508595,0.32571342060054775,-0.022001156393426317,nm,0.0
36.473209,2.4325067147218435,-23.532677638423205,-173.21968380270783,-0.8720431433138867,0.23097007533598685,0.5671873129619484,-0.2220164692977638,0.49678319411909894,-0.06690790639032101,nm,0.0
36.50159199999999,2.0202816739010223,-32.26309398032845,-173.8144221575618,0.2178453693385797,0.4427765102695993,-0.9800430241940716,0.051140585046536235,0.5487547233788181,-0.06514874344950022,nm,0.0
36.51119800000001,0.8788395934889007,-33.94302529962291,-173.7796427988982,0.047165019987985876,0.5121189443941346,-1.7726731025586902,0.14467330341789184,0.36580030000449915,-0.11850846782244395,nm,0.0
36.520701,-0.05060817178758211,-34.65764202240386,-173.89415356386442,-0.18958559078094328,0.2748024146439136,-1.7277994906698364,0.1282819107646173,0.16957475080260218,-0.12818345662965,nm,0.0
36.53016600000001,-1.0964299798193073,-34.41839245361385,-174.2439928946896,-0.998844624644251,0.15612886690526265,-1.4275686637831233,0.16750327782099947,-0.018872924906019824,-0.18899612288951398,nm,0.0
36.539669,-2.0847853299263672,-33.29504000511784,-174.70921153346725,-2.0876996428106627,0.09011353944246071,-1.1564660523837227,0.17641226950426503,-0.19696865138612177,-0.20360293634765642,nm,0.0
36.54916800000001,-2.9058382311048536,-31.699409414652315,-175.08818585749157,-3.135493839239875,-0.07002396077357603,-0.782831620696411,0.15786508853207296,-0.29467926326633975,-0.1644780282352001,nm,0.0
36.55868100000001,-3.766844557562887,-30.40721941929692,-175.1951318930625,-3.798437115866632,-0.21451857164161797,-0.5293175904404466,0.16053202388243515,-0.23398359835974913,-0.11064720008365456,nm,0.0
36.596847999999994,-5.0781729965637314,-29.66009401521021,-174.77530858455043,-0.30477068894329307,-0.2994597771031043,-0.37046147448703337,-0.004581879327162383,0.05816637460531014,0.02525052580920549,nm,0.0
36.60617500000001,-5.5354538633497885,-29.494680887441024,-174.62111292836252,0.33838558170121996,0.08511068579920289,-0.8235640828494611,0.07385856474609707,-0.014240368728540644,-0.014430584755056,nm,0.0
36.62537499999999,-5.7004369467805915,-27.124034259509973,-174.1471421140584,2.181215648008206,-0.3453736316717915,0.3717363954149366,0.062437035520086115,-0.2664914486012122,0.031088305464367406,nm,0.0
36.63489100000001,-6.1878477350048,-25.64620430142492,-173.7075263185377,2.3887835406394937,-0.19759050221852184,0.9388789249322099,0.1096492189125384,-0.27371856344950046,0.04416002092801737,nm,0.0
36.644396,-6.091795894123588,-23.933835411336098,-173.0636413312287,3.02515380838558,-0.3751015436819893,2.210752059054831,0.013431757595242818,-0.33142826041444123,0.13625305428600157,nm,0.0
36.653898999999996,-5.484094363410376,-22.057802356052722,-172.32302067591482,3.173803336360948,-0.35025392703887387,2.176109418818465,-0.0722160626911924,-0.37582056247419865,0.19473222827255346,nm,0.0
36.66341700000001,-4.396406431850087,-20.639939566999974,-171.666019096091,2.8266817553040977,-0.22946782718369674,1.8975742035792427,-0.17039064072891022,-0.29853948222102655,0.20934892867985416,nm,0.0
36.672923999999995,-3.028797390162593,-19.90628175482412,-171.36514056106537,2.2819239688810544,-0.08215680319132469,1.7067131574363517,-0.24156566454376596,-0.17249674516829996,0.15329432561656534,nm,0.0
36.682455000000004,-1.6086833085958254,-19.922385753698446,-171.59423693309625,1.1699994971103502,0.10342491086432902,0.8909990269449928,-0.2740854423455325,-0.02580883921850579,0.04889493940971509,nm,0.0
36.71097,1.673876423737242,-25.163279156874644,-173.7489062267292,-0.9331040348463312,0.45361125908835737,0.13640266881927696,-0.12164478601527788,0.5026903176968248,-0.11299886606587235,nm,0.0
36.73943,0.21309209733418502,-32.63243310478829,-173.20339672070244,-0.15305165297107534,0.49892975710476684,-1.357909900781589,0.1572931862436129,0.4610195939846566,-0.039748052255375727,nm,0.0
36.748969999999986,-1.0071992583768465,-33.909780002883004,-172.83089073838087,-0.3019141966107411,0.4031546289978015,-1.727338275108343,0.16237454510927504,0.2894345282062124,-0.05981092928309847,nm,0.0
36.75848400000001,-2.097659092269086,-34.22025240510374,-172.84272492182637,-0.70123250241409,0.17032748431028327,-1.6456931964618744,0.16252603413177502,0.09506316417198618,-0.12476851903776259,nm,0.0
36.77743100000001,-4.128377230459114,-32.4852736914707,-173.9914118412781,-2.5960287013029477,0.0863079029890606,-1.200990183413384,0.16151566525282862,-0.20711538368735166,-0.23200883177740503,nm,0.0
36.79644200000001,-6.200138760521063,-30.150284887282023,-174.9081706011959,-3.484801405510363,-0.11153937383649179,-0.5522714480794897,0.20731056238297202,-0.15936314569213583,-0.17629051249977176,nm,0.0
36.80596299999999,-7.527379848960729,-29.6520229509113,-174.9684000648704,-2.9894357930782194,0.014670444181703709,-0.7159104930934567,0.23007117340256075,-0.06748054183307076,-0.1442561630602102,nm,0.0
36.81542200000001,-8.293113690555701,-29.023657861563684,-174.91550070044798,-1.8807831310369145,-0.047813009051846024,-0.9814051230300053,0.1360744825850285,-0.10193496171762502,-0.0641826546706388,nm,0.0
36.82509300000001,-9.360980169620813,-28.62215288295876,-174.70562400555656,-0.37758368426960426,-0.46028462121627917,-0.42574131412758814,0.18573683598221477,-0.05146971465650016,-0.060570061897484595,nm,0.0
36.83461600000001,-11.302072602419724,-28.108922645262453,-174.51169234499355,0.3498489088609379,-0.012938747188841509,-0.7616682131092436,0.342198428477323,-0.058437113096616956,-0.14502997337376253,nm,0.0
36.84395000000001,-12.426298974719746,-26.849805420386488,-174.34344606919709,1.357937493828191,-0.2828086750859345,-0.2490560403772508,0.21535208905880773,-0.2197718831014217,-0.06930992558835442,nm,0.0
36.85344900000001,-13.121202703181511,-24.901316685197187,-174.15230512898782,2.384513953056596,-0.9327591106425238,0.4553924576574565,0.15576531614715597,-0.3638849462562572,-0.021666236981672846,nm,0.0
36.86313999999999,-14.013047594591365,-22.951674515162523,-173.7005779784214,2.265259225823596,-0.6332250782510813,0.582977079538161,0.19567640706808084,-0.3591850993505586,0.018746003719747963,nm,0.0
36.87247199999999,-13.67098773702619,-21.057932771468618,-172.81081304787656,2.5679466355426386,-0.8870215808774519,1.80565924642434,-0.02672372627072643,-0.37244085961454443,0.20423778333205,nm,0.0
36.88198600000001,-11.923553947157265,-18.98939040822877,-171.66986913977698,2.897320185443801,-1.0764161413100128,2.7868761453074113,-0.278394845736884,-0.44343518123263304,0.34804961549991226,nm,0.0
36.891503,-9.28380374321666,-17.464138540143935,-170.49546921995477,2.5106872163154486,-0.502252698911989,2.3288142492636483,-0.4576107854191698,-0.3684876310096865,0.39952220060816157,nm,0.0
36.920208,2.226279487697888,-18.384114442639245,-170.526623078139,0.8321261917687613,0.27747714910385807,1.1342337671955711,-0.7532790223475727,0.10042779892147699,0.04923086217748222,nm,0.0
36.929719000000006,5.142627081242008,-20.012982518200914,-172.06148109938303,-0.2104716803956,0.7093857044175215,0.3656058960145639,-0.6039926282105436,0.24887816300639057,-0.1185150247989232,nm,0.0
36.958274999999986,8.94942567877709,-26.856669892373176,-174.85101482513593,-0.5475358586657328,1.0650373839853273,-0.2900863864877935,-0.04364424405744612,0.5061727389588202,-0.053935322588799996,nm,0.0
36.977115,6.148967599586545,-30.83566518770378,-173.5972179058827,0.0666050083233999,0.49104674663280606,-0.9683985707507329,0.2631347280687777,0.38160923167415883,-0.03079578686752116,nm,0.0
36.98665299999999,4.069926727442277,-31.650027046329022,-173.18566490642897,-0.27335850323388483,0.23083100015071287,-1.1946723201854172,0.3250931658942796,0.21319122740690508,-0.13505070319774146,nm,0.0
36.996184,2.279782181350468,-31.499406469227466,-173.46953454851635,-0.9111144129005037,-0.07106469385853904,-1.0647587991751348,0.2973504086648476,0.016029743153227742,-0.2457403907555139,nm,0.0
