timestamp,roll,pitch,yaw,acc_x,acc_y,acc_z,gyro_x,gyro_y,gyro_z,markers,motor_input
39.002713,-28.748874635492736,-15.089164791617844,-178.5761627063885,-0.8141574678156144,-1.8730089143097197,-0.963410140378416,0.6484906538744333,0.028322259264207093,-0.4318330622985677,nm,0.0
39.012304,-30.661091040183607,-15.637477733498772,-179.91261216196202,-0.8480477006001349,-1.6272631009996776,-1.1266230511925717,0.3620735105235262,0.12718755078231236,-0.3655436792352329,nm,0.0
39.021736000000004,-31.19938255857612,-16.620263218828377,178.7102444183643,-0.7752695621487501,-1.0941675014696022,-1.1964082835912204,0.10032604586050356,0.2083533293309323,-0.30200102473197804,nm,0.0
39.03132099999999,-29.95034468703671,-17.68455373582139,177.30691155444413,-0.5946096312987381,-0.5646683875677907,-1.1002010501471515,-0.23641759364655654,0.23410299159099332,-0.20368933518242194,nm,0.0
39.04101700000001,-26.701621832843635,-18.453525740738616,175.93762889635843,-0.2612445270957662,-0.4164299286619531,-0.6925133079565107,-0.6131382997105194,0.20312610531243167,-0.06941219480057327,nm,0.0
39.05051599999999,-21.860148009088558,-18.623350916728818,174.6670040374277,0.019162466202395534,-0.09788470859312778,-0.46264971608918454,-0.9181377651627431,0.12233365627372265,0.05587391282321298,nm,0.0
39.060035,-15.614756738612686,-18.252470189496062,173.71139529355742,0.24271869180371192,0.24654337559214679,-0.3808526692925158,-1.1928747884512265,0.059530982746574534,0.20492804581715238,nm,0.0
39.07905400000001,-1.0666914044801676,-16.627266844869553,173.07580972058443,0.4009633040426411,1.0795778748501461,0.7317492619947129,-1.4077442290337414,-0.013054812886240285,0.40079431811096927,nm,0.0
39.097995999999995,14.342944182213069,-14.374048535743583,174.13682402737504,0.14718457636511245,2.2118902748862173,1.0287663689438498,-1.5315617930578038,-0.03124162256729116,0.5424764295402493,nm,0.0
39.107685000000004,21.236560084925724,-13.744759446754935,175.13037458155472,-0.17397587418783728,2.6835225400399825,0.7837208134915681,-1.3524946121187165,0.009736630923487513,0.5269788980756392,nm,0.0
39.11702600000001,26.805913381846533,-13.519899181531224,176.3529066585971,-0.42682388380237474,2.7994767268687974,0.14695490303123124,-1.0921203301052778,0.044371230292874896,0.49952112795211157,nm,0.0
39.12653599999999,30.90775880103399,-13.788913136618335,177.6737197751305,-0.322429640259998,2.672837632711951,-0.050216588778637515,-0.8026100520696371,0.10323291501057885,0.4498161082633659,nm,0.0
39.136054,32.89591957677058,-14.576513777105918,178.85014324550818,-0.16012359214205282,2.5151320831948913,-0.2149948279192017,-0.3896937807990062,0.17667870155048532,0.3245218325790689,nm,0.0
39.145568,32.77916243220541,-15.570873218314325,179.89293207497806,0.0207203181897292,2.317154916653516,-0.273192238042362,0.01581297804648649,0.20606453765423166,0.1943388646522546,nm,0.0
39.164770000000004,27.516245898531913,-16.643475866572032,-178.0179383092015,0.6565811605092382,1.3290745908500408,0.5078736104219801,0.6598171366451584,0.08685574056385739,-0.0006021193986157472,nm,0.0
39.174273,22.41160398175868,-16.486196957729483,-177.16846360632067,0.69075932898933,0.6343577171810717,0.6614007261947296,0.9710568131053975,0.01821882389472943,-0.1282585883838647,nm,0.0
39.18379999999999,16.097148705475874,-15.905377600655841,-176.53328941408586,0.6694001460844929,-0.07364149919839491,0.9969670030984221,1.2098513410144518,-0.03993011523248743,-0.23152093906135196,nm,0.0
39.193302999999986,8.666057401333818,-15.033501532277917,-176.10810012777313,0.43155669563628546,-0.7414755878709288,1.0458875934848726,1.433723304517819,-0.07166718100766695,-0.31659636874646735,nm,0.0
39.20279500000001,0.8092393594173982,-14.08012765876085,-175.82676743098853,0.28325563224006606,-1.5323843852918613,1.2643001669399627,1.5241367631184985,-0.0719745704809126,-0.3425319417227699,nm,0.0
39.22181599999999,-16.055140206927323,-12.31543600097699,-175.76963449329537,-0.4437461598230553,-2.808667332264629,0.6957793982366108,1.6818598590822489,-0.033849701876002634,-0.3965136428434933,nm,0.0
39.231144,-23.724780441672056,-11.659254367758843,-176.11896779929694,-0.7211367851316336,-2.842284839081073,-0.12481030418565119,1.500777342505698,-0.01238627636602668,-0.38727071417395964,nm,0.0
39.24066300000001,-30.099128978534374,-11.57170830103352,-176.7693163919172,-0.8011996454839861,-2.8659961136499885,-0.7571445637620517,1.2423417486637414,0.07228365779301774,-0.3841574967419384,nm,0.0
39.250170999999995,-35.260334716787696,-12.33821171615244,-177.69851117193693,-0.7995093325039944,-2.177259240389496,-1.4665470559006237,0.9963835936094042,0.2141338441826824,-0.3959047687426926,nm,0.0
39.2595,-38.46887623852491,-13.968703995938235,-178.7720786951454,-0.6322465173215681,-1.7202498157557522,-1.649645156589171,0.609692648280599,0.35760281238299163,-0.35617751270988124,nm,0.0
39.26902000000001,-39.666242395008084,-16.143967531051413,-179.95950220977224,-0.3837889127718199,-1.699022544388647,-1.4253761944201635,0.22161321918869228,0.45022049332396635,-0.2946480534537166,nm,0.0
39.278603000000004,-39.34390259177302,-18.327851502863787,178.6702326856049,-0.17335625417448233,-1.1652123739212181,-1.2034568881658942,-0.06134223904361126,0.45022159232637043,-0.2497187232692643,nm,0.0
39.307311999999996,-28.1882561986413,-20.756439840862587,174.51788680620706,0.12631522204322562,0.05980114338860766,-0.544349653925011,-0.9629192874795152,0.08049129112894272,0.12353567892102107,nm,0.0
39.31681800000001,-21.590190809862307,-19.94992991088024,173.7006783586665,0.14405339774592488,0.2641115815099497,-0.39300106720185213,-1.2533223031360607,-0.020064306918489958,0.2980579008160121,nm,0.0
39.335836,-6.793618362516749,-18.001932655483884,173.29484507198882,0.04520334719485554,0.9932388222751855,0.7257409732674206,-1.4045732860219315,-0.009622508264231331,0.4523610808666742,nm,0.0
39.34535700000001,1.0225548050490112,-17.16647003384064,173.53258075376104,-0.1700572211901184,1.595412864206753,0.9026564353594826,-1.5075787061732682,0.017604066030554515,0.5173850703381904,nm,0.0
39.354782,9.058226667845233,-16.413049895131092,174.08565629875835,-0.08505998375854372,1.9206918483044706,1.166766024988277,-1.5546576888679051,0.027950207583662217,0.5707635743128575,nm,0.0
39.36448100000001,16.140133825137646,-16.099289264994137,174.89034121717606,-0.16457240145752408,2.439029088888348,0.6621949476657363,-1.3686149156381664,0.07890442525466974,0.5520063837799548,nm,0.0
39.373808,22.24657303927314,-16.34195491921559,175.94491109126125,-0.11706947145508162,2.670034798621737,0.19329043531755044,-1.1745095314055067,0.15177065672716347,0.5457005886079076,nm,0.0
39.383336000000014,27.041087226611964,-16.954022490848725,177.28412872801442,0.165420851810127,2.6367770184401653,0.1321823901983006,-0.9195706141502533,0.1852189123092682,0.5356182914686229,nm,0.0
39.402355,30.166857574868494,-18.48828458764526,-179.50745780942543,0.41626840300312673,2.261132058876028,-0.5457905884136277,-0.11152416464210185,0.16191021276319928,0.35882874291631656,nm,0.0
39.42155700000001,25.879334390959364,-18.795647217775066,-175.81669782108742,0.5003955422811289,1.2647797353904568,0.2912660796764997,0.5847265540244925,0.008898919465033458,0.1688431251886054,nm,0.0
39.43106800000001,20.93319872670326,-17.965407588823652,-174.0667554667557,0.29660874832450657,0.5281277777978022,0.47204607719693437,0.941168092332365,-0.07440096468006287,0.03146008745288519,nm,0.0
39.44056900000001,14.578240645408107,-16.67731518052895,-172.7246334661431,0.27442709281135363,-0.21744143543585925,1.0341513775624867,1.2268186378953827,-0.10726502434707627,-0.11598197580232439,nm,0.0
39.45005499999999,6.798404262548613,-15.208791171249395,-171.93963680893398,-0.06064398464000957,-0.965299583278756,1.2063090251824764,1.5144155441937655,-0.08125712081182783,-0.27534866470683617,nm,0.0
39.459585000000004,-1.506881463186258,-13.712091518426389,-171.59898164986592,-0.2754704483565,-1.663271868521402,1.2968020194786847,1.6276957784703707,-0.054901937932637965,-0.3501431802401916,nm,0.0
39.469087,-9.870274645498494,-12.50533685462574,-171.58892301810928,-0.3658191145399673,-2.7501987113214486,1.4321746066372891,1.6402454881971302,0.011064242870165593,-0.37916320313621027,nm,0.0
39.478421,-18.594353534553637,-11.72430993752259,-171.90692377253404,-0.6884949977853447,-3.1422967416415193,0.5710766050857055,1.7046166671404737,0.10229807843020351,-0.4297420108108207,nm,0.0
39.48791800000001,-26.627278067805655,-11.458007869408991,-172.54621874351028,-0.8367744026917565,-3.145205121129876,-0.18763517988698344,1.5608055704533348,0.17213485286746685,-0.44883297809168693,nm,0.0
39.497266999999994,-33.31297030672113,-11.92783650495166,-173.47878585621723,-0.7711509531293611,-2.9839557469207176,-1.0097031856195646,1.282704464464333,0.2644870462904558,-0.45418829615466766,nm,0.0
39.506766,-38.634989949202115,-13.327446191245913,-174.59259449794885,-0.7403595814508088,-2.1554768219863063,-1.6928675462737905,0.9987082089485233,0.3982334661096816,-0.4509301680737279,nm,0.0
39.525867000000005,-42.58472998616725,-17.844517388070834,-177.09754465425965,-0.19391413336306149,-1.5464090219570528,-1.7732834318278994,0.11664744321581999,0.5025826391056354,-0.3003626730631579,nm,0.0
39.55440899999999,-34.05858929494683,-22.231873475223964,177.8146494033045,0.43067735449652333,-0.4436291877215093,-0.8202925169711285,-0.8775889989898723,0.17368775279527363,0.005680106227889862,nm,0.0
39.57361700000001,-19.123827489662506,-20.89035652210766,174.82443710575555,0.1884466731098823,0.2431514979689067,-0.012277427851135546,-1.608703664096683,-0.08722784648794636,0.35696082288372255,nm,0.0
39.58310399999999,-9.367817130471321,-19.436533095366144,173.98513619183535,0.3789083260600814,0.26907814038993727,1.2571153739260954,-1.8589822502741153,-0.09720806351882252,0.5051422221699612,nm,0.0
39.592614999999995,0.23506973865689496,-18.278287895964663,173.6883654013902,0.10493343176117945,1.530847329849657,1.3485628141946542,-1.8402713360925158,-0.02222302575327834,0.5595568312081346,nm,0.0
39.602138999999994,10.321959589235762,-17.374741510950006,173.99107751454218,-0.05876357340858682,2.378554472176795,1.7171267220064892,-1.9381588502403981,0.038365182176799864,0.674118591444966,nm,0.0
39.61165199999999,20.14154744422409,-16.593483156736465,174.939360611565,0.17850840021748565,2.952582040868444,1.701878624531655,-1.8946985882811027,0.03607626898378722,0.7573388480366587,nm,0.0
39.64962,41.73680790141569,-19.52817137311907,179.98046723128672,0.2649229074906657,2.541703316718319,-1.0286247355461398,-0.32324656773396465,0.23486043290974531,0.3749733833725594,nm,0.0
39.668605000000014,38.23084400753277,-21.174942079913276,-176.98517792021866,0.528115093337702,1.746588737411525,-0.19186547103334964,0.5289758472359262,0.1581234924042943,0.09714135402106511,nm,0.0
39.67830000000001,32.91229316857056,-21.070255421944484,-175.17935177870157,0.4133616419422562,1.0372828138168497,0.261317551066678,0.9821813250345895,0.053290484978340165,-0.029963272612681797,nm,0.0
39.69735800000001,16.95249256922529,-18.724850211225846,-171.99055569113384,0.32309783331403813,-0.642793447912287,1.388937528688754,1.6713655982347293,-0.05969218844838369,-0.31714022186754365,nm,0.0
39.70686599999999,7.4506978121604925,-17.233832387178996,-171.24916431330652,0.012227923063076166,-1.3179270646809325,1.2807124436210202,1.8242275376134605,-0.02130224293349166,-0.4433981636787659,nm,0.0
39.716353,-1.673406192212684,-15.806969679658588,-171.05835619994326,-0.04280882561278129,-2.3921491060580653,1.6298585062585706,1.7655027617853847,-0.0017892833998488504,-0.4840430354445875,nm,0.0
39.72586899999999,-10.862831971153874,-14.52218178240272,-171.43284948980983,-0.3697840065406859,-3.112219211459805,0.9332547451891788,1.7858873160945545,0.027853869148510804,-0.5570812240766402,nm,0.0
39.735198,-19.656005071462335,-13.771589884606472,-172.26763919406497,-0.6782638002598045,-3.3154200200718145,0.10180974827232629,1.703477280222239,0.10524562696804861,-0.5962641497932155,nm,0.0
39.75403600000001,-33.95506283255028,-14.93913587529642,-174.85276362700566,-1.056309435045351,-2.4275567087404486,-1.3837860719622128,1.2268638472967301,0.35146858023727806,-0.602566405622998,nm,0.0
39.77305899999999,-40.29510681116238,-18.543812051654836,-177.72760075213816,-0.539576793801914,-1.8321728893661078,-1.7245247291803907,0.3870786902754297,0.42635038108893647,-0.3989845468041149,nm,0.0
39.78257199999999,-40.89573125434663,-20.495301824398812,-178.98270572159493,-0.2606081110256542,-1.265448498062623,-1.6799624639031512,0.09731347886052816,0.40581811908414767,-0.2854941424960524,nm,0.0
39.80170000000001,-36.38782382939,-22.528659517284417,177.86360625940068,0.41294116027536903,-0.948080079558499,-1.1217913575265681,-0.5712538551783428,0.15284116444756737,-0.10857316870929049,nm,0.0
39.811182,-31.984841978742462,-22.719551755375992,176.08908487364428,0.3509869281146064,-0.3523351393894828,-0.7583987386575888,-0.8148291045549392,0.0938925201986933,-0.011572087649618198,nm,0.0
39.82087200000001,-25.676982257757153,-22.39414167711925,174.32902466314712,0.032355675184689,0.13471475842053796,-0.38235441170098755,-1.1720824104893037,0.04570155564505908,0.1355365071160025,nm,0.0
39.830377999999996,-17.343455394829082,-21.24328725534741,172.63422508159874,-0.00919505937259155,0.053185483748341804,0.46061352031767533,-1.5698278004832962,-0.039348429255817136,0.28270058592019204,nm,0.0
39.839887000000004,-8.368203593934824,-19.641382379536676,171.3025892360867,0.09493724151210874,0.47413066072221366,1.1467429190276592,-1.7172617156498151,-0.06844750966148756,0.3608498106678048,nm,0.0
39.84940499999999,0.4870258597095057,-18.366509204151242,170.6011070587333,-0.23756441844057347,1.6112972212831342,0.9736645083192683,-1.7013137027341185,0.0248193738498937,0.4345308018996233,nm,0.0
39.86835300000001,18.43747170848425,-16.49242273649504,171.6192827917923,0.08554796548240055,2.839718807466353,1.4744572180593851,-1.6819925436074783,0.09926419150552308,0.6870403312772756,nm,0.0
39.87785400000001,25.86978157154435,-16.301603288134896,173.0697122994249,0.12685105333656263,2.987600915072831,0.3544889326027617,-1.4279438486713905,0.16178767962804064,0.7027779002217796,nm,0.0
39.90640500000001,37.148592355984405,-19.061941734454383,177.9368705560976,0.364048131173825,2.5773899613744775,-0.8112110623479161,-0.23359223471051047,0.20669641480948736,0.42717698993846165,nm,0.0
39.91592700000001,36.44305577316348,-19.83541616764044,179.81815594828564,0.4940138689214884,2.248843441701566,-0.611810307284161,0.1265353015226535,0.15877471429090523,0.32150848377097413,nm,0.0
39.925433,33.73732648428318,-20.41668354023549,-178.2861539789907,0.45614236225695765,1.8022302388862332,-0.06897930057680347,0.4972173117189479,0.1298773263008777,0.1853480043173426,nm,0.0
39.935114,29.064811273309825,-20.57295987763567,-176.2393624515044,0.2651306761751846,1.1021305642462376,0.19660528040038516,0.8638869791835186,0.08029717732146698,0.07489343820495954,nm,0.0
39.94463099999999,22.73732170403472,-20.179841561139,-174.0588537648992,0.2326316712995754,0.34451145413630524,1.068946032111891,1.1800580402078438,0.029986796256909084,-0.011306541880917854,nm,0.0
39.963645000000014,5.155662354384709,-18.158156236553125,-170.3821286707855,-0.043917324365404346,-1.1272235982033008,1.0034270245340176,1.7728149272632243,0.0665266787627796,-0.278655182585602,nm,0.0
39.97313,-3.6092915177884164,-16.95078174366404,-169.20054978957623,0.05012949769287942,-2.0303678073123232,1.276788108389911,1.6801357393555625,0.06951995494998621,-0.2953480993183785,nm,0.0
39.98264499999999,-12.103963152232659,-15.753510061211218,-168.56090617571388,-0.1532810849993467,-2.64106316102262,0.5990060934830974,1.638544428399784,0.09084700839959212,-0.3515619218832735,nm,0.0
39.991984,-19.87473472375258,-14.934517626043958,-168.40003408528418,-0.5366601662712247,-2.439747339905756,-0.47690511847262956,1.4942857382437382,0.1503629971064588,-0.3785248261901481,nm,0.0
