timestamp,roll,pitch,yaw,acc_x,acc_y,acc_z,gyro_x,gyro_y,gyro_z,markers,motor_input
27.010186000000004,-8.960694416927325,-37.169818642350144,158.69030223954655,0.08744877401928161,-0.1668543698686531,-1.7710366073616315,0.32498984430791356,-0.28986887344396023,-0.450538699654607,nm,0.0
27.019441,-10.374102102911477,-35.80304358492641,157.63200481836142,-0.22469034881014072,-0.45038480681184073,-1.2766283689297213,0.10791229984336943,-0.32468272922022745,-0.37859597197985984,nm,0.0
27.02895000000001,-11.340653242177144,-34.110836111064,156.23100009118724,-0.6075521117651049,-0.08288960790775289,-1.0690118455651192,0.012096555410409597,-0.3598726511890998,-0.3898190930742108,nm,0.0
27.04808,-10.286826197797515,-30.001882935468526,152.89622759257267,-1.0108452733705469,-0.08752977596312901,0.3836869144831108,-0.34720165222874483,-0.3027299961497042,-0.2428587816089567,nm,0.0
27.057654000000014,-9.149094353491975,-27.69343215864086,151.13024910741626,-1.3718651595110776,0.4325752537860772,0.6886040503713402,-0.39332682392138957,-0.30036085023925174,-0.24320628373468947,nm,0.0
27.067361000000005,-7.676936302168158,-25.60734614071576,149.642128426342,-1.7603292350582644,0.8078783269821225,1.1148097309577578,-0.435456789689574,-0.21875339714738337,-0.1658300317625423,nm,0.0
27.07686000000001,-6.368454652851862,-24.074326807326717,148.71182276284867,-1.9681979088070398,0.9733531777924109,1.6382273458326118,-0.36136116776518956,-0.12759171018529442,-0.0767918540323982,nm,0.0
27.08636100000001,-5.363273148198818,-23.148513398208863,148.4865299002185,-1.76905589352363,1.0200395429375448,1.5108410834155224,-0.2539366606582738,-0.047970956773655316,0.03456418856006253,nm,0.0
27.095868999999993,-4.521349568289518,-22.961500540456502,148.89047457780913,-1.3290520556274372,0.4801605299210358,1.644177419335541,-0.15211074763610224,0.06278211152505504,0.1457484360382239,nm,0.0
27.105400000000003,-3.8162771857350135,-23.346793872770093,149.55287196691802,-0.7542879268637883,0.2970412188673053,1.173791701500612,-0.07241723359006368,0.1468633018995481,0.18689606085598523,nm,0.0
27.133938,0.974840663548871,-27.173142609446028,151.76352804614035,0.5647815790819674,-0.07524504700280649,-0.22113939982207914,-0.13774345972554902,0.4795553242606809,0.3158684105579306,nm,0.0
27.143257000000006,3.4600637548512663,-29.263897397994576,152.73450171898523,1.1549707044151871,-0.29230386419465904,-0.5307407699440835,-0.19598329885288854,0.5883809234817831,0.4023835813222765,nm,0.0
27.181298999999996,9.962152017858594,-34.96923065033676,156.6481714669528,2.3071114026668944,-0.5335794118256506,-1.8584120564902722,-0.06722133088718397,0.11336287675434102,0.19434474511894673,nm,0.0
27.190811999999994,9.645883699642685,-34.043935932867896,156.9682495625628,1.9939262125321373,-0.38468517912170186,-1.5180748430104771,-0.029160876302767123,-0.17744275383466154,0.0261449629578667,nm,0.0
27.200326999999987,8.390541767109005,-31.96770349171351,157.01802360158604,1.275726146274685,-0.02684224313396765,-0.9702195652992042,0.027632920335726563,-0.4515967526823791,-0.12916610004319318,nm,0.0
27.210015,6.7539448549229615,-29.18729473380144,156.9022459406085,0.5236050275112692,0.22566832058539596,-0.3859374957414498,0.03819924036239387,-0.6092114982147289,-0.19224858187362556,nm,0.0
27.219522000000012,5.04877050712737,-26.36375965155543,156.60594764303357,-0.23085663714183668,0.41158374968921085,0.28116109500506387,0.051291144063658985,-0.6250921665436854,-0.22090346897766935,nm,0.0
27.238549000000006,1.9465335433272493,-20.98686799936494,155.25433849189255,-1.362504947864512,0.5198323714783765,1.4786918619756655,0.020894289620328927,-0.5906214445354625,-0.2788034189551028,nm,0.0
27.248062000000004,0.22461066979748687,-18.780111889647834,153.93900363321853,-1.6911335820234574,0.485264547170733,1.4078251107030155,0.10166016753990997,-0.5244069674660956,-0.3831670626317889,nm,0.0
27.257565999999997,-1.4399971005117194,-17.66155162527404,152.16347537264582,-1.6739226019045819,0.5963253511962401,1.3732179103363527,0.17967245869561496,-0.32921214623853606,-0.4620788668605673,nm,0.0
27.267077,-2.343737253605023,-17.34135069599755,150.18253133929673,-1.6183288731958416,0.32505101687477267,1.9598528486986555,0.11972916152161756,-0.12545901816253713,-0.44153762780768363,nm,0.0
27.286091999999996,-3.714760653706496,-18.137102786987803,147.18970165944404,-1.2413815872506453,0.30581889619896496,1.3686682650363073,0.1704657745427908,0.06813142220095897,-0.20304022253208315,nm,0.0
27.295598000000012,-3.571517580499661,-19.245977241235604,146.9232257890464,-1.0088281800831609,0.057784135418453314,1.5382317530841119,0.09897792876039424,0.21486824261260298,0.0314187933487533,nm,0.0
27.305115,-2.9901956172163917,-20.447224638673042,147.40049808653833,-0.5877019513165538,-0.19682396256965945,1.3941121078461556,0.039484435065045335,0.2754425808937954,0.21253168999743463,nm,0.0
27.314617,-2.057826632583585,-21.877926147349555,148.3272075056946,-0.09603223899764646,-0.25477009824155944,0.9236536985781938,0.005709880689611625,0.3492976341808165,0.3183555455342677,nm,0.0
27.324135000000012,-0.6010121900325103,-23.827060403371423,149.2751059956121,0.4050266391297199,-0.4591904128780993,0.6656279341492791,-0.02731050043243454,0.4872584925727337,0.35668430677312785,nm,0.0
27.333643999999993,1.0328512213747694,-26.22225277074439,149.96885732643764,0.7982325742034823,-0.448889612479793,0.22070468172033758,-0.013966848772048138,0.577754938323927,0.29056710908017364,nm,0.0
27.352486,4.923163743877061,-31.452078849733102,149.98330495710312,1.444722943044938,-0.7355379009086331,-0.6788260989843103,-0.03420815403390395,0.6469988999684271,0.09854417457883305,nm,0.0
27.36198999999999,5.92605115046446,-34.024693494833606,149.72149947938595,1.5214767199652075,-0.3680001568651894,-1.4857747545511308,0.1079647502520714,0.5448971743013554,-0.06668791533609544,nm,0.0
27.371579999999994,6.326063839078351,-36.183380370139034,149.7853283967043,1.5072599159953883,-0.26876431096965603,-1.964777365914971,0.15645685384263702,0.42150499810320335,-0.09409992933984353,nm,0.0
27.39061000000001,3.5658008954339495,-38.32914292416257,152.00462846179943,0.973278965295823,-0.22593285297205598,-2.3598632205251637,0.35496328374380676,-0.03159354190593294,-0.14699160633315211,nm,0.0
27.400123000000008,1.026894607197702,-38.02795901878496,154.04160145795518,0.6082966309019411,-0.3229163497551428,-2.24340475394287,0.3284640415277673,-0.21827173502512143,-0.09625081887227471,nm,0.0
27.409637000000004,-1.6848056077131763,-36.777654682986444,156.06213654883163,0.24995551945365757,-0.483005317761444,-1.7731142487218816,0.28652669973527384,-0.39251670131522975,-0.11485964896086534,nm,0.0
27.41914399999999,-4.356869982520175,-34.579996724165646,157.5673708055057,-0.3818716957630543,0.14942476165226676,-1.8016680887746386,0.22895595718122705,-0.5595913454834102,-0.2095258570775861,nm,0.0
27.428568000000013,-5.440636884960151,-31.733573052965923,158.3351022610272,-0.752592737461502,0.28013310046713086,-1.2982189219921032,-0.0426353499868734,-0.5828905474463179,-0.16926977216613198,nm,0.0
27.438264000000004,-5.262405608956349,-28.711405855246934,158.31639831011523,-1.069652822582363,-0.0058800948939910945,-0.14984826951436542,-0.24971737590175577,-0.5392205759856641,-0.18803886342919832,nm,0.0
27.447775000000007,-4.903858303160499,-25.686690969160058,156.69535967182222,-1.726519152931908,0.6339763945580665,0.39496041603626536,-0.2927639774129291,-0.5211542579261353,-0.29234389042513154,nm,0.0
27.46678399999999,-3.792177133647792,-20.691040033415515,154.09524319818783,-2.3830763044610523,0.8011953815204997,1.5282925787525954,-0.2319647869570357,-0.34698693499308575,-0.23782176261967652,nm,0.0
27.485826000000003,-4.173635231200372,-18.724181704606476,153.93110228280452,-1.599935463142613,0.21963172859217722,1.8153281943255672,-0.024790044763804767,-0.12327142257511532,0.05386647659662974,nm,0.0
27.495317999999997,-4.051839266485104,-18.48301375124185,154.8573312709747,-0.911599823065776,-0.041372650704618555,1.6164942857044695,-0.04324885710600934,-0.01955115573442366,0.19139824533441285,nm,0.0
27.51433800000001,-1.9440609690405832,-19.52087055818088,157.32210373629508,0.3081222479134784,-0.5010753131613495,1.7238935404096736,-0.16179679082563772,0.24753190430143945,0.3228596263098784,nm,0.0
27.523853000000003,-0.1591793737386106,-20.75281818788525,158.200867509891,0.7802464721725653,-0.4172885807258981,1.5231657012632016,-0.22004389546210626,0.36907191756696767,0.29668053750111556,nm,0.0
27.53336999999999,1.9475597703739576,-22.506901095590216,158.61785524062336,1.1054274058877471,-0.27355015870772853,1.1778764470327407,-0.23858613350480468,0.4845058077419657,0.23654724981931396,nm,0.0
27.55238700000001,6.035371132666858,-27.265155907786095,158.53811724155858,1.6224485850348418,-0.22728749278728552,0.362193071944829,-0.1276398609266464,0.6086732045553255,0.1269824874440559,nm,0.0
27.56171599999999,6.7368822870742,-29.994361777139417,158.7709002890318,1.7512023591762793,0.05210324051774953,-0.5900787401708096,0.07832518794380719,0.5675918572004253,0.04119913378365505,nm,0.0
27.57123100000001,6.702229579962878,-32.68253749924557,159.5327025419184,1.9387274586856624,-0.05325399552532832,-1.1407900178655466,0.19042009404952734,0.5152969457913817,0.03792686263451801,nm,0.0
27.58073999999999,5.58627592420804,-34.95241971683591,160.80943730650205,2.0456761592640165,-0.29280662270556124,-1.5558575232659146,0.3222055958401493,0.3799048004979378,-0.0028397041308445624,nm,0.0
27.590332999999987,3.392680426716029,-36.466345175346675,162.3439141080667,1.6583760764787139,-0.22407266083742103,-2.196236917305745,0.42852967410445625,0.19091509727333877,-0.08847596828272285,nm,0.0
27.59984800000001,1.086126991498024,-37.02088346846428,163.86679260291982,1.310313806500551,-0.3052964739480701,-2.2999990433548403,0.38176897010889244,0.014684756797073293,-0.12429509448451838,nm,0.0
27.60934499999999,-1.0133327602411408,-36.67648152994954,165.04729914592448,0.8705697417954364,-0.39450573066248057,-2.160182733171658,0.3022399110301949,-0.14076649475583883,-0.19395964311096248,nm,0.0
27.61888400000001,-2.826107657008138,-35.61987272921668,165.58604135613922,0.35450213172449835,-0.24386426968058503,-1.9799996051116828,0.22763323958149848,-0.26367809328907044,-0.2858042105290063,nm,0.0
27.637801999999994,-4.719785120992143,-31.825663951985973,165.43093663956952,-0.49954128242339435,0.11640170978475076,-0.9328040856144888,-0.015393193435738506,-0.43208707995312085,-0.2922800615180094,nm,0.0
27.65700000000001,-4.7782013562264,-26.004074448246183,165.65851470001914,-1.3048988822169605,0.26116787588489254,0.5108317087674642,-0.15726561162740052,-0.5864941671060537,-0.14702478979748748,nm,0.0
27.666511000000014,-4.473881211816243,-22.78491768966675,166.01326097031065,-1.9857624775881164,0.38460639807324176,1.2535114819166955,-0.21266328025445638,-0.5990323244095617,-0.023769342558664683,nm,0.0
27.67602500000001,-4.127133855692358,-19.854501235513307,166.43431921482383,-2.5989056762426124,0.4595023451005439,1.6342708673028272,-0.20643519534892177,-0.5412539180007513,0.0884867239215403,nm,0.0
27.695269999999994,-3.7655489635738584,-17.127924526807686,167.42018319422016,-2.3830308967221114,0.3532782924245134,1.8883321866074416,-0.06173995167396845,-0.12884457220580767,0.25517705047028544,nm,0.0
27.704564000000005,-3.5245872398871714,-17.477584177230078,167.77875732774984,-1.5383189966147892,0.2395651541236282,2.046918074622842,-0.03399539886044686,0.09177856435400536,0.2595318785505048,nm,0.0
27.714065000000005,-3.0544238406535604,-18.483722657203685,168.77141693266913,-0.36126520341105806,-0.07666513689057128,2.1389696204574444,-0.05167709780424681,0.22863755463444999,0.22577422293240948,nm,0.0
27.72357199999999,-2.6463761380633373,-20.151745185634617,169.4409816014166,0.34849909994479145,-0.10165151070880846,2.045961610525164,-0.0177748127635931,0.35566077271275187,0.1591930816147991,nm,0.0
27.733087000000012,-2.246681687767279,-22.05817593681421,169.81506372618364,1.027226459589831,-0.19705386017966936,1.6277703850786722,-0.010075074813292718,0.4020018625014514,0.10200593217760047,nm,0.0
27.742591000000004,-2.0629635868264384,-24.035233077749616,169.36109734980263,1.187614838022578,-0.24515642366240592,1.1890388619744352,0.03514238598871004,0.40835948082660173,0.05036103796621893,nm,0.0
27.752106999999995,-2.279643758631455,-26.184360194404903,169.19251478489716,1.350760940621366,-0.21178733961460236,0.22621059972590785,0.11456426144777299,0.42830727317160544,0.012687497739810517,nm,0.0
27.761627000000004,-2.7482129867521845,-28.77504743743295,169.50140847166628,1.45640616277342,-0.24998004167153703,-0.09387481625842796,0.1723427968523005,0.5075707966633519,0.0178229304673586,nm,0.0
27.770948000000004,-3.458902886041926,-31.3681308314565,170.25577755416532,1.629106214353733,-0.3660222566646735,-0.6962033790712937,0.20587877211051026,0.5031186307021971,0.026276455683133616,nm,0.0
27.78997799999999,-5.515999258774693,-35.759351924461676,171.17814194799467,1.7856720067836347,-0.4678276204108218,-2.0481162541795173,0.23359384094764063,0.3959373452238156,-0.0451212815939632,nm,0.0
27.809075000000007,-6.8464235531105375,-38.09228731311319,170.5433993949505,1.2498907038928353,-0.3518945497561379,-2.425835993457897,0.08315851614601122,0.14363702904667852,-0.17316670054915623,nm,0.0
27.818578000000002,-6.640104192976213,-37.64692750462479,169.32170457302422,0.7643634755127557,-0.18332934019715114,-2.2937615715997772,-0.05248451274002395,-0.06880049175562752,-0.21807336570375746,nm,0.0
27.827920000000006,-5.8564463793949315,-36.20305997860643,167.72491647634965,0.18149253970095666,0.007585609557853459,-1.7911451492277863,-0.18501037137835966,-0.24497742279016657,-0.2245452554702457,nm,0.0
27.837343000000004,-4.743856661007527,-34.065297185095176,167.34239866318362,-0.4207730014447514,0.18959852216674836,-1.0440623480903393,-0.2708973103595406,-0.3680928859002576,-0.19193112263157738,nm,0.0
27.84721300000001,-3.6535283494558537,-31.510482985863213,167.13428638758546,-1.1030048443348641,0.40236453579249887,-0.3032152443451867,-0.29244794013037323,-0.44772666348058404,-0.13827705577070154,nm,0.0
27.85673299999999,-2.7639678783173722,-28.783009068743148,167.25600432321974,-1.8715106198936966,0.6910934607464315,0.4251484999546649,-0.2722755745078079,-0.4871653698742926,-0.06255126100133851,nm,0.0
27.86623499999999,-1.8446787507748827,-26.135745404914857,167.81097567755887,-2.6823216436760604,0.8789294815927622,0.6874433588722257,-0.27637000120601796,-0.4705705146451422,0.07144037798347772,nm,0.0
27.875743999999997,-1.1066003727697111,-24.29216995125122,168.67454348755948,-2.9906109027933727,0.5972286052676281,1.473174161696505,-0.2107218384786178,-0.32149743395875635,0.18732214569153838,nm,0.0
27.894768,-0.8463429130680957,-23.2367100812441,170.32085792150204,-1.9030128359075573,0.31761885834883646,1.333527986383898,-0.024200572097273103,-0.006878317166567555,0.20040300906005803,nm,0.0
27.913793999999996,-0.274315607726876,-24.31015594933085,170.86685313384663,-0.09358875033569206,-0.2184161420686937,2.083326304928859,-0.020411608064484908,0.1567485471933141,0.13429464395268792,nm,0.0
27.92328900000001,-0.8915398262188841,-25.0862224123698,171.08950129127587,0.3837956636028914,-0.08651534082783907,1.662770660063115,0.1297220448474845,0.14840966327373137,0.04396564734765609,nm,0.0
27.932808999999992,-1.3809295168131963,-25.874947385344097,171.3993673757351,0.8043051549731345,-0.1161671577854477,1.157813220398944,0.10574219901157382,0.1553554652453789,0.04493233190897084,nm,0.0
27.94232600000001,-1.5910389815400494,-26.959439090592745,171.81259174743437,1.2822541181782763,-0.6512355639051797,1.1828960524368153,0.0629472001461253,0.22217725176865868,0.058525746687494634,nm,0.0
27.951831999999996,-2.4208664775632536,-28.518535914431435,172.2974474681261,1.3365949332285647,-0.4851041277776564,0.48598035219002167,0.18216232005584715,0.3021066157606794,-0.03000290459753634,nm,0.0
27.970674000000002,-3.247651294980968,-32.43594953613461,173.05952522346078,1.8838884409965089,-0.692631808949645,-0.39002306163014155,0.08702630234956808,0.4141097415094042,-0.032227713358212284,nm,0.0
27.980175000000003,-3.584777345148836,-34.626589437772964,173.22301791939253,1.9824841383411245,-0.4447747414847366,-1.2212245395129528,0.10058405110701042,0.442008107067372,-0.08704781595901886,nm,0.0
27.989689999999996,-3.519115542990451,-36.77942208116254,173.33886289843326,2.083579071444279,-0.42152286292094404,-1.5364893488672657,0.03164441850543733,0.44237012272961923,-0.07777763107063403,nm,0.0
