timestamp,roll,pitch,yaw,acc_x,acc_y,acc_z,gyro_x,gyro_y,gyro_z,markers,motor_input
13.001312999999996,-8.869658571181937,-19.16962879267895,118.78733319073095,-0.05638999815938037,0.10262676260375697,0.04070846430323577,0.0,0.0,0.0,nm,0.0
13.010776000000007,-8.871014630125446,-19.199632691229876,119.13048922047734,-0.03814521836384655,0.06844769228360831,0.027286952894781967,0.0,0.0,0.0,nm,0.0
13.020329000000004,-8.861999309280874,-19.184164739385455,119.50344967835318,-0.013857607424874761,0.024489797712400712,0.009790194610603833,0.0,0.0,0.0,nm,0.0
13.029847000000004,-8.839089505628833,-19.121473285965465,119.99183984594555,0.0,0.0,0.0,0.0,0.0,0.0,nm,0.0
13.058374,-8.748744217417196,-18.93395473120657,120.92391687955151,0.032551026553527,-0.0021882969028011456,0.05423639202880806,0.0,0.0,0.0,nm,0.0
13.067830999999998,-8.773530614588095,-18.95226118550344,121.09069340122745,0.026183800786914176,0.031814365420765774,0.06279850332297736,0.0,0.0,0.0,nm,0.0
13.077388,-8.853539129913385,-19.009032665556965,121.18835099688859,0.012071232143869971,0.06038252414644115,0.07117084919951952,0.0,0.0,0.0,nm,0.0
13.086859000000004,-8.984306136407964,-19.080967639501598,121.37573536397124,-0.002852429274066541,0.062410520484892054,0.07086665456186572,0.0,0.0,0.0,nm,0.0
13.096374999999995,-9.13909500111587,-19.136012403076034,121.64560655748393,-0.02782627309856286,0.034268633390336346,0.05275322547105976,0.0,0.0,0.0,nm,0.0
13.105931999999996,-9.275203061643687,-19.147227154318617,121.82226507417637,0.0008482819025402037,-0.009052769583762957,0.023442430765508712,0.0,0.0,0.0,nm,0.0
13.115436000000003,-9.350767383308385,-19.120308647693285,122.03673704645428,-0.04161062715982994,-0.023017105804660508,-0.007387563762599599,0.0,0.0,0.0,nm,0.0
13.143927000000005,-9.093847944163421,-19.01183686683687,122.46454124844341,-0.03769614984565695,-0.02130980341185017,-0.006544192950203527,0.0,0.0,0.0,nm,0.0
13.172456999999994,-8.59024244717786,-19.177719778143864,122.77219936946484,0.013100128859261055,0.08205343537580603,0.030394928308231445,0.0,0.0,0.0,nm,0.0
13.181965000000005,-8.512462083837102,-19.250097006857743,122.98174209421913,0.034290145167301,0.08821478438612025,0.031496268850780974,0.0,0.0,0.0,nm,0.0
13.191479999999999,-8.486607629272,-19.28512476468415,123.27542149513509,0.05373278523388557,0.05508875170711223,0.05035878652464718,0.0,0.0,0.0,nm,0.0
13.200986999999998,-8.506783038626661,-19.2811937615955,123.57621608991509,0.06436267788916504,0.021045171502073155,0.051630445761093054,0.0,0.0,0.0,nm,0.0
13.210514000000003,-8.556830170293331,-19.249508142317143,123.88309946086035,0.07402713398162035,-0.011239125655132026,0.028475028434057695,0.0,0.0,0.0,nm,0.0
13.239029000000002,-8.650957052453348,-19.07660915416461,124.26541687658855,0.0022610396248457574,-0.013803298462974914,0.036667798078334396,0.0,0.0,0.0,nm,0.0
13.248599999999996,-8.655294617482555,-19.0495952048289,124.32145604371266,0.002844872972638805,-0.017339154590766518,0.04611759197218728,0.0,0.0,0.0,nm,0.0
13.267561,-8.596296020877197,-19.03312896443595,124.56894653887106,-0.034592115599708706,0.05020231617936927,0.0210318114597349,0.0,0.0,0.0,nm,0.0
13.277088000000006,-8.48202480414441,-19.0191023744321,124.72703783988057,-0.03866898134304242,0.05578883270475096,0.023398249151180345,0.0,0.0,0.0,nm,0.0
13.286629000000005,-8.280774276167268,-18.9989829410537,124.85460910884746,-0.03515363395000271,0.05047672441343997,0.02117892318138875,-0.03194986108774256,0.03416074492030819,0.018610160535402664,nm,0.0
13.296143999999998,-7.987562271404888,-18.99012792979029,125.01332814557595,-0.0024033299432408843,0.05667787516078695,0.020983090394839442,-0.041816238584533136,0.05635367324622469,0.019303143493712156,nm,0.0
13.305645999999996,-7.601939047732635,-19.015360453671445,125.16451966306363,0.05095396738452486,0.07060424254017858,0.021398730630204504,-0.0490592581403896,0.08636488086165632,0.017373458298530223,nm,0.0
13.324672000000007,-6.631983344253266,-19.26762109094792,125.33358607275125,0.13299668114388813,0.1548392265781555,0.04166186416851285,-0.05522375642668185,0.13643538571590252,0.016588254800653516,nm,0.0
13.343643999999998,-5.103685898987493,-19.601322349445343,125.51823956021006,0.17882990919122999,0.23960141331328505,0.10846672042420101,-0.04755008618911571,0.15194612247705394,0.027482873069209917,nm,0.0
13.353136000000006,-4.373736911237788,-19.817582864725225,125.7869088393253,0.19071492436282622,0.26639117526154776,0.1606385313050851,-0.039940947239013265,0.14992846838276977,0.03429824186681244,nm,0.0
13.362623999999997,-3.708640829012037,-20.010436138824634,126.15096030260527,0.20318746747859373,0.27969317022154666,0.15137838629284087,-0.03738219426630578,0.13694020605575907,0.039570359694713446,nm,0.0
13.372145000000003,-3.13392283976982,-20.176687232865824,126.64848736338637,0.22758578217799555,0.26850013579951937,0.10338001787548688,-0.032623151874840516,0.11971074529082734,0.044095391983724835,nm,0.0
13.381623000000005,-2.6554414574948684,-20.347856101497836,127.17336318782134,0.23707403651588654,0.2528948045958665,0.03851030707906101,-0.021952187023594506,0.10552505098894885,0.048633308687592434,nm,0.0
13.391176999999999,-2.280134895301001,-20.49577026106874,127.7759750757011,0.24949302420052255,0.22184849778950597,0.022576738935115755,-0.014851587008017818,0.08706854198264773,0.05068022341673966,nm,0.0
13.400681000000006,-1.9934325904195627,-20.583464104883486,128.41116847863032,0.24531530288168907,0.18967020506731813,0.010103150043864402,-0.014951507628044905,0.06635407965739555,0.0501713144963568,nm,0.0
13.410263,-2.086967864345642,-20.559096369027138,129.21173778687336,0.2545995076259421,0.11392670042333974,0.032315185988498744,-0.012366696130457076,0.05017183486545119,0.04471568568522716,nm,0.0
13.419771999999995,-2.216526363465911,-20.512351205902853,129.99042321212886,0.22689990695250437,0.0893997458244455,0.05399883072888482,0.0,0.0,0.0,nm,0.0
13.429292000000004,-2.3975184898586708,-20.447478195919253,130.7329268373283,0.18376684827672293,0.09114099564182972,0.053330190015507845,0.0,0.0,0.0,nm,0.0
13.438740999999993,-2.4499275166923318,-20.389577605130555,131.39808457888367,0.14360772238827735,0.08321102855131485,0.08756374908117119,0.0,0.0,0.0,nm,0.0
13.467241000000001,-3.552206862261527,-20.245178234056006,133.39864984333306,-0.0019946641640299564,0.03488602659213485,0.1677585842544623,0.06861739700803537,-0.06635115471395664,-0.02137043068401687,nm,0.0
13.476758000000004,-4.339217960015641,-20.18379224125453,134.16453429618153,-0.05331869243696287,-0.06682128671806284,0.20385056304156238,0.09757357558895839,-0.10109852468372647,-0.024780765171899817,nm,0.0
13.486265000000003,-5.431096464598478,-20.125087480345375,134.9758262959659,-0.11405648501834335,-0.2742676026090127,0.309466166980271,0.13992738764425572,-0.14001137880713427,-0.03832569883598028,nm,0.0
13.495778999999999,-7.142387795013014,-20.10522436769468,135.69389016136705,-0.23236385216170313,-0.596158172400376,0.5924884848267274,0.23065037536742228,-0.21410088171919228,-0.09323249224047289,nm,0.0
13.514802000000003,-12.890623731514282,-20.044156882463408,136.33229051632532,-0.7565729987061802,-1.1175139692867961,0.9688255114429295,0.4266546360905149,-0.3997593871323412,-0.28749114337762316,nm,0.0
13.524311999999995,-17.0059337077815,-20.12008938831523,135.59031526984236,-1.2399375114371547,-1.457459165066557,0.925881641403061,0.571204351083816,-0.5135928587332512,-0.43040815863007637,nm,0.0
13.533760000000001,-21.95268091903931,-20.62882866433702,134.54976506701414,-1.3134372477221803,-1.1867942115324817,0.22214129763101506,0.7341569715052368,-0.5705692017228176,-0.5509518251848142,nm,0.0
13.543092000000001,-26.51046846986624,-21.810614240745487,133.52908000179534,-1.277364586904061,-1.1719338858389732,-0.18341599644200918,0.7668079403857341,-0.4344349785226808,-0.5314080591481218,nm,0.0
13.564581000000004,-33.25105127938849,-25.188039309937594,132.25265291051824,-0.9240356860247004,-0.9748224119723067,-0.715910486394213,0.61208508273773,-0.158780692913657,-0.3435277246545146,nm,0.0
13.571575999999993,-34.63915591524701,-26.092046528125238,131.66567815040818,-0.5919042230965302,-0.47874927508478676,-1.0488973250642404,0.30838280331407386,-0.0536613019429092,-0.23260473032241194,nm,0.0
13.600081000000003,-29.202011255465692,-25.603047096703833,129.38477492372897,-0.04847605314867404,0.4845592963950969,-0.845761305731609,-0.39939763625551417,0.4325571958512245,0.13061541175467212,nm,0.0
13.609679,-24.78838982585817,-25.773055703718125,128.60306258876923,-0.03712302215403292,0.5216940298271745,-0.41602703533513957,-0.468232203139587,0.6526173196937487,0.22986373939583668,nm,0.0
13.619190000000003,-19.64810816090821,-26.13326684672844,127.77690894415478,0.1881324162771239,0.8026211607032427,0.034062057027532455,-0.509199396186502,0.7844478710668451,0.2873704006395225,nm,0.0
13.628770000000003,-13.76655577958694,-26.212682638061917,127.12135994365865,0.7278772618276892,1.2972902080773032,-0.0451260106673884,-0.6240376982187315,0.8615630766403025,0.3893938383741166,nm,0.0
13.638194999999996,-6.855306653722771,-26.041381149980285,127.11949587799135,1.146379704366785,1.0573435256334307,0.3276074459331389,-0.7718002575192671,0.9832108553458375,0.6087572950492188,nm,0.0
13.650344000000004,0.2030980748886027,-26.071086916519917,127.9931710981482,1.6673215652270996,1.002336278602514,0.48321795595526457,-0.7649565511183682,1.0237176070497394,0.7939523186696951,nm,0.0
13.657425000000003,7.035445750723662,-26.389553092821597,129.65966168460966,2.022673921164189,1.1578247764206397,0.5193937557177667,-0.716887546564331,1.009775034834924,0.935214191542494,nm,0.0
13.669413000000006,13.313435170212227,-26.661220295441467,131.89384637548892,2.262157478377904,0.9287478074146981,0.5107502018011575,-0.6920328352670867,0.9010500865281873,1.0045598706149663,nm,0.0
13.697768999999994,22.57666108818003,-27.221646521155506,137.58743065459106,1.6145496929445746,1.31787469093053,-0.22618787281205732,-0.19398879981723094,0.18553272942023474,0.4243212101246879,nm,0.0
13.714482000000004,20.040475448272304,-25.689030873128733,139.56992153805257,0.7613725892001578,0.9039233695571627,0.12531254940231898,0.17900779477716067,-0.38499765102343975,-0.036745283759081544,nm,0.0
13.723997999999995,16.21080696119374,-24.787215821072813,140.0347004123017,0.2142460991251617,0.43958119930067663,0.4498600890355465,0.4126636118431,-0.5721381321094138,-0.23852054391657487,nm,0.0
13.743013000000005,2.3669450190080594,-22.76276161979196,140.33173182957444,-0.8395007423065293,-0.9430230736804991,1.4093988633256547,1.0158693814979396,-1.103385130740194,-0.6353239552804393,nm,0.0
13.752528999999996,-7.082736545513689,-21.87497332245191,140.2236466327767,-1.399738546014364,-1.6290823202377822,1.594308665961757,1.235338148071995,-1.241115722913422,-0.7409745418555669,nm,0.0
13.771386000000007,-27.912123172679497,-21.059501464656964,139.32046025003882,-2.9716649809722577,-2.6650420631528333,0.7373255002928066,1.4850638761022414,-1.3197666617445833,-0.8942320618097166,nm,0.0
13.790336999999994,-45.934330419380714,-21.899395172807942,136.98586337464005,-2.8944375254758365,-1.8149601419829562,-1.4578065595071419,1.2665125435906635,-0.9305377044418746,-0.8673192728668101,nm,0.0
13.799916999999994,-52.7620264747366,-23.50682180108587,135.86787121877495,-1.808594115522098,-0.4992035010852704,-2.185265654790475,1.1407232879408369,-0.626324255163763,-0.742881801139904,nm,0.0
13.818824000000006,-58.33557999388612,-27.470329028988687,134.43450378105598,-0.8962401765918464,0.07666682765225942,-2.1932440988687967,0.46549603592237077,0.09146809471500844,-0.2503202930626204,nm,0.0
13.828342000000006,-57.505442608205385,-28.736888479878125,133.70370166282862,-0.19302715764401332,0.5588293329812545,-1.9227728211943775,0.0863097694814944,0.29044563058563644,-0.05858300665007273,nm,0.0
13.837834999999998,-53.86275656273558,-28.97637008022144,132.8180709346745,-0.07437151405056934,0.42168622422326263,-1.5411614777742895,-0.39654350121956145,0.507159257284745,0.18360315842304323,nm,0.0
13.847435000000004,-47.97718532562158,-28.256230673502685,131.91765883182916,-0.09294030914822446,0.19834114786687138,-1.1706772064399944,-0.7970753012995396,0.6771313529692914,0.3921105909948555,nm,0.0
13.856865999999997,-40.60159242628211,-27.12782569847686,131.4302576623085,0.1595691509001168,0.41206178481346517,-0.811088201310795,-1.0315163250127812,0.8376165685799244,0.5952724854167221,nm,0.0
13.866560000000007,-31.520600953363267,-26.223106094457197,131.6633891475903,-0.12409428411536451,0.019787905806667786,0.058657281147544246,-1.2068359121408285,1.108134929140017,0.8675146055915006,nm,0.0
13.885564000000002,-10.866801420018668,-25.276403708175447,133.2331040122461,0.7815572187301373,0.4883557487149958,1.7401895613082274,-1.3660239661840232,1.3757365617378658,1.101919397186995,nm,0.0
13.904695000000004,10.805740003770282,-25.42727020597725,135.91348635213896,2.0759399907829224,1.2708935690605525,1.4368992857733238,-1.3185939527118995,1.4129599966639446,1.1977098046528132,nm,0.0
13.914195000000007,20.534830722372376,-26.13772318771378,137.5100675054286,2.2854640952603615,1.2888020155703588,0.9216754405286489,-1.1806750876655447,1.3196768829910632,1.1614074385540245,nm,0.0
13.923531999999994,28.189901444078373,-26.96453606702971,139.05025509692408,2.726885645263494,1.4189712375071633,0.6089273073772112,-0.9160396543452367,1.0487875617688764,0.9872994084228565,nm,0.0
13.933054999999996,33.179410473987225,-27.653714672372505,140.39690369288743,2.2201393203909348,1.6445096232402252,-0.5221785867103385,-0.5917729636752238,0.6913954100723047,0.7215170492160842,nm,0.0
13.942559000000003,35.91002017507969,-27.935680573702044,141.61454024807855,1.765255622403388,1.4965542481107774,-0.737436680108859,-0.3447259238593306,0.3600902095149245,0.4921293592473091,nm,0.0
13.952074999999994,35.8309451332968,-27.62451376653062,142.7338244898124,1.3173135451755524,1.3176454587417856,-0.5540759287950613,-0.03163629725475403,-0.04606957226870718,0.2100668522289605,nm,0.0
13.961581999999993,32.95047132133256,-26.78335116781748,143.68309234195553,0.6570436804819784,1.1069312150091497,-0.5039023264110404,0.3057867847842901,-0.43013371381114335,-0.08016485272011181,nm,0.0
13.971283,28.189276169863586,-25.68904660936694,144.33135156047388,0.29120073394867463,0.6622854037624782,0.3139072400651338,0.5597203781828708,-0.6673881733524808,-0.297870579483996,nm,0.0
13.980788000000004,21.37902498291777,-24.51189265629182,144.5779819519649,-0.14108604053454585,-0.03376392163832168,1.3054567011117257,0.8654906379534107,-0.8965460348394622,-0.5345609435648154,nm,0.0
13.999803999999997,2.2587286979881522,-22.598627869457477,143.81819679791468,-1.2870686418050241,-1.2007330431108967,1.769205468956716,1.403626442510446,-1.1983234668922205,-0.8994654794952097,nm,0.0
