timestamp,roll,pitch,yaw,acc_x,acc_y,acc_z,gyro_x,gyro_y,gyro_z,markers,motor_input
32.507374,2.7206917305256297,-29.308108166604974,176.91608305024292,-1.7524597977001786,0.12648000935639814,1.7588046894264941,-0.17925789273676465,-0.7405791198026905,-0.039677436600645585,nm,0.0
32.526397,2.6003137065561392,-23.119305037141917,177.3324209985558,-3.295217937170732,0.05130979446368539,2.107662537500076,0.03768059578220099,-0.495395999356672,-0.055653714597574816,nm,0.0
32.535909000000004,2.064819286492337,-21.951793604470094,177.48374757497973,-2.495164685297865,-0.27204177598001256,1.9435177735463414,0.08134748935641227,-0.2260237959853208,-0.048527094395700424,nm,0.0
32.545424999999994,1.9352315059363359,-21.54253904946445,177.32064424205504,-1.725014688362514,-0.10745596592860142,1.651557807679317,0.013068337792606056,-0.07105506629723198,-0.052493471164300094,nm,0.0
32.554934,2.486196586923307,-21.546779444847925,177.03449008055858,-0.500603032288653,-0.5707931576201665,2.1064151704279492,-0.10975355024793097,0.017846199911857607,-0.005671672727471885,nm,0.0
32.56444300000001,2.5384059397374994,-22.180689298887785,176.750816514691,0.025539785416158263,-0.37414357102275875,1.530344217821243,-0.01001343758764283,0.13919363610618338,-0.04210760606446867,nm,0.0
32.57396299999999,3.129445684953502,-23.343915032389752,176.54241480619478,0.5564740397224462,-0.21225812274120878,1.3167114069987962,-0.1025894400139953,0.2508326095820501,0.008425132269636822,nm,0.0
32.58337499999999,4.4346468192416015,-24.6738708787998,176.40424075180195,1.1474782453022443,-0.4004018224121087,1.2966794682497447,-0.22939688046893505,0.2922778455248048,0.07610633912234897,nm,0.0
32.60248200000001,6.867225703990183,-28.51201388991207,176.06436190629674,1.6780178257359792,0.13062966527801995,0.26885083790514636,-0.21953803987699214,0.4690549432305735,0.07790916192036113,nm,0.0
32.611811999999986,8.378292597062217,-31.05392501810536,176.02654771169097,1.9752194503262555,0.19423157820584955,-0.056430416109971425,-0.23559639529494697,0.537068681372959,0.11298321686566255,nm,0.0
32.62133,9.566056322792466,-33.56204945622394,176.2247049764719,1.9971932201597977,0.40609333192266894,-1.0956563481818373,-0.17591366187561147,0.5256691296170274,0.12258569906426948,nm,0.0
32.64034699999999,11.353769462763445,-38.06871119269182,177.8181884122004,1.9426809044335305,0.2978021889778379,-1.562430422370913,-0.07911091104666937,0.4254114831533095,0.21567568339160229,nm,0.0
32.649936999999994,10.693888532766668,-39.28680349106897,179.33816721406757,1.0516308893779276,0.46027729614740714,-2.1543052645347474,0.09935401583521783,0.2522561639118583,0.16584736510681278,nm,0.0
32.65944999999999,9.727841483993673,-39.739282710021364,-178.98214818002893,0.5996555884561706,0.32580633189696895,-2.0463687360549674,0.13949144294330457,0.10161968956676029,0.21202635584893406,nm,0.0
32.668960999999996,8.196511492538642,-39.6772340460076,-177.19520839977474,0.2025873096115482,0.13755962761592228,-1.7180193030435804,0.22656670629719927,0.005884257727886349,0.16087427703106685,nm,0.0
32.678461,6.2240175983322885,-39.09024710483601,-175.56478786092723,-0.46994942761796793,0.1962600424812435,-1.6777452452802792,0.3024201956774961,-0.0876295243006681,0.07501633062811618,nm,0.0
32.70693,3.0327834961209,-33.87956022926187,-172.92261764618715,-1.2808119483936662,-0.05485652204497377,-0.4528730605197565,0.14713757235026503,-0.40724733444605704,-0.07356212117051245,nm,0.0
32.71661399999999,3.093925872998541,-31.404294195603523,-173.45650868746023,-1.5846753464580583,-0.20346592667342367,0.5080771589517071,0.038984116750186024,-0.48298352448830967,-0.10163054345856319,nm,0.0
32.72611900000001,3.1488831330361866,-28.629280986608226,-174.35496003420758,-2.3914278147800925,-0.29148454215767167,1.0312280699237835,0.040200725808520625,-0.5430014784057968,-0.17610406826690977,nm,0.0
32.745135000000005,2.417958445317267,-24.88025361099801,-176.4807486868141,-2.9725941563808282,-0.37135647353486073,1.7152421866975829,0.10478559439139772,-0.26477502693198324,-0.2604674133790834,nm,0.0
32.75465399999999,1.7046447039083625,-23.98464790897238,-177.56326150650352,-2.2470264972041742,-0.40519018569624493,1.5234585869943034,0.13076089819981504,-0.1611281639564245,-0.27796431313884556,nm,0.0
32.76416599999999,1.3343093016599685,-23.51286080375605,-178.71216515118158,-1.4889967945114377,-0.3581913455325197,1.466703815699794,0.062758148347535,-0.08080234593484675,-0.26204172038656653,nm,0.0
32.77368000000001,1.2006668005363708,-23.495530930535296,-179.73339100218107,-0.3864007878082542,-0.6537962574125293,2.006921748093197,0.01664599872644653,0.0084340681769904,-0.21726876046577048,nm,0.0
32.783184000000006,0.6915986069903465,-23.71644668339874,179.51416080976006,0.3214431360905738,-0.4421521963281292,1.6449652174557008,0.08573619513642061,0.05577692728943929,-0.19348285242297594,nm,0.0
32.79269400000001,0.9589193894849314,-24.063582864193297,179.19994799577458,1.0205173370965526,-0.3732560493017942,1.4163076620053947,-0.055925887954211745,0.08177030887196847,-0.0552440997959443,nm,0.0
32.82122899999999,5.461342391187611,-26.999897438871876,179.7587705499721,1.8026191192368388,0.167049035770279,0.2526713640608975,-0.37117331367285183,0.31233571875506544,0.21802941803126005,nm,0.0
32.83074500000001,7.9660016641546,-28.864009892625308,-179.8474425537418,1.7315916802074254,0.3315208057692974,0.09126683468803289,-0.45199160849946324,0.3839812674285917,0.286111386531921,nm,0.0
32.859094999999996,14.427308833117067,-35.88053735818817,-178.06227771191624,1.3452359929265982,0.760211148107242,-1.4314654425431392,-0.2687833166450598,0.5022353534041898,0.3145226243132771,nm,0.0
32.86867699999999,15.232548996869838,-38.17791121451742,-177.08891145497728,1.1273726719889694,0.8175450971569344,-2.1622160327127524,-0.1584260461674459,0.46369940219094363,0.2897831978159694,nm,0.0
32.878196,15.567619060091824,-39.993797962378764,-175.94538589585937,1.2065027989433208,0.6853080872491175,-2.2852684221184463,-0.08471107316600275,0.36904887563668126,0.2693126465398233,nm,0.0
32.887696000000005,14.936891266387684,-41.00329687149701,-174.8018623762235,0.8501238058651449,0.6555321092799222,-2.5288756283688967,0.06864148773779845,0.21835754218672565,0.14524645432350722,nm,0.0
32.89720600000001,13.801563721463065,-41.03570491952263,-173.7458957982543,0.41834032835287777,0.6121615798373511,-2.5135825250102872,0.15918955394128337,0.03265025393720081,0.060684895255725894,nm,0.0
32.90673699999999,12.508046321987797,-40.11579405456743,-172.88528862980436,0.21066675474549515,0.4438614216867896,-2.0197269283542503,0.20603138277043448,-0.150949233663942,0.0023146597315068145,nm,0.0
32.935351999999995,7.77883378912929,-32.495088442199,-172.39290844037427,-1.021275548053297,-0.0206578864092074,0.18683392766471132,0.3305036165422029,-0.5985763494171216,-0.21842436110815222,nm,0.0
32.94485900000001,6.064280802683446,-28.879991078957836,-173.01062466367313,-1.668819164249585,-0.18818968971023817,1.1012677852729502,0.3750532076379184,-0.6704819087346132,-0.30111726197552985,nm,0.0
32.97340700000001,-0.23637407997248816,-20.73968049382074,-177.615338874652,-2.587470145636468,-0.9573965395896613,2.087206511694102,0.3676069805566244,-0.296903754448645,-0.537097487457233,nm,0.0
32.98289600000001,-1.7570675005066627,-19.967224121378205,-179.74404407192537,-2.140102084157762,-0.590118050976929,1.7781661651785212,0.28143093686056325,-0.13624219849648214,-0.5340997682808255,nm,0.0
32.992422000000005,-2.4001185043968305,-19.905858356497134,178.77770524903707,-0.9537566160535896,-0.8318540978911276,2.373789402852389,0.11371862320279827,-0.0012468441086608269,-0.34178818439108183,nm,0.0
33.001925,-3.207178337766374,-20.550580864638697,178.4333221870514,0.06909010075259323,-0.7987051143645807,2.255571718140018,0.14761372584717447,0.13753613543454193,-0.126527457536323,nm,0.0
33.011443000000014,-3.419097012250009,-21.582240245227425,179.18788232545762,1.0381499773874594,-0.4180174467814288,1.6085322326155505,0.03657333176545453,0.21780488673984405,0.13426569867200094,nm,0.0
33.03978799999999,3.24837599302592,-26.602191713208917,-177.61831737820756,2.6492325792930993,0.37718023956099733,-0.20720703305940363,-0.5798273102849568,0.4407642750992668,0.36684323908839855,nm,0.0
33.049301000000014,7.745429494223751,-28.846546480477222,-178.05447504327287,2.466184891792698,0.3662014628689392,-0.18958206369885214,-0.8225870298774423,0.42941521232161256,0.3291524760642792,nm,0.0
33.05880500000001,11.716453886582583,-30.701588383239102,-179.25988852722725,1.9076752078241284,0.6331451918890155,-0.6441884652617265,-0.7079690496969915,0.3653915897831077,0.15077612582424935,nm,0.0
33.068398,14.47374453748332,-32.54177432780621,179.40805185098827,0.6042384386501214,1.0943177751519833,-1.8449852260389281,-0.48000599369997854,0.37802978144886673,0.019886058979748877,nm,0.0
33.077911,16.690126434997175,-34.571683027877995,178.8666213298075,0.3376215666787061,0.9426098409064942,-1.7533863760641224,-0.3733120838677557,0.4219685590368362,0.13398902864710857,nm,0.0
33.087418000000014,16.773841863621307,-36.55707793422106,179.6128008332381,0.2488036958986597,0.7331311498118696,-2.0046891634339254,-0.018228739172687053,0.40759341162480994,0.156465165503118,nm,0.0
33.09693200000001,14.683069920066375,-38.17039826034967,-178.37731614990332,-0.007217755990650245,0.6375423791558088,-2.7211656112924865,0.31917129219051693,0.33640101057878974,0.14613019381892012,nm,0.0
33.10644099999999,11.979288298192749,-38.98703241865119,-175.6931724390212,0.3965603079054821,0.19934704923473112,-2.6230153394620963,0.4039256326468832,0.19485990277685186,0.19805896628504605,nm,0.0
33.115965999999986,9.159337222455738,-38.430723468588795,-173.4658851671902,0.5034876644221865,-0.02273231585765066,-2.3365138385303594,0.4388160575989224,-0.059589990745389516,0.09141438867712429,nm,0.0
33.12547699999999,7.324879640621476,-36.17647466660505,-172.60409221686464,0.11003075188673864,-0.14091965401384435,-2.1302723388517064,0.33454366289564197,-0.40285266179002654,-0.05149847295836954,nm,0.0
33.134894,7.004709907012892,-32.67379749329765,-173.37711660575474,-0.13346943439790557,-0.33346509869871976,-0.9992327763793272,0.12813147433371028,-0.6797694144342263,-0.19279294861518168,nm,0.0
33.144582000000014,7.047617342676275,-28.641682708580692,-175.34512394569754,-0.9609881756981591,-0.3325382326283254,0.22912094326127957,0.06252680062056293,-0.7939789406151104,-0.3918921272800456,nm,0.0
33.163610000000006,6.1800632928801456,-20.27691477555856,-179.0214795578761,-3.6695398079992176,-0.33630368101969066,1.805506403376614,0.11286575980917626,-0.815518479871633,-0.3373581986603992,nm,0.0
33.18262100000001,3.6733206729688384,-16.3167752867784,-178.87568094338832,-3.2165326162817585,-0.6481132844303158,1.897041971661841,0.2421139320556484,-0.2317831599873383,0.03364872285737657,nm,0.0
33.19212999999999,3.3326329462554645,-15.969380114275845,-177.89172272108377,-2.0935103673720303,-0.2677495542055437,1.8120968373324022,0.05938210034647656,-0.056568706433107345,0.17443008475830207,nm,0.0
33.20165800000001,4.241826338629833,-16.306571112913485,-177.19647209307968,-0.11815856420193553,-0.7941508805660922,3.0764421761282463,-0.18567316769485862,0.07157630586915292,0.27486702430200355,nm,0.0
33.21116000000001,4.074796686962757,-17.44955785232865,-176.94580077376395,0.9215211940656293,-0.30044937871580757,2.3899273990537426,0.012858151681727584,0.24102480036568874,0.1350194082295525,nm,0.0
33.23970299999999,7.39666327257914,-23.371824483327888,179.57056109888887,2.0986101092257825,0.557667524276165,0.9738091325640351,-0.2341027757170935,0.44336667063931484,-0.20748746983399036,nm,0.0
33.24920399999999,9.04420124656167,-26.000461655539834,178.01310091567132,1.5908648682990196,0.9204023615436433,0.2817231643638776,-0.29632771164464344,0.5439327771857526,-0.1535016482672499,nm,0.0
33.25871599999999,10.72898702273541,-28.86627567367528,177.30795106036467,1.7010465559766381,0.6958357709700277,0.8104262430987799,-0.28387043795954064,0.5967416730224413,0.025087834575742766,nm,0.0
33.296649,2.1778200753189214,-40.5013653320255,-173.62113353299236,1.145028707004744,0.05494801187197966,-2.5459963967127694,0.587885849015622,0.5260804023221993,0.09868290632659539,nm,0.0
33.306168000000014,-1.677033381167765,-41.437109643113274,-171.0262949458583,0.9903055530414598,-0.122340256836062,-3.0829284094575238,0.5422383719935961,0.2755136738085831,-0.05040835221554581,nm,0.0
33.315679999999986,-4.400015524040066,-41.21954651208756,-169.93917213779727,1.030049868757013,-0.4771332268000301,-2.8302249939273603,0.40149860880358634,0.03695416207963246,-0.23285001920257778,nm,0.0
33.325186,-6.348679801970166,-40.07159052250735,-171.10917616409824,0.017329175413501888,-0.22769476118077037,-2.7287552416639187,0.32095441589142154,-0.16706680832770648,-0.48698155112128505,nm,0.0
33.344126999999986,-5.805926907041402,-34.998498055497045,-175.93207878323605,-0.9786789169943088,-0.6837593409862134,-0.7866504856592164,-0.06937700319169383,-0.5851942653461355,-0.4208469681467617,nm,0.0
33.35363899999999,-5.510771022146335,-31.646902103811644,-178.01213824353982,-2.035540490277784,-0.3691132913585554,-0.3119637263257286,-0.021653542623609724,-0.6609946488768441,-0.3836277519574374,nm,0.0
33.363145,-4.8304579039634605,-28.132946060864146,-179.18850031415408,-2.7615524174370893,-0.5995180480069074,0.5805770279667195,-0.10851646386062859,-0.694356574337735,-0.16792072814804437,nm,0.0
33.37283199999999,-4.162764686848226,-24.840094780094343,-179.55873023244834,-3.232572010570845,-0.7569845124343392,1.0299556140611135,-0.12003546031876261,-0.6486589808662695,-0.015415367592588804,nm,0.0
33.382349000000005,-3.3519349002116883,-22.29919609870421,-179.36130566046137,-3.040651408657971,-0.742329137544379,0.9956499669363897,-0.15165536225726833,-0.49827684247749976,0.10299620790462806,nm,0.0
33.39185699999999,-2.021803361708567,-20.8007870589618,-179.02963356090285,-2.1071138094450226,-0.781111593101955,1.2972714066280635,-0.2512531812375507,-0.29173484255446835,0.16232286846025376,nm,0.0
33.410870999999986,2.596414931007531,-19.38017210431062,-178.93417731333835,0.14665015980637863,-0.4421076017956136,2.463235278559942,-0.47549864189946234,-0.10754100973846444,0.1745207395571412,nm,0.0
33.42038299999999,4.630711730435144,-19.418880018375308,-179.2708993993295,0.8906114206146446,0.2798878366395022,2.020528282325986,-0.3923834295081345,0.0135126559669762,0.10052313119680678,nm,0.0
33.4299,7.335606546077198,-20.041407661201664,-179.7523983960511,1.4610592990441045,0.5468052291052148,2.333015303471069,-0.5189323488056581,0.13189348447925645,0.11194158293205128,nm,0.0
33.439415999999994,10.143765062862043,-20.93317323066212,179.666777756259,1.9373282793888968,0.7281385804377877,2.127400917689044,-0.5348089093257788,0.19007575774372204,0.09513403147240146,nm,0.0
33.44893099999999,12.22626757653675,-22.452259804978528,179.07518541840997,1.8018460042224742,1.007723539927713,1.47644182641505,-0.39260665155440977,0.3189406080743359,0.03147089121439038,nm,0.0
33.45844600000001,13.5686633993469,-24.653170988186975,178.66346867113677,1.5427424396875313,1.3212443092621569,0.7787678522603596,-0.24635827531026824,0.4559217671758098,0.020875771139014652,nm,0.0
33.46795,14.238602550821874,-27.307831908667794,178.8264922766709,1.47881793544111,1.2576603724326822,0.5812869023760159,-0.11788573423887717,0.5444274958733487,0.08758493040787753,nm,0.0
33.477273,13.411674023508683,-30.23639935568944,179.7410371331376,1.3517353488555774,0.9928923559270373,-0.38073036886133305,0.14324009679540525,0.5948621722790565,0.10011865784135753,nm,0.0
33.48679000000001,11.158310361396294,-33.48768098090001,-178.68505627256954,1.2321869267622205,0.7258007495395308,-1.1776655827221523,0.3677820829464531,0.6647979637238552,0.07440676334679328,nm,0.0
