timestamp,roll,pitch,yaw,acc_x,acc_y,acc_z,gyro_x,gyro_y,gyro_z,markers,motor_input
43.539581999999996,-13.84890654984052,-17.4584713242104,-165.75942698472645,1.8588134434987145,-0.6870500770630132,0.4573778966612726,-0.19586481558347915,-0.14245847092653752,0.4115709325186638,nm,0.0
43.54909900000001,-11.534252543827199,-17.571861444424243,-163.93166932027808,2.1576614239400334,-0.7017680510289851,0.7229792609320179,-0.44202064917208367,-0.08615476289536234,0.367187539039075,nm,0.0
43.55860899999999,-8.75160770869892,-18.243692647073537,-163.09160376826455,1.7457950985170523,-0.12155286359879008,0.2538563781882066,-0.5567416849050921,-0.01495768005312602,0.20463570174288712,nm,0.0
43.56810899999999,-5.040567723303062,-19.422368055318962,-163.19085225018313,1.3426836448748198,0.12930706956021804,0.043629275978514195,-0.7521103602195245,0.026864703951447813,0.08156005121457822,nm,0.0
43.577623999999986,-0.8037371280006916,-21.028199985791996,-164.17930224839085,0.8175614670062722,0.26288285472549366,0.12201327398168324,-0.8652210779236698,0.09049969932065596,-0.002663931190867265,nm,0.0
43.587121999999994,3.0209122192871325,-22.72299468728414,-165.58249858584088,0.423099111078829,0.46849274355728304,0.5455903454199499,-0.7855682090228621,0.1491291381137953,-0.059767506240711095,nm,0.0
43.596654,5.738172566734616,-24.27187351809758,-166.82216899527123,-0.21762473966215934,0.8627318539608066,0.13845662753539803,-0.5694131780971483,0.19036288529605494,-0.06532404016964062,nm,0.0
43.634522000000004,7.392250587678678,-29.21506960688459,-166.5069224946101,0.1994934960181709,0.551183229351053,-0.7282076770884253,0.0832508729582201,0.16149631946545479,0.012330235351623703,nm,0.0
43.644023000000004,6.415499428320099,-29.05188505819521,-166.61198388540947,0.1999058669170626,0.385076444389069,-0.7975331546828859,0.1628564428391473,0.016738149926530006,-0.11853787357407325,nm,0.0
43.65373600000001,5.528540971290166,-28.130378938078085,-167.4322007569401,-0.11124133766698933,0.24968114941152353,-0.7015429224608374,0.18273886831521083,-0.13570684106198416,-0.25145897165558795,nm,0.0
43.663273000000004,4.798405433199953,-26.6321950076674,-168.7700057612576,-0.5867378965047464,0.05998166956776975,-0.3031573669032894,0.17855868948235468,-0.2573648277804818,-0.33740129820734455,nm,0.0
43.672732999999994,3.826523571879424,-24.864273910054003,-170.201212973224,-1.3103750600412136,-0.028908979008949988,-0.030898565799874312,0.2269983111742923,-0.30628106075835615,-0.37347516601790665,nm,0.0
43.68206799999999,2.6109900329474285,-23.151575138887083,-171.25473733304563,-2.0963007112211383,-0.14413239489943375,0.13791027887772675,0.26507571723678547,-0.29251694661347993,-0.3123812505385094,nm,0.0
43.69158300000001,1.149859664383894,-21.770352075089747,-171.77006301902873,-2.6502631027114947,-0.4012034115526897,0.12107011653631199,0.29856001245345665,-0.2236411395114366,-0.18876786039675544,nm,0.0
43.701077,-0.720120299621241,-21.155887222599947,-171.65191618590285,-2.6658170571884696,-0.5544944458663681,0.20068031081453275,0.35320223148108965,-0.061412050474346294,-0.08757793417158552,nm,0.0
43.71059700000001,-2.6663615772114726,-21.132592208206074,-171.34127363866023,-2.4227820245666103,-0.31614117083869386,-0.2577194800317415,0.3510600000386141,0.05894294853179012,-0.025914234130932374,nm,0.0
43.729793,-4.909721096001436,-21.990840731789582,-170.73415665933007,-0.6605751308756749,-0.6104801415140462,0.14208650513403018,0.18048263772387557,0.16385158808438527,0.05170504520937456,nm,0.0
43.73930899999999,-6.726726613972265,-22.671452120248563,-170.59457665014887,-0.26595394862501315,-0.1997515762620565,-0.4181606847096017,0.3014063079106373,0.1990287219333685,-0.0447023808228589,nm,0.0
43.75832500000001,-8.519868452158427,-22.779334741222563,-170.52784117046346,1.0781683850463293,-0.42672477602870057,0.0013615122463885784,0.11743506216560205,-0.009434144312965182,-0.05235075166726865,nm,0.0
43.76784000000001,-9.36435636516884,-22.333016962315813,-170.3319408136847,1.2253434780932622,-0.28868030546957707,0.22405464952111837,0.15999059107311156,-0.0508359965099338,-0.0709212325865704,nm,0.0
43.77735799999999,-9.752271613183282,-21.508670493330616,-169.71655302614695,1.4071335616271385,-0.29033481039332926,0.4696562909515282,0.09100199982216821,-0.1388265440711836,0.016426112912294347,nm,0.0
43.78684799999999,-9.704010155478606,-20.39846651553436,-169.00100515678682,1.5938692574461892,-0.47440331420902854,0.9841432165428424,0.02297357066429129,-0.2093447461341789,0.1462717221043724,nm,0.0
43.79636400000001,-9.373611972881886,-19.242165232510125,-167.73805970885243,1.5166855421599421,-0.3003196497580009,1.0677427414286162,-0.02374351029725363,-0.22875227222189032,0.2746208362173988,nm,0.0
43.805874999999986,-8.127187648145776,-18.2202032982076,-165.54891796188872,1.3693916856646615,-0.2269142299198103,0.8515296649779347,-0.1914690603968954,-0.2444057559228589,0.41302067372740914,nm,0.0
43.815381,-6.164085688879302,-17.589604677943356,-163.39431971063573,1.426585287242658,-0.11817198381429783,0.9077559778300748,-0.336069470157289,-0.21353509739060422,0.456369834999321,nm,0.0
43.82491300000001,-3.873224643508855,-17.63115579537038,-161.59280618090278,1.1839630948419577,0.19794761129745622,0.5473248709685716,-0.42964597179242103,-0.11651675170069123,0.3874058908557657,nm,0.0
43.83442299999999,-0.9394665957759366,-18.35024649429392,-160.6645052690694,0.7689814475161126,0.3294347839286281,0.06391075380557532,-0.586133499800118,-0.03792407169480027,0.2828649024140338,nm,0.0
43.86293599999999,6.407050724324569,-22.499133084486264,-162.76495220388745,-0.17515134544069208,0.8332318716793851,0.0923720286621088,-0.4510675144964905,0.19396703929056858,-0.06159840296694147,nm,0.0
43.87246099999999,7.547800914550878,-24.061700557361032,-163.460529285227,-0.04258666710100449,0.7890281382312515,0.16553778589009077,-0.30273887709859376,0.24672237386501922,-0.039415818947884144,nm,0.0
43.89148900000001,6.2388960453507005,-27.013006770473474,-162.91837796874336,0.22636456071037897,0.756892087520944,-0.5339157469652792,0.073472711041289,0.3294459145954701,0.02719766550095447,nm,0.0
43.90100899999999,4.558281596189277,-27.989119042543336,-162.04519496857736,0.5887344944813556,0.49750911017000443,-0.5062490721442169,0.21439166079145158,0.28439443647660045,0.017264704926478105,nm,0.0
43.910323000000005,2.34242110973747,-28.270750277413914,-161.33743655513157,0.519925922155245,0.3528298745980919,-0.8406654627632892,0.3423574453895485,0.18473942480983482,-0.06921987548007863,nm,0.0
43.929519,-1.2884481362890645,-27.310544898894815,-161.364295162337,0.18292787845362832,-0.13989196283460334,-0.5946571397407627,0.3152243747287485,-0.018906023955236145,-0.2358630851523071,nm,0.0
43.948486,-4.349233823053677,-25.50224520567551,-162.83821631876214,-0.6892698873927632,-0.23108123729816418,-0.43189331603183834,0.29971777921672865,-0.09147640781150028,-0.2988751092617667,nm,0.0
43.95807199999999,-5.42702803295491,-24.640850707470825,-163.42057955706576,-0.8454856590543577,-0.3383416923906864,-0.28688004466959266,0.22656074155472442,-0.09894951382230431,-0.19563950985915007,nm,0.0
43.96757600000001,-6.386377535319641,-23.90238854608592,-163.57061809731172,-0.7866567879375399,-0.47528430149570305,-0.09611447329987724,0.1993979564070006,-0.0826224945484751,-0.08514713793831821,nm,0.0
43.986605999999995,-8.070787411108636,-22.579677572310786,-162.7317073247955,-0.4910614073945565,-0.45474555030026775,-0.1907514707977219,0.14627236804338925,-0.07663115047265236,0.08445020196524164,nm,0.0
43.99613600000001,-8.492287755719913,-22.012399592068732,-162.3095005381702,-0.233579176646438,-0.4599479824731472,-0.1398859562290889,0.09792733279266157,-0.07556211990895671,0.10323929983657337,nm,0.0
44.01514900000001,-8.439405842992088,-21.040458988328478,-162.81056092379433,-0.07411106039691392,-0.33170882635005544,-0.11240726793966525,-0.022858999613474124,-0.0923039482736944,0.028173786825833862,nm,0.0
44.02466799999999,-7.994347302857486,-20.611559069590616,-163.6858832032403,-0.11324693077725535,-0.2583778757449442,0.0039765108067486826,-0.06584986188751243,-0.09615753044658569,-0.018827810367412576,nm,0.0
44.03416200000001,-7.406521766478064,-20.22419704285161,-164.71277930051716,-0.2435803355674582,-0.16234740947213136,0.08953316685633962,-0.09573303444189736,-0.09425563319273267,-0.03407613585471654,nm,0.0
44.04366300000001,-6.72950099444045,-19.84705884219738,-165.68571141026368,-0.33003722912985567,-0.1250541043118056,0.19363891821111445,-0.1144627672057775,-0.09486384687886668,-0.009259172285389096,nm,0.0
44.05314999999999,-6.14445330545746,-19.50757492764163,-166.44031638801624,-0.36420733720286225,-0.06726375023932309,0.2590929135506456,-0.10115106516353665,-0.08182577123333774,0.034545131954649214,nm,0.0
44.072182,-5.200850203252745,-19.061866273595815,-167.44532803579816,-0.24664048211158773,-0.07084147402143781,0.26908145393073357,-0.08481181768540919,-0.045218903744185864,0.12237842021289368,nm,0.0
44.08168599999999,-4.762701612465585,-18.929915041108536,-167.80013965355096,-0.1109430886185489,-0.06788702307516457,0.20780602757323688,-0.08536738276485137,-0.03278643105165695,0.12049724901369774,nm,0.0
44.091193000000004,-4.282182159368119,-18.88902292954184,-168.36522679926114,0.018804153510676345,-0.053547709795498846,0.15721872855491204,-0.09717894810032401,-0.015852821609536678,0.08368934780338273,nm,0.0
44.100729,-3.688365636696661,-18.923979005022282,-169.21292346945822,0.1055063551155194,-0.020689516501479804,0.14406082700385955,-0.12129761934481428,-0.0038000845392427967,0.029967860604671725,nm,0.0
44.11021600000001,-2.9557249655133626,-18.965586914193416,-170.20283363772108,0.13902329490143547,0.013532468604367732,0.16349921628652578,-0.1474543828000031,-0.0052754245864409695,-0.018357816429963866,nm,0.0
44.119732,-2.1394932549062915,-18.96003765378759,-171.40482173110215,0.1158604523875987,0.08940730510404317,0.1712770172081369,-0.16173796442351096,-0.014187834979271964,-0.0427519912974875,nm,0.0
44.12924899999999,-1.2980706766369603,-18.902772740773642,-172.54179880586358,0.0453477358259132,0.1513194111805548,0.1886682478706707,-0.16541826846581925,-0.021886632812578098,-0.03161079414712158,nm,0.0
44.157771,1.0792776480273654,-18.595411758908668,-174.14084548416193,0.07230543258053942,0.13225474926640152,0.2539135418963369,-0.1402502681409403,-0.02171080270788941,0.10266275992486133,nm,0.0
44.167303000000004,1.5498254714062607,-18.54205206966034,-174.37868477598852,7.116134909909282e-06,0.23302122207935702,0.06807230130420812,-0.09670515165468622,-0.008341003426434637,0.09901371162579624,nm,0.0
44.186307,2.59993199257981,-18.588674949648436,-175.08897981378973,0.058882699174145285,0.17276023779178248,0.21841373989931592,-0.09803048868261467,0.012154637753724329,0.03784803880524547,nm,0.0
44.195831,2.805538123611947,-18.671997469387275,-175.76003071806707,-0.0010042600028852683,0.2827438298706536,0.05889518312342493,-0.04877788708732814,0.0245395117102671,-0.028712243203349634,nm,0.0
44.20532499999999,2.9791233426931996,-18.811518146305115,-176.58141740612209,-0.002097763556621327,0.27118951191526325,0.12327388787412323,-0.04307542873152365,0.03678024378586922,-0.06070238603345825,nm,0.0
44.214842000000004,2.9110153320452117,-19.008462842944958,-177.4002912838503,-0.0055355919061421096,0.263953423519029,0.12730510618973495,0.0026501441543268075,0.051100467212098565,-0.08007772729221813,nm,0.0
44.22436099999999,2.5738089191321483,-19.245738276266902,-178.03516314045942,-0.005256138615435082,0.28018571015802074,0.012469321337934184,0.05383477678983417,0.06100619336468961,-0.0719121146422547,nm,0.0
44.233878000000004,2.107969381791188,-19.49521828860395,-178.41231328413454,0.04444171375975063,0.1766305626004606,0.0596857939028933,0.07847551971592412,0.06368625757544649,-0.03532289630261839,nm,0.0
44.243391,1.4253716036614341,-19.720154073360856,-178.57085748767435,0.07661212526676392,0.1012141337467512,-0.030981859655798912,0.11963990698715346,0.0594042810465696,-0.008083703927949085,nm,0.0
44.25296599999999,0.6500510272923645,-19.76179170237749,-178.54333524864717,0.10638688557679006,0.0021080556328177433,-0.09414544572511468,0.13136959945851276,0.04889377420957301,0.011993246961430101,nm,0.0
44.26246699999999,0.08554966299734118,-19.70915088345399,-178.56113654951236,0.13547020012144656,-0.07847150495323066,-0.08349845535041737,0.11748559530245328,0.03594987760289853,0.014725446158257396,nm,0.0
44.31002599999999,-1.50256095879935,-19.72133782502859,179.39986353981104,-0.08073385417723616,-0.05816857941212775,-0.0840524960653786,0.03409592008453731,0.004826505038800017,-0.06019693103111185,nm,0.0
44.31953300000001,-1.6448157620864277,-19.7658104997035,179.03462566765683,-0.08898121393054721,-0.035282179135440496,-0.09522975064580094,0.0,0.0,0.0,nm,0.0
44.32904199999999,-1.6973737718151192,-19.73040715319918,178.756583210306,-0.027362366224467655,-0.06727632715857695,-0.0722040314150796,0.0,0.0,0.0,nm,0.0
44.338559000000004,-1.735256552435617,-19.63411182915437,178.6394408598873,-0.03526106741625287,-0.07596901320291753,-0.09375431235171425,0.0,0.0,0.0,nm,0.0
44.348011000000014,-1.8046831728085324,-19.47473223633944,178.5410131226353,0.0014325994585271788,-0.08913912634074098,-0.12311444348676343,0.0,0.0,0.0,nm,0.0
44.37659400000001,-1.1900339577582102,-18.77346281408854,177.1567120542403,-0.011511223004534568,-0.04172693224173178,-0.027734358370723557,-0.04597362884981604,-0.031808633354409546,-0.03564122725894356,nm,0.0
44.38610299999999,-0.9411571845920571,-18.55618501835346,176.5143241509596,0.0,0.0,0.0,-0.05493366180950089,-0.033521746937988685,-0.049258144202367994,nm,0.0
44.41464400000001,-0.5696111093724864,-17.941321248183296,175.00954479313012,-0.03032536839621822,0.06758607715802989,0.0662678362201521,-0.036007075081168384,-0.03855560970856227,-0.006571336998974418,nm,0.0
44.42415399999999,-0.5746505817750929,-17.669911772403974,174.73295616424878,0.025409067434650368,0.05723242216549886,0.06293267174581382,0.0,0.0,0.0,nm,0.0
44.44317799999999,-0.6131323622105256,-17.023097368704974,174.1921243237877,0.05584202943461186,-0.006502687037475221,0.0627758580089114,0.0,0.0,0.0,nm,0.0
44.452684000000005,-0.6125731121804592,-16.68483644034125,173.79833609890045,0.05338049492506349,-0.006520713437816584,0.053788764682107915,0.0,0.0,0.0,nm,0.0
44.46220299999999,-0.5847945225847144,-16.382596044697355,173.22919013326134,0.0177782692796064,-0.002765996176615278,0.061160687899004355,-0.021687510107078548,-0.04083126093913551,-0.0290117063944313,nm,0.0
44.481222,-0.5216348231262352,-16.030821976861528,171.96439843765603,-0.07456555234999271,0.06295457721598856,0.06237127756565639,-0.028488342440995188,-0.028180798110648716,-0.03380806070355922,nm,0.0
