timestamp,roll,pitch,yaw,acc_x,acc_y,acc_z,gyro_x,gyro_y,gyro_z,markers,motor_input
15.512007000000011,6.56783906316063,-18.70368131717473,145.51719421067136,0.1696561335405247,0.7506032040435585,-0.10818397646499248,-0.3024515710899105,0.15760569476940675,0.1243088402236417,nm,0.0
15.531003999999996,11.322336590636425,-18.60504407218462,146.687340448876,0.44205460681417974,0.8211647789850743,0.3666852135754422,-0.39444355195098946,0.2839183930422666,0.2593116373408818,nm,0.0
15.540513000000004,13.32358860723417,-18.797840768900006,147.27327340059722,0.5189405909855973,0.9606887016212384,0.2460400688666373,-0.29878854545176625,0.25241592570570737,0.2407876725547802,nm,0.0
15.550062999999994,14.835728449370583,-19.048099314383474,147.90001009884634,0.5961610190152418,1.0061369451140894,-0.0011371668170086064,-0.2168428005408641,0.20891298543890638,0.2184498066859119,nm,0.0
15.569040999999999,15.848515342532718,-19.89424807502757,149.0548517133425,0.5504277344894777,0.709749271256932,0.03371790119064735,0.04837336309304139,0.09849964296171204,0.10271116654336415,nm,0.0
15.588067999999993,12.882761455073886,-20.99172440808527,150.05487908466964,0.3195939128783982,0.07417236297564046,0.6252431218970737,0.3773470858374646,-0.08856597054841235,-0.045336392387912636,nm,0.0
15.616601000000003,-0.8599220487007466,-21.814640556578716,151.62482274451358,-0.2360934155116979,-1.4583637617054541,1.0647269713419698,0.8881306501180728,-0.4299603241040733,-0.30401499804994114,nm,0.0
15.626112000000006,-7.078894427519438,-21.756718950872816,151.80046734786285,-0.6050090994067655,-2.3967681811572197,1.3778894510705182,1.012205355405172,-0.5440155691276399,-0.42783215824369203,nm,0.0
15.635639999999995,-14.267955787540489,-21.461882396454506,151.52566573647056,-0.9852851431357715,-2.1554019457818385,0.5717797951633211,1.1502044554262123,-0.6729886519274476,-0.5844804313554645,nm,0.0
15.644956000000008,-20.578134121060607,-21.1506408683191,150.94310230579146,-1.286549379066621,-2.2262224323713182,0.15633775765103033,1.0028114856626362,-0.6070511407811029,-0.5737575011066618,nm,0.0
15.65446,-25.972681481136163,-21.053281732204578,150.17366381694592,-1.6564459470122228,-2.387414836022182,-0.1902404206276844,0.8694474109549486,-0.49853322533036576,-0.5398563228093535,nm,0.0
15.701918000000006,-32.30115591786067,-22.860345627174148,146.82879135469923,-0.4438755142470107,-0.30479533835123657,-1.1064628452222698,-0.32883712454327935,0.2898114916045223,0.09075375263161825,nm,0.0
15.711602,-28.189802411608504,-22.811680528429658,146.42074682605605,-0.17952915342019304,-0.3467006714814334,-0.7084919815381477,-0.6364652688016731,0.42275307841607845,0.2414503739925725,nm,0.0
15.721125999999998,-22.677326177602648,-22.477847983726633,146.08234023362755,0.22217285821972332,0.21643437732963078,-0.8125846587850196,-0.8819521367503195,0.5242126238826302,0.35973893276952884,nm,0.0
15.730630999999988,-15.34828610135589,-22.08012070187085,145.97343889323182,0.36975076571328713,0.04982522175194287,-0.308227437434009,-1.169006006559914,0.7069579836347162,0.5355164952540925,nm,0.0
15.740136000000007,-7.194764903654178,-21.709629545237842,146.07113533775117,0.6591400407945938,0.2350386398448505,0.7155360283366548,-1.2967736191012667,0.7993808399461626,0.6275863744126948,nm,0.0
15.749659000000008,1.163382307460267,-21.0462083970238,146.39299851525672,1.044287571572419,1.204487763299407,0.7098294901927952,-1.3693869410756836,0.7700293774512225,0.6719266974482497,nm,0.0
15.759080000000012,10.28876471617608,-20.25861395466392,147.1390417758115,1.319386902386303,1.6183407444930429,1.2237826795976203,-1.5178140046020947,0.8190166687159796,0.7892941872455436,nm,0.0
15.77810199999999,26.442259285460036,-19.890254407022194,149.47455871705293,1.2120720353180066,2.624079603700278,0.18698563853952085,-1.2097247502427535,0.7641398410172862,0.7564851800454953,nm,0.0
15.797145999999998,37.45400536077237,-21.027918757377574,152.2604159552125,1.3650055565171566,2.4446348290998356,-0.3107353405613219,-0.6818548453258273,0.5312691810117635,0.5835255824819827,nm,0.0
15.80664999999999,39.62022525215431,-21.805406689781012,153.35479468403938,1.1306838538395851,2.197206879857957,-1.0099487722290637,-0.2944405789770061,0.3328074892748958,0.36941128607260976,nm,0.0
15.816154000000012,39.93060803151855,-22.35463489031787,154.3046961364957,1.2690978501322734,1.9618536960235056,-0.7419244505465328,-0.009838846800584878,0.133784908757686,0.20555032349293134,nm,0.0
15.825626,38.05093266691997,-22.326102700162608,155.29214234149296,1.1965535176291278,1.4466900174812478,-0.5328424079641036,0.30596103697664273,-0.1435412322123465,0.04679156915268934,nm,0.0
15.835129999999992,34.13583836140356,-21.73463020925371,156.24312239095846,0.9976133863961497,0.9827821838362283,-0.1943831674973362,0.6078371675178174,-0.39588861781593,-0.11124926611347305,nm,0.0
15.854390999999993,21.20421328096353,-19.368736035357255,157.84265382730035,0.1934472561995782,-0.15812648408331786,1.3065947197803425,1.1702967697492919,-0.7720822235686058,-0.3608468291350086,nm,0.0
15.863898000000006,12.293644390436782,-17.88295664066511,158.4331168534539,-0.4831160699211625,-0.6320144131753421,1.2015025932833865,1.4547241922486633,-0.8924255971864758,-0.45686332787713674,nm,0.0
15.882906999999989,-6.427147563387257,-15.581559716492368,158.88517438014097,-1.6198138900509438,-2.3884805242971856,1.8644164877101446,1.638654934340708,-0.8419429272686866,-0.5204444593327462,nm,0.0
15.901738999999992,-24.87380591458172,-14.517836828492603,157.55966737886902,-2.0756180666966926,-2.576959959308052,-0.044957656181933925,1.5282174825518877,-0.6501651708032158,-0.6071397490565649,nm,0.0
15.911262999999991,-32.23020359101896,-15.214271968477947,156.44130574716596,-1.9502873847376838,-2.3406097769948966,-0.9548208119837592,1.3649287344377747,-0.4144308075422654,-0.5978099963502893,nm,0.0
15.92076800000001,-38.06476495776042,-16.681815853154543,155.2407286332571,-1.4222514624123985,-1.2084122502081245,-1.7927149594479357,1.1456586978338381,-0.17863489948981942,-0.5561067151124757,nm,0.0
15.930167000000012,-41.07553941196806,-18.53110240052756,154.17066860492542,-0.8946213545530467,-0.5182809120275143,-2.132214673926011,0.6787094027659903,0.10209489664245333,-0.3907039602418027,nm,0.0
15.939684,-41.18448889551167,-20.2994214107053,153.293660039111,-0.5087911331381739,-0.39694634415321456,-2.002594160790853,0.17647344765212317,0.3212140391500911,-0.17683063248422254,nm,0.0
15.958792999999986,-33.02562550592525,-21.81520476344916,151.79950959001508,0.2657475342141746,-0.10560341934380912,-1.3441781095693925,-0.8948757997823953,0.5617817176149941,0.2820057336655919,nm,0.0
15.977909000000011,-15.004644939540995,-21.428763617024245,151.41610814495155,0.558845171580994,-0.5341671054531023,0.8740286438923149,-1.6335937585111442,0.852746497228461,0.721247410125285,nm,0.0
15.987416999999994,-4.393380428581796,-21.20081103324636,151.58243341529305,0.8787453474034289,0.20839933865014035,1.991627976085042,-1.7620867884629987,0.9186730358057177,0.8041733342419377,nm,0.0
15.996927,6.359189161674602,-20.913305463908824,151.96491236830605,1.155771957208128,1.2544751919596553,1.9099666857074744,-1.7995980310940556,0.9134145996878491,0.8465153306906653,nm,0.0
16.00643500000001,16.66689488107298,-20.763831866029882,152.66124529323187,1.3096507890286666,2.0027182991369576,1.5571884684234507,-1.7254554054108109,0.8826929641098257,0.8680703889359132,nm,0.0
16.015685999999988,25.608192392211098,-20.948896693366876,153.6033781300278,1.2907039398729676,2.3049082339264775,0.4596259817025895,-1.480520302215277,0.800900243978887,0.8191537067595747,nm,0.0
16.025372000000004,32.89579014443772,-21.579478689227894,154.54573468432085,1.2785867480600661,2.248394446675619,-0.09123231965202497,-1.1737693163394276,0.7187005297716298,0.7102934388612452,nm,0.0
16.03490400000001,37.729587284748064,-22.38450982818911,155.28600918309996,1.3566327405953655,2.118364942896508,-0.4472566853893162,-0.751186312841806,0.5363654602494856,0.5026754736369407,nm,0.0
16.063564000000014,35.680137913313274,-22.078843757637514,156.60453768710659,0.575393076407383,1.0539742968767976,-0.06135017105918619,0.4895108533607316,-0.38259746068860806,-0.1841544020634376,nm,0.0
16.101653,2.926392903359827,-18.5397002000839,155.00899586586496,-1.1685101015326493,-1.661661487594705,2.0835924047272005,1.6720400829124014,-0.858351308748722,-0.7885168328092508,nm,0.0
16.111165999999997,-7.409389744251149,-18.264221043359175,154.21023946017175,-1.7838843068069046,-2.576631680320273,1.6187261307457415,1.7496008670998333,-0.8777077306252674,-0.8140267982420043,nm,0.0
16.120486,-17.642511976133935,-18.36275398645874,153.22048398717294,-2.017545675668669,-2.6410330483712188,0.4215700008623881,1.7530236735916065,-0.829714720076178,-0.8405578812636267,nm,0.0
16.129998999999998,-26.44189934755277,-18.908820159130222,151.9616980772341,-2.0206712067536636,-2.548410915542814,-0.5946507146696381,1.5334522302419167,-0.6579104174556185,-0.8117356159176867,nm,0.0
16.158423,-41.02233474993829,-23.330692703882384,147.93751654613712,-0.8263834777787801,-0.652985447209886,-2.187389085959632,0.5147027223140862,0.10673277621127726,-0.37954563490846865,nm,0.0
16.16794999999999,-40.603509210480034,-24.562380834281694,146.896026613598,-0.5259658287683845,-0.3078211641859922,-2.04532227577355,0.07133175881564238,0.26146852742820903,-0.16825150059912372,nm,0.0
16.196650000000005,-24.07912971459766,-23.06254579840172,144.8013415720515,0.004438809887622096,-0.2522343491283133,-0.4352225630117099,-1.2861925692466285,0.6521898521339412,0.558329932246982,nm,0.0
16.206157999999988,-14.867009767569533,-22.37322394057995,145.03897703071945,0.14099172935504126,-0.2138614720538902,0.5784297243267187,-1.4698123251940183,0.8792652858703078,0.7607246765994871,nm,0.0
16.21566999999999,-4.901971171517309,-22.185406532911212,145.58514186259129,0.48484515240165704,0.19932709459082934,1.8110074261991755,-1.5389529127560428,1.0341728489190825,0.8644423093459546,nm,0.0
16.234612999999996,14.911544239082298,-21.538471068035108,147.26263644081095,1.7338224592681817,1.5328541786589853,1.4627393482750022,-1.5739449038886217,0.9641952056065701,0.9175498094809386,nm,0.0
16.244306999999992,23.69700128891538,-21.658980977487165,148.2791267473587,1.981557250280144,1.929060038518287,0.6406948519289976,-1.3742747422010329,0.9051244238901662,0.8445483299503426,nm,0.0
16.253636,30.92336813900348,-22.042959680719413,149.3207034162675,1.9250574736333488,2.113393630005023,-0.0742896946692832,-1.113653142910511,0.7729288701465509,0.739787099746215,nm,0.0
16.263170000000002,36.06013341281464,-22.193778147531148,150.60760689212304,1.9281514059235139,2.037049412147901,-0.38377734952897613,-0.8153775626346612,0.513771338989189,0.6371415711745115,nm,0.0
16.272676999999987,38.37171110258577,-22.028335761372595,152.07520459059847,1.4889295233771536,1.8821694213832108,-0.8327285773955152,-0.3982418705276306,0.18674638661358656,0.4600975071394458,nm,0.0
16.310889000000003,23.194005338319247,-19.303072419052764,157.89765645356542,-0.48539163234299915,0.30732531582360656,1.0823134327060626,1.1521628980018659,-0.6796389888277202,-0.22957233123507453,nm,0.0
16.320392999999996,14.704945986551671,-18.61944993911803,158.62143124331945,-0.7778429913714052,-0.36082391542862113,1.608683622243529,1.43834808015532,-0.7098587587735927,-0.41293645072887314,nm,0.0
16.329904,5.754849476916263,-18.130763982424117,158.77678417872607,-1.030318018434097,-0.97450239881513,1.3084301902216533,1.5457547757690764,-0.6955365477578151,-0.5376643486334507,nm,0.0
16.339400000000012,-2.839309346163254,-17.843805455466313,158.31919659935858,-1.2168223964425031,-2.0098097699627955,1.3030378880764972,1.5000230431116455,-0.6381897098819206,-0.6250077906250927,nm,0.0
16.348745000000008,-11.447786993824929,-17.894539072248342,157.22595566579452,-1.248984314526009,-2.1138683677478687,0.12826276929369504,1.5211932027301576,-0.5971727240915334,-0.7477935679087939,nm,0.0
16.358258000000006,-18.740761890166503,-18.51646042724602,155.76364462789016,-1.249905798451861,-1.9352811620455665,-0.6151221194568609,1.3213242194557275,-0.4251583901967026,-0.7474283117696856,nm,0.0
16.36776599999999,-24.317718654945466,-19.457509837286242,154.16486598560272,-1.1861432658526465,-2.0057003819084076,-1.0784154717137502,1.0367822721207098,-0.26234164973153623,-0.6806927266333481,nm,0.0
16.396119999999996,-31.08123800315303,-21.64177619620107,150.4482687506987,-0.6915081895065001,-1.1349976396230863,-1.3375836023551146,0.07337675143582308,0.05399296470996132,-0.20066158325036745,nm,0.0
16.42492200000001,-22.923052642876122,-20.59789324943498,148.9242165062622,-0.0786300862693143,-0.7079803105379517,-0.3109947423508825,-0.7289477496722779,0.34113716064501876,0.24135738322155278,nm,0.0
16.434436000000005,-17.796911479612536,-20.11099371422074,148.598693260321,0.06646704142646527,-0.3691170413184052,0.01073923351751652,-0.8721936490948281,0.4298745606007933,0.293094626374662,nm,0.0
16.44384500000001,-11.773878948675367,-19.540186868434198,148.22174835302863,0.20596721141917074,-0.1484123869753055,0.2664248287357416,-1.0254803635551157,0.5112253786234672,0.33352893864632327,nm,0.0
16.45335399999999,-5.479787953688535,-18.950560059328247,147.820997175897,0.34939354324046407,0.025006671366728662,0.8224682801623123,-1.07145349945231,0.5442380359872623,0.3338043536528199,nm,0.0
16.462871000000007,0.17558137128296905,-18.313835168138944,147.47826917243685,0.47242963137423694,0.6904670101327228,0.5805651936376042,-0.9748104745070069,0.48052487190314624,0.29058093352582903,nm,0.0
16.482066000000003,9.596664488557725,-17.0134603871468,147.46947413523478,0.7433961155621601,1.1292068679115435,0.47803324643014933,-0.757647789104686,0.35065241130875624,0.2754649302823695,nm,0.0
