timestamp,roll,pitch,yaw,acc_x,acc_y,acc_z,gyro_x,gyro_y,gyro_z,markers,motor_input
20.000984999999986,-2.6404238525257275,-35.97732534976106,176.0769301122853,-0.4396468088582049,-0.7450077675396678,0.23733613376617427,0.22061331998911107,0.057722137971216815,-0.11024651542707117,nm,0.0
20.019766000000004,-5.224348194936052,-36.12989270708355,177.42919615071443,1.1308305207249731,-0.9473238835767699,-0.2518588581939379,0.09444249480665541,-0.027200988396886526,0.09046504888766939,nm,0.0
20.029292999999996,-5.4698240505035525,-35.198877992581025,178.2669692460242,1.9946171790802576,-1.243238336677778,-0.09727220769689596,0.025893227836912114,-0.17546125019814662,0.13967297174663004,nm,0.0
20.038793,-5.137531234472,-33.89274150019177,179.02583470384135,2.162654327333596,-0.8933099605222415,0.0968065115046106,-0.06819939315242177,-0.24796007857134872,0.1900411194126159,nm,0.0
20.048484000000002,-3.011734389184625,-32.33181325997103,179.69005180311413,2.5827535907472927,-1.0249354901836107,0.728107196502637,-0.367661599073466,-0.29653602784426164,0.365315728234992,nm,0.0
20.05800500000001,0.008807407483142652,-30.83139104356117,-179.9000853105745,2.589420249787211,-0.7111356697811282,1.1661936044502346,-0.5238439559261611,-0.2877495923034628,0.39788477138639333,nm,0.0
20.077076000000005,7.632868107082415,-29.222786953012537,179.73639686496153,1.5157739085160626,0.18899111740397978,1.0761989723565026,-0.721275117409556,-0.09103147545517974,0.32177500677530174,nm,0.0
20.08659,11.462233545654815,-29.515270435513774,178.91925955468068,0.8010333752661085,0.5154908418899229,0.9278422503753685,-0.6763440589457655,0.07706273001480231,0.2094859074928812,nm,0.0
20.096112000000005,14.495637290484071,-30.614112394058644,177.84894231018185,0.25312878589256876,0.8139563701768058,1.0737787878447196,-0.5282652183594732,0.24518851275071507,0.08675103414838238,nm,0.0
20.105604,16.366492476046492,-32.1922907020409,176.8802062609554,-0.4625423514577304,1.134880118690446,0.4654216684264811,-0.31397583068300106,0.34074205287132703,-0.0020414538033365175,nm,0.0
20.115115000000003,17.64494408888351,-34.26205256490439,176.2484567630991,-0.3726710007771751,1.0425841344503777,0.08269054237304818,-0.1981594152323938,0.43684905878959496,0.010669795747227194,nm,0.0
20.124627000000004,17.949406141492776,-36.85454775327914,175.8656597385484,-0.08913787290572012,0.9133707611581218,-0.20645601546225495,-0.023113176839648787,0.5316695067549642,-0.04390639147149519,nm,0.0
20.133971000000003,17.207097982438476,-39.30816820858388,175.70216695727467,0.12503906995688072,0.8451211762412466,-0.8573862334008722,0.1434931739861442,0.49188131524483186,-0.12662417702390727,nm,0.0
20.143473999999998,16.093532833397454,-41.024017778233706,175.6408264739536,0.40010582517093807,0.5173362390143267,-1.3257761469893483,0.18661417518501056,0.34039028168260155,-0.1578866550697561,nm,0.0
20.15305699999999,14.70788706632878,-41.920774249162434,175.30783644854887,0.25204652964290297,0.2848954032242482,-1.5194598924651959,0.21240286026763502,0.1734765106806521,-0.2518644379163673,nm,0.0
20.162583000000012,13.297804059079946,-41.90507571270174,174.62786945146706,-0.31954878988283475,0.2201795079262657,-1.4115741790669725,0.20034088835480401,-0.010420380441259198,-0.32601284071381,nm,0.0
20.172022,12.024365278182204,-40.989335051048954,173.83372793758488,-1.0990828502513266,0.1060407108672103,-1.0237932187130523,0.16338884776680876,-0.1902594526892525,-0.32903245706139905,nm,0.0
20.181521000000004,10.529379724321021,-39.558190550292814,173.1882924305444,-1.8355352051026699,0.08312191462420455,-0.6392201400526704,0.18656354145097628,-0.29890376855562467,-0.32402272216269024,nm,0.0
20.21004400000001,3.997424426484737,-36.23421256341908,173.82091281647237,-2.871539678516935,-0.09819840073811459,-0.025724598617968872,0.32577662183397393,-0.1633833824757399,-0.1428305411336149,nm,0.0
20.21955600000001,2.7645639790719057,-35.90186821412239,174.45280707131965,-2.5095767504362856,-0.0841711211890415,-0.2969789497821882,0.18448729816112247,-0.07436636906210983,-0.019515917660960933,nm,0.0
20.229246999999987,2.193060175210048,-35.72914803719122,175.26026607406925,-1.2893645785103058,-0.549154876031495,0.02816380630567497,0.08200302575061855,-0.03060420134858797,0.0940789630256358,nm,0.0
20.238767999999993,1.110965370148987,-35.72785444095294,176.19751049715464,-0.6271545601170835,-0.48113151438098883,-0.47312484402339317,0.16800424061019903,-0.0012273428013555023,0.06067243532098226,nm,0.0
20.24826200000001,0.627623967717996,-35.610580121986935,177.09741523968927,0.1210659608879784,-0.4400282793917845,-0.6053243537411317,0.06960323003046734,-0.015988016056892124,0.12335791489903779,nm,0.0
20.267112999999995,1.7109627145877266,-33.944763186086384,178.02419592690381,1.908176058877085,-0.6260265234862264,0.12994679017330849,-0.11012603356589092,-0.19280916196263992,0.11717275366982395,nm,0.0
20.324355999999995,8.598389176658554,-29.116050841106336,179.24956601848524,0.8365493475586492,0.4108677122295031,1.1490000485881342,-0.08909053029951758,0.14894408191414477,0.11967370296818344,nm,0.0
20.333861000000013,8.848781589546553,-30.56943747226712,179.6751145358113,0.17980516523208237,0.4601189405073553,0.6460905525742858,-0.050078850714715364,0.30223168640036174,0.0671400571919442,nm,0.0
20.343368999999996,9.166963680382999,-32.721924151656566,179.8442829526362,0.0307406889863416,0.2960621079561898,0.5703429051504805,-0.06203889611212742,0.44198338884473054,0.030479332302213207,nm,0.0
20.352879,9.021714967558367,-35.36647020110601,179.73964108128806,-0.013711485071140672,0.3416663307299357,0.21228480673791736,0.016255033504300218,0.540359316150176,-0.07217134959498622,nm,0.0
20.362394999999992,8.672749275744334,-38.151133819123686,179.52399616282534,-0.06635942917258468,0.49166899979340933,-0.43094326600014593,0.04949089182044192,0.5682982545465413,-0.1310796497437844,nm,0.0
20.371713999999997,8.58236975825035,-40.738613981277304,179.3552533895301,0.21956309745233965,0.3779638254028841,-0.7677216386287452,0.008659395994164659,0.5290013348917455,-0.10771244262119806,nm,0.0
20.39081999999999,7.433054089024434,-44.32615066808783,178.96242089018162,-0.12948168386993356,0.37605069498800897,-1.6197757132749606,0.10714030462631219,0.2997310504003756,-0.172932153190372,nm,0.0
20.409791000000013,5.139852461276676,-44.30817535321699,179.20226565781726,-1.0703078698498636,0.13844276122574756,-1.1972307333974685,0.18517972712783468,-0.09240863299323929,-0.13724757208626479,nm,0.0
20.438301999999993,0.16620103094718838,-40.15612093318807,-177.0782577764051,-2.770475911767626,-0.21353903466850566,-0.22630123705268648,0.2693550663313866,-0.2909655180704839,-0.10121672824060554,nm,0.0
20.447801999999996,-1.1570811298616364,-38.92212353649892,-176.03864459786823,-2.6645826102493944,-0.32892873234309683,-0.36794110857284823,0.2112762366732328,-0.2220770961029421,-0.07248168225886867,nm,0.0
20.457322000000005,-1.447126847555651,-38.14369835202827,-175.93393897645794,-2.2533694800308703,-0.2722789325518129,-0.3854239310204152,0.047562721274678345,-0.14107344394036045,-0.014882340647215182,nm,0.0
20.467017999999996,-1.0065584986875802,-37.46430320995905,-176.051263551492,-1.0839482317937332,-0.5105770083748449,-0.22555008882130678,-0.06872684247152851,-0.12936467072425728,0.03076440018735246,nm,0.0
20.47650200000001,-0.9249402944453844,-36.94120673563758,-176.23899623546043,-0.5032393659865851,-0.29592925237442064,-0.4038956675197162,-0.014618579258714093,-0.09414442956762356,-0.027611643563774026,nm,0.0
20.505055,0.9438871597087805,-34.12320597129192,-176.10838767400028,1.71638603295067,-0.17430361009571382,0.3172511874968363,-0.07990559578705533,-0.2375042139217233,0.09820468463466016,nm,0.0
20.514567,1.69584037956192,-32.866484331113156,-175.74426704070768,2.3380393085233253,-0.11870267000928322,1.0752653141296113,-0.11641368761326942,-0.24901906728531537,0.15506318438096198,nm,0.0
20.524076000000008,2.6605327008646986,-31.55326626029397,-175.3194838733628,2.6787209851431624,-0.005127966445981033,1.6738133618265794,-0.15165414435504948,-0.26414079412550817,0.18672239760118173,nm,0.0
20.54308800000001,4.858377066338962,-30.020063882165292,-173.9976341847453,2.2117603981552567,0.3406631357339974,1.4218062067662256,-0.20003200300328725,-0.09406252501310493,0.12575404047908684,nm,0.0
20.552595999999994,6.012380549399681,-30.291736727800068,-173.9777587217722,1.6698024307985153,0.4558672889174289,1.298011581708174,-0.2141885772387402,0.042797544471742575,0.05615810837565821,nm,0.0
20.562117999999998,6.979459550564582,-31.04366285987978,-174.30707093760222,0.8870637648726707,0.561400121450124,0.8503778721002899,-0.19106140935350147,0.14255325223285079,-0.01309055792015754,nm,0.0
20.57163,8.022964839851936,-32.384624156228064,-174.74043866165988,0.21281145147452982,0.5123648618018548,0.4554030717549546,-0.21276540927715043,0.26007648295949154,-0.014378077867809511,nm,0.0
20.590653000000003,8.728227929800438,-36.637589233966416,-174.97344366399375,-0.28508367565119375,0.567782438744936,0.02849512354176585,-0.037171957524764265,0.4644825285809576,-0.048873960257972755,nm,0.0
20.600157999999993,8.46501403138306,-38.9231636074002,-174.77835405668492,-0.14827763787404394,0.5279414797484978,-0.45315100054355234,-0.009419383113013479,0.46957813992814,0.005677960787506057,nm,0.0
20.61908199999999,6.8862794719267555,-42.786807374822544,-174.1873882693476,0.04083859841342192,0.36422511616981756,-1.3255038137387982,0.11346286439936812,0.36308814150454705,-0.09604215761734174,nm,0.0
20.62859499999999,5.934918737994673,-43.65115656276286,-174.22823571183676,-0.15723216821992797,0.29131529184235455,-1.4822757762866514,0.11077588820980927,0.1964214216651633,-0.1386168240915306,nm,0.0
20.647539999999992,3.991168951644039,-42.76997756378607,-175.01075517962073,-1.3057984565788883,0.1256489312486799,-1.0481900737713028,0.16028301928049019,-0.1377114512031375,-0.23724523112877172,nm,0.0
20.65704500000001,2.8263922475008387,-41.49225162557501,-175.31659195504164,-1.9608196675194718,-0.025246558623641713,-0.4829103097913483,0.18464339279650963,-0.22963843813467263,-0.21754571252881563,nm,0.0
20.666560000000004,1.237877703902753,-39.99598845978578,-174.69691729291384,-2.565857692089509,-0.24071329674687084,-0.02311062327038584,0.2583652032459747,-0.26533517554508723,-0.20122536831261148,nm,0.0
20.676060000000007,-0.8592890802091839,-38.718822006668454,-173.82100688811366,-2.9951484528093006,-0.45516489849061254,0.035401535831807975,0.34061254658612933,-0.20936531733176855,-0.2046655723582577,nm,0.0
20.685574000000003,-3.006521655255205,-38.096577472855884,-172.97195872222144,-2.877405909568704,-0.3841079646236719,-0.0760343385847077,0.34034782891974286,-0.07249075105190363,-0.2017130750669021,nm,0.0
20.704777000000007,-4.7446797322866265,-37.38135096146613,-172.76392114256845,-1.0050219749944764,-0.6918386691936947,-0.2528563789015198,0.08563584338959174,-0.04170083232570103,-0.05456577839796879,nm,0.0
20.723791000000006,-6.613658486241134,-37.00021007501409,-173.02558426466388,0.18162556768427462,-0.30465794527894136,-0.7422572400186684,0.09067101351919922,-0.04070620491196473,-0.10850732008977731,nm,0.0
20.742582999999996,-6.49938946774171,-34.67375074348368,-173.74803617429026,1.4866000725222666,-0.5048351423137942,-0.21845085498491332,0.030114519608153017,-0.25825763346415,-0.08145628497758772,nm,0.0
20.752283000000006,-5.884551879723574,-33.11740004783956,-173.87686379081555,1.9185414987022815,-0.5898065393365344,0.48483705762919427,-0.07660438107532237,-0.3095553035684798,0.04330972481332118,nm,0.0
20.761776999999995,-4.626540604042658,-31.26097837967497,-173.6739208393598,2.3292080661613865,-0.6067189399523024,1.2615520735671926,-0.1804123121383853,-0.381487221532464,0.174794427336665,nm,0.0
20.771300999999994,-2.7069582166626867,-29.339938845196322,-173.11171196969968,2.508683986633095,-0.3119936017930453,1.394761973407423,-0.294494069208054,-0.4093644756252477,0.3058410253619742,nm,0.0
20.78079600000001,0.16394911909441454,-28.026617067197964,-172.30004564154513,2.6020652814119627,-0.0008328334508346079,1.662918951853673,-0.47634393413931875,-0.3143222430866242,0.4370482275696164,nm,0.0
20.79030800000001,3.6176890641210675,-27.569582871299392,-171.6104068442926,2.3418657913377365,0.35546774141975496,1.6666303715245425,-0.602804269017675,-0.1661601679368605,0.4585343891164504,nm,0.0
20.79989599999999,7.233066036968667,-27.850833006862544,-171.02543041032013,1.6160307087429098,0.7259009119393496,1.262219973936427,-0.6521499208630612,-0.03369370400240946,0.3750833707736584,nm,0.0
20.818900000000014,14.002594717525948,-30.566975661973583,-171.85262909270838,0.14712163655544794,0.9189210198865205,1.0157582947803845,-0.570503150558755,0.26731746231259446,0.10140124349990645,nm,0.0
20.82842099999999,16.0124772297397,-32.66327239610074,-172.89013662305777,-0.6221952344693494,1.1129546123917458,0.26354249748231134,-0.40622047017202445,0.3791665063919885,0.00011528778169496015,nm,0.0
20.847426000000013,17.598354369732746,-37.70053358370279,-173.69452168879172,-0.2054889574133276,0.9791423743029971,-0.3244506858413648,-0.07735180798753065,0.5244659583227739,-0.022769017586264765,nm,0.0
20.856784000000005,16.41229458338698,-40.10390356463443,-173.26076261345193,-0.1296897703435696,0.8950890808418559,-0.9366547471122735,0.11785373246578136,0.5077547099469127,-0.06432250850862108,nm,0.0
20.875860999999986,12.1956727311169,-42.42575021844585,-171.68826731378837,-0.17408720711241474,0.2983387038116452,-1.4745081076860727,0.3241105415527884,0.1862481892056866,-0.17477498625513843,nm,0.0
20.885298000000006,9.960074340386033,-42.02063935466278,-171.37812942939652,-0.7310242995570192,0.07477897770621582,-1.3068302866073152,0.3290241026917723,-0.022247974409645224,-0.239569357609509,nm,0.0
20.89480599999999,8.049108506959199,-40.820698076653855,-171.57407745346396,-1.3441200429637516,-0.2091658840430647,-0.7309204938564564,0.30884335544226466,-0.18561956390333806,-0.2931202033037298,nm,0.0
20.913839999999993,3.8955671956703486,-37.83782391992367,-172.58331455670984,-2.9750599423428583,-0.5686982908035232,0.0359175127796291,0.3589377660816603,-0.22922518435428882,-0.3680377286686377,nm,0.0
20.923327,1.5945505159276177,-37.13525155089682,-172.9677188707912,-3.1547452780308385,-0.5328214832395711,0.23101115175329692,0.3708359410468971,-0.08309951222457655,-0.3576543577442582,nm,0.0
20.942352,-1.54809461182488,-37.16243303470323,-172.9671547815039,-1.745702188407145,-0.4717256765945569,-0.2505814305592215,0.16703364456033554,0.0507706226766756,-0.10326719213444087,nm,0.0
20.952043000000003,-2.9767978874681975,-37.57411113487316,-172.33516995320088,-0.3237146744520854,-0.7237453399622319,-0.0032288504387145414,0.2057621795999351,0.12166221696837588,-0.04661841636278316,nm,0.0
20.961568,-4.911468256829697,-37.974200847502374,-171.41518233576073,0.13511242855126276,-0.3141280865136084,-0.6134275240532707,0.28267652644678476,0.1334295389700109,-0.05226646570043472,nm,0.0
20.970887000000005,-5.719057873984193,-37.72907386860031,-170.37856960895655,1.4161357157492747,-0.6808536342416401,-0.1544291338525125,0.12460012571365096,-0.017518794799815787,0.10927301527940242,nm,0.0
20.980405999999988,-6.169010969389057,-36.71902041144385,-169.56310258766212,2.184286961922864,-0.8424993036345947,-0.1477495621467567,0.096512355273812,-0.17602835087075258,0.10967981306269058,nm,0.0
20.98990900000001,-6.184693224589831,-35.45057960779259,-169.02347534757465,2.2265844769637155,-0.605235159299567,-0.13521228674297525,0.040210081249499034,-0.23855360566110376,0.10696012489735446,nm,0.0
20.999419999999986,-4.732432344379936,-33.88276402495017,-168.70939312392895,2.65790797756708,-0.5977684793576137,0.41575234102177805,-0.183763021368177,-0.3438396833111101,0.22861934025571146,nm,0.0
