timestamp,roll,pitch,yaw,acc_x,acc_y,acc_z,gyro_x,gyro_y,gyro_z,markers,motor_input
13.514802000000003,-12.890623731514282,-20.044156882463408,136.33229051632532,-0.7565729987061802,-1.1175139692867961,0.9688255114429295,0.4266546360905149,-0.3997593871323412,-0.28749114337762316,nm,0.0
13.524311999999995,-17.0059337077815,-20.12008938831523,135.59031526984236,-1.2399375114371547,-1.457459165066557,0.925881641403061,0.571204351083816,-0.5135928587332512,-0.43040815863007637,nm,0.0
13.533760000000001,-21.95268091903931,-20.62882866433702,134.54976506701414,-1.3134372477221803,-1.1867942115324817,0.22214129763101506,0.7341569715052368,-0.5705692017228176,-0.5509518251848142,nm,0.0
13.543092000000001,-26.51046846986624,-21.810614240745487,133.52908000179534,-1.277364586904061,-1.1719338858389732,-0.18341599644200918,0.7668079403857341,-0.4344349785226808,-0.5314080591481218,nm,0.0
13.564581000000004,-33.25105127938849,-25.188039309937594,132.25265291051824,-0.9240356860247004,-0.9748224119723067,-0.715910486394213,0.61208508273773,-0.158780692913657,-0.3435277246545146,nm,0.0
13.571575999999993,-34.63915591524701,-26.092046528125238,131.66567815040818,-0.5919042230965302,-0.47874927508478676,-1.0488973250642404,0.30838280331407386,-0.0536613019429092,-0.23260473032241194,nm,0.0
13.600081000000003,-29.202011255465692,-25.603047096703833,129.38477492372897,-0.04847605314867404,0.4845592963950969,-0.845761305731609,-0.39939763625551417,0.4325571958512245,0.13061541175467212,nm,0.0
13.609679,-24.78838982585817,-25.773055703718125,128.60306258876923,-0.03712302215403292,0.5216940298271745,-0.41602703533513957,-0.468232203139587,0.6526173196937487,0.22986373939583668,nm,0.0
13.619190000000003,-19.64810816090821,-26.13326684672844,127.77690894415478,0.1881324162771239,0.8026211607032427,0.034062057027532455,-0.509199396186502,0.7844478710668451,0.2873704006395225,nm,0.0
13.628770000000003,-13.76655577958694,-26.212682638061917,127.12135994365865,0.7278772618276892,1.2972902080773032,-0.0451260106673884,-0.6240376982187315,0.8615630766403025,0.3893938383741166,nm,0.0
13.638194999999996,-6.855306653722771,-26.041381149980285,127.11949587799135,1.146379704366785,1.0573435256334307,0.3276074459331389,-0.7718002575192671,0.9832108553458375,0.6087572950492188,nm,0.0
13.650344000000004,0.2030980748886027,-26.071086916519917,127.9931710981482,1.6673215652270996,1.002336278602514,0.48321795595526457,-0.7649565511183682,1.0237176070497394,0.7939523186696951,nm,0.0
13.657425000000003,7.035445750723662,-26.389553092821597,129.65966168460966,2.022673921164189,1.1578247764206397,0.5193937557177667,-0.716887546564331,1.009775034834924,0.935214191542494,nm,0.0
13.669413000000006,13.313435170212227,-26.661220295441467,131.89384637548892,2.262157478377904,0.9287478074146981,0.5107502018011575,-0.6920328352670867,0.9010500865281873,1.0045598706149663,nm,0.0
13.697768999999994,22.57666108818003,-27.221646521155506,137.58743065459106,1.6145496929445746,1.31787469093053,-0.22618787281205732,-0.19398879981723094,0.18553272942023474,0.4243212101246879,nm,0.0
13.714482000000004,20.040475448272304,-25.689030873128733,139.56992153805257,0.7613725892001578,0.9039233695571627,0.12531254940231898,0.17900779477716067,-0.38499765102343975,-0.036745283759081544,nm,0.0
13.723997999999995,16.21080696119374,-24.787215821072813,140.0347004123017,0.2142460991251617,0.43958119930067663,0.4498600890355465,0.4126636118431,-0.5721381321094138,-0.23852054391657487,nm,0.0
13.743013000000005,2.3669450190080594,-22.76276161979196,140.33173182957444,-0.8395007423065293,-0.9430230736804991,1.4093988633256547,1.0158693814979396,-1.103385130740194,-0.6353239552804393,nm,0.0
13.752528999999996,-7.082736545513689,-21.87497332245191,140.2236466327767,-1.399738546014364,-1.6290823202377822,1.594308665961757,1.235338148071995,-1.241115722913422,-0.7409745418555669,nm,0.0
13.771386000000007,-27.912123172679497,-21.059501464656964,139.32046025003882,-2.9716649809722577,-2.6650420631528333,0.7373255002928066,1.4850638761022414,-1.3197666617445833,-0.8942320618097166,nm,0.0
13.790336999999994,-45.934330419380714,-21.899395172807942,136.98586337464005,-2.8944375254758365,-1.8149601419829562,-1.4578065595071419,1.2665125435906635,-0.9305377044418746,-0.8673192728668101,nm,0.0
13.799916999999994,-52.7620264747366,-23.50682180108587,135.86787121877495,-1.808594115522098,-0.4992035010852704,-2.185265654790475,1.1407232879408369,-0.626324255163763,-0.742881801139904,nm,0.0
13.818824000000006,-58.33557999388612,-27.470329028988687,134.43450378105598,-0.8962401765918464,0.07666682765225942,-2.1932440988687967,0.46549603592237077,0.09146809471500844,-0.2503202930626204,nm,0.0
13.828342000000006,-57.505442608205385,-28.736888479878125,133.70370166282862,-0.19302715764401332,0.5588293329812545,-1.9227728211943775,0.0863097694814944,0.29044563058563644,-0.05858300665007273,nm,0.0
13.837834999999998,-53.86275656273558,-28.97637008022144,132.8180709346745,-0.07437151405056934,0.42168622422326263,-1.5411614777742895,-0.39654350121956145,0.507159257284745,0.18360315842304323,nm,0.0
13.847435000000004,-47.97718532562158,-28.256230673502685,131.91765883182916,-0.09294030914822446,0.19834114786687138,-1.1706772064399944,-0.7970753012995396,0.6771313529692914,0.3921105909948555,nm,0.0
13.856865999999997,-40.60159242628211,-27.12782569847686,131.4302576623085,0.1595691509001168,0.41206178481346517,-0.811088201310795,-1.0315163250127812,0.8376165685799244,0.5952724854167221,nm,0.0
13.866560000000007,-31.520600953363267,-26.223106094457197,131.6633891475903,-0.12409428411536451,0.019787905806667786,0.058657281147544246,-1.2068359121408285,1.108134929140017,0.8675146055915006,nm,0.0
13.885564000000002,-10.866801420018668,-25.276403708175447,133.2331040122461,0.7815572187301373,0.4883557487149958,1.7401895613082274,-1.3660239661840232,1.3757365617378658,1.101919397186995,nm,0.0
13.904695000000004,10.805740003770282,-25.42727020597725,135.91348635213896,2.0759399907829224,1.2708935690605525,1.4368992857733238,-1.3185939527118995,1.4129599966639446,1.1977098046528132,nm,0.0
13.914195000000007,20.534830722372376,-26.13772318771378,137.5100675054286,2.2854640952603615,1.2888020155703588,0.9216754405286489,-1.1806750876655447,1.3196768829910632,1.1614074385540245,nm,0.0
13.923531999999994,28.189901444078373,-26.96453606702971,139.05025509692408,2.726885645263494,1.4189712375071633,0.6089273073772112,-0.9160396543452367,1.0487875617688764,0.9872994084228565,nm,0.0
13.933054999999996,33.179410473987225,-27.653714672372505,140.39690369288743,2.2201393203909348,1.6445096232402252,-0.5221785867103385,-0.5917729636752238,0.6913954100723047,0.7215170492160842,nm,0.0
13.942559000000003,35.91002017507969,-27.935680573702044,141.61454024807855,1.765255622403388,1.4965542481107774,-0.737436680108859,-0.3447259238593306,0.3600902095149245,0.4921293592473091,nm,0.0
13.952074999999994,35.8309451332968,-27.62451376653062,142.7338244898124,1.3173135451755524,1.3176454587417856,-0.5540759287950613,-0.03163629725475403,-0.04606957226870718,0.2100668522289605,nm,0.0
13.961581999999993,32.95047132133256,-26.78335116781748,143.68309234195553,0.6570436804819784,1.1069312150091497,-0.5039023264110404,0.3057867847842901,-0.43013371381114335,-0.08016485272011181,nm,0.0
13.971283,28.189276169863586,-25.68904660936694,144.33135156047388,0.29120073394867463,0.6622854037624782,0.3139072400651338,0.5597203781828708,-0.6673881733524808,-0.297870579483996,nm,0.0
13.980788000000004,21.37902498291777,-24.51189265629182,144.5779819519649,-0.14108604053454585,-0.03376392163832168,1.3054567011117257,0.8654906379534107,-0.8965460348394622,-0.5345609435648154,nm,0.0
13.999803999999997,2.2587286979881522,-22.598627869457477,143.81819679791468,-1.2870686418050241,-1.2007330431108967,1.769205468956716,1.403626442510446,-1.1983234668922205,-0.8994654794952097,nm,0.0
14.009315,-8.071467539277224,-22.361090587629533,142.91263911932978,-2.1217108779142033,-2.35138343978651,1.9766544596981297,1.5073596389955677,-1.1646271188843225,-0.9723107840496499,nm,0.0
14.018641000000002,-18.914352403754624,-22.554010121707435,141.6146017552417,-2.50896076437362,-2.3962755628372894,0.6508357371143882,1.6136571265735007,-1.1840203383226804,-1.08690000217307,nm,0.0
14.028092000000001,-28.5807918210347,-23.336219309772986,140.09254148852432,-2.549405958634709,-2.30925289598109,-0.3959093712672712,1.4852725502034156,-0.9911876544407096,-1.0549574111391191,nm,0.0
14.037592000000004,-36.835071625936095,-24.697711917692267,138.54190551358275,-2.3286061436537007,-1.9764001202815533,-1.4391299982746362,1.3272943016830656,-0.7657402162870268,-0.9772071971969218,nm,0.0
14.047196,-43.712705901520934,-26.490114912066023,137.23645825711532,-1.4353236875925817,-0.77909599764326,-2.222135197477926,1.1672948631455649,-0.5558547394499734,-0.8490937096942185,nm,0.0
14.066086999999996,-48.95222026513243,-29.283966977434712,135.5053084663905,-0.6429349769875748,-0.08438890312077109,-2.331487106381089,0.3056407370416291,0.021725992707133414,-0.26486502685200924,nm,0.0
14.075692000000004,-47.79240312420836,-29.41613077631249,134.5984774891049,-0.051893179171840255,0.4311996421052792,-2.112524815838368,-0.1184379716116413,0.1718516172545428,-0.059878876761817586,nm,0.0
14.094628999999998,-36.98707520481025,-27.225823360626737,133.05595063519814,-0.18608621392578986,-0.0382075162617939,-0.9917099898315003,-0.9999231643726804,0.68083548867484,0.5007586824178648,nm,0.0
14.113825000000006,-18.663180267309095,-25.197343209289734,133.10420003235438,-0.09834212974322631,-0.273888700801171,1.2627845888402107,-1.3343174282143766,1.2295660963283022,0.9171433882925927,nm,0.0
14.132823000000002,2.1857420612994787,-24.498827506171434,134.38122009157917,1.2610672336655455,0.9384677452040869,2.0061056364597287,-1.356251073196254,1.3356218237733377,1.0224517511966638,nm,0.0
14.151973999999996,20.613140059589075,-25.102672582524836,136.7284155718173,2.0175538225886998,1.511043832138829,0.6585490875911735,-1.0473154464570475,1.1803432247603263,0.9675280201293459,nm,0.0
14.161299999999997,27.28661584524984,-25.919820743937233,137.99172316599436,2.2281118266701365,1.460393509778067,0.17551141124022407,-0.778515825532675,0.9500329290715418,0.8222802214050404,nm,0.0
14.170812999999995,31.36272400451437,-26.626674175622735,139.13139520353727,2.1912502460695684,1.439358466505539,-0.4625262231711193,-0.4579905073139617,0.6028598448370417,0.5830739980177222,nm,0.0
14.180336999999994,32.981524998054056,-27.002112876946182,140.0521068876962,1.7149156682178366,1.3260731265036063,-0.8993036708707068,-0.17497014790559037,0.2569724383581317,0.3241137663082985,nm,0.0
14.189858000000001,32.288249330830645,-26.817820356360638,140.8196594443032,1.4430600803924882,1.1218446840206633,-0.4786934604681093,0.06847549471830813,-0.09508483126977342,0.08444027280719923,nm,0.0
14.209035,24.04331517779015,-24.876919402722677,141.82644031539309,0.23787082729808162,0.45676073701959524,0.4027800389683321,0.5788712708658464,-0.7396547904720884,-0.36942406348188905,nm,0.0
14.228055000000012,8.351125171898383,-22.740463103718316,141.37023282323716,-0.929413505774914,-0.5438897262645802,1.6163089388354657,1.1480214022527833,-1.1459354701681355,-0.7867707244865981,nm,0.0
14.247085999999996,-10.180195907001062,-21.894400995257957,139.6048015949011,-2.0919855922562034,-1.9655179005250751,1.3215452216242025,1.3037515523931904,-1.1172202840158352,-0.8987618125215557,nm,0.0
14.256410999999986,-19.583194215555988,-22.185744574581374,138.33840005214503,-2.147760660718674,-1.780279129945522,0.11372108513845093,1.3588098581630632,-1.0883380601120578,-0.9578070866810383,nm,0.0
14.265854999999988,-27.473758844244664,-22.88135683899872,136.96936613924964,-2.145798895750598,-1.7329574017023253,-0.6038260014356592,1.1770783696039353,-0.8674301955156121,-0.8757353621304584,nm,0.0
14.275367999999986,-33.91308346316704,-23.879562921119447,135.61850156434912,-2.0244084895218766,-1.621728297855714,-1.2811729137144658,0.9988979886161126,-0.6612598798278975,-0.7770294866187211,nm,0.0
14.284875999999997,-38.97917724321393,-25.100052988067887,134.487788424771,-1.3910327037853316,-0.7774316328280032,-1.8452815811137862,0.8316850983234249,-0.4677987894201134,-0.6408187544644146,nm,0.0
14.294350000000009,-41.58676750835681,-26.20961231096694,133.64393510667395,-1.1278334304056834,-0.4972561019127438,-1.8376853853328685,0.4929642225437165,-0.1726103638288221,-0.3884605711607391,nm,0.0
14.30386999999999,-41.893649385022044,-26.86781133396497,132.86851418920227,-0.9575290349770624,-0.45306166480240523,-1.6197012931210866,0.139854505302067,0.061199480504960754,-0.17607768069260282,nm,0.0
14.31345300000001,-40.214089180271394,-27.029789259893334,132.16211047984302,-0.4267069607810836,-0.009628637213686227,-1.4396120839902158,-0.17236778978539424,0.2539166394965233,0.017315377248367302,nm,0.0
14.322868999999997,-36.07969154103994,-26.81026156234408,131.7291740540944,-0.3441049852235221,-0.03071864535748761,-1.0206311736361127,-0.5197673736661634,0.5311040019559222,0.2936826293500375,nm,0.0
14.332575999999989,-30.057318771351348,-26.257446981060987,131.5011829763387,-0.35636068094781376,-0.20142803922687144,-0.38319456553332315,-0.7930792179142061,0.7452196621396283,0.49740349957862284,nm,0.0
14.361097000000001,-6.852324669899424,-24.467423340790617,131.736368437235,0.6491480209217135,0.24211506463134091,1.0830587564111473,-0.9808456949779544,1.0224168473122457,0.6900018535829507,nm,0.0
14.370616000000012,0.5359330295496155,-24.12462011351701,132.0661196003972,1.0669777002836227,0.6671195005138587,1.0131681652668785,-0.9481885935379399,0.9715166482472278,0.6727080456033498,nm,0.0
14.418273999999997,18.122406176105425,-23.30169549447043,135.54038046501935,1.2888639529341503,0.9529400596331059,-0.0715844268109643,-0.059578939782581664,0.01940923117314334,0.18933383613740562,nm,0.0
14.446797000000004,12.091214705963303,-22.147216962540295,137.3386199731447,0.3531516305610237,0.2595431105218987,0.35789000336197496,0.33150729862355127,-0.44598114231192704,-0.15097141906174918,nm,0.0
14.456303999999989,8.701639135115506,-21.52562730225604,137.54872254279894,0.0641882052146299,0.003542038719508073,0.3049161257671692,0.3810822589386,-0.504117922526591,-0.2142094009592067,nm,0.0
14.47536199999999,1.4403327512278186,-20.685673020734672,137.5679512448002,-0.3668013268173818,-0.02622893980050664,-0.056663284923309104,0.4422520407741671,-0.4891100143989199,-0.25785419604276605,nm,0.0
14.484847000000002,-1.5480368368791022,-20.346377000012744,137.63911201080987,-0.574537876264253,-0.3492001213224482,0.14993789501759439,0.37046777432052036,-0.4141934006623894,-0.19753488383193976,nm,0.0
14.494370000000004,-4.434578028507983,-20.073034215949647,137.80753842189787,-0.6542045795204455,-0.28982371323541584,-0.1793542843180594,0.36717156506865484,-0.3915084941626958,-0.16749388755809347,nm,0.0
