timestamp,roll,pitch,yaw,acc_x,acc_y,acc_z,gyro_x,gyro_y,gyro_z,markers,motor_input
14.009315,-8.071467539277224,-22.361090587629533,142.91263911932978,-2.1217108779142033,-2.35138343978651,1.9766544596981297,1.5073596389955677,-1.1646271188843225,-0.9723107840496499,nm,0.0
14.018641000000002,-18.914352403754624,-22.554010121707435,141.6146017552417,-2.50896076437362,-2.3962755628372894,0.6508357371143882,1.6136571265735007,-1.1840203383226804,-1.08690000217307,nm,0.0
14.028092000000001,-28.5807918210347,-23.336219309772986,140.09254148852432,-2.549405958634709,-2.30925289598109,-0.3959093712672712,1.4852725502034156,-0.9911876544407096,-1.0549574111391191,nm,0.0
14.037592000000004,-36.835071625936095,-24.697711917692267,138.54190551358275,-2.3286061436537007,-1.9764001202815533,-1.4391299982746362,1.3272943016830656,-0.7657402162870268,-0.9772071971969218,nm,0.0
14.047196,-43.712705901520934,-26.490114912066023,137.23645825711532,-1.4353236875925817,-0.77909599764326,-2.222135197477926,1.1672948631455649,-0.5558547394499734,-0.8490937096942185,nm,0.0
14.066086999999996,-48.95222026513243,-29.283966977434712,135.5053084663905,-0.6429349769875748,-0.08438890312077109,-2.331487106381089,0.3056407370416291,0.021725992707133414,-0.26486502685200924,nm,0.0
14.075692000000004,-47.79240312420836,-29.41613077631249,134.5984774891049,-0.051893179171840255,0.4311996421052792,-2.112524815838368,-0.1184379716116413,0.1718516172545428,-0.059878876761817586,nm,0.0
14.094628999999998,-36.98707520481025,-27.225823360626737,133.05595063519814,-0.18608621392578986,-0.0382075162617939,-0.9917099898315003,-0.9999231643726804,0.68083548867484,0.5007586824178648,nm,0.0
14.113825000000006,-18.663180267309095,-25.197343209289734,133.10420003235438,-0.09834212974322631,-0.273888700801171,1.2627845888402107,-1.3343174282143766,1.2295660963283022,0.9171433882925927,nm,0.0
14.132823000000002,2.1857420612994787,-24.498827506171434,134.38122009157917,1.2610672336655455,0.9384677452040869,2.0061056364597287,-1.356251073196254,1.3356218237733377,1.0224517511966638,nm,0.0
14.151973999999996,20.613140059589075,-25.102672582524836,136.7284155718173,2.0175538225886998,1.511043832138829,0.6585490875911735,-1.0473154464570475,1.1803432247603263,0.9675280201293459,nm,0.0
14.161299999999997,27.28661584524984,-25.919820743937233,137.99172316599436,2.2281118266701365,1.460393509778067,0.17551141124022407,-0.778515825532675,0.9500329290715418,0.8222802214050404,nm,0.0
14.170812999999995,31.36272400451437,-26.626674175622735,139.13139520353727,2.1912502460695684,1.439358466505539,-0.4625262231711193,-0.4579905073139617,0.6028598448370417,0.5830739980177222,nm,0.0
14.180336999999994,32.981524998054056,-27.002112876946182,140.0521068876962,1.7149156682178366,1.3260731265036063,-0.8993036708707068,-0.17497014790559037,0.2569724383581317,0.3241137663082985,nm,0.0
14.189858000000001,32.288249330830645,-26.817820356360638,140.8196594443032,1.4430600803924882,1.1218446840206633,-0.4786934604681093,0.06847549471830813,-0.09508483126977342,0.08444027280719923,nm,0.0
14.209035,24.04331517779015,-24.876919402722677,141.82644031539309,0.23787082729808162,0.45676073701959524,0.4027800389683321,0.5788712708658464,-0.7396547904720884,-0.36942406348188905,nm,0.0
14.228055000000012,8.351125171898383,-22.740463103718316,141.37023282323716,-0.929413505774914,-0.5438897262645802,1.6163089388354657,1.1480214022527833,-1.1459354701681355,-0.7867707244865981,nm,0.0
14.247085999999996,-10.180195907001062,-21.894400995257957,139.6048015949011,-2.0919855922562034,-1.9655179005250751,1.3215452216242025,1.3037515523931904,-1.1172202840158352,-0.8987618125215557,nm,0.0
14.256410999999986,-19.583194215555988,-22.185744574581374,138.33840005214503,-2.147760660718674,-1.780279129945522,0.11372108513845093,1.3588098581630632,-1.0883380601120578,-0.9578070866810383,nm,0.0
14.265854999999988,-27.473758844244664,-22.88135683899872,136.96936613924964,-2.145798895750598,-1.7329574017023253,-0.6038260014356592,1.1770783696039353,-0.8674301955156121,-0.8757353621304584,nm,0.0
14.275367999999986,-33.91308346316704,-23.879562921119447,135.61850156434912,-2.0244084895218766,-1.621728297855714,-1.2811729137144658,0.9988979886161126,-0.6612598798278975,-0.7770294866187211,nm,0.0
14.284875999999997,-38.97917724321393,-25.100052988067887,134.487788424771,-1.3910327037853316,-0.7774316328280032,-1.8452815811137862,0.8316850983234249,-0.4677987894201134,-0.6408187544644146,nm,0.0
14.294350000000009,-41.58676750835681,-26.20961231096694,133.64393510667395,-1.1278334304056834,-0.4972561019127438,-1.8376853853328685,0.4929642225437165,-0.1726103638288221,-0.3884605711607391,nm,0.0
14.30386999999999,-41.893649385022044,-26.86781133396497,132.86851418920227,-0.9575290349770624,-0.45306166480240523,-1.6197012931210866,0.139854505302067,0.061199480504960754,-0.17607768069260282,nm,0.0
14.31345300000001,-40.214089180271394,-27.029789259893334,132.16211047984302,-0.4267069607810836,-0.009628637213686227,-1.4396120839902158,-0.17236778978539424,0.2539166394965233,0.017315377248367302,nm,0.0
14.322868999999997,-36.07969154103994,-26.81026156234408,131.7291740540944,-0.3441049852235221,-0.03071864535748761,-1.0206311736361127,-0.5197673736661634,0.5311040019559222,0.2936826293500375,nm,0.0
14.332575999999989,-30.057318771351348,-26.257446981060987,131.5011829763387,-0.35636068094781376,-0.20142803922687144,-0.38319456553332315,-0.7930792179142061,0.7452196621396283,0.49740349957862284,nm,0.0
14.361097000000001,-6.852324669899424,-24.467423340790617,131.736368437235,0.6491480209217135,0.24211506463134091,1.0830587564111473,-0.9808456949779544,1.0224168473122457,0.6900018535829507,nm,0.0
14.370616000000012,0.5359330295496155,-24.12462011351701,132.0661196003972,1.0669777002836227,0.6671195005138587,1.0131681652668785,-0.9481885935379399,0.9715166482472278,0.6727080456033498,nm,0.0
14.418273999999997,18.122406176105425,-23.30169549447043,135.54038046501935,1.2888639529341503,0.9529400596331059,-0.0715844268109643,-0.059578939782581664,0.01940923117314334,0.18933383613740562,nm,0.0
14.446797000000004,12.091214705963303,-22.147216962540295,137.3386199731447,0.3531516305610237,0.2595431105218987,0.35789000336197496,0.33150729862355127,-0.44598114231192704,-0.15097141906174918,nm,0.0
14.456303999999989,8.701639135115506,-21.52562730225604,137.54872254279894,0.0641882052146299,0.003542038719508073,0.3049161257671692,0.3810822589386,-0.504117922526591,-0.2142094009592067,nm,0.0
14.47536199999999,1.4403327512278186,-20.685673020734672,137.5679512448002,-0.3668013268173818,-0.02622893980050664,-0.056663284923309104,0.4422520407741671,-0.4891100143989199,-0.25785419604276605,nm,0.0
14.484847000000002,-1.5480368368791022,-20.346377000012744,137.63911201080987,-0.574537876264253,-0.3492001213224482,0.14993789501759439,0.37046777432052036,-0.4141934006623894,-0.19753488383193976,nm,0.0
14.494370000000004,-4.434578028507983,-20.073034215949647,137.80753842189787,-0.6542045795204455,-0.28982371323541584,-0.1793542843180594,0.36717156506865484,-0.3915084941626958,-0.16749388755809347,nm,0.0
14.513374999999996,-8.184413789167284,-19.831631495117666,138.54538023688872,-0.7109514829526787,-0.41001444864497444,-0.17717709037094523,0.19606213167405132,-0.18459386947650164,-0.015956711273564562,nm,0.0
14.522890999999987,-9.22337144502221,-19.737164328354137,138.9633297212647,-0.6074305239490627,-0.31460003970266576,-0.3481719950140752,0.1375421370727926,-0.12937637612657676,0.01264025394783436,nm,0.0
14.532398,-9.657438304567092,-19.740125180726942,139.33271940013424,-0.4531707854045772,-0.26551636334136935,-0.3611336137925006,0.06504077611743629,-0.039141750070160145,0.04407240830222787,nm,0.0
14.560982999999993,-8.735208615647183,-20.104816630207075,139.8904916482061,-0.02305722614721627,-0.11194367656553458,0.013322958001075582,-0.06388738015359212,0.09383106815491248,0.05679101369873463,nm,0.0
14.570463999999987,-8.184280453574878,-20.196443286956004,139.9814329234629,0.02255679577798643,-0.09597052880639118,0.103706400423988,-0.0649743008293611,0.09466596251188707,0.055444083069117855,nm,0.0
14.579983999999996,-7.8630194155535555,-20.255076237082747,140.0974170933928,0.0739128195393447,-0.0327087367845537,0.12592703190676993,-0.036307555147964785,0.06173983602610459,0.04463674140283175,nm,0.0
14.598973,-7.581709587973933,-20.072498633703184,140.41058133271005,0.0532317807641232,-0.137979224359306,0.18956667410863473,0.0,0.0,0.0,nm,0.0
14.60849300000001,-7.834098934009087,-19.905789256160503,140.49706546889885,0.04413406130625202,-0.05382190390879282,0.0792692651557596,0.0,0.0,0.0,nm,0.0
14.618062000000009,-8.107694650927979,-19.7414276982195,140.47018685478878,0.010878464271326035,-0.020806422997921556,0.060282237000912425,0.02117444349989949,-0.044202659544223775,-0.024796861840689802,nm,0.0
14.627521000000002,-8.370459620339906,-19.58704882376711,140.2962212497746,-0.05275108004292033,-0.13582028467520377,0.1297815644673518,0.020881952184230976,-0.04143713837760718,-0.053336755990916106,nm,0.0
14.646547999999996,-8.893237053340885,-19.4948688385969,140.14233837246226,-0.13786634551172325,-0.13141844073599543,0.0962555047123789,0.04319090653910149,-0.024886408382824327,-0.09564095365549098,nm,0.0
14.656126999999998,-9.140092654875806,-19.584470105173878,139.95753319181037,-0.13108629921363976,-0.06722654743618611,0.05793766269740845,0.06376135193324259,-0.029544474687718945,-0.10191205019547571,nm,0.0
14.66562300000001,-9.411131097732065,-19.768734958882536,139.82724047575772,-0.10474278699112627,0.05203435649315283,-0.09123256634557303,0.052746003162633746,-0.01610522437782213,-0.0795456617861035,nm,0.0
14.675142999999991,-9.160212932279485,-19.86685020109855,139.76674362968473,-0.16110110298477232,-0.13544254284863144,0.05472514171737251,0.0,0.0,0.0,nm,0.0
14.684642999999994,-8.958286338867678,-19.977411371589998,139.77442920313135,-0.15755067327977315,-0.1319920650249108,0.02616052791672928,0.0,0.0,0.0,nm,0.0
14.694151000000005,-8.703593424659523,-20.106561975616742,139.77548599726578,-0.12285497503779853,-0.06784034242515823,-0.050707149489112396,0.0,0.0,0.0,nm,0.0
14.713181999999989,-7.570258702520599,-20.27214085329049,139.71238252528195,-0.07264282839049234,-0.07810717731125302,-0.013283808953442774,-0.03976581594853254,0.0800992727780192,-0.006632261495758291,nm,0.0
14.732197000000014,-6.241100993171787,-20.48971428132638,139.25887142662364,0.054229191616982635,-0.05927173625166345,0.06308197764443978,-0.07400273714832267,0.12349317990750784,-0.014039573557237856,nm,0.0
14.741708999999986,-5.697997111793909,-20.593765813157283,139.1600508970899,0.10810913336860074,0.05354995764066053,0.04419611169207166,-0.07251379143989367,0.1190691875843402,-0.0183852064787486,nm,0.0
14.751229999999993,-5.1334414137730695,-20.663049955453193,139.24028457908628,0.11775813251383384,0.12817134362296354,0.01462312595179355,-0.09675438830991467,0.11963003932732544,-0.00045826727256209794,nm,0.0
14.760673999999995,-4.250781483422112,-20.67983760852016,139.28441134242718,0.09140292105584807,0.028969287910456994,0.13347590679505353,-0.12105507288387975,0.12417057131602373,0.025999329485148655,nm,0.0
14.779766999999993,-3.456635332848491,-20.783035464544987,139.79591884875083,0.1155957628159159,0.1968511633073474,-0.004121246916526804,-0.052125849966919685,0.07011194658703304,0.013156443333566085,nm,0.0
14.798719000000006,-2.704940299717328,-20.858673841450816,140.11631721259224,0.10926105569616062,0.056885787657584,0.1243037750359444,-0.03251842785989446,0.052342081214596874,-0.0042744590588117415,nm,0.0
14.808301,-2.8761456331628366,-20.907042304443713,140.35358841477506,0.11101754868865264,0.12919050815046146,0.00799313087399103,0.0,0.0,0.0,nm,0.0
14.817791999999997,-2.9864636269748916,-20.921365078002935,140.6020430774333,0.08187169874018851,0.049590983241361075,0.08316017536801519,0.01085195135991219,0.021696516338986924,-0.048038669507681854,nm,0.0
14.827307999999988,-3.2329977423106695,-20.919248644198586,140.82484144561053,0.05017266371273796,0.031201975030685006,0.05018915516771807,0.033147671020414105,-0.001714085638514427,-0.0657660519372999,nm,0.0
14.846332999999987,-3.8021988070588835,-20.91928829772815,141.3155993042108,-0.023170631378149856,-0.027570923985739206,-0.00223506360665563,0.0424151307095054,-0.01820188156408728,-0.05601181269779335,nm,0.0
14.855848000000009,-4.067801607496124,-20.879603097597546,141.61920073694048,-0.048135862097343905,-0.05770742199446919,-0.004991672171967829,0.049302155962180606,-0.032846791339350645,-0.04745492716398827,nm,0.0
14.865350000000007,-4.490587911105998,-20.842373951594116,142.03803262055482,-0.015440188135453094,0.01867024361645133,-0.06214196577478365,0.05856773733464892,-0.048614138222505765,-0.041312898073453085,nm,0.0
14.874855999999994,-4.786405026771491,-20.809346198192987,142.51537009105877,-0.021765048523344335,0.026636234719286972,-0.0880944065948963,0.03732219237059697,-0.033557789902426145,-0.02022571123203336,nm,0.0
14.884366,-4.79691607009065,-20.712135407754623,142.97727256600788,-0.056503534954284645,-0.09634863165229753,0.034123178632171666,0.0,0.0,0.0,nm,0.0
14.893888000000004,-4.879687724556357,-20.641307829958606,143.3765102570408,-0.04863272506789649,-0.06147527797813585,-0.006259624888048723,0.0,0.0,0.0,nm,0.0
14.903397000000012,-4.881310139933369,-20.594498586290044,143.68584232686237,-0.04613598991676547,-0.03627365898181285,-0.04176496523680989,0.0,0.0,0.0,nm,0.0
14.91291000000001,-4.745729236926118,-20.545820924674867,143.9301858958464,-0.04802416211207379,-0.0620493297520591,-0.006096958614455486,0.0,0.0,0.0,nm,0.0
14.922414000000003,-4.657699727425716,-20.535089380015158,144.1534122000589,-0.03846414423568479,-0.01141923173176217,0.006409019707034414,0.0,0.0,0.0,nm,0.0
14.941448000000008,-4.369827197306659,-20.485685118948506,144.7029362864303,0.01228146281812708,-0.013456607471698714,0.047642319203350235,0.0,0.0,0.0,nm,0.0
14.950939000000005,-4.292299847082958,-20.42998215126299,145.01752998180618,0.0,0.0,0.0,0.0,0.0,0.0,nm,0.0
14.969977,-4.149480332050633,-20.26806416249557,145.70395476439109,0.052140755224036314,-0.0053225288341847005,0.021308420642182253,0.0,0.0,0.0,nm,0.0
14.979487000000006,-4.141789526401452,-20.21000667626931,146.07774957996298,0.02787589493549233,0.023948952036619543,0.026529364231893466,0.0,0.0,0.0,nm,0.0
14.988979999999998,-4.131642539360334,-20.15787939171595,146.45949549310976,0.02725273480296472,0.011508576118115288,0.04455600374260878,0.0,0.0,0.0,nm,0.0
14.998498000000012,-4.163278571420565,-20.12919937842414,146.77637742572205,0.016973341234412218,0.02455050767769732,0.0020392263462075534,0.0,0.0,0.0,nm,0.0
