timestamp,roll,pitch,yaw,acc_x,acc_y,acc_z,gyro_x,gyro_y,gyro_z,markers,motor_input
32.003321,2.369085266058162,-20.578234014655656,160.10088940178338,-0.1395086848228,0.10237834254814536,0.4667121103849381,0.0,0.0,0.0,nm,0.0
32.02233799999999,2.3909817188328963,-20.023060810316682,160.0347602612931,-0.3948967022650805,0.1679223433705723,0.7422443320919263,-0.027383752100633936,-0.048940119561139,-0.003759468320328251,nm,0.0
32.03185500000001,2.4742896877149363,-19.658757769342316,159.99926407903308,-0.5886113216467784,0.24152103845707257,0.8569578122694671,-0.04309417548647081,-0.04972181773270152,-0.004365709233452348,nm,0.0
32.05087599999999,3.137657703290921,-19.185968408888026,159.54154924873927,-0.8987467388378134,0.36948328026201677,0.9568276418401512,-0.08799608917804265,0.011139009879538765,-0.037721590769022685,nm,0.0
32.06039100000001,3.6398804974085874,-19.334967854342434,159.07006947767485,-0.9329978560040927,0.4587390520012825,0.9773234229548369,-0.08155975104025164,0.07490270108926332,-0.06439702267873647,nm,0.0
32.06990099999999,4.250751167255433,-19.847623587277514,158.56844063695183,-0.8542132691976014,0.5044097418673454,0.8175899888071755,-0.07372963910263142,0.15074336717538553,-0.08020540148235554,nm,0.0
32.079407,4.945908679336248,-20.779848713462147,158.04894286637813,-0.5832377726067459,0.44672747741331303,0.8625366632807244,-0.055848531892271625,0.23507289261431677,-0.08868536083760818,nm,0.0
32.10793699999999,6.800638105728043,-25.18060031701644,156.38001411737216,0.34936342173297097,0.1659722370756526,0.5393906514147975,0.025469847376105855,0.3529750522597759,-0.11683898678175325,nm,0.0
32.117447999999996,7.253250104443096,-26.885607165934356,155.8665181256247,0.5824441316329724,0.07194640018939545,0.22548867920044374,0.0592842400457524,0.3589088066577828,-0.14206385357129983,nm,0.0
32.136481,8.031869435653503,-30.394906469557146,154.89013843937516,0.8014304644667302,-0.09942952660059089,-0.40427129578420046,0.08338216155268655,0.35883613008046406,-0.1695898428183247,nm,0.0
32.145816999999994,8.323461164442795,-32.22658463606131,154.4438207132435,0.8900721709900715,-0.18246566318964802,-0.7279301818383538,0.1067194582734456,0.36708585068084054,-0.18017888504269916,nm,0.0
32.16481300000001,8.459936759905666,-36.08516189285149,153.92964511126593,1.076329699812114,-0.4131582883714046,-1.3217774674611256,0.1699344462230048,0.3593739489916126,-0.18663976661939094,nm,0.0
32.17433600000001,8.209470004253994,-37.904453072259166,153.96233082711183,1.1521732234043263,-0.47122816009086,-1.5793451532471197,0.1906437862424442,0.32473503680174937,-0.17582337859050065,nm,0.0
32.183921999999995,7.867220563991978,-39.54316065903755,154.2474730240861,1.177617042699594,-0.5319800689448239,-1.7521954299524813,0.18623971056147234,0.2868904745645237,-0.13928317170674584,nm,0.0
32.193444,7.45052127385501,-40.88283629739109,154.8406218338345,1.0705381986994154,-0.5289798958049491,-1.8399224666063856,0.16790767157340847,0.22978116820753758,-0.09301003952416456,nm,0.0
32.212469999999996,6.589350151210184,-42.09687891971058,156.934432740783,0.5832726526756,-0.4257648918893924,-1.8404370515906234,0.0793049943344059,0.053387620362347614,-0.00022303029379990602,nm,0.0
32.221970999999996,6.219041450949509,-41.99704118597061,158.13769734932913,0.3441311890458487,-0.35711528863044223,-1.598973235109669,0.0,0.0,0.0,nm,0.0
32.24091100000001,5.667127707697214,-40.476850225304254,160.32497061046774,-0.045269750140725803,-0.20271287602255422,-0.8907757876050933,-0.03821464174842437,-0.18628643809038908,0.001569610565877104,nm,0.0
32.250607,5.504888758421578,-38.96582111126197,161.26749163301352,-0.2904827400907414,-0.07646379336910472,-0.5160207596066858,-0.07842129057546184,-0.2811263121511529,-0.002654391061322768,nm,0.0
32.260132999999996,5.517089787113164,-36.95067155305632,162.1883104654664,-0.5977228633103796,0.0870663920740269,-0.03976982885897964,-0.1304567002500605,-0.37018730048352216,0.019995243733777354,nm,0.0
32.26963699999999,5.782143505141433,-34.513060470913004,163.12867728810602,-0.9853143670160617,0.24696584237245023,0.5371649683318013,-0.18865894424541527,-0.4411390091704792,0.06448597672955873,nm,0.0
32.27911499999999,6.217288336085335,-31.783551398848775,164.18872683224427,-1.5935134499114352,0.4697095550323139,1.2210485031177678,-0.22576203664282535,-0.49238611917807124,0.10650661667372971,nm,0.0
32.298158,6.885658270460989,-27.36906475613052,166.47963527667295,-2.527878648795386,0.5462564322403993,1.7325865696888065,-0.1305211360129812,-0.3235909619963373,0.12559754420215327,nm,0.0
32.31716700000001,7.3770389460111625,-26.25395395755226,167.8944323683429,-1.4105519887540063,0.2780059523797984,1.4729230671764244,-0.07342354119938407,-0.024739933369196214,0.05983640416040905,nm,0.0
32.326674,8.050624288323492,-26.398761991491305,168.16114135729234,-0.30372000265096044,-0.08679597673824163,1.6116441470773293,-0.11855307860331413,0.06560225345215728,0.051969033105094625,nm,0.0
32.33618799999999,8.426604854540976,-26.93648970097217,168.2368937720024,0.3326641841025674,-0.044361467930432885,1.3752276354530435,-0.050363161739668205,0.13146632144530743,-0.006842489551455362,nm,0.0
32.35520600000001,10.064552662846483,-28.32055438782754,168.22015078340442,1.4621498912426023,-0.2548373258249459,0.6142478811631098,-0.15080069000600513,0.1921462718106283,0.029320398958628265,nm,0.0
32.364721,10.778906330980313,-29.305813919307766,168.08589197392783,1.6171465486546295,-0.15439050703505997,-0.054039146096079724,-0.08938170846696585,0.23080614525144894,-0.02620798956548112,nm,0.0
32.37405899999999,11.484314078730174,-30.56904607207684,167.81868077580424,1.673895678419367,-0.06760796547700974,-0.24825478290698683,-0.07435329655131374,0.28493945366106915,-0.049577773476271146,nm,0.0
32.38357400000001,12.036763852878499,-31.902701449534288,167.55865538214886,1.6765957980663486,-0.05082043102358711,-0.3585896699645048,-0.0430856275181731,0.2931594108054077,-0.06744700551605383,nm,0.0
32.39307600000001,12.102092843988332,-33.345003998205925,167.40244518519302,1.4640776321424402,0.03863680222715811,-0.8749347569548647,0.044155492473379326,0.29671156195221204,-0.09927032476147779,nm,0.0
32.412093999999996,10.980480287690131,-37.03865473967236,167.96435667152784,1.142020994104282,0.033227424212282586,-1.2746536894254206,0.20311640154776892,0.36065759748613024,-0.07816441616909635,nm,0.0
32.42170300000001,9.582351779200605,-38.839779728136875,168.96093149319034,0.9002485913266901,0.025649150482224593,-1.575172859236111,0.28034517484650806,0.3225709546120234,-0.058305349230016235,nm,0.0
32.43121500000001,7.834428481930516,-40.416159355315095,170.41643281211887,0.7324146041909578,-0.07464800635286138,-1.7497080380904984,0.3135297728922595,0.2759280835143177,-0.028737093536184657,nm,0.0
32.440721999999994,5.792181675684743,-41.640200693357414,172.10437682977448,0.4783528974834719,-0.14941994251431687,-1.8942606386549758,0.334082409291338,0.20918983973771324,-0.03548906310852612,nm,0.0
32.46922599999999,0.9271281413298632,-41.19675144033801,176.13006430211112,0.16039107384739035,-0.18876186220728716,-1.5799600235625004,0.14972320927005323,-0.17907234886402879,-0.09751447264348365,nm,0.0
32.478757,0.6216988207132741,-39.418007079006124,176.62038954517956,-0.08074929461257449,-0.10565097592888835,-1.105593839036517,0.01884997789411836,-0.34616734304602986,-0.08362676107027603,nm,0.0
32.49787699999999,1.9331231099565997,-33.10310026368398,176.8459505382048,-0.8658245462134934,0.04771058686770435,0.5653470634799604,-0.18055868624091254,-0.688654446441333,-0.03739848217177176,nm,0.0
32.507374,2.7206917305256297,-29.308108166604974,176.91608305024292,-1.7524597977001786,0.12648000935639814,1.7588046894264941,-0.17925789273676465,-0.7405791198026905,-0.039677436600645585,nm,0.0
32.526397,2.6003137065561392,-23.119305037141917,177.3324209985558,-3.295217937170732,0.05130979446368539,2.107662537500076,0.03768059578220099,-0.495395999356672,-0.055653714597574816,nm,0.0
32.535909000000004,2.064819286492337,-21.951793604470094,177.48374757497973,-2.495164685297865,-0.27204177598001256,1.9435177735463414,0.08134748935641227,-0.2260237959853208,-0.048527094395700424,nm,0.0
32.545424999999994,1.9352315059363359,-21.54253904946445,177.32064424205504,-1.725014688362514,-0.10745596592860142,1.651557807679317,0.013068337792606056,-0.07105506629723198,-0.052493471164300094,nm,0.0
32.554934,2.486196586923307,-21.546779444847925,177.03449008055858,-0.500603032288653,-0.5707931576201665,2.1064151704279492,-0.10975355024793097,0.017846199911857607,-0.005671672727471885,nm,0.0
32.56444300000001,2.5384059397374994,-22.180689298887785,176.750816514691,0.025539785416158263,-0.37414357102275875,1.530344217821243,-0.01001343758764283,0.13919363610618338,-0.04210760606446867,nm,0.0
32.57396299999999,3.129445684953502,-23.343915032389752,176.54241480619478,0.5564740397224462,-0.21225812274120878,1.3167114069987962,-0.1025894400139953,0.2508326095820501,0.008425132269636822,nm,0.0
32.58337499999999,4.4346468192416015,-24.6738708787998,176.40424075180195,1.1474782453022443,-0.4004018224121087,1.2966794682497447,-0.22939688046893505,0.2922778455248048,0.07610633912234897,nm,0.0
32.60248200000001,6.867225703990183,-28.51201388991207,176.06436190629674,1.6780178257359792,0.13062966527801995,0.26885083790514636,-0.21953803987699214,0.4690549432305735,0.07790916192036113,nm,0.0
32.611811999999986,8.378292597062217,-31.05392501810536,176.02654771169097,1.9752194503262555,0.19423157820584955,-0.056430416109971425,-0.23559639529494697,0.537068681372959,0.11298321686566255,nm,0.0
32.62133,9.566056322792466,-33.56204945622394,176.2247049764719,1.9971932201597977,0.40609333192266894,-1.0956563481818373,-0.17591366187561147,0.5256691296170274,0.12258569906426948,nm,0.0
32.64034699999999,11.353769462763445,-38.06871119269182,177.8181884122004,1.9426809044335305,0.2978021889778379,-1.562430422370913,-0.07911091104666937,0.4254114831533095,0.21567568339160229,nm,0.0
32.649936999999994,10.693888532766668,-39.28680349106897,179.33816721406757,1.0516308893779276,0.46027729614740714,-2.1543052645347474,0.09935401583521783,0.2522561639118583,0.16584736510681278,nm,0.0
32.65944999999999,9.727841483993673,-39.739282710021364,-178.98214818002893,0.5996555884561706,0.32580633189696895,-2.0463687360549674,0.13949144294330457,0.10161968956676029,0.21202635584893406,nm,0.0
32.668960999999996,8.196511492538642,-39.6772340460076,-177.19520839977474,0.2025873096115482,0.13755962761592228,-1.7180193030435804,0.22656670629719927,0.005884257727886349,0.16087427703106685,nm,0.0
32.678461,6.2240175983322885,-39.09024710483601,-175.56478786092723,-0.46994942761796793,0.1962600424812435,-1.6777452452802792,0.3024201956774961,-0.0876295243006681,0.07501633062811618,nm,0.0
32.70693,3.0327834961209,-33.87956022926187,-172.92261764618715,-1.2808119483936662,-0.05485652204497377,-0.4528730605197565,0.14713757235026503,-0.40724733444605704,-0.07356212117051245,nm,0.0
32.71661399999999,3.093925872998541,-31.404294195603523,-173.45650868746023,-1.5846753464580583,-0.20346592667342367,0.5080771589517071,0.038984116750186024,-0.48298352448830967,-0.10163054345856319,nm,0.0
32.72611900000001,3.1488831330361866,-28.629280986608226,-174.35496003420758,-2.3914278147800925,-0.29148454215767167,1.0312280699237835,0.040200725808520625,-0.5430014784057968,-0.17610406826690977,nm,0.0
32.745135000000005,2.417958445317267,-24.88025361099801,-176.4807486868141,-2.9725941563808282,-0.37135647353486073,1.7152421866975829,0.10478559439139772,-0.26477502693198324,-0.2604674133790834,nm,0.0
32.75465399999999,1.7046447039083625,-23.98464790897238,-177.56326150650352,-2.2470264972041742,-0.40519018569624493,1.5234585869943034,0.13076089819981504,-0.1611281639564245,-0.27796431313884556,nm,0.0
32.76416599999999,1.3343093016599685,-23.51286080375605,-178.71216515118158,-1.4889967945114377,-0.3581913455325197,1.466703815699794,0.062758148347535,-0.08080234593484675,-0.26204172038656653,nm,0.0
32.77368000000001,1.2006668005363708,-23.495530930535296,-179.73339100218107,-0.3864007878082542,-0.6537962574125293,2.006921748093197,0.01664599872644653,0.0084340681769904,-0.21726876046577048,nm,0.0
32.783184000000006,0.6915986069903465,-23.71644668339874,179.51416080976006,0.3214431360905738,-0.4421521963281292,1.6449652174557008,0.08573619513642061,0.05577692728943929,-0.19348285242297594,nm,0.0
32.79269400000001,0.9589193894849314,-24.063582864193297,179.19994799577458,1.0205173370965526,-0.3732560493017942,1.4163076620053947,-0.055925887954211745,0.08177030887196847,-0.0552440997959443,nm,0.0
32.82122899999999,5.461342391187611,-26.999897438871876,179.7587705499721,1.8026191192368388,0.167049035770279,0.2526713640608975,-0.37117331367285183,0.31233571875506544,0.21802941803126005,nm,0.0
32.83074500000001,7.9660016641546,-28.864009892625308,-179.8474425537418,1.7315916802074254,0.3315208057692974,0.09126683468803289,-0.45199160849946324,0.3839812674285917,0.286111386531921,nm,0.0
32.859094999999996,14.427308833117067,-35.88053735818817,-178.06227771191624,1.3452359929265982,0.760211148107242,-1.4314654425431392,-0.2687833166450598,0.5022353534041898,0.3145226243132771,nm,0.0
32.86867699999999,15.232548996869838,-38.17791121451742,-177.08891145497728,1.1273726719889694,0.8175450971569344,-2.1622160327127524,-0.1584260461674459,0.46369940219094363,0.2897831978159694,nm,0.0
32.878196,15.567619060091824,-39.993797962378764,-175.94538589585937,1.2065027989433208,0.6853080872491175,-2.2852684221184463,-0.08471107316600275,0.36904887563668126,0.2693126465398233,nm,0.0
32.887696000000005,14.936891266387684,-41.00329687149701,-174.8018623762235,0.8501238058651449,0.6555321092799222,-2.5288756283688967,0.06864148773779845,0.21835754218672565,0.14524645432350722,nm,0.0
32.89720600000001,13.801563721463065,-41.03570491952263,-173.7458957982543,0.41834032835287777,0.6121615798373511,-2.5135825250102872,0.15918955394128337,0.03265025393720081,0.060684895255725894,nm,0.0
32.90673699999999,12.508046321987797,-40.11579405456743,-172.88528862980436,0.21066675474549515,0.4438614216867896,-2.0197269283542503,0.20603138277043448,-0.150949233663942,0.0023146597315068145,nm,0.0
32.935351999999995,7.77883378912929,-32.495088442199,-172.39290844037427,-1.021275548053297,-0.0206578864092074,0.18683392766471132,0.3305036165422029,-0.5985763494171216,-0.21842436110815222,nm,0.0
32.94485900000001,6.064280802683446,-28.879991078957836,-173.01062466367313,-1.668819164249585,-0.18818968971023817,1.1012677852729502,0.3750532076379184,-0.6704819087346132,-0.30111726197552985,nm,0.0
32.97340700000001,-0.23637407997248816,-20.73968049382074,-177.615338874652,-2.587470145636468,-0.9573965395896613,2.087206511694102,0.3676069805566244,-0.296903754448645,-0.537097487457233,nm,0.0
32.98289600000001,-1.7570675005066627,-19.967224121378205,-179.74404407192537,-2.140102084157762,-0.590118050976929,1.7781661651785212,0.28143093686056325,-0.13624219849648214,-0.5340997682808255,nm,0.0
32.992422000000005,-2.4001185043968305,-19.905858356497134,178.77770524903707,-0.9537566160535896,-0.8318540978911276,2.373789402852389,0.11371862320279827,-0.0012468441086608269,-0.34178818439108183,nm,0.0
