timestamp,roll,pitch,yaw,acc_x,acc_y,acc_z,gyro_x,gyro_y,gyro_z,markers,motor_input
3.5187739999999934,-18.509052453615947,-44.25398793393273,-34.524057384842926,0.10070609073582046,0.37377545947147883,-1.1828792011430111,0.14002900498122017,0.3231025194377077,-0.02057547698365646,nm,0.0
3.5282760000000053,-18.571201690504623,-41.891815559916026,-34.30280406527935,-0.20491011892882066,0.752203423721553,-0.7053201082109817,0.25713506814206166,0.3819174356552793,0.039462844431329906,nm,0.0
3.5474530000000044,-17.181838110891164,-35.81235220246765,-33.79391290664655,-0.6174414317940754,1.1527744534362703,0.7005540925506254,0.4705851736848571,0.4290293200891327,0.17261461665771938,nm,0.0
3.5569749999999942,-15.897629274352933,-32.92027632931214,-33.35771871286641,-0.6322915727000056,1.0704467825465098,1.562512251432208,0.49537177759844464,0.35116894950674005,0.2347757755087759,nm,0.0
3.5761360000000053,-11.883053914968855,-29.0057904947805,-32.33083774533528,-0.1026281967916952,0.6591259762168639,2.8963112912067093,0.5070544973509707,0.04768249958398508,0.327497005841147,nm,0.0
3.595016000000001,-9.697004212086238,-29.107866930569752,-31.70584295929175,0.01901130757279316,-0.5136476830428858,2.4304721989448135,0.06658165249111694,-0.21632536358213275,0.14487400343617154,nm,0.0
3.6045199999999937,-9.001771774840835,-30.64410937812377,-31.63596513630518,-0.11689857649440012,-0.18599172929925564,2.052592119023281,-0.05927055654685897,-0.3393716592278725,0.08400334588567755,nm,0.0
3.6140330000000063,-9.11497144043273,-32.91677421272239,-31.850272572944558,-0.3920616628789623,-0.2792066666431697,1.136651016881311,-0.2564135503651172,-0.3910372454218768,-0.05389552790958265,nm,0.0
3.623551000000006,-9.302167015377536,-35.73782826551676,-32.229440897669434,-0.5439321568157842,-0.029620024465373183,0.7787251193788214,-0.32669887974691847,-0.47655805181140404,-0.0957369748265176,nm,0.0
3.6330540000000013,-9.626313261600941,-38.387629438547016,-32.733415734788174,-0.6320847111624947,0.31240414177396264,0.3805276699610172,-0.32965184108578666,-0.43385998650396856,-0.1383391773723738,nm,0.0
3.661420000000007,-11.788726244711588,-44.02673684325789,-33.73418929350894,0.09970198772609574,0.03005727674544732,-0.9685653847119788,-0.2650749582633363,-0.19889998509208756,-0.13254952743661877,nm,0.0
3.6708809999999943,-12.925350223252359,-44.96543848822069,-33.76119348500511,0.463979242721106,-0.49310470405121687,-1.3240331034259336,-0.24136721982356776,-0.07985752171162123,-0.16195664034723162,nm,0.0
3.689949999999996,-13.881391524869127,-46.03262647417459,-33.61741651727375,0.9905293737508607,-0.5360645429245549,-1.3507968856105639,-0.07931612324619601,-0.07554214985042683,-0.011801862772109862,nm,0.0
3.6996149999999943,-14.116584327697002,-46.3475007751613,-33.7173001971221,1.0836380907881527,-0.8559827994424908,-1.5269279071556574,-0.06426703225179169,-0.048042100502749,-0.05067600065909613,nm,0.0
3.708958999999993,-13.797488088581865,-46.48343187665653,-33.93815989987326,1.0365113837010518,-0.882145013558476,-1.6197369626329114,0.019253014044157434,-0.06077787699813969,0.005342710142265928,nm,0.0
3.718492999999995,-13.099992549512988,-46.44456319114043,-34.158640119176205,0.8408735729495482,-0.521491692085369,-1.472440547855146,0.08193983579304184,-0.0610905083286951,0.060285643612043784,nm,0.0
3.728036000000003,-12.541679139977226,-46.09664647974989,-34.26276302166352,0.5648114021844306,-0.5103232857723187,-1.4580162170422584,0.10102815165832411,0.00045167399650368093,0.06300726618568211,nm,0.0
3.7375899999999973,-11.940834141719504,-45.21942858862153,-34.09820012420171,0.20949377633866983,-0.17519695715388267,-1.2683595090106612,0.16638027864777497,0.08430079095960206,0.12190049865569376,nm,0.0
3.7470210000000037,-11.573088780426048,-43.72506444429396,-33.63555821616255,-0.21077657361488725,0.18675891889833862,-0.919226274169873,0.20875239929643502,0.20534243258962584,0.1469203150046428,nm,0.0
3.7566929999999985,-11.441262905793081,-41.645410390187116,-32.94111057162249,-0.5342859346085298,0.2984690733189178,-0.5322151611299218,0.24341903369122397,0.3235454929143796,0.15939195785048252,nm,0.0
3.785230999999996,-10.368000513457039,-33.975060698549704,-30.898013032760804,-0.9058114303324959,0.9127271494967709,1.8489427256931315,0.2996016198202236,0.37623947727785734,0.14170841645334104,nm,0.0
3.7947340000000054,-10.545000661969596,-32.105349365836794,-30.694269756451206,-0.6154572631902181,0.35370727077082936,2.4417860030425738,0.16569858806921867,0.32267472073893094,0.022640450552333918,nm,0.0
3.804248000000001,-10.690288918097352,-30.813640183185093,-30.739671709824826,-0.14197852267794653,0.17002770897336783,2.4258729662445555,0.11030796984646654,0.2208898618704408,-0.023239486386940657,nm,0.0
3.813906000000003,-11.478226867072378,-30.675493855617187,-30.877180148973995,0.139822254890682,0.15424218847871587,2.405635385205595,-0.10290579406573268,0.07906908516240432,-0.1070433997011017,nm,0.0
3.823273999999998,-12.756416960108526,-31.889842832269558,-30.964079124517777,0.270093992356886,-0.16117549435622266,1.8844995549255397,-0.3134034468274812,-0.11029893518754104,-0.14879621847825075,nm,0.0
3.832780999999997,-13.63176989526086,-33.76329091941614,-31.041720357713192,0.31140900516154063,0.12393577712230623,1.2906366953264712,-0.3204618835844121,-0.2597249380500878,-0.1087008987870203,nm,0.0
3.8422960000000046,-14.550214874286642,-36.06743116406299,-31.144585365973875,0.004038369598891881,0.3308277889002292,0.6831141415593682,-0.36861510123918606,-0.3311803675200568,-0.12359078717739436,nm,0.0
3.8706499999999977,-15.207125188055498,-43.45886327867663,-31.467367527943658,-0.23652840147217452,0.20815675830451577,-0.8509762205959586,-0.17822687099952303,-0.3910167749945945,0.002160288134056226,nm,0.0
3.899339999999995,-13.504003253584726,-46.98485430619113,-32.31529585002033,0.4067490005068639,-0.5788703495988111,-1.1990931120815012,-0.006520612811430333,-0.17719233333433318,0.04431492667926003,nm,0.0
3.908738999999997,-13.076210882816198,-47.29026182456575,-32.390476948658694,0.5946681397233505,-0.7963323894220053,-1.2401079216876383,0.014754274459845626,-0.0965627290799988,0.050990996048740585,nm,0.0
3.918211999999997,-12.823705374512201,-47.381046017100324,-32.25423458480994,0.6923147768066417,-0.8821132760324092,-1.2949411746954234,0.01756441624260919,-0.047416699614551104,0.0676951808915854,nm,0.0
3.92774,-12.772269522941725,-47.300442548374996,-31.96948056799946,0.6983596220284686,-0.8422622107471812,-1.339431071360485,0.012903757782371305,-0.0037825764266624547,0.06781700108316391,nm,0.0
3.9372199999999964,-12.803669606455488,-46.96801599265634,-31.68062833913019,0.5769722277896384,-0.7157980731732959,-1.4499310949887676,0.029962584849196436,0.04505950533328113,0.056431252661387404,nm,0.0
3.9562939999999998,-12.77117156417876,-45.367752330709855,-31.524269326270176,0.14936509799124906,-0.26309477152865024,-1.4076811327213634,0.10689648342419832,0.15008898920181218,0.007361483908569396,nm,0.0
3.9657959999999974,-12.62188364947704,-43.88757810277264,-31.67528327189702,-0.11798917193327911,0.0021975405469940976,-1.149346872156658,0.17209021533104976,0.22747212753907184,-0.006361400438259373,nm,0.0
3.9754449999999935,-12.39243456030477,-41.794823198060385,-31.822017924511425,-0.4422825915483646,0.2898275093065727,-0.673102527776562,0.24790621323280143,0.32474339597553187,0.004489535710863052,nm,0.0
3.984955999999997,-12.08576028860247,-39.10324077161544,-31.78205977693649,-0.7830482946709654,0.5982344094092454,-0.026365138134658305,0.3226510477596176,0.4194694281146352,0.05012832737952257,nm,0.0
4.003970999999993,-11.542754530798648,-32.50082433491267,-30.97352852742996,-1.1411454264167968,1.0606026618479416,1.8029304962029449,0.3897231441622588,0.5589484323065218,0.1253911630856414,nm,0.0
4.023144000000002,-11.351094008033002,-26.449986085699607,-29.96635010851107,-0.35594617707387954,0.5166063441603376,2.493953312595698,0.2602764226002853,0.44564551730609653,0.09350479592970258,nm,0.0
4.032498000000004,-11.671322546129213,-24.807877126145506,-29.62444716989833,0.2294263004772612,0.17219851526498112,2.5593226434812357,0.11297874971877313,0.2998862269284492,0.04122888191226804,nm,0.0
4.042005000000003,-12.250554807817936,-24.344225992741197,-29.48744741515121,0.6665305516180143,-0.23623897599554164,2.121314944892688,-0.04621938317617186,0.1185998359623595,-0.02025231147937697,nm,0.0
4.051523000000003,-12.720740598785737,-25.232758891617532,-29.629010102745898,0.8769672630763311,-0.34869517553304896,1.5479843242299185,-0.16247671027851104,-0.1267782319124356,-0.06708307980837565,nm,0.0
4.070555999999996,-12.987227629325886,-29.745601920751202,-30.769042496284904,0.3289471298999326,0.0052467925776302025,0.6905565212879621,-0.27488881401275966,-0.45856229246091895,-0.13763476584679665,nm,0.0
4.080059000000006,-13.040753778855478,-32.83977045440484,-31.428973950588446,-0.049651530462684106,0.03993826154188449,0.21230164699180623,-0.3288566956768154,-0.5398811164682187,-0.13603901559421827,nm,0.0
4.089585,-12.824108444682688,-35.71114817091413,-31.986778206845027,-0.3973750528119797,0.21127149782353183,-0.2777609033747351,-0.27287273952875624,-0.5220217184954611,-0.08531321757703396,nm,0.0
4.108412000000001,-12.638023894270846,-39.72405142357078,-32.43372828053611,-0.4931220849739728,0.10661176958487736,-1.2321744520433544,-0.1960617365347562,-0.305116125997275,-0.019886419049568893,nm,0.0
4.1464500000000015,-13.762074720271025,-41.10511132818806,-32.10826871568781,0.8123843677710074,-0.8312577885352656,-1.2950609326536364,-0.04497939317239557,-0.00046590080006965115,-0.03240871329658405,nm,0.0
4.155963,-14.125082909425576,-41.07206357827703,-32.18044977459311,0.825972646449519,-0.8283640923535992,-1.1338256284171198,-0.04443775674717245,0.020914500630572576,-0.05944661419850911,nm,0.0
4.1654900000000055,-14.444345611057905,-40.810583085397234,-32.269871523342935,0.6706847086206627,-0.6493099739969209,-1.1309474758951699,-0.014556744548333394,0.05622118645108345,-0.05698834565209,nm,0.0
4.174999999999997,-14.879758592372088,-40.36609378243945,-32.28575359852943,0.41796065209652,-0.2639650057883035,-1.0432975398955429,-0.010116219564454403,0.09679721166172746,-0.05706575568096871,nm,0.0
4.194013999999996,-16.07991480392352,-38.23148297612701,-32.15786238021137,-0.16478379169851015,0.23235748236965625,-0.8919782014379686,0.07899377673352469,0.2583011042075289,-0.042565327380112705,nm,0.0
4.203716,-16.187208910265223,-36.23297884999125,-32.038948258717504,-0.43075729072164626,0.8528175730927249,-0.4338522983500625,0.19655521222236977,0.33425088692855526,0.013476659768794702,nm,0.0
4.213226000000006,-16.087805514813187,-33.750630533439725,-31.889872441392566,-0.6047323361698508,1.0801323415096808,0.14401875079394294,0.27552012769548945,0.3991537718654753,0.043656453723285985,nm,0.0
4.222707,-15.351810746096149,-30.920531068317576,-31.710840266340828,-0.6456839650696939,1.1559503599139096,0.8962104917195834,0.40322426641729725,0.4019973394651116,0.11662980530837568,nm,0.0
4.241742000000002,-11.988566144991175,-25.836769050355095,-31.344850702385568,-0.34562898540768516,0.4129252875581457,1.9975725614761162,0.5200299122545318,0.18935758267852887,0.20974813788812063,nm,0.0
4.251244,-9.263381846232283,-24.660262317042434,-31.108769133745923,0.18834270978830644,0.1375004215122301,2.483531199271709,0.543815301861023,-0.06866275179706145,0.2800432934649753,nm,0.0
4.260750999999999,-7.153186461535465,-24.504945377661276,-30.97993116660734,0.42425032238656507,-0.18324937509878847,2.658853074035737,0.3451383450409146,-0.18571216645139993,0.20114759089918657,nm,0.0
4.2702680000000015,-6.109129784990891,-25.5180136965769,-30.91228607028275,0.5246066190038816,-1.1886909120639029,1.6385799406770756,0.058201763444904075,-0.28560009551539534,0.10142430197502068,nm,0.0
4.279787999999996,-5.199613852282737,-27.67433954126893,-30.837452947814224,0.2469684135823768,-0.6037863937344424,1.8294650414456015,-0.081631640155638,-0.46836728707908404,0.09610372293539814,nm,0.0
4.289292000000003,-5.194903050333197,-30.534474557784762,-31.00549609825327,-0.17929395289930955,-0.612890058187601,1.000661402641398,-0.29346959121678523,-0.5059553736129988,-0.03324239598905572,nm,0.0
4.298804000000004,-5.348972317502143,-33.76067586982909,-31.40210112438853,-0.5065793206238902,-0.38854384337919823,0.46041447005264147,-0.357050710415297,-0.5532382821402575,-0.09543574731561819,nm,0.0
4.317639999999997,-6.539623879780834,-39.464023766524384,-32.72090381381304,-0.6785135809392046,-0.019441379834273197,-0.8396782543317477,-0.4013975745058573,-0.3810111293028117,-0.2558540309410041,nm,0.0
4.327163999999996,-7.570040193648927,-41.6781217981062,-33.353203647636846,-0.48693428795601007,-0.08925631501162579,-1.2478699958058928,-0.3740600706552948,-0.3002914791072869,-0.25906096862402395,nm,0.0
4.348607999999999,-10.43362070000452,-44.43252378997507,-33.88837982854334,0.27379455968224886,-0.2467454783926583,-1.3673964362407827,-0.31725396823152785,-0.05698606958091536,-0.25687753513130535,nm,0.0
4.355812999999998,-12.394020435421687,-45.0274345238178,-33.890598928341674,0.6382969630629356,-0.5035347739616253,-1.5243851808139275,-0.29983226136473257,0.04285094660903375,-0.2738125621358373,nm,0.0
4.365215000000006,-14.279564695915857,-45.49749116487756,-33.82677614323312,0.9293954798022008,-0.8064324575030346,-1.6486084260726066,-0.27531529737906535,0.05625236284908093,-0.2521800781342215,nm,0.0
4.374744000000007,-15.660331373734447,-45.85819778935065,-33.847741515327336,1.0445710067032339,-0.507076795863401,-1.585381192873189,-0.20309379384195125,0.03402556555434208,-0.19851058866461213,nm,0.0
4.384248999999997,-16.852190269859253,-46.01811775283554,-34.12687150992181,0.9616444449746923,-0.44744467154146594,-1.75935146223188,-0.15818432019864134,0.052783706012489176,-0.223694791904125,nm,0.0
4.393758000000005,-17.53157377517301,-45.947255792091816,-34.593863140558135,0.7489985788601985,-0.3741381677957924,-1.9100991193957457,-0.07289439037521231,0.05169613974995662,-0.18753844060951363,nm,0.0
4.403293000000005,-17.489190779602925,-45.44111316399656,-35.120677324936736,0.4597684279928171,0.16763592727266258,-1.7148157295414286,0.05984087091436265,0.06641858046421907,-0.09564913991009522,nm,0.0
4.422196999999997,-16.3042873344472,-42.0197864255107,-35.911191442663785,-0.28495803359707184,0.8505769418912423,-1.0487056065526306,0.3452229219870061,0.26862049820731626,0.05501859176867719,nm,0.0
4.4319090000000045,-15.027570786391324,-38.98976738491875,-35.878130163514854,-0.6028599700306894,1.271905399873901,-0.17581370936377755,0.5107334253460798,0.3638279598041838,0.17547958931920923,nm,0.0
4.441485,-13.448558842609525,-35.24511802973478,-35.55035747720015,-0.8437312633687504,1.3181227064690204,0.7536687302790731,0.640372431259823,0.447705815694253,0.2585563010128114,nm,0.0
4.451004999999995,-11.422183498325367,-31.32813260575789,-34.953543121339806,-0.9415167737238369,1.1291814232460313,1.65008717736668,0.7281287469621923,0.43059726247863067,0.34347122679785025,nm,0.0
4.460507000000007,-8.949531915577378,-28.010593425664613,-34.204087518520396,-0.7888268426151293,0.537016679401439,2.487552225461828,0.7301612180006714,0.2885312561882315,0.39552581181116186,nm,0.0
4.470015000000004,-5.922814378523533,-25.728967254898006,-33.46133620601698,-0.2002543203716629,0.21825868992093203,3.142921920694973,0.702886281896375,0.06421133668412994,0.4221335157784649,nm,0.0
4.4890649999999965,-2.247552608410169,-24.915463039390644,-32.483371881080494,0.5059217947772094,-1.304439430002508,2.326048498043017,0.18757203983950874,-0.23082587196270776,0.2179189141275358,nm,0.0
