timestamp,roll,pitch,yaw,acc_x,acc_y,acc_z,gyro_x,gyro_y,gyro_z,markers,motor_input
22.007711999999998,7.921137404715112,-30.571671709947843,-172.8565537817376,-0.49624959122399054,0.46873531706625093,0.5178481447256936,-0.3114922606747244,0.18186197289742398,0.13379974340282244,nm,0.0
22.017232000000007,9.896007832911666,-32.526790589414475,-172.94151980519968,-0.642237907543864,0.32045965919567027,0.7513534953083293,-0.3931182223270142,0.35631091957849315,0.18760396192639106,nm,0.0
22.026733000000007,11.409792673261057,-35.12146270165989,-173.1814689564619,-0.4747070666198536,0.47576367147462806,0.3762746612990823,-0.32324463309339907,0.4946590144932027,0.1185963205674489,nm,0.0
22.03627800000001,12.75895113021131,-38.27311129878493,-173.72060421187837,-0.4847980625564486,0.7374139899627237,-0.26858445199902803,-0.2978303397112183,0.6115045616067899,0.05176806726490224,nm,0.0
22.055103000000003,15.58274730427689,-43.691052782590496,-175.33232909099513,0.26923320258158095,0.6560440506409625,-0.9936095990309287,-0.210816666660201,0.4588272670854625,-0.024054080911205044,nm,0.0
22.064705000000004,16.01373247004192,-45.04473863774141,-176.04102700098775,-0.12914773933091223,0.6054382144481296,-1.6621410979454296,-0.09266999758025503,0.27487771024398644,-0.08258132240940412,nm,0.0
22.083643999999993,14.963359541152773,-44.93896932392962,-176.0558329713767,-1.028327684668642,0.25334933684290745,-0.9391864768789369,0.14642185868761565,-0.08807571326091441,-0.09319419673407649,nm,0.0
22.09314900000001,13.058574956671917,-43.64848814574366,-175.12683739473297,-1.7898243576319024,0.051255924563915645,-0.5075649705899378,0.28148487560779656,-0.22721529019597234,-0.08137748284945942,nm,0.0
22.102643,10.68711426051753,-42.15673062725885,-173.8343998237716,-2.3320877408338285,-0.3564175930455778,0.22083757451084637,0.36445066020322564,-0.2543177358271117,-0.06548211122889389,nm,0.0
22.121665000000007,5.519957208205118,-40.33018906979418,-171.94720778462852,-2.840474175682495,-0.6069597784412515,0.31392551767351173,0.3550062956765796,-0.06328360158619847,-0.16128484387798833,nm,0.0
22.13118399999999,4.067943979466939,-40.25020858954548,-171.85205076589764,-2.6518643200005,-0.3251040301964984,-0.2355556024090629,0.2117540134899002,0.02540555741144828,-0.1691996685653151,nm,0.0
22.14069599999999,3.7145072409391595,-40.40375794571494,-171.90108554862593,-1.3895002544438826,-0.39187465926429654,-0.2376315991159983,0.03904492542615698,0.0481264630231064,-0.055767342570126555,nm,0.0
22.15040300000001,2.7123906444514323,-40.81745932467075,-171.8108373745743,-0.40238161400373956,-0.40103164121927154,-0.1185890491494733,0.12913860833781743,0.11374800952804838,-0.11249090839953847,nm,0.0
22.159806000000003,1.2039697583824396,-40.976372639803046,-171.48532266897286,-0.21985860984335934,0.03477340963066175,-1.1648965791389687,0.2114619944744538,0.0749153396823163,-0.13227926652868172,nm,0.0
22.18823499999999,-1.6636564325171532,-37.853155476765565,-170.20877041007074,2.3061544467239834,-0.22396785733095587,-0.205741022645932,0.2182722617973779,-0.2789405444535605,-0.0967023412226297,nm,0.0
22.19775100000001,-2.027736578705026,-35.64523233866561,-170.3386766147343,3.114928901053129,-0.49064098048938226,0.5921298080007329,0.12260783673641495,-0.41551128244729774,-0.06952226804325451,nm,0.0
22.207269999999994,-2.0089521920048496,-33.15413084300258,-170.84414746765376,3.213210918484488,-0.3104333985188342,0.7796404985145994,0.06891670806893858,-0.4821539586241772,-0.09928661713372437,nm,0.0
22.216942999999986,-1.0013973700010586,-30.834077820075237,-171.50353606183305,3.0867408285622253,-0.17559559712238895,1.13542183608583,-0.10733577304464423,-0.47482329332350204,-0.025812966435347254,nm,0.0
22.226479000000012,0.8095347587797588,-28.84109928735723,-172.15137066567598,2.4151632383303765,-0.10974784412479299,1.060822414191108,-0.264178062551736,-0.42927649213668134,0.049426134477944896,nm,0.0
22.235973,2.794912846574453,-27.30712534992617,-172.71648125704886,1.373553758406061,0.11873012823998498,0.7962420508918912,-0.3168417299894093,-0.3403175618366609,0.07207745916063163,nm,0.0
22.24548200000001,4.983962542498824,-26.576922267797915,-173.1466681120116,0.38767309342648204,0.2972997015894324,0.6904491827156835,-0.37941866572043104,-0.18300340139536447,0.11009517536562664,nm,0.0
22.254996000000006,7.348413885981945,-26.941964229988763,-173.4490127255409,-0.6415715782801011,0.37053836680703106,0.6201751279364056,-0.4381506183156316,0.03319353977464868,0.14989687843338176,nm,0.0
22.264522,9.903450882657244,-28.24835127476969,-173.59248754352768,-1.1596667667135323,0.36949113695652636,0.7982388133299199,-0.49003808131632154,0.2183614294189547,0.20529835415602118,nm,0.0
22.274022000000002,12.051980984609397,-30.361459957338194,-173.62067503723372,-0.9013132229081107,0.47525604477617817,0.6779554120206793,-0.4302271041056061,0.3880361442395535,0.2019536568988038,nm,0.0
22.283535999999998,13.554466888845235,-33.329489177454775,-173.69463419917187,-0.7444386013276871,0.8009180107676448,0.10584642661491887,-0.33020413851138974,0.5715775818321204,0.14122378509093783,nm,0.0
22.302397000000013,15.856653338418896,-38.944068766135494,-173.9436054961922,0.5852824233198572,0.8022559817313473,-0.4403444613494875,-0.18372602707918315,0.4855492191615028,0.06369725058300671,nm,0.0
22.331084000000004,14.48791020547489,-40.302260172936975,-174.41976669506582,-0.6006044306145101,0.37442902235166065,-0.5898915527030053,0.14605718643939128,-0.08078711317931425,-0.1365369383424147,nm,0.0
22.340407,12.851379368192152,-39.048627166313615,-174.11987104773283,-1.5221824050484412,0.16711657495517643,-0.2668771846086988,0.2654256696360809,-0.21529371249021034,-0.15090054133580016,nm,0.0
22.350103999999988,10.854506891047041,-37.689262237419186,-173.47424156862348,-2.1533380721821533,-0.2130608763166767,0.4881369762346479,0.33059976852122247,-0.22726679478557832,-0.1206205527026461,nm,0.0
22.359431,8.260889947461006,-36.70243785396728,-172.71346489465932,-2.865862525039486,-0.488846323069327,0.5224872634452359,0.42412785669568687,-0.13674004266881745,-0.16310916818595436,nm,0.0
22.368943,5.798844853825538,-36.43725138135402,-172.0885756935851,-2.945035438893153,-0.5528718862367132,0.46865160505653775,0.3893054980655153,0.009580975010859374,-0.16972192551019746,nm,0.0
22.378456999999997,4.126256267458594,-36.80384697444146,-171.76398799163957,-2.689446428111064,-0.41907233236408237,-0.050081953448902664,0.24576678747336217,0.1204227499869054,-0.1355613506464247,nm,0.0
22.388148,3.625902281779588,-37.459825399801666,-171.49708367915827,-1.5434781530760513,-0.5296101500940219,-0.013127612601818304,0.049836077201688984,0.15158832214921394,-0.007624295367221509,nm,0.0
22.397663999999992,2.616009283188491,-38.39266564627835,-171.1106580195568,-0.5969401577305011,-0.5870489673060425,-0.02373242569845104,0.11939951518627256,0.21881507911878045,-0.04722149314734427,nm,0.0
22.43552299999999,0.5150265050151156,-38.13384571580359,-170.33678455345836,1.771520506901501,-0.09157375425628889,-0.5163876375003196,0.03554063397256922,-0.1703642520928938,-0.06709708669699536,nm,0.0
22.445024999999987,1.1510781468075606,-36.583615124671596,-170.9627737144427,2.578954868755593,-0.19945772787547192,0.27873179091261235,-0.059344615458996906,-0.3125699640719831,-0.04831728440136544,nm,0.0
22.454723,1.7100723080007334,-34.589456435019954,-171.89238889540482,2.8876140716375915,0.01386183979354693,0.8501557732708924,-0.04024998580386821,-0.398149099226295,-0.12161266376862839,nm,0.0
22.46422000000001,2.5684077908411793,-32.567013127076116,-172.8907545504238,2.89220601051345,0.2032974817864675,1.1528480144069377,-0.09795005636480057,-0.4100089277623434,-0.10588638245412639,nm,0.0
22.50225900000001,6.532455711213244,-29.464252472570827,-174.44475245923704,-0.15727953555001103,0.21817611702899747,0.6213845366398004,-0.192326046251139,0.0916590246196471,0.07774867626476778,nm,0.0
22.51179300000001,7.412284942874976,-31.019312176695486,-174.35883236118218,-0.8785240626968013,0.2810123303121218,0.4039384576064478,-0.1917135707950435,0.30508342901711527,0.09790787117008945,nm,0.0
22.530813999999992,9.926637662395674,-36.11761655775096,-174.03655303954713,-0.43893474023035445,0.1650601194982576,0.1992881241716629,-0.2934370085983894,0.5548139341174327,0.17199696525676939,nm,0.0
22.54031599999999,10.954080008452094,-39.22521943245469,-174.19204145226902,-0.07220676434571194,0.3127029640748835,-0.22440191629204814,-0.2362215373174584,0.6118752877267344,0.09324391188285505,nm,0.0
22.559172999999987,13.225300931105396,-43.730056475237284,-174.97114934604713,0.24833639982137728,0.28289923645328613,-1.1578740222436692,-0.2258743826786551,0.3565173001860433,0.08348206705115727,nm,0.0
22.568754000000013,13.966776421631986,-44.55208413059118,-175.33458861478655,-0.15352241375098055,0.26475631246551035,-1.320083400554202,-0.13072284026573713,0.1643809440082806,0.029745942294312933,nm,0.0
22.578215999999998,14.258266054044404,-44.303446942166104,-175.31367536283784,-0.7981126343248507,0.20803522868376823,-1.2223574835012454,-0.04816851006736899,-0.04371540837126949,0.04405256665533869,nm,0.0
22.587702000000007,14.17674115380614,-43.2025429740358,-174.73278257588404,-1.204823101535849,0.06582478590419252,-0.6034493427190725,0.020116299396501877,-0.20940486473920616,0.10381288728122988,nm,0.0
22.597205000000002,13.525304877977103,-41.70937927364768,-173.68566715184926,-1.845376806040744,-0.07165547561250184,-0.13680184492547726,0.11509376129892745,-0.2786725576402824,0.12019547110246374,nm,0.0
22.606700999999987,12.5838011360543,-40.245253820285924,-172.3501370514942,-2.383612773849371,-0.30497197364338,0.2608995134359691,0.16600925693188,-0.2647277851481869,0.14223367327175918,nm,0.0
22.616231999999997,11.69209222266972,-39.17752900061472,-171.1323063249317,-2.554749441091982,-0.47132062968029936,0.25352032898766547,0.15566369456867737,-0.1829769656019598,0.12817916487383543,nm,0.0
22.625727000000012,11.375929422177549,-38.70144124874976,-170.39719352501066,-2.265116985876241,-0.4175218132670802,0.151064021413394,0.052853989783850405,-0.0774025873550147,0.1058212363878703,nm,0.0
22.635422000000005,11.76918413016515,-38.50110628749172,-170.0494289090642,-1.5397893366943618,-0.3037865114111476,-0.004066628233051423,-0.06496458686834,-0.041307476353131846,0.11711220950839926,nm,0.0
22.644957000000005,12.090464957058177,-38.52660797282879,-169.98187250344543,-0.5142700306335296,-0.16827287589070347,-0.0284576314718373,-0.06162657299957135,0.004921975721331205,0.051908486945547117,nm,0.0
22.65444500000001,11.997316191961607,-38.591127483493544,-170.0714723400199,-0.001669941438936981,0.1312941529728142,-0.47075341281941135,0.0009708065389858557,0.023917953659180036,-0.059207567058340974,nm,0.0
22.663950999999997,12.134089699717466,-38.31181932038665,-170.27527949150354,0.8806121657220178,0.31173172496818147,-0.3174432140145159,-0.022605275433756906,-0.05011551837476109,-0.0616947150436943,nm,0.0
22.673295999999993,12.023525610919846,-37.42071154041112,-170.53491667096566,1.8216763240833682,0.3892653484678523,-0.07697430057569345,0.03631290978810901,-0.1641905657554741,-0.1160797864259565,nm,0.0
22.68280200000001,11.15988089033464,-36.14320943264266,-170.94677186489182,2.0918685964696775,0.5880043668361419,0.21377156673392408,0.16757714216056818,-0.22081965556728803,-0.2429528471474598,nm,0.0
22.69249099999999,10.03237125123257,-34.510140461820406,-171.4123359416928,2.3602587145741682,0.6153409249247536,0.6945526777713354,0.22231217443786266,-0.28510879458540445,-0.2842496384367144,nm,0.0
22.701997000000006,8.666413607527318,-32.73270476459985,-171.86375330202316,2.4105779914063565,0.4083849900605151,1.3879901996189983,0.2676079214890612,-0.3087943942137178,-0.3053592890294353,nm,0.0
22.71151599999999,6.855478464139343,-31.217740416954307,-172.27911159928567,1.8478581230276503,0.20054262158031352,1.2141113636213883,0.3370749146407437,-0.2473774752224466,-0.3339909995897034,nm,0.0
22.721013999999997,5.17030251800695,-30.34554149940684,-172.54511742078148,1.0390390571124482,-0.06581390334001065,0.8407880610138057,0.3008556721167606,-0.12412559921172159,-0.2779588546443686,nm,0.0
22.73051799999999,3.8269526830887908,-30.140567897155165,-172.54528578313096,0.5043462748615745,-0.3078583354562917,0.6991364018854633,0.22601330973299874,0.00016507876535798167,-0.18871257603914202,nm,0.0
22.740036000000003,2.822873143818857,-30.62083409650479,-172.57792711353707,-0.04228607808051878,-0.3500904189792824,0.348672762599599,0.14986298194443895,0.12810895805127595,-0.10965912480235471,nm,0.0
22.759052999999994,2.971284265258971,-33.694207720720215,-172.34813265780286,-0.3802484744917232,-0.3375900550954051,0.049614030912496894,-0.12963362832200406,0.3673270535431488,0.06919174819996349,nm,0.0
22.76858200000001,3.9174130747721647,-36.02849616692689,-172.34663278170189,-0.25029994300547753,-0.13970093472186365,-0.15172856335016838,-0.226260238637567,0.45268391393339763,0.10776759284424091,nm,0.0
22.77808300000001,5.432123062456411,-38.525511914803204,-172.524750347161,0.07759100742615858,0.05051317220652102,-0.27863276083007305,-0.31517737431389725,0.4738483174460108,0.14737850904359281,nm,0.0
22.787596000000008,7.261160064128764,-40.74059857794693,-172.86857944471635,0.3529629078138386,0.2121330873890009,-0.5049894427533356,-0.3464319761460807,0.4138881950783655,0.16419766396695137,nm,0.0
22.79692800000001,9.170285534718257,-42.42446207210123,-173.01055814975496,0.3268403990167034,0.36385823688943686,-0.9775494271998693,-0.33641365595309003,0.30826809798478433,0.16960327147309587,nm,0.0
22.815964000000008,12.242053118250096,-43.886650101601695,-173.46151379339497,0.2845867340712568,0.4048452682675513,-0.7589068533362145,-0.17616973319373014,0.05840349449203107,0.12860956117624445,nm,0.0
22.835148000000004,12.654175489479893,-42.4932895536402,-172.57759335076776,-0.3760230133929196,0.31821483018381674,-0.42563244192319233,0.0013499875246650152,-0.1761677988052281,0.13046072672787787,nm,0.0
22.844677999999988,12.098662614390632,-41.40923198610146,-171.89966668187677,-0.7399218526758888,0.23651593584499114,-0.13329231376046158,0.10033782439888625,-0.19495447540597088,0.06013843540381091,nm,0.0
22.854195000000004,11.253581112396141,-40.22155118394742,-171.2926599600289,-1.0166081384026684,0.15158745442290397,0.020176430550520534,0.15052132024699225,-0.2075826800440451,0.009614734218186934,nm,0.0
22.863668999999987,10.416410975070466,-39.04692530021113,-170.89798351212337,-1.0010179051295733,-0.04407424527357979,0.166820533502326,0.15307384382546002,-0.2033721426850132,-0.029286616354887135,nm,0.0
22.873197000000005,9.464694759581047,-38.08492200656394,-170.83554361707843,-1.0051155469276147,-0.14644142574800734,0.07617424291472707,0.16692405779134453,-0.1573940407693413,-0.10768093881720363,nm,0.0
22.882695000000012,8.510175182009354,-37.40219412648015,-171.0869722300924,-0.7672191773968439,-0.17553525549230226,0.14145371188835384,0.1601233731356833,-0.10194349922152213,-0.1686690249752575,nm,0.0
22.901735000000002,6.7184407412504505,-36.31670382391777,-171.69054240038662,-0.44107439534002774,-0.11708007532401228,-0.21573997989870053,0.1255184782455209,-0.07726623888564052,-0.16948178708486167,nm,0.0
22.91124400000001,6.168671051448154,-35.84388275938093,-171.67625393987836,-0.13271840785854053,-0.25844955016843063,-0.0678167043222827,0.09161249035545076,-0.07089709331951614,-0.10464176434275325,nm,0.0
22.939805000000007,4.9764222166868795,-33.997595731272206,-169.826539912118,0.04896831418154817,-0.29010530816547475,-0.004511175354854238,0.03090526571026767,-0.13170820310400486,0.11711720598166563,nm,0.0
22.949322999999993,5.105394204770827,-33.23492766279229,-169.1531230539902,0.05144633933388239,-0.21184145100869245,0.016271301224975724,-0.00383058344019136,-0.14467131901633984,0.14766804377444842,nm,0.0
22.96828099999999,6.473408856818511,-31.73255606220388,-168.01888036038991,0.24014513930344905,-0.013546548366982854,0.26872115034095895,-0.11569637172775364,-0.16869785409301014,0.13804471045910963,nm,0.0
22.977802999999994,7.4239557756710575,-30.963792046191575,-167.95678777981976,0.25128304763772397,0.10058849187071978,0.25115351824669946,-0.1376456236408358,-0.17558562299755778,0.09032379603634509,nm,0.0
22.98730900000001,8.401490906843526,-30.22941931671829,-168.15054214148606,0.25531328493495276,0.1874784438911177,0.23579037014754986,-0.1451478990598033,-0.16998612156464596,0.04509252935607132,nm,0.0
22.996823000000006,9.174392291540089,-29.58363389553026,-168.46597364841088,0.2513695527861104,0.2924093161739922,0.3611023251920822,-0.1159093723142852,-0.14507600034353227,-0.0012510725445573794,nm,0.0
