timestamp,roll,pitch,yaw,acc_x,acc_y,acc_z,gyro_x,gyro_y,gyro_z,markers,motor_input
150.512414,-13.265916065143973,-14.844834755556818,126.10681684511269,-1.0562217600552564,-0.6628377848570783,-0.037565060330828674,-0.07013246439485436,-0.468534920364253,-0.27377348001140095,nm,0.0
150.52199599999997,-14.834517012759136,-12.861422633924759,125.0992230824592,-1.3457498414952105,-0.28753215390476095,0.017306778956799197,-0.13887672505583049,-0.46657154204699847,-0.2771499121088862,nm,0.0
150.54106099999998,-17.81089097838692,-9.505833244624343,123.0935623846757,-1.9627842688041786,0.43001560455448223,0.24670744852887933,-0.08563443323184776,-0.3990472626725225,-0.24791718273868982,nm,0.0
150.55981599999998,-22.047432528344952,-7.42099050342147,121.20656944752675,-2.359490518776523,0.7018417463437785,0.1580506981567519,0.11057857610850473,-0.4795387134671477,-0.25361328038676906,nm,0.0
150.56932500000002,-24.531843929201234,-6.8990868669056296,120.25108602809689,-2.4533329491683626,0.6058520560162294,0.09856169269793526,0.17018392174815056,-0.46590083371475727,-0.2520739858512083,nm,0.0
150.588359,-29.7793317651115,-6.840688398072861,118.58611052904953,-2.42942186006903,0.4345815005441434,-0.08026640906050204,0.28362707317614105,-0.43574104861430724,-0.21165081986178017,nm,0.0
150.597861,-32.34070260134697,-7.091136649317261,117.96462162674167,-2.5723151843739815,0.32852537881468996,-0.07877678733312356,0.29352517801647154,-0.41339667785788115,-0.1836962199218835,nm,0.0
150.616888,-36.90920984517588,-7.790657882607898,116.87987249744747,-2.2002636118183077,0.4582742254078065,-0.5000124950684357,0.2693925585302047,-0.31072531606404175,-0.14861801249914602,nm,0.0
150.635911,-39.15673989579821,-9.67280281707754,116.54529854238893,-2.0548247697875257,0.5751073225620497,-0.5552236175126147,0.2736371151163198,-0.05158587594894209,-0.048942964811223115,nm,0.0
150.65496900000002,-39.01791086055942,-11.944861953144054,116.04944666172153,-1.701844000779924,0.3253624408513344,-0.45747437788804673,0.20110678574227314,0.18181319964252401,-0.026360793024508705,nm,0.0
150.664476,-38.41512974902944,-13.457214876824448,115.95632304841608,-1.5109825040967875,0.26527217960430804,-0.31932638571938016,0.2291737289557488,0.24880384943114575,0.012719724010804151,nm,0.0
150.67416899999998,-37.538376305059444,-14.921596502968987,115.83275151986584,-1.3694863778133972,0.06734419264019578,-0.14093874964105363,0.19817221094884763,0.29131591414596575,0.023080429993327378,nm,0.0
150.683679,-36.45932733713933,-16.123478413922676,115.6622396711101,-1.056425771673514,-0.0719571196118929,-0.21281204286852726,0.13514706992777106,0.30216987552137897,0.02836522687385423,nm,0.0
150.693188,-35.2874519500473,-17.10066321604853,115.64798879828085,-0.8327477218134515,-0.2196532052720486,-0.23449985397195816,0.08790088294720562,0.2975359504899428,0.06876086298086152,nm,0.0
150.70271499999998,-34.0899150588349,-17.82312593998559,115.87256648745691,-0.7298902512070138,-0.3547198453348303,-0.1020633576646545,0.03975198028850366,0.27909204269906196,0.12126313571764462,nm,0.0
150.731235,-29.538556372921693,-18.14090107052948,117.24959368315628,-0.33913270990401,-0.5857282578732159,-0.083815892560693,-0.15098216253319255,0.30130777282194704,0.22092981546328236,nm,0.0
150.74074199999998,-27.380954526615763,-18.10274713935907,117.75717629158716,-0.27938715870329417,-0.6597933145161017,0.041578699953246034,-0.18788122207941324,0.37166238597620627,0.23897593459858038,nm,0.0
150.75024900000003,-24.7194114204375,-18.061652829455774,118.08482626943136,-0.055291539239890206,-0.6338669211402923,0.035978129605274974,-0.23610724734984143,0.4550146123851223,0.23342673002422082,nm,0.0
150.769265,-17.171774164381752,-17.932926201268142,118.1385648777965,0.23645479737196207,-0.8060364294936612,0.41461580549814603,-0.3707654013163344,0.6845505391095349,0.2369776062163038,nm,0.0
150.778787,-12.718052698477502,-17.761967282167653,117.94999257500797,0.6883203365193472,-0.6039862594894634,0.3816110160283317,-0.42144241982446334,0.7449706224047642,0.23547059400283163,nm,0.0
150.788291,-7.514218125074099,-17.51834929502435,117.81760316376283,1.0079661925161572,-0.695827666885963,0.7763464135823616,-0.49999157758534324,0.8669360147203732,0.28806095046033836,nm,0.0
150.807316,4.5773188777429645,-17.20209417286588,118.11011227862151,2.115626819163825,-0.35518228674871216,1.259706709005756,-0.5836203372914469,1.079520464235191,0.4271678076587159,nm,0.0
150.81682600000002,11.612063374461933,-17.220838636288278,118.58877841507392,2.5919945543350766,-0.10442970452339839,1.530350349125195,-0.6304002775737669,1.198272068861216,0.5076236171799995,nm,0.0
150.826331,18.63035309384475,-17.333882576524626,119.21087584629544,2.995788997983854,0.39568716748732763,1.1451993240031446,-0.6246531694313,1.1979778881506278,0.5357188005692993,nm,0.0
150.854681,36.21336122371563,-19.268875177482737,121.20111398960401,3.457489992977688,1.2812124314931257,0.15457399228610505,-0.3062738026539405,0.8568219134030882,0.4324441409606,nm,0.0
150.86412199999998,39.117990508991795,-20.126493356048158,122.02950776994591,3.337644161215351,1.2252830916106945,-0.26168469664152944,-0.14098574413190076,0.5678786950657215,0.3535812321964577,nm,0.0
150.87362099999999,40.187827694352414,-21.013748908693124,122.84982687343326,3.1656645539613875,1.0770477641716514,-0.5463567508902701,0.04178435255881237,0.2761283746462037,0.2312701034728617,nm,0.0
150.88312900000003,39.62735792613269,-21.885200830578864,123.5892255341109,2.9085613848287615,0.9397479028974244,-0.6326862477079541,0.20253048951118047,0.0199053639611557,0.0989719476651038,nm,0.0
150.892643,37.73017354306475,-22.594947654644624,124.3387831109772,2.6330526534474377,0.7053566272938768,-0.4926352606220757,0.3137689589066896,-0.20034148510140964,-0.0014459157999900019,nm,0.0
150.902159,34.70718002266265,-23.078695358552057,125.12991787146731,2.228446229107027,0.45354661056934836,-0.3451668045983181,0.3972497924824984,-0.39111572854074994,-0.08389324498981506,nm,0.0
150.911666,30.810106732401813,-23.370062824673955,125.91828946577863,1.8087316516529162,0.2576164798437366,-0.08611089404980486,0.4644435816934036,-0.5372960755470573,-0.15676036800947502,nm,0.0
150.92135299999998,26.23164958031892,-23.41494674868262,126.70494476897615,1.3364815749417664,0.10448329895385904,0.12359333078011657,0.5064272324818831,-0.6599830676430652,-0.21281403653609315,nm,0.0
150.930865,21.238003454581026,-23.138461917410126,127.4415550038275,0.8459059112199991,-0.09723054734630898,0.2076057902053806,0.5111710831961294,-0.7532606612802792,-0.2533507536360008,nm,0.0
150.95941100000002,6.478011888529788,-21.688672392927764,127.55722797434468,9.673094743009567e-05,-0.4926163706858519,-0.29540711543383324,0.4411493864277898,-0.7149052121458827,-0.42356898146427,nm,0.0
150.96891100000002,2.7688346546724305,-21.11562402462847,126.80589900207475,-0.19517057583097625,-0.8960323158546455,-0.041892524207820796,0.33098750935033955,-0.607119009777451,-0.4241918818705428,nm,0.0
150.978417,-0.759784601619243,-20.485089926732087,125.79878985461335,-0.28000216378550363,-0.9072105536926093,-0.26448955340861596,0.2944579983399476,-0.5940307415749485,-0.4546861241609593,nm,0.0
150.98803999999998,-3.7428482427527476,-19.740389098821012,124.76459480246253,-0.32756777294865286,-0.8201780877576085,-0.38422933820688226,0.20794369771308788,-0.5311289893654676,-0.41412617119057327,nm,0.0
151.006943,-8.279372601843535,-17.501867260969984,123.25154696254378,-0.7421548638011443,-0.8448216627360116,-0.0022916190333718174,0.031705696893781096,-0.4773439201033907,-0.2680451664287933,nm,0.0
151.02598300000002,-12.357196265944578,-14.095375427208308,122.51673104887827,-1.6586512754514013,-0.37838986336792274,0.32457751519696565,-0.09268382265582774,-0.5220023178356896,-0.17033274259257725,nm,0.0
151.03547899999998,-15.138804735689511,-12.100038536606016,122.11571206120855,-2.302017974095269,-0.011738407362099704,0.5358867345989486,-0.040416804503746954,-0.659814247461208,-0.20676788964247061,nm,0.0
151.044836,-18.958094686206,-10.309338577476561,121.45121429116898,-3.0862202932438243,0.42876977768640745,0.39196446845288935,0.09791285728202598,-0.8144810201759312,-0.28124078012683995,nm,0.0
151.06385200000003,-28.373424895203172,-9.394402295007424,118.63227321623536,-3.7258767477537043,1.1065589398083193,-0.2081073777624183,0.48419695094706006,-0.7915689290793575,-0.4848650758753287,nm,0.0
151.073367,-32.86736727222488,-10.640140046329792,116.7140071613233,-3.3121234785349993,1.2852249887770406,-0.5593261613293251,0.6409249804479984,-0.6582533406265645,-0.5369862247748887,nm,0.0
151.08287399999998,-36.31917192841171,-12.637913975313003,115.26054821767507,-2.893788876172204,1.195448459596579,-0.30414377281153465,0.6649302032319103,-0.42307248017483123,-0.4260219280252748,nm,0.0
151.092389,-38.665638043458806,-14.51348858181641,114.87633722361933,-2.977583913171948,0.3769415323666574,-0.11257642155888817,0.5425122355346681,-0.24468518275948362,-0.18222681725585071,nm,0.0
151.10187499999998,-41.12251673031892,-15.689005647337666,115.53663699546928,-2.2707946047936898,0.26948911996225056,-0.6941823124404423,0.42392247123440535,-0.3197607263694209,0.009586625106470056,nm,0.0
151.130478,-41.8879035371899,-15.426304987778085,116.69409916909957,-1.839070357897146,-0.6951552051371543,-0.959125472398746,-0.04034749032213912,0.11560495008874005,-0.007229167914477739,nm,0.0
151.139984,-40.67754751193664,-16.434828672542622,115.61077281401525,-1.77400007858343,-0.1724173478907558,-0.7113577208013099,0.08725056964509496,0.3079227635606868,-0.14478351241609747,nm,0.0
151.159005,-36.917505172290454,-20.58886727488438,111.20671102709098,-1.5287221059509895,0.7755387590178879,-0.06312414045139168,0.3023139821016544,0.5151320309279828,-0.350072245435261,nm,0.0
151.17820500000002,-32.65484772538201,-24.75994230597799,108.55616632580518,-0.9628060342223019,0.5526216535010378,0.3980677327984159,0.2261573249141975,0.5040725760991379,0.02879421233536675,nm,0.0
151.187719,-30.842056463927573,-25.698460428382564,109.15650916572721,-0.6034746979391897,0.04622342289395608,0.32971480737555003,0.08194980867085648,0.380320002506103,0.279308161355556,nm,0.0
151.197232,-29.15329855855839,-25.710392700520597,110.96069752319372,-0.27832360613914087,-0.6477394148450132,-0.03898140030499487,-0.09231719755588756,0.2963893347705895,0.5119287307393855,nm,0.0
151.206564,-27.27232501656476,-25.186497466041804,113.446571210489,-0.04622065915107157,-1.2844955192621212,-0.350378831001418,-0.21618550133030387,0.2852593256612737,0.6631410530339872,nm,0.0
151.225579,-21.11668163372114,-23.89303094076754,117.14442939732716,0.3571839244109183,-1.8015094493181583,-0.31420529240145634,-0.3995462289618107,0.5550615971783036,0.5787604150374352,nm,0.0
151.27332800000002,10.414713142747258,-20.170353953630993,114.33732280003083,2.0705648600057094,0.6033746254068502,1.211707806749545,-0.6510415673318616,1.12432101431497,0.533337097769224,nm,0.0
151.28283000000002,16.848258897320587,-20.17348292448372,115.74558793485849,2.516191375456889,0.530615435307242,1.0474169662375274,-0.5063501572688286,1.1081552360264106,0.7205651334922213,nm,0.0
151.292334,22.46612151819504,-21.06244538051094,117.76421010955949,2.8992814741842765,0.4322273874687123,0.7186539353103018,-0.3115972753862699,1.0327319857479857,0.7939136360919813,nm,0.0
151.30166499999999,27.246729294141453,-22.461263596386633,119.75941909044892,3.175322510283919,0.30885947755234405,0.3849991725281898,-0.18012053095523214,0.9266439887299941,0.7476594787972475,nm,0.0
151.311165,31.14612619970847,-23.7774834479482,121.22312878467973,3.3317609269486783,0.2706615022023736,0.16987700530830782,-0.1361457627109969,0.7649952584943475,0.5927726640961074,nm,0.0
151.32060499999997,34.006049408073565,-24.534781073205977,121.93157861104594,3.3045680305078062,0.4651362048523808,-0.07490044986256564,-0.14395048337576977,0.5369346890429961,0.3691987991693143,nm,0.0
151.33962699999998,36.66865233793284,-24.250482051810387,121.76445860673101,2.794406966787074,0.9962950502437006,-0.16746941837930673,-0.1359826003232156,0.09809989146555197,0.009837225458956168,nm,0.0
151.377847,28.751975067497778,-25.944481229704035,124.21016925980268,1.5446545562311984,0.35718709344574795,0.1687768908465034,0.5070411353584717,-0.401807375415853,0.006321078207270207,nm,0.0
151.387349,24.666361015228542,-26.725808790811225,126.04185219760409,1.2882553961924073,-0.11412744629924204,0.06456665460366613,0.550878996480444,-0.4966155538231347,-0.0018090791659522779,nm,0.0
151.396875,20.492155731355563,-26.980331617499143,127.59984004135971,1.0804192269547421,-0.5211346730313455,0.024198681090835127,0.4891379278142051,-0.5531338376847773,-0.07060228166283132,nm,0.0
151.40640399999998,16.582478947848458,-26.601457904090932,128.37096641384323,0.8526948888186433,-0.7693167017730169,-0.05640988073717229,0.3722665375584119,-0.5840896696072484,-0.20288115970829562,nm,0.0
151.41588299999998,13.0796841204901,-25.780887902723613,128.11744446076668,0.6632674133889311,-0.8617205328271055,0.022498674226855708,0.2631822111393748,-0.5826116954789748,-0.3642433591609003,nm,0.0
151.425403,9.870192118363057,-24.77226937531552,127.01545989068956,0.50237461701624,-0.7098085754832605,0.15897311040978626,0.1976355481449601,-0.570465015080848,-0.49852205064518895,nm,0.0
151.434918,7.008026546191115,-23.721901878944724,125.5940949951813,0.23527016490586714,-0.5486671510871451,0.024137538856658716,0.14406818341816868,-0.53248523634295,-0.5230684313542442,nm,0.0
151.44441400000002,4.17922566899861,-22.913851769367447,124.36809759689434,0.06609582701625398,-0.6378716974866313,0.35063925959001563,0.17047440526392751,-0.5059284177209369,-0.4724189742840086,nm,0.0
151.46344200000001,-2.359957282124546,-21.6990097598823,123.6098906398396,-0.24382582309224993,-0.9029568823340676,0.528700702421534,0.241646576672213,-0.5770379234399705,-0.26835796802928735,nm,0.0
151.48245999999997,-9.040802568035327,-19.87725570157197,124.0023652647708,-0.6368211524815981,-1.072882388638575,0.007744009559014913,0.1923630397399026,-0.599492564155204,-0.19696193760874892,nm,0.0
151.491977,-11.910390500365319,-18.99304014488482,123.75047767099149,-0.9753424794492098,-1.0316776110770185,0.06467198297255901,0.16166506554259305,-0.5360019124260456,-0.2417763480598206,nm,0.0
