timestamp,roll,pitch,yaw,acc_x,acc_y,acc_z,gyro_x,gyro_y,gyro_z,markers,motor_input
173.508459,-20.865114673446833,-23.8806871407393,-127.19410223767915,-1.5237582993778682,-0.5976790480398436,-0.06966155301814775,-0.2546795628169762,-0.3727214299998886,0.2378185183361975,nm,0.0
173.518154,-17.964206157787558,-23.438152427376743,-126.59214534252784,-1.219002250626966,-0.34139473331730014,-0.08189863028520655,-0.26246280822641166,-0.47622362699740595,0.3552065220052404,nm,0.0
173.52766499999998,-14.652406034860297,-22.83103089086316,-125.99180786087148,-1.0529263847510322,-0.050100532587007224,-0.06027472748223024,-0.27704668953461814,-0.5614345084203279,0.38158429864140675,nm,0.0
173.53717400000002,-10.99297569363744,-22.025243408781257,-125.72848411456009,-1.0686836741771446,0.08582684968434413,0.18907281574704418,-0.2801896220469756,-0.6418002803057714,0.33232035872307986,nm,0.0
173.54667199999997,-7.213996522310924,-20.85803547645013,-125.93346297229886,-1.2710306321318952,0.10457277557623833,0.39965877599543287,-0.23701208179714148,-0.7064624504034294,0.2347520706790564,nm,0.0
173.56569900000002,-0.2517810819428185,-18.042038958336768,-126.7590869079365,-2.1647425312142845,-0.33151005940927564,0.6965761377598771,-0.1705054171966367,-0.6679608549756662,0.14524046343065783,nm,0.0
173.575209,1.8799805766590114,-16.96287928426553,-126.61280630272208,-2.4032613332503634,-0.5065176029184884,0.6988714094562896,-0.08377649162238136,-0.45482006509616274,0.15450285033458586,nm,0.0
173.594236,2.7435764890801826,-15.782885797340215,-125.26720580583896,-1.6898766449043379,-0.27935605178005046,0.23457499857727185,0.05642584889772639,-0.03581353941756809,0.13378227610572413,nm,0.0
173.61326499999998,1.6054419667096955,-15.623077833876478,-125.28623776079351,-1.0563287279176816,-0.02842315366869598,0.3090579708955904,0.05310889707138085,0.08716970619809221,-0.08999021996150858,nm,0.0
173.62276799999998,0.47342629092658145,-15.542845714881553,-125.95870858782193,-0.950565903303195,-0.020719558088378776,0.15341483006277978,0.1264001247757282,0.1689382649787133,-0.19860244161110138,nm,0.0
173.63226899999998,-0.8718743601554669,-15.434241383850491,-126.68860008264345,-1.042757236125243,-0.07957076484369698,-0.05793374274251332,0.157432748576598,0.19739422920217986,-0.220889560035751,nm,0.0
173.641785,-2.064921604359367,-15.208955666555967,-127.1034788844824,-0.8307375378194821,-0.21260811862388074,0.15544391705036475,0.16051717842559454,0.1585115434032196,-0.14880512828041267,nm,0.0
173.65129800000003,-3.484555973212624,-14.797843130732407,-127.01401966620074,-0.7752700872842784,-0.364885788581373,0.11870253115193165,0.2172425637958053,0.1709579930753593,-0.05807248309743181,nm,0.0
173.670314,-6.228476772385769,-13.510838898753478,-125.51990485214684,-0.2884705469810251,-0.5090835651290684,0.1329849920422497,0.2420127516326412,0.12430268382629875,0.1160498140511598,nm,0.0
173.67982099999998,-7.5839588437311365,-12.901826139802434,-124.66849080152058,0.04604263725544253,-0.42483943658991447,0.23007511212080065,0.23766398674049508,0.1473515625712526,0.10665529659380056,nm,0.0
173.68934299999998,-8.937973656686266,-12.474144754938127,-124.14998227182589,0.29743129807902124,-0.2129628204890473,0.18018620574219038,0.20606355434513793,0.1710640787379427,0.04270017575759657,nm,0.0
173.69884800000003,-9.995641890714179,-12.292889152272954,-124.08864215878874,0.9084532321020973,-0.06016788669158884,0.5050001952445402,0.13200264756484972,0.15218699712835795,-0.03448861840569187,nm,0.0
173.71787200000003,-13.131516588877165,-12.501252295116727,-125.2550345065898,2.032610121625436,0.5740218659739681,0.7965915487130263,0.15880782666835516,0.31306025692685446,-0.22834528266862825,nm,0.0
173.72737800000002,-14.966025850070539,-12.631472753740972,-126.08286569697647,2.7322694535911203,0.836622140977687,0.9740682807822789,0.17385404750831676,0.30857347268336094,-0.2458957997357405,nm,0.0
173.736886,-17.008264173666646,-12.522945136338446,-126.82071189637139,3.414776865296618,1.0016552470028253,1.2199400495098958,0.24063290581570834,0.3105078865840057,-0.23657871401353112,nm,0.0
173.746233,-19.277164259622808,-12.157786803704099,-127.30266523859783,3.7072498993876573,1.0465940674600394,1.2006836020650655,0.3118923814429799,0.3127083584103516,-0.19294680253649635,nm,0.0
173.76526600000003,-22.901348851165906,-10.725692575914625,-127.42736804490166,3.1676917582769906,0.37069586583773245,0.4533512199012587,0.3046000668552687,0.15273816170676183,-0.05677228944655843,nm,0.0
173.77478,-24.636860914686004,-10.172958507833366,-127.44014824877758,2.2771836670552026,0.21043779224928993,-0.2824942659425908,0.2817830723785113,0.2068914370189453,-0.06401253422631639,nm,0.0
173.78429300000002,-25.910360428358562,-10.588047117040452,-127.34359918389545,1.3855508323727839,-0.0707888398939545,-0.5139122516356271,0.07249109560629209,0.2525679504285943,-0.024739269113576566,nm,0.0
173.793957,-26.469574607753927,-11.973038144681672,-127.19874680537983,1.0254000244054067,-0.45643040740070845,-0.34049526332413166,-0.16794986215507496,0.2581668675689931,0.009223889947482381,nm,0.0
173.812984,-26.990789735719897,-15.98484810239738,-127.07398516775537,0.4008773555583419,-0.04081556626778065,-0.5422092612882957,-0.3399725387480937,0.27538892501426004,0.01575972610141486,nm,0.0
173.831827,-27.137269445215658,-19.84603269210205,-126.082771868208,0.5856791220805875,0.505823060926249,-0.6461227677496367,-0.2668345205963951,0.237368585159326,0.11256865872046502,nm,0.0
173.841335,-27.37540020380217,-20.735054677495686,-125.40533845393212,0.5490528624326839,0.6707446283799433,-0.9045566691387622,-0.1319266255049988,0.14306282489864916,0.12230265793502962,nm,0.0
173.850831,-27.55628568561869,-20.937685765117042,-124.78805211134707,0.5749594532300742,0.5385006410956977,-0.9445149354262061,-0.027307159208577673,0.05366485620667676,0.1139895426133809,nm,0.0
173.860337,-27.743175017147383,-20.766045374187172,-124.39741184979431,0.24039816996459482,0.2668734273105292,-0.9620980079905653,0.03457093778250564,0.011822005182741674,0.06821247160788753,nm,0.0
173.87004599999997,-27.57646235046389,-20.46742649336325,-124.36432580148325,-0.08691908863125813,-0.1449379929241755,-0.8541430683014337,0.01811455610447646,-0.05703879380138729,0.021646412549071754,nm,0.0
173.888898,-26.135877133854606,-20.485744089146603,-125.18752251799796,-0.9260349939458179,-0.7932205575291976,-0.7098051715807022,-0.14009315281150456,-0.11201772783380691,-0.03589915292918084,nm,0.0
173.90807800000002,-22.816510634712117,-21.51549228522923,-126.00683404808072,-0.9393555966339372,-0.9744055671060661,-0.17180503631330146,-0.3056000193066014,-0.20794115857849152,0.07044431142233981,nm,0.0
173.917406,-20.973217365908177,-21.934860717919182,-126.19078727020377,-1.1485270448945417,-0.5801500457675163,-0.41372209901907747,-0.2836846855658993,-0.2249832422555674,0.10184271866067866,nm,0.0
173.92691900000003,-18.383073310323596,-22.199889718633727,-126.22067259597641,-1.0874577197388868,-0.3097552031669623,-0.40960188610655573,-0.3406523364919568,-0.35408657950367123,0.19041851619284267,nm,0.0
173.946115,-11.917581725847292,-21.643750222705133,-126.29306406900416,-0.9480537318195229,0.015146067633514981,0.01584057430820119,-0.2805426064413828,-0.5451945110331623,0.2231651085850637,nm,0.0
173.955637,-8.410851947714953,-20.499252006479555,-126.48077416232749,-1.1779934655493562,0.10003850715932783,0.045078165018806446,-0.21837614803899943,-0.6617970328593087,0.21424164154028189,nm,0.0
173.965141,-4.741925235825629,-19.05129211042193,-126.67565309824374,-1.376264625881175,-0.043813113547610395,0.39057444192247553,-0.19329024424464217,-0.7265839101552405,0.20799773379768022,nm,0.0
173.974657,-1.362012033518301,-17.548740131740253,-126.74705629731275,-2.095560541570778,-0.3170810855434988,0.31085063749586195,-0.15695004761762751,-0.6938756990632322,0.19578638596779127,nm,0.0
173.98415200000002,1.6604014669653122,-16.192442300284934,-126.4453706903949,-2.2725927563758996,-0.580349930178902,0.700893056393109,-0.14110975096662418,-0.6261309909188953,0.23280902246293073,nm,0.0
174.00317600000002,4.803286945001803,-14.50212995705403,-124.88164062438315,-2.059911638622873,-0.42691168106709204,0.31943413263814807,-0.03758035061767176,-0.2479141417546223,0.22771354641055921,nm,0.0
174.041212,3.9615135558186085,-13.314139935130523,-126.1747586368645,-1.0194912500294235,0.1946777903333948,0.06872515270467475,0.14940336750426492,0.07293758904123049,-0.25215970040345237,nm,0.0
174.05072800000002,2.820603979636889,-12.660874312414496,-127.06642590595013,-1.1111808888210775,0.043636021035225424,0.04749946163650012,0.22417606760262582,0.10163743490867198,-0.23376360103883725,nm,0.0
174.06024299999999,1.5429646217579513,-11.869512924055089,-127.40044799860395,-0.957774277184965,-0.17899161463789764,0.19624631632038503,0.26379656148172254,0.10439332635149237,-0.12498461169897285,nm,0.0
174.069762,-0.05718661300076914,-11.026197286451197,-127.06158404738694,-0.8796111890339479,-0.4324364481513417,0.2632914154891714,0.31077150947098114,0.14920280421777132,0.0006830840527975156,nm,0.0
174.079261,-1.6987123942239823,-10.12276907444259,-126.18697947521446,-0.6478846273581778,-0.5815231237324665,0.2507924121365346,0.32420282264876077,0.15269905472167358,0.11142212205659062,nm,0.0
174.126813,-10.034383537146395,-10.179817131425676,-124.04780485932223,2.266875519550751,0.6099845890171988,1.357144577692716,0.05228964120864063,0.42185951146439216,-0.11266652939807988,nm,0.0
174.13632700000002,-12.006685827669044,-11.504048274569994,-124.092516500946,3.1027643345573797,0.8816235897287986,1.752308821199409,-0.01642297652678399,0.4712868704760885,-0.08427284719220222,nm,0.0
174.164699,-19.677613973076248,-12.290698822706421,-123.33759903442292,3.749044348507187,1.0496065347101555,0.18279567912858447,0.30511219488870195,0.3944377844302313,-0.042924479251444325,nm,0.0
174.17421,-22.22625932183007,-12.501937070857906,-122.98215657147429,3.3285603348431327,0.44023726382333794,-0.23062058616665332,0.22318760918625244,0.4420780519608131,-0.03711696919311415,nm,0.0
174.19322000000003,-26.57361417276772,-13.982979042472548,-123.3689082875417,1.3534522606352652,-0.24940107986977408,-0.7868593551050005,-0.001112192559245591,0.387655910945081,-0.14693106289011043,nm,0.0
174.20274099999997,-27.291742609064148,-15.926331979824385,-123.6849849004892,0.7405420816201992,-0.6271350301291476,-0.6977370341225297,-0.261430542021553,0.3329041940284999,-0.09767814766928536,nm,0.0
174.21240200000003,-27.52168755365582,-18.392962404172344,-123.88620470088867,0.17329622850313992,-0.6661422353966,-0.5747144886596265,-0.3997369110199138,0.313547007469838,-0.050877403361028625,nm,0.0
174.240935,-26.6314618526294,-24.22750436243291,-122.39084274312194,0.20869356191615052,0.3529768321591901,-0.7196282116731699,-0.30010596749285795,0.1508359908913014,0.22642805775682148,nm,0.0
174.25026799999998,-26.521806206224554,-25.116422293653883,-121.10226040475487,0.3266595770817418,0.4540105510391024,-0.8416361663769155,-0.17553743585444068,0.07859337830130261,0.27059940622484174,nm,0.0
174.25977200000003,-26.488021888512193,-25.188631214996125,-120.04971967591173,0.34170169836941544,0.4271711109489686,-0.9526379987205617,-0.029251376304434543,0.003732974759049344,0.21708289010150175,nm,0.0
174.269309,-26.477494767371613,-24.890493881409657,-119.4582012259757,-0.009144113967380253,0.2634326413247404,-1.0389786319197984,0.03717985157778207,-0.029791933280445073,0.12278213615839266,nm,0.0
174.278802,-26.086779126310738,-24.71116334019772,-119.34107582834574,-0.2974709163677085,-0.1386738229015858,-0.8599203689083132,-0.01730488806804027,-0.07807454414419825,0.05963798131542816,nm,0.0
174.28832500000001,-25.374025487324655,-24.779793794293354,-119.67832233144442,-0.5879759770981805,-0.6080203231428231,-0.5477764752103692,-0.08955498027388645,-0.10457077066568563,-0.004546790018237382,nm,0.0
174.307335,-23.17944117122363,-25.558502357794758,-120.7266123747697,-1.3507691263917456,-0.9907224448792623,-0.26862486544879405,-0.22629797522583356,-0.14589718361483825,0.030525381093581445,nm,0.0
174.317012,-21.994270810488008,-26.327252785407417,-120.66443154374203,-1.1413219815128774,-0.878640424835261,-0.041377851952508524,-0.2551775444667163,-0.10343246748938548,0.11895770599102247,nm,0.0
174.326359,-20.961425204524843,-26.998790943242604,-120.30885742189295,-1.3201885351885299,-0.5092784679844337,-0.3871470900638875,-0.2235660338607447,-0.08971124461554847,0.1665477280441576,nm,0.0
174.345566,-17.27852685952625,-27.88369306646837,-119.55805985865817,-0.7154843968739002,0.1279835661503584,-0.36171141997704315,-0.25582562225520256,-0.2739010549465848,0.2504336195003774,nm,0.0
174.35487700000002,-15.099235465049665,-27.839883191921974,-119.65974899996269,-0.9787103343608674,0.2747545526069219,-0.464955746441693,-0.19710029754734448,-0.3391177915110212,0.18510418526424463,nm,0.0
174.36457099999998,-12.297314757498647,-27.142212365936718,-120.20783654108736,-1.025459743420378,0.2569421118826913,-0.333645897323802,-0.1414748639399007,-0.50054747339796,0.15020095676482456,nm,0.0
174.37407599999997,-9.268658719831933,-25.947756026245433,-121.05931125387009,-1.1689953816150678,0.08142316836322656,-0.00171616835149976,-0.08488289635274986,-0.5883208814167524,0.1008005838321394,nm,0.0
174.383591,-6.418678869804885,-24.500641644650734,-121.95436747861324,-1.743885134515214,-0.24855775614483291,0.03394776061140737,-0.03698325511029441,-0.5913051512603532,0.06352213774403163,nm,0.0
174.39312099999998,-3.6336080611146535,-23.020107927474935,-122.5269671068138,-1.9199954566557582,-0.6125796387523048,0.36923384621525923,-0.03573312251052066,-0.5897301077734549,0.10882701948767746,nm,0.0
174.40262800000002,-1.617878345276631,-21.724570987760778,-122.59951476499418,-2.052068144864957,-0.7646954286012309,0.4178092239066491,0.003640631564942088,-0.4542437919274846,0.13727491722137308,nm,0.0
174.42163200000002,0.3455046177567727,-19.904409695241107,-121.90640758635807,-1.4791594706180122,-0.3261452381186971,-0.11471545057752928,0.04762063471188899,-0.19986480479019214,0.1163129214377692,nm,0.0
174.43097500000002,0.9754110537907892,-19.25539965629156,-121.99906408442943,-1.15552604305692,0.027616744174819345,-0.3908549454604917,0.03343643234530785,-0.16998460175583693,0.02103829090754908,nm,0.0
174.44066,1.5128887469410062,-18.72033319258417,-122.65088851116593,-0.8371489532491981,0.15545049931071825,-0.019504209368794632,0.02221579983757393,-0.14353289970588978,-0.09833501561106973,nm,0.0
174.45967700000003,1.253049819281871,-16.876008807941208,-124.87658823015414,-0.8646352498862677,0.13612375705417276,-0.15714898100218605,0.18901878723746493,-0.07815891280451487,-0.2488554648204214,nm,0.0
174.46919499999998,0.7082538077113995,-15.696781553970856,-125.73579447753238,-0.7493938187255282,0.038450079153589695,0.05437825707538695,0.23939500028993455,-0.05029723694668772,-0.2057008338048322,nm,0.0
174.47869699999998,-0.29616064211838355,-14.591249254008124,-126.06772257533066,-0.7526704624658936,-0.15479320021140888,0.2737088114946854,0.2793325921330093,0.028390643749966957,-0.12204190096661506,nm,0.0
174.497716,-3.022684605128891,-12.084800057979,-125.18190868083555,-0.013931679320529713,-0.34885614391336967,0.8041752023768192,0.3719212998837668,0.08376950474260032,0.057452813823217645,nm,0.0
