timestamp,roll,pitch,yaw,acc_x,acc_y,acc_z,gyro_x,gyro_y,gyro_z,markers,motor_input
169.504602,1.2916785477658719,-36.77173987627398,-120.35158968777421,-0.6192838750242486,2.722780629278345,0.9217502593845753,-0.5059203158534884,-1.0447671182351008,0.8910140211201237,nm,0.0
169.513927,7.551268877027848,-36.28814251303086,-119.96746716163473,-1.089119522686398,2.8046285053860336,0.7022016314950915,-0.4363769651623244,-0.9217993016161423,0.8216417132880224,nm,0.0
169.523611,12.512062594128002,-35.90273878158993,-119.35662930055352,-1.4497886693840847,2.723526321620679,0.5085197449639215,-0.3439217979529466,-0.7389009873932907,0.7053267864097115,nm,0.0
169.53312300000002,15.880433862278874,-35.646508006941595,-118.60275585502185,-1.587182982633079,2.5833616613437513,0.3731809899148606,-0.2336867559705496,-0.5074711933489425,0.5425252780444587,nm,0.0
169.57134599999998,12.811380716306386,-35.95902128237177,-115.84581704363934,-0.5714223469101721,1.7749546544904193,0.3647662817640585,0.16947319820603665,0.42667354924317547,-0.22965994644587687,nm,0.0
169.580858,9.022914432837007,-36.02212396523447,-115.50687954768235,-0.16716016151069676,1.4799252144329749,0.3320022489614357,0.24091712464079712,0.5551400507935794,-0.37961481986461004,nm,0.0
169.59036899999998,4.759284237106216,-35.982408531224806,-115.41343237660448,0.14878266412970448,1.1277603527800413,0.22659413128647102,0.2902413323477522,0.6172952915583305,-0.48415183125623573,nm,0.0
169.59987600000002,0.381486393475276,-35.86301841591259,-115.56751039056088,0.45307595514609067,0.8440189268418284,0.15405082560625952,0.31308311600234523,0.6283077018262175,-0.545449918500219,nm,0.0
169.609381,-4.048439227891272,-35.769921536807225,-115.95241978942376,0.6311459305858346,0.5491962298449423,0.044478904333016024,0.31531340973431043,0.6382747568343309,-0.5957077782264599,nm,0.0
169.64744399999998,-17.944598512944054,-34.341102285337485,-118.9064974677244,0.574889440019472,-0.3816583865772758,-0.42022501123406,0.3376445936246995,0.36075707537302887,-0.5208362631138944,nm,0.0
169.675963,-23.634078154796857,-31.42143436827471,-121.97523593716657,0.3720106165054493,-1.095905758238501,-0.12973653345076727,0.31972575865244585,0.10713231063765884,-0.37477154433931953,nm,0.0
169.685467,-24.695727467862156,-30.157030013264002,-123.02358457498153,0.404193657689497,-1.4603881373057588,0.01181738771026882,0.2981914317528961,0.02047583852703814,-0.31504138676534665,nm,0.0
169.694982,-25.836806778028162,-29.061997034643067,-123.97849287378185,0.08663100519494948,-1.7444306596432468,0.08701840387821864,0.2791016934458012,0.047375375629660314,-0.3002997834864868,nm,0.0
169.704492,-27.030651838931828,-28.179415595133516,-124.72958751324948,-0.08033814788263846,-2.0947678665346907,0.294303095300718,0.25100990050219213,0.0764840894875917,-0.26097218029968205,nm,0.0
169.71401,-28.43771598883957,-27.307372606001575,-125.40459163274961,-0.1487380688536097,-2.4186313338617125,0.46521583979188974,0.27298371465671145,0.10695579772368927,-0.2621921247988172,nm,0.0
169.732852,-32.00084964868039,-26.251523864796145,-126.68933828405456,-0.12496300447128275,-2.570294393310623,0.3335743719198776,0.23344452458625664,0.23758775021998849,-0.2869361161762568,nm,0.0
169.74235000000002,-33.858956991746986,-26.65569019089046,-127.29605150712902,0.16395558891640324,-2.7939163040955632,0.5569662691352323,0.12313488281158011,0.3186546103100609,-0.2821425956899624,nm,0.0
169.761381,-37.343601754472466,-28.196241255287738,-128.87460553173472,-0.18087113505543934,-2.319777007826675,0.045406417583733,0.026636563300794096,0.3400270762481113,-0.2913593745563137,nm,0.0
169.78039299999998,-39.342650920421654,-30.328737092717027,-128.79692930119057,-0.03923870466419409,-2.08464171197719,-0.05660954020321286,-0.0640452679074167,0.2596953626891061,-0.03290770747750096,nm,0.0
169.799411,-40.38007039803077,-31.723440000303565,-127.19102331989554,0.07055025593708275,-1.474764020381846,-0.5044940507247143,-0.09002564430401892,0.1323725126908381,0.16971603003102423,nm,0.0
169.80891999999997,-40.27639199162646,-32.66793352477025,-126.08647674155635,0.26821543307848156,-1.1827767449002295,-0.5669305626175624,-0.17399962007569628,0.10323232931333748,0.23882274982173063,nm,0.0
169.818455,-39.636586391424,-33.88789210541277,-125.24153554738604,0.4136102175691704,-0.8934794692700327,-0.5217025622764185,-0.2727336907592177,0.059775543856572966,0.24602980496713386,nm,0.0
169.837641,-36.112394941963345,-36.57585939310877,-125.36155623919979,0.5526293657037107,-0.32805241881426367,-0.3801611213006562,-0.4295081776943923,-0.12448011723522702,0.18374375874688484,nm,0.0
169.87567600000003,-25.666387291812203,-37.52051244814332,-126.88337538786908,0.46308052899473057,0.3822225780414779,-0.0037038149664450266,-0.13952387391099041,-0.40369833436968655,0.3542130949316098,nm,0.0
169.885192,-23.100896795507555,-36.44465970297305,-126.22964601751487,0.36844752945782805,0.601665535765012,-0.018062486793117668,-0.08464627853200941,-0.45457441389179654,0.4438342601173475,nm,0.0
169.894694,-19.91285519684048,-35.25861726476887,-125.35895981027541,0.2684702963224245,0.8412960559934084,0.1322236303895766,-0.12361986414487305,-0.5558457371928098,0.5514285674873147,nm,0.0
169.904212,-15.758453519768475,-33.954182865875666,-124.62551657519363,0.3354063378578862,0.9631710864808973,0.08819138062757388,-0.19264680846471754,-0.7086451294261145,0.6216247326071018,nm,0.0
169.913711,-11.195573940051347,-32.84186863393699,-124.2447181401635,0.2552956043261736,1.4603444582939402,0.05688022182142446,-0.2618276479944754,-0.7536502683969138,0.5805563536889252,nm,0.0
169.932562,-0.5709126292930029,-32.3873903981309,-124.50446026047126,-0.1759283310096415,2.0897134206413956,0.540449970626441,-0.5383736849663551,-0.780177323935664,0.5397503988438809,nm,0.0
169.94224799999998,4.629693254274323,-32.192792724589616,-124.8265836163179,-0.5413711495538047,2.3397818578859972,0.5854766552046031,-0.48281536500814265,-0.7467602179890932,0.4903695681300328,nm,0.0
169.98012000000003,14.68431166732618,-32.89668415638042,-120.82701897855394,-1.277366114182579,1.8727956115169102,0.2005157039595679,-0.1372048307281475,-0.002009831560009465,0.4415512943293959,nm,0.0
169.989807,13.886424683599568,-33.53943128099865,-118.5092566008101,-0.9759419347077264,1.7254880842129063,0.21090673872810803,-0.059179538421751374,0.17634490241928583,0.3737006774585074,nm,0.0
169.999313,12.164485009714978,-34.11364618521559,-116.36368511026699,-0.6363902670182721,1.5676783770216849,0.2250813395630493,0.01644292695405519,0.30342777659603587,0.2351415917625141,nm,0.0
170.008818,9.924718277685342,-34.39168115994314,-114.80859859335867,-0.33279065256024565,1.3600956330118097,0.08153461643605459,0.09634819372763684,0.3545861453785543,0.05682519665616711,nm,0.0
170.02785100000003,5.337010924725603,-34.3205863680205,-114.22831703007071,0.01985030692158677,0.8869474561324955,-0.13363829165723062,0.15220092349904618,0.33152921667754776,-0.2811261804079861,nm,0.0
170.037367,3.2064172735023053,-34.27817762537483,-114.81934456537597,0.04067826429460477,0.6179833850905289,-0.146105890494359,0.14014460983955285,0.31434406666128933,-0.3597148523724814,nm,0.0
170.056391,-1.453272153846799,-34.136123846942596,-115.5916969749998,0.02848192350806136,0.22151100848716415,-0.14164041253597354,0.18132461238929146,0.3613437735448565,-0.31903905145854866,nm,0.0
170.065884,-4.02488452677849,-33.938304649796926,-115.25371331442417,0.02298879399149374,0.07460912653001894,-0.24110357701966417,0.20486692620207494,0.3667059696166027,-0.22037743899956655,nm,0.0
170.084911,-8.741474952515482,-32.88102217213035,-113.91122011380708,0.3854360076056686,0.04507650048582621,-0.26687572106248447,0.2652493728375168,0.2973562857556546,-0.1243864770742767,nm,0.0
170.094436,-10.531471227431362,-32.04542884118612,-113.7446300653804,0.3940715569048928,0.03938972759391275,-0.3919900383185431,0.2611368199185547,0.20781439825996664,-0.1578958357580787,nm,0.0
170.11350000000002,-12.017984330275683,-30.245430728851613,-115.65809135821355,0.4896872320861362,-0.13548277742693607,-0.12127080829099039,0.18866193342674242,-0.0016639086385261761,-0.31952970760061417,nm,0.0
170.122966,-12.131681057867283,-29.206539051326356,-117.57045810719683,0.3347510333188665,-0.3615877429083808,0.032249953758069994,0.18073407358331237,-0.07566735911349806,-0.39301085981354683,nm,0.0
170.132461,-12.201756425013407,-28.029339820067246,-119.63298073838497,0.2380364273162149,-0.6552043392107239,0.2743023950209961,0.1987432333973833,-0.10168500708945168,-0.41862163829455573,nm,0.0
170.151484,-14.073183861209136,-25.525721288134047,-122.71721730299323,0.11781138096766601,-1.386195853124338,0.6222458981066197,0.32348152908329675,0.07103958562149533,-0.37317145905042226,nm,0.0
170.17049899999998,-18.99473023220641,-23.814968694790707,-124.0095980982492,0.13150265787530271,-2.1038605800743655,0.6029459630011765,0.37911913949830167,0.34028926430647055,-0.3243297331140298,nm,0.0
170.18934299999998,-25.631600832899142,-23.673726639931907,-125.40773684037971,0.012493326257703856,-2.7169410729423014,0.3126353196168684,0.3235966993241372,0.5457891603463084,-0.4423904433957181,nm,0.0
170.19885000000002,-29.092003561030804,-24.561222537081868,-126.42073901042092,0.24440490869505982,-2.8764130616952084,0.2878584274098463,0.2138786597109111,0.619761980323359,-0.48195765598686124,nm,0.0
170.208364,-32.313985425698846,-26.243123656190715,-127.41122409348021,-0.3300067695517768,-2.5822130071588694,0.09604404240308274,0.06804736663933002,0.6720667430640447,-0.47032533757575923,nm,0.0
170.227381,-35.281610920070854,-29.683414189437283,-128.32552362033658,-0.1751287752569613,-2.077800602487912,-0.11547154732348065,-0.13707086285361209,0.3358861381149656,-0.14717335227945458,nm,0.0
170.23689099999999,-35.86615805913755,-30.698886800435975,-128.14584718355422,-0.3506261540543966,-1.5806574117792678,-0.49921937337525507,-0.10930106501003391,0.20980508941374137,-0.01717756712272048,nm,0.0
170.26544800000002,-34.28621645969935,-33.774354987718205,-127.7038143955799,0.5263330573175333,-0.7984343418125598,-0.46324139786647417,-0.3036669695162255,0.03162324237062906,0.026699827234212357,nm,0.0
170.28445000000002,-30.64647714345804,-36.69038077704693,-131.07502107057496,0.38189267173750946,-0.6610867216400693,-0.1169088555599466,-0.44820083524785287,-0.039842233447941695,-0.16750723095424522,nm,0.0
170.29412699999997,-28.68140847025815,-38.15611250684466,-133.0829407314398,0.13310608127619974,-0.5342434779314904,0.09406232439744092,-0.4393001239574001,-0.02968974369239927,-0.15785175568972906,nm,0.0
170.303642,-26.762541962804058,-39.1594244040136,-134.54617609375828,0.17358184847060945,-0.40096118956440296,0.18099797416809882,-0.36475599857963575,-0.07164926718896392,-0.0481720882233323,nm,0.0
170.313167,-25.218504055233456,-39.52182260071042,-135.06950097463138,0.1760799537392817,-0.16679427937236946,0.008315455724621527,-0.2321721173634812,-0.11275121859120388,0.09573839365614617,nm,0.0
170.322666,-23.891198611637996,-39.32415515509412,-134.5360696163347,0.26242257678041087,0.06393431516750545,-0.20928704835086984,-0.12899206971113064,-0.16807928980445605,0.27984642935179316,nm,0.0
170.33219,-22.34955489779799,-38.714364059307314,-133.27525911379192,0.5312732401377365,0.288623936925473,-0.33279631230568196,-0.09106420301155228,-0.25247361436331717,0.4507235971618295,nm,0.0
170.34170200000003,-20.124787993302743,-37.84716969687294,-131.87337219728778,0.6049492094767276,0.5310064163413426,-0.38755922680693977,-0.12180104197529677,-0.37060401327109177,0.5601373739835899,nm,0.0
170.35120500000002,-16.561071969777903,-36.81052672700397,-130.8542283154857,0.7557750031390769,0.6499249442320297,-0.3827123215008807,-0.23269504582487277,-0.5593205111053292,0.6395157578786774,nm,0.0
170.36069899999998,-12.078024873993893,-35.84136180101563,-130.5038727146011,0.839776951691949,0.9385560205718918,-0.0021238701160009236,-0.33807932482360536,-0.6718505935327586,0.6038103618291489,nm,0.0
170.37023200000002,-6.894047989428309,-35.12408477458717,-130.77744433297536,0.19163422306373643,1.2024077896089025,0.04383479369544937,-0.45558662100510244,-0.7323889131027405,0.5487184231551908,nm,0.0
170.408266,15.44790100420602,-33.272415005119626,-130.99533849608298,-1.044302602416935,2.185648597988802,0.42402405871610777,-0.5253589681440782,-0.6175923893224141,0.6753938099296478,nm,0.0
170.417583,19.036645742636356,-33.67953562135398,-129.64868607255158,-1.1641404654879868,2.305366757382364,0.2813268022789364,-0.46374538249905684,-0.4059927166152732,0.662447787160988,nm,0.0
170.42709399999998,21.174197465907096,-34.4077260538588,-127.89251164270021,-1.2702570836355664,2.2664767135765578,-0.10249149842778832,-0.34933576545036243,-0.1877312769570947,0.5875348040628476,nm,0.0
170.436609,22.119774118769612,-35.21796714397876,-125.96821718379422,-1.1588662423849692,2.235041637028655,-0.245038140341525,-0.23651624986730127,-0.029924894481955747,0.4897041481522808,nm,0.0
170.474844,15.95117674498595,-36.153988947785564,-120.41613318611076,-0.5375619233791095,1.2356698706781695,-0.0316678688008427,0.23115309462042116,0.3377741198185554,-0.11188941348162149,nm,0.0
170.49384799999999,9.470376609473917,-35.74645063606985,-118.5217292525439,-0.33914682212474223,0.5251679227657351,-0.03108668472344162,0.28579698041538754,0.457823880556428,-0.19686377679802144,nm,0.0
