timestamp,roll,pitch,yaw,acc_x,acc_y,acc_z,gyro_x,gyro_y,gyro_z,markers,motor_input
181.002685,-12.626257114933582,-15.502786378562678,-118.8143531672214,3.40521353888205,1.0186808827142413,0.6133841551416566,0.575266870288407,0.8849056503793923,-0.2591277164585494,nm,0.0
181.012193,-17.670264784744838,-15.251004490346917,-118.0211001219035,2.6804700793896084,0.5139552047823128,-0.5120732298285058,0.4935791885026377,0.8327906363687541,-0.10849100908949498,nm,0.0
181.021712,-21.30490945966011,-15.451475739849249,-116.93326735573328,2.2558211576714475,0.12223392429082143,-1.1038748176360913,0.27407979648723246,0.6413827833210515,0.02645270472683922,nm,0.0
181.05025700000002,-24.918738747131616,-20.98013180119218,-115.6740997997347,0.8823186475971725,-0.330600257579451,-1.101279346685798,-0.49722666105792085,0.20076873164570785,-0.014742611157798591,nm,0.0
181.07890799999998,-19.72758361378194,-27.28370777602652,-117.28828516960058,0.10765142177615343,0.1546125443929565,-0.4363195202483158,-0.42998370180857015,-0.22361906580561877,0.141337675870359,nm,0.0
181.097932,-16.319855389376944,-27.680662370122707,-115.41383310925922,0.03856270528098882,0.23534082077525373,-0.5665427585090239,-0.11217441267807862,-0.2489319951542663,0.4091373689804441,nm,0.0
181.116953,-14.498480404049483,-26.354273801268963,-112.39448941270463,-0.2819084501755451,-0.08364162309970838,-0.7321561949809006,0.07036887969157395,-0.20311802702762663,0.3530172827901013,nm,0.0
181.12646299999997,-13.333957353475,-25.651721346971918,-111.66786865125104,-0.3051030033841133,-0.35054679926371285,-0.5107689563078655,0.03769551902278685,-0.2486165992181511,0.24864047666036782,nm,0.0
181.135993,-12.105318670100162,-25.17882253159183,-111.71995735492,-0.5595224655096664,-0.630765107113964,-0.3207454576060609,-0.008246688951101425,-0.24315101620275606,0.09579660196807183,nm,0.0
181.14531000000002,-10.765394411487897,-24.92506435947652,-112.32780685824196,-0.9783691276310441,-0.8827830844658248,-0.27435908778646934,-0.05814324895261125,-0.24603741256033132,-0.00774078778546914,nm,0.0
181.15498799999997,-9.252223113974432,-24.837860786880192,-113.03188669744007,-1.0311343726160134,-0.9339777332219505,0.0603900280244912,-0.10398083892831535,-0.26198793133115,-0.01344061981849336,nm,0.0
181.174005,-6.28180887811161,-24.325262586696443,-113.50760051216463,-1.2137151477609829,-0.7043415662039453,-0.06483054077212827,-0.05956726466529217,-0.2939859280209744,0.12636372774308108,nm,0.0
181.18351299999998,-4.514167427281012,-23.694749268553522,-113.07703627558848,-1.1259072731853674,-0.5070993917016712,-0.042646819101869175,-0.025905401908712995,-0.3490289464433365,0.22918676718368844,nm,0.0
181.19301700000003,-2.61196616699378,-22.78883756365955,-112.31810313245862,-1.1052450527843338,-0.3835402812252816,-0.02845784228983812,0.018383735209910577,-0.3953817909284134,0.30072565471528667,nm,0.0
181.21204500000002,1.6943236475012142,-19.972811890871487,-110.62487972587617,-1.1379392566886362,-0.4386547964331787,0.1454250463210564,0.12740694147440504,-0.5002014889828296,0.3144471797969304,nm,0.0
181.24058399999998,8.09636141998625,-16.76953712166662,-109.3477219830117,-1.7045826222920295,-1.1769115880363237,0.32376912335103375,-0.006458979981769689,-0.3718401187268751,0.1645233413352418,nm,0.0
181.250102,9.41068185522563,-16.502942891269235,-108.96501585073877,-1.587456570673303,-1.0557549476014774,0.2885454083954913,-0.04510522370881096,-0.25983144591268986,0.14732799115793171,nm,0.0
181.26893500000003,10.130025285803152,-16.93922004595394,-108.51348799814119,-1.3054387040140114,-0.5921086426581877,-0.2668530273782783,-0.0806856044932912,-0.00555411795097578,0.023884021810348467,nm,0.0
181.28813899999997,10.334520091656353,-17.335345468701842,-108.89586571943943,-0.9554786663086267,-0.2063950056332001,0.02550917519266899,-0.02712105270303936,0.00910198780682249,-0.05733659525591823,nm,0.0
181.29764100000003,9.895197245061459,-17.097097735440663,-109.10851995238085,-0.929793069232484,-0.15751874614451492,-0.131484163442109,0.05970620235574062,0.05976532457594366,-0.07325462287906775,nm,0.0
181.31666600000003,8.643722079203625,-15.150161902905957,-109.18526401445226,-0.3403132184551984,0.1843867310889344,0.34845227320030947,0.27159012990703923,0.05578727406894649,-0.04978672610459687,nm,0.0
181.326179,7.462762848522873,-13.396231295426979,-109.38782876643457,-0.025167757734719496,0.38331668054135987,0.378702478428173,0.3942945646900674,0.09672878957617236,-0.10355824402774698,nm,0.0
181.335676,5.917005728227359,-11.331998353107329,-110.0462608465144,0.4004262289874564,0.5488832675663227,0.898022191819046,0.47809319132284805,0.14202396640104892,-0.20276541404462936,nm,0.0
181.3452,3.583725170905418,-9.08378216822177,-111.3173113988034,0.6776753822241885,0.6835003823471,1.183388266608199,0.5703465041409087,0.268712095968349,-0.3417311206418134,nm,0.0
181.354703,0.8224176068127663,-6.957458388365731,-113.11241752212015,1.2083329972586856,0.8259217134424844,1.8177137332659763,0.5877380109202321,0.3441767235331832,-0.44066549910672537,nm,0.0
181.36421700000002,-2.6287645069334835,-5.438658052431818,-115.16221115580014,2.0810035053606413,0.9837482794111194,2.5387874096919965,0.5447982773733668,0.5016543719254191,-0.4885529270698128,nm,0.0
181.39278099999999,-15.599938518551344,-6.0822890998315815,-117.81314799727659,3.1263949670443076,1.3947782437837863,1.1743246986795004,0.2282385655174247,0.7760304345299055,-0.04325535136495204,nm,0.0
181.41163400000002,-21.92026972517483,-6.9329306365053105,-114.68772336503696,2.7429646283673907,1.182448728960883,-0.7091466341780096,0.13728183251877074,0.5579812260363872,0.3130989600631714,nm,0.0
181.42115099999998,-24.24055854213683,-8.390121848053784,-112.73657521504016,2.230146563059148,0.8026598381877913,-0.8927526373324434,-0.09609275770196732,0.5380890160108998,0.32987502080918324,nm,0.0
181.43065099999998,-25.51685503148964,-10.590127866010777,-111.58611773309939,1.8454794818947704,0.3400294124914472,-0.8448903154055015,-0.3269604134621642,0.3985812381437915,0.1899151427117003,nm,0.0
181.440171,-25.925384685878665,-13.465749060492318,-111.64973231427959,1.346164377389913,0.03862820171923942,-0.8497224380418609,-0.5198525723290757,0.2855987308852468,-0.027642118049803936,nm,0.0
181.44963800000002,-25.57501610240478,-17.125369614490886,-112.57814900797356,0.6155849086625277,-0.20641988715289794,-0.8342701742909963,-0.7183652246443227,0.21258335007267348,-0.16487543404894933,nm,0.0
181.459328,-24.37603779891784,-21.070354276895483,-113.77766807319522,0.10962721690772877,-0.422241384372717,-0.6205508525094093,-0.8294463070700887,0.102108023597985,-0.15891522389339757,nm,0.0
181.46883599999998,-22.83765830533156,-24.46017875195953,-114.67186108818645,-0.1289151592058321,-0.265001560764229,-0.43213768819083737,-0.7495079522190823,0.01947369943524846,-0.05714324442522257,nm,0.0
181.478348,-21.47436858422717,-27.019556326004853,-114.60653113235631,-0.3533205890594556,-0.021318438428401126,-0.505429659149345,-0.5823175696412641,-0.009867680295389595,0.13424398344729366,nm,0.0
181.487852,-20.365036238691665,-28.80328705182033,-113.29297520710334,-0.17751030294311157,0.14801114676894617,-0.6116473998745698,-0.4201149637169191,-0.03477186623779055,0.36952164409385435,nm,0.0
181.497379,-19.74878547571336,-29.88489824189322,-111.13810484524139,0.028810471128991495,0.24042948581857584,-0.80829811853668,-0.25517250018629345,-0.018608401175434105,0.494467955602249,nm,0.0
181.506793,-19.464622913530437,-30.47947990905881,-108.9489505211347,-0.13443238848736905,0.25774237119986165,-1.2162220562930834,-0.142642327122224,-0.006854044558821961,0.469498845610827,nm,0.0
181.52571700000001,-17.139909386704023,-31.68546152975954,-107.07547565143582,-0.18945569459104386,-0.09800724627457717,-0.8987618709946623,-0.2210384088357308,-0.21109370836545183,0.2347897826114252,nm,0.0
181.53523399999997,-15.043681301109158,-32.396324531907986,-107.88119574257992,-0.5545085212629866,-0.44105994301777834,-0.6721335884362345,-0.2565259521856147,-0.29875248913879077,0.06339031931729941,nm,0.0
181.54473700000003,-12.439695905904747,-33.071781736495524,-109.33992980764421,-0.8714219354026083,-0.6830968728284732,-0.4321730666470435,-0.2820927121968499,-0.37457596178485536,-0.008453909478909422,nm,0.0
181.554267,-9.725181742268717,-33.741986612659545,-110.69786841145991,-1.1462687835414467,-0.8432640664549673,-0.1791554568517036,-0.2954028694519649,-0.38245418466198666,0.02863395615302482,nm,0.0
181.563925,-7.35490009195786,-34.314122680886335,-111.3000166043271,-1.273131378237207,-0.8606245748946463,-0.0002096199652180395,-0.2619119875588396,-0.3284033882116171,0.14590121659695235,nm,0.0
181.582954,-4.745696636027475,-34.77769794089272,-109.52437512056109,-1.166981228097885,-0.6511356311713836,-0.21850560964636986,-0.09200188659334647,-0.14278666942450113,0.37624121138424466,nm,0.0
181.59246800000003,-4.139230151694558,-34.7699270894016,-107.79122386247398,-0.9890193919612511,-0.542521216996513,-0.29524060227741517,-0.044217929310295945,-0.09854895014866939,0.4165839926646315,nm,0.0
181.601979,-3.622948058103693,-34.58175250707846,-106.25788142257166,-0.8806590070709184,-0.48855276399107883,-0.3078072705767978,-0.0025167925609550636,-0.09630076278424173,0.36603207370672186,nm,0.0
181.61149300000002,-2.874714369313882,-34.12098354591694,-105.38242829437773,-0.878769707098611,-0.5105086894790971,-0.27847748409899664,0.04149526567025763,-0.14843844343617366,0.25986048879685875,nm,0.0
181.630507,-0.12097993454064923,-32.62903100880954,-105.7356892244382,-1.0128796852822601,-0.7525140451593372,0.02838168059033515,0.07097913825819999,-0.2977017190218452,0.07916263884765233,nm,0.0
181.640009,1.4246246042823438,-31.728198516418924,-106.29168461443405,-1.1003997437416382,-0.8422509737562665,0.1448701301500731,0.08771299313831132,-0.3061241590484771,0.05250604125627846,nm,0.0
181.64953699999998,2.769429168710528,-30.696014383327913,-106.57957382230701,-1.077038084081728,-0.8060768983548692,0.11703559621701261,0.11973613765521189,-0.2840370592728095,0.08052229190548137,nm,0.0
181.659033,3.859755960893749,-29.62075475804664,-106.45472302581088,-1.0384195116066313,-0.7112274400736662,-0.055322367701867076,0.13950768543481837,-0.24700172158633896,0.13294490703711417,nm,0.0
181.668553,4.83166349324676,-28.613152497572734,-105.9648231665989,-0.9209637759329413,-0.5412070390932748,-0.12249307530817069,0.13315025019952262,-0.22459154471097242,0.19071942762273228,nm,0.0
181.67806700000003,5.666852199091228,-27.615269814712505,-105.29445818338264,-0.7624307679809694,-0.32483449784785706,-0.12064891557504896,0.13969232807369386,-0.20110730583096742,0.21066384504110028,nm,0.0
181.687604,6.369273094876738,-26.486477999161345,-104.70583861905595,-0.7047829908794359,-0.1985776880012333,-0.23467432829601464,0.17303694721111024,-0.18488102239521978,0.17916926287442517,nm,0.0
181.716101,8.738507741616345,-22.035645920563553,-105.17021044554508,-0.6805146004872168,-0.07573563663645644,-0.00396139659035969,0.27095063032684175,-0.22739730654075524,-0.059537936331182185,nm,0.0
181.72561299999998,9.482652030557269,-20.177210601216988,-106.00400440128666,-0.6757096156096454,-0.07872341281119247,0.11205731488619393,0.3084816426713222,-0.2389291019376078,-0.11736885399396232,nm,0.0
181.73512300000002,9.998704882764008,-18.151352363353322,-106.95345816168917,-0.6423173888416356,0.004222360110122739,0.2101978009388462,0.3487109300836402,-0.21339510576563284,-0.16064130336433255,nm,0.0
181.763654,9.542573933348441,-11.841555886842741,-110.17882422089711,-0.05452737629643656,0.7884144780540375,0.8142040256121401,0.4245297043881494,-0.03319380389033457,-0.26821387344823805,nm,0.0
181.77317000000002,8.224344498288628,-9.705383709365352,-111.55243948191702,0.2906368087356367,0.9978031701778352,1.1872600378662013,0.47922866335007547,0.08711564311243156,-0.32964347886455103,nm,0.0
181.782681,5.84802857884027,-7.627781142219505,-113.16369411967392,0.6678491519862729,1.0531401085241263,1.757584125596749,0.5506233297244882,0.2746973591121919,-0.3993532806384445,nm,0.0
181.792182,2.428976900816646,-5.694428040118974,-114.89555199152842,0.7656245318127444,0.9261176687790795,1.5899465530386248,0.6171308658552564,0.46214984277404014,-0.43072129023943306,nm,0.0
181.80169400000003,-1.249622845292134,-4.100386186353766,-116.45938808993581,1.3009909136098772,0.6065047497515987,1.566773965695738,0.5920781020969159,0.5225124649436315,-0.3799990593726448,nm,0.0
181.82075899999998,-10.18428653553308,-2.6476246456164234,-118.10463716304581,1.2826576984794573,0.07828272215002013,0.5921165326779431,0.49886731587341054,0.7479246024563947,-0.1455006268308651,nm,0.0
181.830257,-14.0150537273508,-2.0779169159880824,-117.88391911736832,1.7350373523132452,0.000993744426077838,0.38615912076322345,0.4463483825658924,0.6234102722298659,0.010884973585184246,nm,0.0
181.83958299999998,-17.680403715826127,-1.7879122705751156,-117.17347253760185,1.777301293202086,0.2092499223041115,-0.03471260588911007,0.37634348689212566,0.6237421427466723,0.11653745343008064,nm,0.0
181.84910599999998,-20.41096479161311,-2.16715706934119,-116.2671610300506,1.5558490607289994,0.40592150342824457,-0.4924781540450147,0.1636782342880745,0.5221253952839785,0.16229284384761053,nm,0.0
181.86812999999998,-22.768392892269322,-4.478079631470877,-115.80205818179967,1.3750224795800556,0.374593435061902,-0.33665712350397187,-0.17972493485542956,0.2789220867731571,-0.03808196503822348,nm,0.0
181.877845,-22.85149621717729,-6.173268961839771,-116.59053779959001,0.9221840882586674,0.2792809208565481,-0.36821887722370483,-0.3114524961263834,0.16473017484310254,-0.15867651236014482,nm,0.0
181.887348,-22.335620452777903,-8.033247660019315,-117.7157990513292,0.5778622093307062,0.022631837722359938,-0.2197666472701502,-0.3923566033183303,0.07906043001760518,-0.21168385602685838,nm,0.0
181.89684200000002,-21.749634285970973,-9.755241604995415,-118.77232362882307,0.09753833005415734,-0.04370873613033577,-0.18814068844275558,-0.37278590380052523,0.06161348390645112,-0.19249321667422853,nm,0.0
181.91588800000002,-20.32529823528583,-12.490700946702995,-119.08558601143145,0.0013972404451974261,-0.10577509204704429,0.00035519043916127567,-0.29847676849237553,0.008658704010788604,0.07033977167643805,nm,0.0
181.925372,-20.12733062469848,-13.500925140741614,-118.34410098780441,-0.15825336427572084,0.025814263612116844,-0.21830380122440035,-0.21015130093329018,0.06375936377426267,0.15829185185357703,nm,0.0
181.934901,-19.965379613761044,-14.271099528848778,-117.45490881585147,-0.04365965430536172,0.20872357960876747,-0.4253598788511539,-0.16521044270707086,0.04456781208446941,0.1867900065641984,nm,0.0
181.95389400000002,-19.983681493458196,-15.733489139854386,-116.83153164297468,0.15595212620240947,0.388315300947868,-0.5820992350749198,-0.1381855688896793,0.09058547027924775,-0.003259425632923128,nm,0.0
181.963377,-20.071047598494783,-16.503917494906815,-117.48236998278236,0.13438461194137422,0.3418081720883172,-0.5575906060160378,-0.1437340524506188,0.0856529732710214,-0.13389658287505016,nm,0.0
181.97289300000003,-20.119983535764916,-17.21136591074018,-118.59821423340985,0.07726972117385363,0.2159350586785477,-0.4789892908781335,-0.13474135305258098,0.07545040135196984,-0.2248864261465056,nm,0.0
181.982402,-20.20493591314298,-17.81040885333298,-119.79060751487208,-0.08736381772221814,0.07153156200530669,-0.48173740336585535,-0.11089340971010117,0.07356319930727653,-0.2424019890211743,nm,0.0
181.991951,-20.300621584471397,-18.251992776941854,-120.16750512857159,-0.14063073511676913,-0.08145298468709193,-0.4278252519841216,-0.08182231303412205,0.060675765500528424,-0.17746023258248203,nm,0.0
