timestamp,roll,pitch,yaw,acc_x,acc_y,acc_z,gyro_x,gyro_y,gyro_z,markers,motor_input
169.01024700000002,-32.59717889955601,-40.83032638069405,-134.7930270560378,0.7734770250228914,0.14507025858999287,-0.027930524708480585,-0.3338816558017632,-0.42857405541156907,0.6811663540388231,nm,0.0
169.019753,-28.625903113038778,-40.411036325672335,-134.05701092005796,0.3136102035216096,0.5787236066683681,0.08962494915271138,-0.37446717008883196,-0.4839758293520529,0.6702256640078329,nm,0.0
169.04827200000003,-12.05269000959906,-38.59493581724188,-131.87372319841353,-0.06232570769671488,1.6380108095846662,0.817745006201031,-0.5311129348106041,-0.7609385409384429,0.9159048376822962,nm,0.0
169.05761099999998,-5.892866001685853,-38.15071570384274,-130.72067265977336,-0.16618351551333174,2.0800645613647375,0.9611617368725132,-0.5855131000224749,-0.7829223164994803,0.9975260948586528,nm,0.0
169.06728999999999,0.07603753560971166,-38.040247148938825,-129.42139048044896,-0.33655814702275744,2.4661161694958538,1.104522133692142,-0.6028903850685802,-0.732992745760056,0.9975102715144919,nm,0.0
169.07679800000003,5.282765812353333,-38.117761681719266,-128.1317970982418,-0.7425820515333258,2.6587438401686905,0.8327003781279069,-0.5403825609861055,-0.6301529450040292,0.9003894551087084,nm,0.0
169.09563699999998,12.682873855860548,-38.55045602222061,-125.87258576796745,-1.1160643015429716,2.663650287514685,0.40852011523233533,-0.34048139144620815,-0.3589120860603525,0.5918978497773386,nm,0.0
169.124356,11.984811168881787,-38.91193170918417,-122.6201709124434,-1.0299096074067013,1.8025915483754233,0.23289133217632974,0.1312454404203509,0.23402452029820275,0.015990527770071466,nm,0.0
169.13387100000003,8.911583961538515,-38.96721664064434,-121.3293566216718,-0.7194721247309438,1.4528758133318351,0.3650094072961387,0.2300867066721443,0.4096947441824084,-0.12956379369959126,nm,0.0
169.14336999999998,4.886243348984164,-38.973941344387754,-120.06155780741435,-0.3808158137509856,1.0868819527658606,0.4276138601825995,0.3046587798113591,0.5376867743673164,-0.2537653568386507,nm,0.0
169.15287800000002,0.3595734094917244,-38.858517952124444,-119.00459562474295,-0.04189173340366987,0.7553647830409979,0.34099142689041223,0.3535969860072791,0.6008204033948119,-0.357757882376079,nm,0.0
169.16240000000002,-4.215864686799607,-38.6745459613182,-118.38270091141258,0.2487259980080768,0.49465271106735786,0.1356157768188545,0.3611328104402862,0.6080990798264846,-0.44838532382210483,nm,0.0
169.17191999999997,-8.533385318579016,-38.527049100131826,-118.33302834046385,0.5285212487365263,0.33297935121976246,-0.022820956438154717,0.33280646607988196,0.5803399965955122,-0.5279130612555011,nm,0.0
169.181433,-12.591589916215986,-38.45889063968335,-118.8624519821916,0.6554339712828866,0.20667478603039746,-0.2103352560348999,0.3024413782428266,0.5524182056179343,-0.6095415887263667,nm,0.0
169.19094299999998,-16.17838004545481,-38.36978028476989,-119.83360579133766,0.47438819075153105,0.0845628094349817,-0.47970002515154014,0.2775541335125163,0.48303206532872633,-0.6378255754523948,nm,0.0
169.20046399999998,-19.04720490465028,-38.14287025804499,-121.0007278264167,0.7805834433286021,-0.09005074683707556,-0.3609105326641284,0.2539290380489332,0.3678697339911703,-0.5860099310671903,nm,0.0
169.219479,-24.6657430134084,-36.811636822949765,-123.3001753144278,0.4601527360531594,-0.5825821906497689,-0.313049300727963,0.3668930544188185,0.285623989348885,-0.550326061377524,nm,0.0
169.22897700000001,-27.140428018647064,-35.66680576560274,-124.18575079587907,0.5289849150697905,-0.8605961743782373,-0.17479819162264698,0.39962577048775677,0.20835128481749074,-0.46563878673945974,nm,0.0
169.238479,-29.53653404419352,-34.34245550894853,-124.93502207736826,0.4555408869969433,-1.1363726068664242,-0.045465650634898755,0.4285207475762848,0.1768528396531394,-0.42030949361346037,nm,0.0
169.248003,-31.742810497346863,-33.000018018181265,-125.62662036884367,0.29053905478538206,-1.3742883236436279,-0.10631102747030724,0.41917173552850123,0.14874437411729094,-0.3781695978738495,nm,0.0
169.257504,-33.70773583184409,-31.87252112105519,-126.30511774869531,0.14568182661157528,-1.6328739529604586,-0.015273886647568497,0.3653125773633105,0.1402357786120707,-0.3413757855532401,nm,0.0
169.26701699999998,-35.43540577861871,-30.961382145761018,-127.08053415745499,0.12867070134524572,-1.954327883756219,0.19181822405970475,0.31044241762427643,0.13197728200972644,-0.3298272379795971,nm,0.0
169.276531,-37.19634745146957,-30.22455088892559,-127.98582999212391,-0.025337246331210095,-2.2314483473427114,0.2967793396673608,0.28987348470380797,0.1553042806185403,-0.3546834538581498,nm,0.0
169.285849,-39.10595089818009,-29.744196659667235,-128.87647900100515,-0.13671490650602003,-2.5016940651995676,0.4282698344016978,0.26942227611488717,0.20438901591263497,-0.36308156820215665,nm,0.0
169.295358,-41.160077865447526,-29.585893867335287,-129.6867438609991,-0.166544417476892,-2.6899329162560277,0.4430906338657768,0.23932534916146742,0.261536741536439,-0.35910634111997425,nm,0.0
169.323902,-46.640376512391185,-31.620190362331396,-130.6334675544207,-0.18467922930664848,-2.1670393557822107,-0.00982269128542385,-0.0034664883459007366,0.3056574848324018,-0.13718900735514641,nm,0.0
169.333407,-47.70564837080294,-32.415185131810645,-130.4034419279681,0.0768073966182142,-2.0227431776615337,-0.15120005261657887,-0.01389709144357845,0.24646436322192108,-0.059121329730601295,nm,0.0
169.35241299999998,-49.48531049836216,-33.83541954605033,-129.0779180424673,0.10107661825046393,-1.5079324101890796,-0.5413859384973305,-0.048879742051257155,0.18733546808626225,0.08818985054367025,nm,0.0
169.38096399999998,-49.26431520624577,-37.31073269364898,-127.8464004775959,0.24138341910041544,-1.0409273523223828,-0.5930197678756386,-0.29962101672130265,0.08619412763423374,0.10372405971558643,nm,0.0
169.390479,-48.18285768598587,-38.83205174676377,-127.94434836099316,0.30119251869405095,-0.8547614431319284,-0.5046913411870603,-0.3551001911158604,0.05841692993377469,0.12210821332674804,nm,0.0
169.40966899999998,-45.152818217178506,-41.01754151659123,-127.70612184205775,0.3829527537872708,-0.3798493685569626,-0.3484170533862901,-0.29922066668144087,-0.09964427596335299,0.27794727260610846,nm,0.0
169.41917800000002,-43.285356965469504,-41.13129547218166,-127.08898963602074,0.46141206990108063,-0.1121942892398277,-0.3971184944452903,-0.1999258580116721,-0.20445896396588006,0.376804133462984,nm,0.0
169.438209,-38.62656783002746,-39.93313751674099,-124.38559236136788,0.42677044519396723,0.2935750536942177,-0.5988103022519207,-0.11848266569286206,-0.40874817323745777,0.6574407408595768,nm,0.0
169.457259,-31.398701379869635,-38.51432747127598,-121.5136994028508,0.49414769191827174,0.8002530807016371,-0.35909395945029693,-0.23241550283781715,-0.5775802472464854,0.7509242632136456,nm,0.0
169.466736,-26.26032086735942,-38.18299227249439,-120.68254209093467,0.4145003006622354,1.0730402022981684,-0.12577530710151,-0.3732623515993055,-0.7227311247298394,0.8093358074780395,nm,0.0
169.47625100000002,-20.005640381785266,-37.99868159394732,-120.34918959849016,0.4978418641453993,1.464583017530588,0.38155824360966933,-0.48246497522948967,-0.8662294761146679,0.8428633418762408,nm,0.0
169.485763,-13.188218652276394,-37.7403262907013,-120.38913176280198,0.046591292718940636,1.936870246864674,0.6335705026882081,-0.5142618115697544,-0.9550760897872543,0.8323379750022747,nm,0.0
169.49508699999998,-5.895083680098111,-37.29261220763419,-120.47422773695946,-0.30687335047238246,2.3834984785213496,0.7997169633507455,-0.5237140492699492,-1.0442911481115265,0.873371668099234,nm,0.0
169.504602,1.2916785477658719,-36.77173987627398,-120.35158968777421,-0.6192838750242486,2.722780629278345,0.9217502593845753,-0.5059203158534884,-1.0447671182351008,0.8910140211201237,nm,0.0
169.513927,7.551268877027848,-36.28814251303086,-119.96746716163473,-1.089119522686398,2.8046285053860336,0.7022016314950915,-0.4363769651623244,-0.9217993016161423,0.8216417132880224,nm,0.0
169.523611,12.512062594128002,-35.90273878158993,-119.35662930055352,-1.4497886693840847,2.723526321620679,0.5085197449639215,-0.3439217979529466,-0.7389009873932907,0.7053267864097115,nm,0.0
169.53312300000002,15.880433862278874,-35.646508006941595,-118.60275585502185,-1.587182982633079,2.5833616613437513,0.3731809899148606,-0.2336867559705496,-0.5074711933489425,0.5425252780444587,nm,0.0
169.57134599999998,12.811380716306386,-35.95902128237177,-115.84581704363934,-0.5714223469101721,1.7749546544904193,0.3647662817640585,0.16947319820603665,0.42667354924317547,-0.22965994644587687,nm,0.0
169.580858,9.022914432837007,-36.02212396523447,-115.50687954768235,-0.16716016151069676,1.4799252144329749,0.3320022489614357,0.24091712464079712,0.5551400507935794,-0.37961481986461004,nm,0.0
169.59036899999998,4.759284237106216,-35.982408531224806,-115.41343237660448,0.14878266412970448,1.1277603527800413,0.22659413128647102,0.2902413323477522,0.6172952915583305,-0.48415183125623573,nm,0.0
169.59987600000002,0.381486393475276,-35.86301841591259,-115.56751039056088,0.45307595514609067,0.8440189268418284,0.15405082560625952,0.31308311600234523,0.6283077018262175,-0.545449918500219,nm,0.0
169.609381,-4.048439227891272,-35.769921536807225,-115.95241978942376,0.6311459305858346,0.5491962298449423,0.044478904333016024,0.31531340973431043,0.6382747568343309,-0.5957077782264599,nm,0.0
169.64744399999998,-17.944598512944054,-34.341102285337485,-118.9064974677244,0.574889440019472,-0.3816583865772758,-0.42022501123406,0.3376445936246995,0.36075707537302887,-0.5208362631138944,nm,0.0
169.675963,-23.634078154796857,-31.42143436827471,-121.97523593716657,0.3720106165054493,-1.095905758238501,-0.12973653345076727,0.31972575865244585,0.10713231063765884,-0.37477154433931953,nm,0.0
169.685467,-24.695727467862156,-30.157030013264002,-123.02358457498153,0.404193657689497,-1.4603881373057588,0.01181738771026882,0.2981914317528961,0.02047583852703814,-0.31504138676534665,nm,0.0
169.694982,-25.836806778028162,-29.061997034643067,-123.97849287378185,0.08663100519494948,-1.7444306596432468,0.08701840387821864,0.2791016934458012,0.047375375629660314,-0.3002997834864868,nm,0.0
169.704492,-27.030651838931828,-28.179415595133516,-124.72958751324948,-0.08033814788263846,-2.0947678665346907,0.294303095300718,0.25100990050219213,0.0764840894875917,-0.26097218029968205,nm,0.0
169.71401,-28.43771598883957,-27.307372606001575,-125.40459163274961,-0.1487380688536097,-2.4186313338617125,0.46521583979188974,0.27298371465671145,0.10695579772368927,-0.2621921247988172,nm,0.0
169.732852,-32.00084964868039,-26.251523864796145,-126.68933828405456,-0.12496300447128275,-2.570294393310623,0.3335743719198776,0.23344452458625664,0.23758775021998849,-0.2869361161762568,nm,0.0
169.74235000000002,-33.858956991746986,-26.65569019089046,-127.29605150712902,0.16395558891640324,-2.7939163040955632,0.5569662691352323,0.12313488281158011,0.3186546103100609,-0.2821425956899624,nm,0.0
169.761381,-37.343601754472466,-28.196241255287738,-128.87460553173472,-0.18087113505543934,-2.319777007826675,0.045406417583733,0.026636563300794096,0.3400270762481113,-0.2913593745563137,nm,0.0
169.78039299999998,-39.342650920421654,-30.328737092717027,-128.79692930119057,-0.03923870466419409,-2.08464171197719,-0.05660954020321286,-0.0640452679074167,0.2596953626891061,-0.03290770747750096,nm,0.0
169.799411,-40.38007039803077,-31.723440000303565,-127.19102331989554,0.07055025593708275,-1.474764020381846,-0.5044940507247143,-0.09002564430401892,0.1323725126908381,0.16971603003102423,nm,0.0
169.80891999999997,-40.27639199162646,-32.66793352477025,-126.08647674155635,0.26821543307848156,-1.1827767449002295,-0.5669305626175624,-0.17399962007569628,0.10323232931333748,0.23882274982173063,nm,0.0
169.818455,-39.636586391424,-33.88789210541277,-125.24153554738604,0.4136102175691704,-0.8934794692700327,-0.5217025622764185,-0.2727336907592177,0.059775543856572966,0.24602980496713386,nm,0.0
169.837641,-36.112394941963345,-36.57585939310877,-125.36155623919979,0.5526293657037107,-0.32805241881426367,-0.3801611213006562,-0.4295081776943923,-0.12448011723522702,0.18374375874688484,nm,0.0
169.87567600000003,-25.666387291812203,-37.52051244814332,-126.88337538786908,0.46308052899473057,0.3822225780414779,-0.0037038149664450266,-0.13952387391099041,-0.40369833436968655,0.3542130949316098,nm,0.0
169.885192,-23.100896795507555,-36.44465970297305,-126.22964601751487,0.36844752945782805,0.601665535765012,-0.018062486793117668,-0.08464627853200941,-0.45457441389179654,0.4438342601173475,nm,0.0
169.894694,-19.91285519684048,-35.25861726476887,-125.35895981027541,0.2684702963224245,0.8412960559934084,0.1322236303895766,-0.12361986414487305,-0.5558457371928098,0.5514285674873147,nm,0.0
169.904212,-15.758453519768475,-33.954182865875666,-124.62551657519363,0.3354063378578862,0.9631710864808973,0.08819138062757388,-0.19264680846471754,-0.7086451294261145,0.6216247326071018,nm,0.0
169.913711,-11.195573940051347,-32.84186863393699,-124.2447181401635,0.2552956043261736,1.4603444582939402,0.05688022182142446,-0.2618276479944754,-0.7536502683969138,0.5805563536889252,nm,0.0
169.932562,-0.5709126292930029,-32.3873903981309,-124.50446026047126,-0.1759283310096415,2.0897134206413956,0.540449970626441,-0.5383736849663551,-0.780177323935664,0.5397503988438809,nm,0.0
169.94224799999998,4.629693254274323,-32.192792724589616,-124.8265836163179,-0.5413711495538047,2.3397818578859972,0.5854766552046031,-0.48281536500814265,-0.7467602179890932,0.4903695681300328,nm,0.0
169.98012000000003,14.68431166732618,-32.89668415638042,-120.82701897855394,-1.277366114182579,1.8727956115169102,0.2005157039595679,-0.1372048307281475,-0.002009831560009465,0.4415512943293959,nm,0.0
169.989807,13.886424683599568,-33.53943128099865,-118.5092566008101,-0.9759419347077264,1.7254880842129063,0.21090673872810803,-0.059179538421751374,0.17634490241928583,0.3737006774585074,nm,0.0
169.999313,12.164485009714978,-34.11364618521559,-116.36368511026699,-0.6363902670182721,1.5676783770216849,0.2250813395630493,0.01644292695405519,0.30342777659603587,0.2351415917625141,nm,0.0
