timestamp,roll,pitch,yaw,acc_x,acc_y,acc_z,gyro_x,gyro_y,gyro_z,markers,motor_input
153.00420599999998,-6.32478291753355,-14.010600100209976,131.28246269013295,-0.32389390018926295,-1.0096124473354693,-0.33988082091356947,-0.010746248297699575,-0.27416039904527445,-0.4464594839728941,nm,0.0
153.01371600000002,-6.8656468983853225,-12.962631899664919,129.16522558156169,-0.5487849806542832,-0.882713864900668,-0.10040825749052454,-0.08716465528765412,-0.20282981552961263,-0.4510348846787348,nm,0.0
153.03276000000002,-7.798169182315168,-10.851695808913956,125.34212069001536,-1.0249732243410703,-0.28114431762130504,0.34072235787061783,-0.10776504858267691,-0.19646261743195279,-0.37590251019303766,nm,0.0
153.05177,-9.931481866037013,-8.519212888887958,123.34152617125731,-1.8024039693285987,0.2047383392179586,0.7350402514363671,-0.037800028462241037,-0.34714705747371855,-0.1902093916923521,nm,0.0
153.06121800000003,-12.371733813051843,-7.220785858753716,123.02872064496367,-2.3568668253876868,0.4370570901726724,0.7353637497020542,0.054241598614927625,-0.5350574646735866,-0.13095667951928908,nm,0.0
153.09908600000003,-28.409481758745198,-6.315569532787313,118.59631231524352,-2.92890855111905,0.6131539426061597,-0.000972075700111293,0.525621492163449,-0.45525159743908067,-0.42291725989714674,nm,0.0
153.10858900000002,-31.219765576056922,-7.7457482343997235,117.10380400357548,-2.730856971338598,0.49624543786944647,-0.12670971004122297,0.5224923233278533,-0.3489813912517185,-0.36488854873731635,nm,0.0
153.11810499999999,-33.78216340814171,-8.981320022754655,116.29005599769157,-2.173794355699046,0.47564223695956026,-0.48412334313273464,0.45761700222022506,-0.33158927210279415,-0.23410787494617924,nm,0.0
153.12761099999997,-35.4531251999968,-9.725972407054206,116.14051528191403,-1.8873523160461845,0.33763292891177255,-0.6307414758944347,0.2881531655607531,-0.2196571034777071,-0.08047084275630567,nm,0.0
153.13713499999997,-36.21715694110632,-9.916585219241037,116.2591372501408,-2.036399788231077,0.032843736489777085,-0.4507501980621946,0.10931142819885412,-0.10777343921142636,0.0016856232113312635,nm,0.0
153.14671,-36.461802345553814,-9.829435487073741,116.16520484900512,-1.787148847084276,0.08720534763857823,-0.5819727325524675,0.0,0.0,0.0,nm,0.0
153.15617999999998,-36.14035619064586,-10.045000859753676,115.71789604515568,-1.6793837074353801,0.18612540850672002,-0.5701547605045124,0.019688573312346767,0.08643920511161088,-0.07441299392566261,nm,0.0
153.1752,-35.05206250685129,-12.444177870916317,113.89152839552223,-1.5503057792727593,0.5841941253629156,-0.12769839318490991,0.2345973768810996,0.22731674742148147,-0.18668452543364494,nm,0.0
153.194399,-33.4871263401687,-15.62199904295658,112.15250654490474,-1.0540083786524501,0.44856238532456655,0.029666767253918067,0.238262450275246,0.2758003685047328,-0.0801652152581498,nm,0.0
153.20391800000002,-32.78635566155924,-16.896414965572085,112.35432659957519,-0.7983802915446827,0.17841518797641265,0.05360197515734506,0.19465088440444875,0.23112490036482639,0.08367784131810603,nm,0.0
153.213447,-32.08973458377556,-17.55043941225678,113.35237810691137,-0.5473608388416036,-0.20471638335787523,-0.09175377394103694,0.07827989476905178,0.18363155465787548,0.2450237773363428,nm,0.0
153.222952,-31.277022477511267,-17.578823219362693,114.94136641451838,-0.31626829643833226,-0.6472654473059697,-0.3029765705025626,-0.04921757504988952,0.15421624876070947,0.3709740495605535,nm,0.0
153.23228300000002,-30.172877365362613,-17.28752831460737,116.83522725162955,-0.08276437017215849,-0.923368767550796,-0.46725610464315914,-0.13587215115513962,0.17501849890997107,0.4488754655368598,nm,0.0
153.24177899999998,-28.42194051019972,-16.892137070386823,118.62095148937243,0.045680520651245685,-1.0525832630937344,-0.42059785013508155,-0.21767395809169818,0.2709356444005343,0.46359846732268045,nm,0.0
153.25145899999998,-25.78407978230682,-16.455770096506804,119.93955684633328,0.12483413697480483,-1.0596179649869948,-0.2887505878305072,-0.31566843217457924,0.4101227927093748,0.4179835473924463,nm,0.0
153.26096900000002,-22.149063852879173,-16.11547427095893,120.74582009453627,0.27576256915432706,-0.9361212403085477,-0.1678593108305592,-0.4039998772094289,0.5803779814222381,0.36715821848852775,nm,0.0
153.27049200000002,-17.59831012888656,-15.99322041832653,121.23032088026831,0.35753908679620816,-0.8645083540119468,0.3288580811242054,-0.46439351461833495,0.750224656713941,0.34965307543277174,nm,0.0
153.279999,-12.364719630822927,-15.90723394604016,121.61294531527359,0.7993616151587555,-0.5256363267904071,0.46592000783968673,-0.5329275052913252,0.863239548456608,0.36412483911182075,nm,0.0
153.289507,-6.142074612265492,-15.714646813174328,122.19294663907695,1.1650510223479857,-0.5000608407868044,0.7082024081152573,-0.65983547816942,1.0100012692942426,0.45378257921055226,nm,0.0
153.299021,0.5963678407832932,-15.599654193122952,123.11839644748885,1.6619501266600307,-0.5488459854810677,0.9424411255357196,-0.7148183346207275,1.0942080730626103,0.5461400271948695,nm,0.0
153.318031,14.218658834714262,-16.493270942463127,125.54605299835536,2.897722103325435,-0.23413609158432394,0.8078647154684392,-0.6453863638439665,1.16872306092738,0.6250710774040985,nm,0.0
153.327369,20.979974764098873,-17.307585676404255,126.64300662075065,3.3377803857053028,0.005805048341818746,0.7922076338535193,-0.6294502609942602,1.1552938997421522,0.60653435034355,nm,0.0
153.33688800000002,27.09001729215305,-17.97227821085194,127.49931045494228,3.5236947401556042,0.3484675316939576,0.46397760254140474,-0.595809317335193,1.022715244083515,0.534825131686726,nm,0.0
153.35589000000002,36.07656036942271,-18.68085577185087,128.4216644654044,3.2294988766192834,1.0624233731558257,-0.17034582206636545,-0.41251977060383777,0.6229395850978587,0.3065794728745994,nm,0.0
153.365334,38.43679986287269,-18.916432480949968,128.65238886103452,2.851670870610777,1.2805267245033833,-0.384955400785971,-0.24307917427061201,0.3907138343569322,0.19005454001445193,nm,0.0
153.37484400000002,39.23077820823066,-19.280856207587888,128.9101537986464,2.4758997238160574,1.3455347232994999,-0.4772539446777977,-0.03866432271742358,0.17414587844600174,0.09518317427270791,nm,0.0
153.384357,38.6132766471811,-19.90554888955472,129.2893846846563,2.178924200670698,1.230405516390158,-0.3463088503720928,0.1690664931212492,-6.826424737999815e-05,0.02618832984014668,nm,0.0
153.403385,33.91726546528908,-21.700096708255078,130.52313606979203,1.6134994094541366,0.6043319491721844,-0.028856000477770174,0.4810468947953579,-0.2727190964250308,-0.07405740207759309,nm,0.0
153.413056,30.397176511811757,-22.41465238742716,131.2328503870708,1.351399534840908,0.1915000399319953,0.06472423371710699,0.5349855449623943,-0.3879581275410675,-0.1295818622486506,nm,0.0
153.42257800000002,26.516492900913555,-22.766917110778124,131.7068890500243,1.0655502365297191,-0.1532255688165157,0.01900353569885544,0.5277570917054849,-0.47820733247910996,-0.2100184208878277,nm,0.0
153.432085,22.68064399176647,-22.765020653089717,131.71785668307965,0.8192918130043302,-0.3789516330425349,-0.014980676109807552,0.4714195504707477,-0.516037252315455,-0.30088875521330866,nm,0.0
153.44159499999998,19.042603392875172,-22.485079949455084,131.1990660096608,0.5860295852994607,-0.4639836418779911,-0.019703938958755024,0.4043521354760114,-0.5279616504530145,-0.3894435835941017,nm,0.0
153.45112500000002,15.79753679512267,-22.017248033045146,130.2912407154031,0.36368417660770974,-0.3388870772886261,-0.26030658242918525,0.3234633017147045,-0.5036131179299178,-0.4326903445201059,nm,0.0
153.460633,13.227482688101336,-21.488322368732106,129.25136946795536,0.18312004346607968,-0.43681347639202023,-0.06375266876271002,0.2269019050771457,-0.4219506498673629,-0.4034633264444766,nm,0.0
153.470139,10.796226662753702,-21.024711920325043,128.29190857333262,0.053680162596282825,-0.4239785704421573,-0.16685836681102958,0.21485174056123924,-0.3986945058706862,-0.37280099840665176,nm,0.0
153.479639,8.606736789039592,-20.72195737388032,127.58767631847861,0.04546330245450987,-0.3917422066536573,-0.2552353118671494,0.2076181842263051,-0.3471776730524318,-0.30108639976736407,nm,0.0
153.489137,6.8563585742481274,-20.462707743321804,127.19027027475616,0.039664201044936453,-0.6206617991165073,0.01716313587209422,0.1618662874496556,-0.27904582866346933,-0.20645548263888988,nm,0.0
153.508161,3.8246596396005605,-19.36770179117774,126.58106114056287,0.01251328727286727,-0.823468576550648,0.18114237528834823,0.055021699291275226,-0.27986915946999735,-0.16930980822706312,nm,0.0
153.51767800000002,2.678935851623035,-18.46729188775615,125.89579921774073,-0.15580743198047145,-0.8155595103947502,0.40418702255279804,-0.01238112705863974,-0.26862845101500116,-0.21469646662492123,nm,0.0
153.527182,1.4864518300731167,-17.311614447541768,124.78098104024919,-0.43227049917702637,-0.5367708642469631,0.6233349354158546,-0.05217184319385274,-0.3063714153709397,-0.2995829637278824,nm,0.0
153.53672600000002,0.022341508478692384,-15.911344526023067,123.3297620497098,-0.823068147863192,-0.2464644456300949,0.752478450890275,-0.06928672447876578,-0.3771328258357012,-0.37727986695234583,nm,0.0
153.555739,-5.442843291699748,-13.675575972354272,120.20927107032705,-1.7122450582719984,0.3621582832713791,0.9286438576500033,0.1754413648929298,-0.6224856916670213,-0.4654622980778574,nm,0.0
153.56524599999997,-9.583095889337487,-13.18880969062189,118.93073812267993,-2.182902269457663,0.39099192152543716,1.053022237106369,0.320716669911816,-0.7375101377250388,-0.4497778178006726,nm,0.0
153.574782,-14.634370960997671,-13.088768891220703,117.88275251219183,-2.501791638686185,0.32305310340983645,0.9205390964459769,0.45902288610534725,-0.8642705440434734,-0.43987524545413614,nm,0.0
153.58429600000002,-19.96298889867815,-13.306785903642822,116.98467453748205,-2.525758373344608,0.26538984979179675,0.5050764256532383,0.5257727314625977,-0.8905681532418258,-0.422396313076354,nm,0.0
153.60313299999999,-30.0815378094974,-14.537252911814951,115.16946196958132,-2.835588961749969,-0.2526865705638424,-0.1204110460100728,0.5701968968443029,-0.8114868067301942,-0.4384665169902205,nm,0.0
153.61264100000002,-34.72251897676113,-15.503103692354575,114.01158180988378,-2.762492279471876,-0.1621952232766028,-0.46730986368631117,0.5584197093136678,-0.7257776802865761,-0.4682739345135182,nm,0.0
153.62215799999998,-38.64499610700946,-16.597652365129154,112.68088481808643,-2.8204154158690637,-0.05278454097261641,-0.7047423777167361,0.5095820288650214,-0.596847039784094,-0.47830384260114306,nm,0.0
153.63166800000002,-42.056105709708405,-17.81971430683084,111.34831454121401,-2.6796760084462137,0.3288127472746437,-0.9093044733862334,0.4807929007217765,-0.5044409241474653,-0.4628314982404707,nm,0.0
153.64118800000003,-44.727904018868884,-19.09256373793009,110.19956538660097,-2.398598141198919,0.7764977305624825,-1.052333757751146,0.4277600879670975,-0.37589424719060255,-0.3927281355194903,nm,0.0
153.65068499999998,-46.536415792249656,-20.34623645896911,109.37941179513722,-2.3386988159611652,0.9942306341444377,-1.0759811031630682,0.3611649964397862,-0.2279958579009364,-0.27934789931142173,nm,0.0
153.660202,-47.719358755376646,-21.60321648599332,109.04662523255257,-1.9693000456270278,1.1712426956728004,-1.0568040734462267,0.3200375280156564,-0.11855140222897821,-0.1440749644020032,nm,0.0
153.67916899999997,-47.811619865825826,-23.720680390687097,109.72997665310795,-1.5770550644276473,0.7777866700004672,-0.8749816848114076,0.1728932226939481,0.12287308990506512,0.13390165941157617,nm,0.0
153.72699200000002,-37.946503521626,-24.482987491686856,113.4345945773751,-0.49647974489228114,-0.5709000645489871,-0.3700098067715721,-0.250346802498764,0.43586359548342507,0.377796640200524,nm,0.0
153.736503,-34.98053903038477,-23.88441485271561,114.17914340541908,-0.29648826754304947,-0.4791987103128337,-0.24558618247255135,-0.318974350536223,0.4567433249738031,0.39740968007826094,nm,0.0
153.746022,-31.696906378149865,-23.0956920019251,115.0154567386574,-0.27348383926964787,-0.4933217713937198,-0.08245903140030476,-0.38538500749882615,0.49253606486757245,0.4338276771947843,nm,0.0
153.75551099999998,-28.43210127680078,-22.27905675102362,115.99929618603042,-0.10591576966004655,-0.4059415633937321,0.10080171041002177,-0.39833919638516385,0.4844267204079993,0.45269028926207777,nm,0.0
153.76502100000002,-24.980423136484493,-21.490613161845083,117.1157985086157,0.1788227664629991,-0.31810419662455075,0.20706638997359855,-0.41929463988737914,0.5140723947510691,0.4839278428097552,nm,0.0
153.774525,-21.06214351935549,-20.742344080726316,118.29816511665072,0.2598545487279654,-0.5278164049844497,0.36419430373694894,-0.46466814057852635,0.5897992798941009,0.521241484422785,nm,0.0
153.78403699999998,-17.156062118815928,-20.100175374035715,119.42416998854665,0.6479666181211139,-0.6749581201043906,0.34303003681969274,-0.4585735928361166,0.5917666187709314,0.4993274555378249,nm,0.0
153.79354500000002,-13.118150932080479,-19.606519118792708,120.41408396141013,1.1039869117709376,-0.6997978104311882,0.26338453692788644,-0.4576076659197389,0.6220524035055645,0.47288226583750176,nm,0.0
153.803059,-8.622083591031867,-19.10315385438687,121.20029319427785,1.439270207708087,-0.8435336303223804,0.32817288147312373,-0.5147121931224591,0.6904194480172254,0.4548993029478787,nm,0.0
153.812581,-3.8151151989803127,-18.498614144936308,121.7624539752907,1.842890400321283,-0.7971356015258702,0.3952886537050339,-0.5727190900280527,0.7265213736923011,0.4208521937238003,nm,0.0
153.822082,1.4094863552803714,-17.879717995544326,122.17717753898282,2.2141161692295386,-0.5890601640037484,0.4380756544844768,-0.6256155297203111,0.7902897417683293,0.4065975823128017,nm,0.0
153.841102,12.608007405271046,-17.11711642804248,123.01829410516247,2.708702842657001,0.14426298330584508,0.9408995973521133,-0.6217322735985167,0.8725950593437588,0.4179606067888478,nm,0.0
153.85061499999998,17.682750326746685,-16.90629387831202,123.73434455526899,2.8768647944016594,0.5969458579844508,0.8064089676637741,-0.5665183598323443,0.8007306604115934,0.4345736042772483,nm,0.0
153.859944,22.146466853180115,-16.892664552891482,124.73989303425387,2.9237953263087895,0.8270403391705211,0.5546589314412556,-0.48102571037614367,0.717827432762386,0.4543541019516446,nm,0.0
153.869451,25.714484357471672,-17.214193446162707,125.87333594340042,2.927892074677681,0.8778861415030882,0.32715207900461735,-0.3406683776943755,0.6068138280058853,0.4292189819169585,nm,0.0
153.88839700000003,29.30813006757714,-18.373990808052017,127.87956601791079,2.9067990924378555,0.6369634240746349,-0.08493422098626958,-0.044870250558784436,0.26476038810891994,0.25241338881449876,nm,0.0
153.897906,29.33266018976133,-18.775688534904525,128.58814130952825,2.771903279710493,0.42065648833396246,-0.1452705218991691,0.06062916848208772,0.06555303421662952,0.13602137995462735,nm,0.0
153.90742400000002,28.247347737620682,-18.89199173855524,129.08755168413165,2.495616069753329,0.28227608908239804,-0.10577878569858563,0.14752418038166967,-0.1334044871449547,0.022575683591179074,nm,0.0
153.926619,23.41447201255139,-18.32363065237894,129.8465063057312,1.5868420568204122,0.18388045407614048,0.10383125174360837,0.2815880044855568,-0.44595442227731774,-0.1109827976607295,nm,0.0
153.936136,20.001029916786706,-17.9110711750903,130.21129579376392,1.0758001787732274,0.1628518935625959,0.15070341181445088,0.35608791848133325,-0.5378759524240199,-0.14576523018641957,nm,0.0
153.945643,16.25125832002485,-17.556138426503995,130.54772203001735,0.6223465845471071,0.09587504174094959,0.1842545715351554,0.4112008151841713,-0.5779723512116296,-0.16705681331458141,nm,0.0
153.955144,12.374185788078657,-17.222417596080703,130.77560876810105,0.293116533297536,-0.07484116447578464,0.15543532753773318,0.4345630808932506,-0.5925053592141234,-0.1914889353646494,nm,0.0
153.96467800000002,8.476653574749761,-16.90314061410629,130.73279811477275,0.1078506072160689,-0.2582072939025081,0.06999388122262633,0.4416721182705994,-0.5937604466991563,-0.24199178944980854,nm,0.0
153.974168,4.887045079280723,-16.618237803016893,130.28814532523108,0.09857662014958833,-0.4005867435574513,-0.2575979651894841,0.40728972780674366,-0.5471253512063506,-0.30007164991230545,nm,0.0
153.98368200000002,2.0354190098674962,-16.39435141515573,129.40299346114676,0.047459620254657255,-0.7784434757424732,-0.05924343782205593,0.32047088020682885,-0.4358891252582995,-0.3426900225959716,nm,0.0
153.993193,-0.4878426465761331,-16.074422504356267,128.1235552024328,0.004795109727855767,-0.9709677251629735,-0.11296086056082044,0.2584575277862526,-0.4052877471370295,-0.4001886950781286,nm,0.0
