timestamp,roll,pitch,yaw,acc_x,acc_y,acc_z,gyro_x,gyro_y,gyro_z,markers,motor_input
146.00458799999998,9.747436393155171,-27.91061863985849,118.781909829604,-0.3417829396813533,0.4883322296295129,-0.4763051021382092,0.17544463750873637,-0.2580992238715196,0.20341508681689374,nm,0.0
146.01408899999998,8.245820770872477,-28.012952017810655,119.32548067922164,-0.2621901109852373,-0.017348166575756364,-0.5787718200179738,0.1521260492630179,-0.2093026990963582,-0.03491987982617551,nm,0.0
146.02361599999998,7.414497764323288,-27.975052261694653,118.16102656743,-0.05052931757416477,-0.42601399528439843,-0.6906003138160971,0.06966591663313536,-0.11977052394139476,-0.3138764294412176,nm,0.0
146.06167100000002,6.439669841995474,-25.492364262781365,107.09060309130146,0.42354296055244794,-2.7055490343854256,0.7914965605217794,-0.07350082393300422,-0.2527272653805094,-0.5193546488465874,nm,0.0
146.071183,3.652505498107154,-24.127430127420354,106.4247910645349,0.07111901531618561,-3.4075889038709,1.737055647966505,-0.10698044712611703,-0.5529221594865743,-0.3700122923135005,nm,0.0
146.08069500000002,-0.7874293068955089,-22.410131272547197,106.80029525934299,-0.5632800517947104,-3.915758231676981,2.0893329845870263,-0.08679760385590964,-0.8701889338140558,-0.27805712749282924,nm,0.0
146.09010400000003,-6.357655569488852,-21.023684094627146,107.65753447619035,-1.184790347957029,-4.002750471685923,1.9845680675275033,0.05137982020364654,-1.0613214580997414,-0.24228433135194694,nm,0.0
146.10912,-16.476470392747988,-19.43471207409342,108.74944680808515,-1.7520978617090042,-3.1899438364172976,0.6152080672638229,0.16532198117155572,-0.8448361155789492,-0.2528171927034566,nm,0.0
146.118438,-19.571725103583212,-19.635717419537876,108.36789875108849,-1.513122083550287,-2.622870486572166,-0.3408065765246565,0.23412458521351762,-0.5310511604402287,-0.282120092319199,nm,0.0
146.128047,-21.21213298019102,-21.2219686962433,107.63486152853366,-1.3037395405773327,-2.0875054336919896,-0.753816890788211,0.4074660266535521,-0.18500240914147154,-0.25938090293924004,nm,0.0
146.13755799999998,-21.725560284447482,-23.83786576906529,106.78689062915453,-0.9929882477577359,-1.6288225371333749,-0.7340611343076922,0.5389185934854531,0.07359169863091598,-0.20673700062078212,nm,0.0
146.15656499999997,-20.38900057422623,-29.07708948571953,105.7698784015677,-0.3520949561929237,-1.5438245174984273,-0.5513783505312516,0.43999730622534533,0.29690684003950857,0.03209798640492652,nm,0.0
146.166074,-19.609233395730907,-31.101676124793425,106.26777117835603,-0.10446933140198342,-1.5655119188586162,-0.678903647315975,0.36294535420214086,0.25088381196551385,0.18069700653306414,nm,0.0
146.17558699999998,-19.248015304962074,-32.542247747494244,107.44278272534534,0.04468425615591408,-1.5084405312977693,-0.8921291962868292,0.2686321624834107,0.15181101541474332,0.276188251752284,nm,0.0
146.185102,-19.265198286846253,-33.401816352962335,108.89875523314058,0.14275042027379772,-1.3098845409417887,-1.1383106664657332,0.1745872157657171,0.06050098698615457,0.2925164254293101,nm,0.0
146.213631,-18.57822803240499,-35.53886997751661,111.10913038134647,-0.055430876370865446,0.044676752939008635,-0.9924133149657974,0.1403502225312821,0.1381024672049833,0.07216647519251793,nm,0.0
146.22313699999998,-17.746186138619937,-36.51920074808955,110.61534950871356,-0.024797089290532422,0.5017360533813031,-0.8281429049972187,0.14526285188248408,0.2056680488262193,0.002094764098952801,nm,0.0
146.232657,-16.579400671210458,-37.637837845738375,109.92711760237066,-0.035015948044322086,0.7569831644673254,-0.6462890682273988,0.15541546566220638,0.2622791325358044,0.005947917277732825,nm,0.0
146.242219,-15.433161181010329,-38.730496034044165,109.44301709401533,0.020984202065520673,0.9760039731839351,-0.582129023282453,0.15513264866466775,0.2533970587603625,0.047758034149897585,nm,0.0
146.25166199999998,-14.446942496794733,-39.442073037890495,109.41844903210338,0.11321492776931055,1.11748912453012,-0.5886399285078031,0.09321428210276675,0.20187351078468246,0.12227397961609471,nm,0.0
146.261183,-13.521806308994327,-39.50688554254109,109.89839657357606,0.10425394245874611,1.1430313714030165,-0.5730239819583351,-0.02621595797618871,0.1491441244628444,0.21637827376543492,nm,0.0
146.27069600000002,-12.553123659383099,-38.9140455788333,110.67220439688224,0.06188696941302398,1.2123885172930216,-0.5027844070367896,-0.15403094236583004,0.1102021713410886,0.27981828548021404,nm,0.0
146.299404,-6.388442938188195,-34.80708622352196,111.60679252129441,0.07915847038965043,2.097764012492673,0.33565003060267007,-0.4556514143178072,0.32870644147161404,0.3175599493618659,nm,0.0
146.32792600000002,3.27921139402267,-29.947701495038725,112.16864161114553,0.37626118350406057,2.989061301624692,1.180377030725172,-0.46161682487744754,0.36293289088981495,0.4305643706389074,nm,0.0
146.33742600000002,5.688302927833197,-28.815522573689908,113.36270629012009,0.4610709994727938,2.8836177517018933,1.1775468409534706,-0.36484582791938874,0.3121617514666321,0.4734931063091623,nm,0.0
146.34694,7.66225014299201,-28.078338817417283,114.65394947666452,0.5715890250735279,2.6346263707541624,1.0209796201956447,-0.26992587338268226,0.26988604777921477,0.4441214965724316,nm,0.0
146.35647500000002,9.353656959846493,-27.71424406495374,115.50715312782444,0.6305891963073454,2.274080202448989,0.8690199381559712,-0.18700084478327025,0.2527876854380196,0.3262869148064754,nm,0.0
146.38499099999999,12.32147335020814,-27.816145644073448,113.33466243572015,0.6672714578862545,1.8347055535854988,0.14999734741872378,-0.010715001408588979,0.11710715183641657,-0.22127326593066582,nm,0.0
146.47059099999998,7.398813081560144,-27.383024387246515,114.19740328157332,0.24122966694689965,-0.4015880185759772,-0.585367986110228,-0.09170202336713697,0.0404408769630327,-0.31005274007987,nm,0.0
146.48014099999997,7.813853312237578,-26.780051898885464,111.90921378382629,0.45608468891982357,-0.9677403300307158,-0.032588141176138646,-0.1331243460540888,0.03283481127974756,-0.4231347119982286,nm,0.0
146.48963899999998,7.479426053880763,-25.882764290512895,109.67974603467782,0.6440475643474534,-1.6921973404690323,0.4457664048329097,-0.13919503362503652,-0.10821967414588222,-0.47899985014620206,nm,0.0
146.499156,5.968406857344699,-24.79863397716775,108.04909631966747,0.7798183684061417,-2.118115851230604,0.3468434334775843,-0.10899258211933566,-0.31763028530692233,-0.458803350313232,nm,0.0
146.508658,3.7539321004654247,-23.64350605048594,107.38484202475861,0.4874018403552149,-2.964667108934263,1.2069622279054102,-0.08882053257381287,-0.44450535182019635,-0.31752580177253203,nm,0.0
146.52769600000002,-3.9283218224731917,-20.746689695534478,108.67526270481184,-0.6819562022496001,-3.1972790885097124,1.9360976012229656,-0.03789493252794272,-0.8484339650060514,-0.11867149670755626,nm,0.0
146.537201,-8.456353826824147,-19.016840729441544,109.8844803925272,-1.4376902850163626,-3.191290870861058,2.0245838432077288,-0.0360760796746381,-0.9083619001849685,-0.06727644232485695,nm,0.0
146.54664499999998,-13.058935214824906,-17.833152357252676,110.82850349181011,-1.907699244179197,-3.1075903118555286,1.397512717671849,0.0913739439611167,-0.8914617821947043,-0.10246187177677409,nm,0.0
146.565436,-21.258716269269076,-19.356808619551032,111.37470903155157,-1.7366141767739398,-2.5595478436786494,-0.11096693677143998,0.5273197962669055,-0.5463606955370711,-0.227552844760463,nm,0.0
146.575025,-23.630721281332374,-21.480762596709436,111.04250384425848,-1.3743602762477214,-2.2655230447623853,-0.5864517041487888,0.5672439093063446,-0.2511552387654811,-0.229673307459813,nm,0.0
146.594032,-24.89298141096531,-26.195083005212357,110.24815168972691,-0.6638728885333413,-1.7745443633336155,-0.9169111392215651,0.46301075770039124,0.13302067411565968,-0.07916849070580041,nm,0.0
146.603553,-24.671440537908325,-28.135522628088125,110.28043490736826,-0.37810682606004903,-1.4805590585218733,-0.8870961707591224,0.3608763626961311,0.1810878981091506,0.030127174215234268,nm,0.0
146.61306699999997,-24.24978396803411,-29.45620202260292,110.66218372754044,-0.2310296659475471,-1.2890653223608886,-0.8714804183433177,0.23186238449988317,0.17133607567474352,0.12055174033557932,nm,0.0
146.62259200000003,-23.9408392468213,-30.346999928189987,111.3612495014119,-0.10867635405014892,-1.1119781657674377,-0.8786055698281278,0.15716292089031333,0.12365447333846245,0.17427355534014494,nm,0.0
146.632104,-23.764991558730056,-31.093837563306636,112.23105258976828,-0.04790110779026598,-0.8882409796720068,-0.8806282171026295,0.13735713868292224,0.09339686095131888,0.1956375247913676,nm,0.0
146.641586,-23.56431514980864,-31.78081501399986,112.94479678282582,-0.048832479103754114,-0.677254537415658,-0.8651112937357675,0.12346404655324714,0.09435453588378534,0.1673920905675961,nm,0.0
146.651109,-23.23574029352711,-32.49910586193408,113.24402599240749,-0.10029324113157013,-0.5251350997009437,-0.8734388456832651,0.12002578966484681,0.11756312740502572,0.09845583477039031,nm,0.0
146.66061599999998,-22.91352566054724,-33.447525954798756,113.0934044022139,-0.04773102244306942,-0.2360237233617516,-0.9229356802249228,0.16291004629422312,0.1343293876844021,0.00853853110288821,nm,0.0
146.679816,-21.988429496042702,-35.8471543069996,112.01340780219608,0.011924529125376549,0.19573357864775728,-0.7764022158539347,0.20187711738380035,0.18147015460178922,-0.05646848698066975,nm,0.0
146.68916,-21.547681868383567,-36.86828278416734,111.51576638756892,0.07889150582467633,0.43513208823494876,-0.7672863051161328,0.1734366380470976,0.15135963355473395,-0.0436535797200043,nm,0.0
146.69866599999997,-21.166123675931733,-37.535834287525,111.33812925247082,0.12952076351246503,0.6602592903665196,-0.7391039297907082,0.11211478726516051,0.11499744432053413,0.014275198952816651,nm,0.0
146.70816900000003,-20.769809562227763,-37.73858088900541,111.54124822859299,0.030279644417761507,0.831384671155631,-0.6143740475207565,0.024673725611488773,0.08292854024301849,0.092713201459366,nm,0.0
146.717683,-20.328588851006963,-37.46341439719776,111.99919545792635,-0.016041422110665466,1.0910647180274622,-0.559447872367652,-0.06739647716536028,0.0543151105524997,0.14906970980005485,nm,0.0
146.73669600000002,-18.02813263720852,-35.84262002843508,112.79726489390002,-0.11729197220047453,1.5829446678674326,-0.3001446336613588,-0.2570240677011028,0.15912498600240094,0.24061426572026667,nm,0.0
146.765411,-9.132773296194765,-32.58918768387687,112.63158122347039,0.02639648141583722,2.2536545754936794,0.6521085596289549,-0.41962984178973445,0.4636344080245196,0.3689575016319862,nm,0.0
146.774909,-5.553333008472616,-31.417385703254062,112.79896966460119,0.21013761093961725,2.332573450115376,0.7505001277277102,-0.44280196183897785,0.48164198109760714,0.4135166436875974,nm,0.0
146.793936,1.3435895052470288,-29.681261938072534,113.5757688300875,0.4921278391644541,2.1661322678572525,0.8909601355545846,-0.35304606440412484,0.486915887251038,0.40872329835635407,nm,0.0
146.803462,4.436398152542151,-29.16038215215442,113.63479897883508,0.6622470772079104,2.1917181515952233,0.8402332195489468,-0.30458932338850175,0.46478213211404096,0.3141076836749141,nm,0.0
146.81294899999997,7.288728815369781,-28.741654484309716,113.26094584726441,0.7447853137432674,2.1747450461986917,0.7942826177278433,-0.2690910220558824,0.43744103271880586,0.19916645713261866,nm,0.0
146.82247700000002,9.571487989157623,-28.499246671855218,112.5137727906341,0.754511060391567,2.1650282408616106,0.6653915166470168,-0.19422908227590827,0.3630577252363442,0.06649264129020024,nm,0.0
146.83197099999998,11.03163775851786,-28.478871751339895,111.56032029583635,0.7395490208863156,2.0965494855245583,0.483194068661002,-0.093664106312531,0.248885389423158,-0.05454459324634559,nm,0.0
146.84149299999999,11.777145266785995,-28.657512950349506,110.59132615128127,0.6788294232591644,1.8933311661777323,0.2359898771964744,-0.007134110299994446,0.14733567061940545,-0.12582884284728377,nm,0.0
146.85100200000002,11.97678416988983,-28.96726762682589,109.76298371208763,0.5936258915490349,1.6194188225058614,0.0402580043578628,0.052912763690367584,0.06633352931122444,-0.1497756688773779,nm,0.0
146.870016,11.381077892341665,-29.72414791884261,109.10379975325468,0.4102131056585425,1.196133590722538,-0.22895903773481283,0.10492968931539659,-0.02969470428020995,-0.06590336646078444,nm,0.0
146.87953100000001,10.562050183400688,-29.960212733374377,109.48365985873988,0.29118140082604416,1.0237614053066197,-0.3542727501016164,0.0986297583446877,-0.1066235014225511,-0.008386306144050427,nm,0.0
146.888881,9.581693834853048,-29.89803885164302,110.23394620520463,0.17389366585332622,0.8908306908465229,-0.5415055649064024,0.053072727070930505,-0.15217099930800668,0.049577276689557234,nm,0.0
146.917565,7.489339695362243,-28.40574745534855,111.83740099090342,0.009137535515678603,0.0099325443915615,-0.5277464652790449,-0.08154664592577462,-0.13453993751947627,-0.0298994075323427,nm,0.0
146.92709599999998,6.880692094066209,-27.3644513180801,111.41055944699026,0.0644313847943302,-0.4602110231811179,-0.2192477158727949,-0.14697978307107734,-0.16501797577912694,-0.14509528600872254,nm,0.0
146.936629,5.922994849075027,-25.968710072943754,110.40322465001054,0.15927334462419815,-0.9583786699703606,0.05427363871181554,-0.19241101927054394,-0.2481059540178172,-0.29041465586166265,nm,0.0
146.946138,4.350401552861495,-24.462265259714563,108.93918483579905,0.21418251456516385,-1.367023011781349,0.4534351414921226,-0.18010138753103425,-0.3584448938858041,-0.42986081544690796,nm,0.0
146.95564900000002,2.133625987018156,-22.927607984798808,107.30612011633349,0.11013119690726504,-1.938260219087062,1.2005254712398152,-0.1569620096706072,-0.4709505280797288,-0.5077236573023478,nm,0.0
146.965161,-1.063427718454629,-21.317774681887112,105.77579377026397,-0.38890807020102647,-2.818624903370388,2.2539329919560176,-0.13082332867759616,-0.6498120994967547,-0.5494410279801015,nm,0.0
146.98418,-10.327467159481822,-18.4976457791079,103.79332806495168,-1.0583055665184327,-3.9968088216499944,2.5579211077956097,-0.011685320583743214,-0.9203429180527939,-0.4555335506028742,nm,0.0
146.993707,-14.191993553656243,-17.600112268399645,103.84140527060335,-1.475311739271278,-3.8888317461487674,1.7522490776247772,0.0118605612442309,-0.747947736953872,-0.2299895793931651,nm,0.0
