timestamp,roll,pitch,yaw,acc_x,acc_y,acc_z,gyro_x,gyro_y,gyro_z,markers,motor_input
176.50441400000003,7.9377766843313635,-12.801206394082762,-128.82759264912076,-0.6417648624537764,1.0060069331605939,0.2442834754685799,-0.3791850230287619,0.02431449511003968,-0.0014628470229742807,nm,0.0
176.51391199999998,8.47694532768651,-14.274461244188972,-128.86803308262623,-0.5796615709918862,0.9860118472761029,0.18083520479051668,-0.3089595405844055,0.10404208325142536,0.012400548622678576,nm,0.0
176.52343800000003,8.552886306599992,-15.645594772028158,-128.7701649091511,-0.3639922407666496,1.072511233105374,0.04260875693972537,-0.2365562842611091,0.16129488000394715,0.018911137682960023,nm,0.0
176.532949,8.320728699158519,-16.96536092039076,-128.66108135855805,-0.13219265945123612,1.1639205453603607,-0.14305032292441663,-0.19180145987521557,0.20065683098880097,0.0044035430604842715,nm,0.0
176.542452,7.94006206043835,-18.11385714256365,-128.6473151466767,0.12407071002485047,1.3170162130470633,-0.16083550660080645,-0.14777665816238997,0.2009349580018356,-0.024368533828478034,nm,0.0
176.561295,6.963693982421705,-19.374724585126593,-129.04377235610042,0.4524496841313348,1.4536390030188424,-0.4125707009784459,-0.026647413293653346,0.1337731206105798,-0.0900370702199439,nm,0.0
176.58031000000003,5.692619771754265,-19.80693905936497,-129.53234463098,0.3277729934628259,1.1814410704002956,-0.3816194401169765,0.05157589789802834,0.1220810516918734,-0.08817738054268506,nm,0.0
176.60903399999998,2.503471536237457,-19.513243465215716,-128.51634485282923,0.1183929110094417,0.6921370582877745,-0.3143758380947051,0.14218764389233002,0.16854878538729565,0.024896397950357883,nm,0.0
176.618547,1.231169470080053,-19.44290695776119,-128.01271705261524,0.2036399439288412,0.6590417155146019,-0.2331534808259856,0.14590516753947053,0.18092507858463613,0.01315301862656128,nm,0.0
176.628072,-0.03298644963860792,-19.287614332274096,-127.7756440511766,0.363322726125583,0.6945373850425286,-0.2425803123358397,0.157287989277827,0.17050857854944027,-0.03897134862547964,nm,0.0
176.637551,-1.2510989635760161,-19.07484328818198,-127.9722207812767,0.5437202644023391,0.7459604104554038,-0.2830277435644058,0.161116328952542,0.15702656389404282,-0.12177833978041858,nm,0.0
176.647079,-2.413184152289702,-18.828428343645562,-128.62640178969315,0.6297056806423665,0.7431100621075701,-0.37130936845900553,0.16118071080938154,0.14375907973214444,-0.20862198778302332,nm,0.0
176.656581,-3.5117536610226816,-18.478672107367963,-129.60373263909176,0.721851675786614,0.6910772387191821,-0.2777714824134632,0.17191165589679216,0.11950717413336165,-0.2679266380961246,nm,0.0
176.66609200000002,-4.821965931393099,-17.988703030189328,-130.6876759505087,0.7789612716918779,0.5636051858210512,-0.15126634500063568,0.22177809338803808,0.12960544567700114,-0.30079821641853777,nm,0.0
176.675619,-6.525869691225761,-17.394391000774412,-131.6554856197506,0.4826242261492582,0.4352660505008305,-0.31991834126918106,0.28973659264977697,0.16912705100962758,-0.29886839959870326,nm,0.0
176.68511700000002,-8.025236172645522,-16.669490494830693,-132.3265663171908,0.5302665162899652,0.13174998347629943,-0.12377743413984856,0.2861424761306213,0.119336417920928,-0.22350647627109457,nm,0.0
176.694607,-9.66267377422205,-15.809270508351698,-132.74271322339777,0.6765175619961133,-0.24057735793367702,0.0727107676700116,0.3259806985162376,0.11884659383770542,-0.1759876155922571,nm,0.0
176.704167,-11.589682729828331,-14.939890654058502,-133.03302421232132,0.3957030478953833,-0.39670486043337727,-0.2429531993380923,0.3670300089032912,0.15767814807794586,-0.16110991403074293,nm,0.0
176.72315,-14.1443526424884,-13.799132458299301,-133.65827130150936,0.646648750618545,-0.7675160651796562,-0.23215975134446956,0.1981895757835552,0.10450324160328937,-0.12880820637615017,nm,0.0
176.732703,-15.078903795529925,-13.663737298515434,-134.23933372005055,0.549387478606903,-0.6929025341393866,-0.46537151870591803,0.13208118902563415,0.11611883915801036,-0.16085353773260497,nm,0.0
176.74218399999998,-15.357052746897795,-13.760176623055838,-134.97719246830516,0.691863791050246,-0.662288969761572,-0.393142981092229,0.010704826693295031,0.05632630927212474,-0.1609573944293035,nm,0.0
176.75167000000002,-15.120852796605913,-13.98267148935316,-135.78179962806306,0.7577734493360548,-0.6534047305730193,-0.4178768119779567,-0.07746906967087613,0.00387710944384576,-0.1498052240126501,nm,0.0
176.761182,-14.57209510987871,-14.09201141829741,-136.5654870712764,0.7052196857859019,-0.6387309836299775,-0.27258597005069984,-0.10551032104174686,-0.05345576087461337,-0.13040562184042548,nm,0.0
176.78025,-12.530256460836034,-13.42959004570693,-137.60060117623718,0.549674447014204,-0.7371769291018739,-0.11491668294420512,-0.11290081044450882,-0.2086820345842303,-0.02520836445731485,nm,0.0
176.78975,-11.335107811885873,-12.884320247432585,-137.6801468277472,0.3776442062506841,-0.8565766743613933,-0.010370477874471356,-0.1120220011514602,-0.23306157362584445,0.037560751570398655,nm,0.0
176.80878700000002,-8.878827521812216,-11.614885884338339,-136.55052152348168,0.025119996570694286,-1.1911083837790322,0.08186981107929271,-0.09587905781348778,-0.2532680026355935,0.09641555882017261,nm,0.0
176.83730799999998,-5.629653357198469,-10.649049624854474,-134.3086886233899,-0.33937011685411866,-1.5019061630388861,0.01702018756433194,-0.1377690241800221,-0.15718347346040062,0.014008682203291928,nm,0.0
176.846821,-4.735482956264268,-10.506153437467054,-133.74308348953784,-0.3382168560233657,-1.4253837680819874,-0.06737636210206348,-0.11432032238969549,-0.14381952247559404,-0.010321879102743532,nm,0.0
176.85633099999998,-4.036534160825631,-10.312142954284385,-133.15816243487663,-0.22949036629010436,-1.3853589311492274,-0.0034232587972276886,-0.07923518560010699,-0.12395009521993254,-0.0044028255289279075,nm,0.0
176.865847,-3.6184018247887924,-10.004141745704201,-132.56818048867433,-0.23195147576256295,-1.3026792776886174,-0.1411481276433994,-0.02391141121658477,-0.09946081624851665,0.013805213543106386,nm,0.0
176.87535699999998,-3.238978559704222,-9.465866371388774,-131.86018875219662,-0.14947396914553732,-1.2668113197726132,-0.09266834977457418,0.016518027596595573,-0.12496754531737947,0.0474230632349412,nm,0.0
176.884872,-2.951863179961325,-8.69485375320748,-131.1405671252627,-0.07598914994519762,-1.2308437469196298,-0.0831043876298232,0.06490228150243689,-0.14195248124855536,0.07635495312972392,nm,0.0
176.89438399999997,-2.7619128941859983,-7.801838038368231,-130.32801358052114,-0.09749442315255871,-1.1598458950870136,-0.1525839580054584,0.09778855111395957,-0.14243893043321884,0.09825526924112052,nm,0.0
176.90388399999998,-2.513039584226211,-6.902096647767734,-129.37610416015758,-0.07519022437599764,-1.1134857989724507,-0.0642727891162248,0.0935740523741402,-0.15080072508957748,0.11945676774600565,nm,0.0
176.93241500000002,-1.81477051074442,-4.861928531661907,-126.18231641168579,-0.11105704627542275,-0.6971912451407493,0.2040359749117016,0.040403569523032014,-0.10039534797510934,0.1876280622051586,nm,0.0
176.941926,-1.6565941604294203,-4.503083902388964,-124.85007382310265,-0.1690014209079098,-0.5260369922032402,0.25434145358346955,0.026704876584191392,-0.06611349414392044,0.2243504281837724,nm,0.0
176.95144100000002,-1.5253555745981568,-4.309582588258218,-123.37127445839522,-0.1668190326224718,-0.37543966659281264,0.32020090279908675,0.0038617285396199104,-0.04249548048915522,0.2664436006331302,nm,0.0
176.960951,-1.5140992639582647,-4.311447502168724,-121.71727001226606,-0.19085821564241356,-0.22605820572062163,0.4086593718711783,-0.01512099135164151,-0.0011801066317959196,0.30479961102536995,nm,0.0
176.97045899999998,-1.6050428640783938,-4.450018477375944,-119.91397321726359,-0.3196028578070194,-0.13270560601814624,0.42993583870227625,-0.02817177372997403,0.029882193266152775,0.3377412900373398,nm,0.0
176.979977,-1.4650859799809852,-4.550722122884465,-117.9600488000179,-0.3749583962087282,-0.1170431111502177,0.4957281259680215,-0.04476506687062064,-0.015114660807511929,0.3712305569242148,nm,0.0
176.989476,-1.2820068662770043,-4.553084395696771,-115.94690549995384,-0.1390230436127693,-0.15183705361789845,1.0613942198921045,-0.030540223232276523,-0.03325659849015747,0.38647976161458686,nm,0.0
177.017973,0.9006644437607334,-5.180389653112201,-110.7670729558182,-0.7591735540536749,-0.24380548970944255,1.563952984497667,-0.18425981286674142,-0.2990416135526535,0.3312645475268855,nm,0.0
177.027478,2.1101041523014863,-5.292130775916469,-109.78025614323846,-1.2690314711222184,-0.08188865853328361,0.7722181437410389,-0.11771996671827292,-0.2210282256822569,0.2149651180884246,nm,0.0
177.03698899999998,3.9969632969297333,-5.821333710096594,-109.40113108742631,-1.3670176292334217,0.056820622337801815,0.1691644065895717,-0.23892219783485624,-0.3215317840529585,0.10747472028202275,nm,0.0
177.0465,6.249109352587411,-6.990026626170261,-109.61440292361485,-1.2749979011006782,0.31039129161844053,0.9031913039215221,-0.38307093344115395,-0.3472483213066851,0.002321193580070281,nm,0.0
177.05601399999998,7.818426582733016,-8.323936831266035,-110.18598390429106,-1.6466456920883146,0.6611541742370739,0.5592872558605022,-0.36993047592814676,-0.2049653609725675,-0.07798529064449675,nm,0.0
177.065526,9.369587889208265,-9.463985731861037,-110.70331059021402,-1.6708585450068612,1.0457089634918566,0.39242527742286165,-0.333779457999533,-0.21093093749677547,-0.06111773894936039,nm,0.0
177.075032,10.5564334758801,-10.608483478560379,-111.01893819057267,-1.4222307419542666,1.3433859405527684,0.5261349196798338,-0.31011334526348733,-0.14031432551547066,-0.027416054930985388,nm,0.0
177.08455,10.596951431673773,-11.911907352901245,-111.12728484638664,-1.4756470787254772,1.260733166569591,0.1476137470216053,-0.25908366169956226,0.08308666369865088,-0.025589290365221704,nm,0.0
177.10354600000002,8.71313932160369,-13.976507343003034,-110.37706022490973,-0.8846847394254105,0.8934868575938409,0.2838310871457683,-0.09581597704537943,0.29260481544014594,0.03907274967503455,nm,0.0
177.13210899999999,1.9160956225163341,-17.56982645962364,-109.30049016909082,0.04046440589882851,0.4922721460822894,-0.0030725241926655156,-0.1201855450958284,0.5239590676131289,-0.11462949183357557,nm,0.0
177.141626,-0.505607683575465,-19.063350331009065,-109.43010130087374,0.2977702139923797,0.665046977966118,-0.2515146191632458,-0.14306815891617888,0.5302487922409339,-0.18079442846263374,nm,0.0
177.16044300000001,-4.572418582915973,-22.255119666911103,-110.21348388698824,0.5385557288781653,1.0730703184185504,-0.6616850748602934,-0.19332464896645285,0.4127646751482273,-0.2185592641615383,nm,0.0
177.169955,-5.851958308733294,-23.335996809392544,-110.68873759728685,0.9201789105288208,1.3241433500501825,-0.5973598325353765,-0.13420641785766318,0.2944158837708772,-0.19526728736966117,nm,0.0
177.17945799999998,-7.1397253614870815,-23.848172094606568,-111.18807510090679,0.9857180226203365,1.5279675393801706,-0.7383769421814064,-0.02533716261056568,0.25507679685921925,-0.2036992350022841,nm,0.0
177.188979,-8.162987984842118,-23.843820197977937,-111.66029980958959,1.0552702697385725,1.6141662470093279,-0.7498796615080601,0.055227096942098694,0.1720738887821063,-0.17769691868917206,nm,0.0
177.20801200000002,-9.544357192316662,-22.08502186976873,-112.69337721366318,1.2550293784585853,1.3543469003899324,-0.2967118181930689,0.25475479896458597,0.022460289393628225,-0.16488575678916553,nm,0.0
177.21750699999998,-10.144897806910503,-20.452562585558457,-113.3508169610355,1.209595734452405,1.0535275019893968,-0.20674285533346104,0.33057782717851825,-0.026155448208466252,-0.17554468145693217,nm,0.0
177.236709,-11.6215460448911,-17.422876021958906,-114.67670377502363,1.023577067100534,0.3103837234138186,0.07789376444096907,0.3058563658844054,0.02696144778001411,-0.1798012213203634,nm,0.0
177.24621800000003,-12.498124783140765,-16.219080458732968,-115.19747153236077,0.9349068132701875,0.013655262858395432,0.054220487885452216,0.2752554444418769,0.04993903783923207,-0.15538994922101823,nm,0.0
177.26528199999998,-14.579528736789268,-14.747176395907138,-115.64248020879677,0.9622268610949215,-0.1049971243619419,-0.21490186701507788,0.17350965715709057,0.14698078994118075,-0.07861026890353415,nm,0.0
177.274772,-15.770925827351158,-14.553650058605056,-115.53523760843406,1.0977000112484516,-0.06637821178709111,-0.22873845914280364,0.12044772494961183,0.19095329145695794,-0.03872975176123325,nm,0.0
177.29362999999998,-18.510721344982425,-14.245461039831778,-114.91154453505955,1.119262059050826,0.028799495843071073,-0.5048349743258558,0.13410794519133282,0.22922032384560756,0.006695812448938133,nm,0.0
177.30315800000002,-19.79230790398395,-13.915480895855145,-114.42937306992559,1.0166709423848759,-0.1070314259960092,-0.5395395684624843,0.14977549123922726,0.19808548673650214,0.03502655830047364,nm,0.0
177.32213800000002,-21.45301623018716,-12.574933912924847,-113.53607982979253,0.693071184246733,-0.6368630024519603,-0.5120703399472881,0.17560113246592052,0.057527047647090455,0.05327690468489943,nm,0.0
177.331646,-21.80514469204853,-11.920135775004269,-113.19632470397586,0.46991756699052023,-0.914734648330626,-0.5008411787745922,0.13355769231709555,0.010476101813369271,0.05421523440723546,nm,0.0
177.350649,-21.714217505498382,-11.277191814566859,-112.64026030909723,0.037164792706554345,-1.3172986573238592,-0.376328201176128,0.016932911993583852,-0.046735064254128586,0.0595997060008068,nm,0.0
177.38888,-18.970839676731867,-10.013157226120352,-110.74178013764755,-0.21661439539568916,-1.2803080885727771,-0.11037907028766425,0.027346283048076476,-0.20796449386247826,0.15636203935964024,nm,0.0
177.39838899999998,-17.937398828257084,-9.181378398228444,-110.15564444432758,-0.22531756484950669,-1.284402991412782,-0.09698077774002377,0.07066875059461047,-0.2510938553096919,0.15185325465043056,nm,0.0
177.40789400000003,-16.843666131489996,-8.152217312484911,-109.66879073543565,-0.3067342076891322,-1.3281066207266485,-0.12867322152082117,0.1059397563953444,-0.2756324044865982,0.13012563963729232,nm,0.0
177.417401,-15.727260066188288,-7.041650695107178,-109.28031303954515,-0.4175795087656348,-1.410703491019568,-0.10243597027700284,0.12173417885442897,-0.2850554068065556,0.10661271450409968,nm,0.0
177.44597100000001,-12.514383569081994,-3.5958992988285563,-108.15039198024826,-0.6678690634523708,-1.1817275456605716,0.18997468843611645,0.14917121856396484,-0.2268751335552268,0.09165057572275971,nm,0.0
177.455497,-10.945503480486522,-2.983593744761483,-107.12496144946414,-0.8316343506420054,-0.5609323107909285,0.4143913311546353,0.009384132827518625,-0.33852023116969165,0.127484906322951,nm,0.0
177.465002,-8.14121086769595,-3.077570076475806,-105.81477974401027,-0.5884067487176656,-0.650697997469376,1.006800303957633,-0.18760144043653082,-0.5363719085711741,0.15860354368730417,nm,0.0
177.474508,-5.431533189492998,-2.84589136316459,-104.62472058557775,-0.8033012915205952,-0.3300505647991284,0.6046884097447489,-0.10764054557222158,-0.5389220616036863,0.12379491465042182,nm,0.0
177.48401700000002,-2.709569073686524,-2.41106961224916,-103.71026513669972,-1.1509428640328305,0.29410519764281534,0.3072642284891374,-0.059153247282792455,-0.5530303628961685,0.08487336580291789,nm,0.0
177.493531,0.5652141391110521,-2.570299105990132,-102.90830129724708,-1.3163945648050999,0.45998255447032876,0.6413172305501049,-0.19120465828811717,-0.6350327488554535,0.05780585783678083,nm,0.0
