timestamp,roll,pitch,yaw,acc_x,acc_y,acc_z,gyro_x,gyro_y,gyro_z,markers,motor_input
170.008818,9.924718277685342,-34.39168115994314,-114.80859859335867,-0.33279065256024565,1.3600956330118097,0.08153461643605459,0.09634819372763684,0.3545861453785543,0.05682519665616711,nm,0.0
170.02785100000003,5.337010924725603,-34.3205863680205,-114.22831703007071,0.01985030692158677,0.8869474561324955,-0.13363829165723062,0.15220092349904618,0.33152921667754776,-0.2811261804079861,nm,0.0
170.037367,3.2064172735023053,-34.27817762537483,-114.81934456537597,0.04067826429460477,0.6179833850905289,-0.146105890494359,0.14014460983955285,0.31434406666128933,-0.3597148523724814,nm,0.0
170.056391,-1.453272153846799,-34.136123846942596,-115.5916969749998,0.02848192350806136,0.22151100848716415,-0.14164041253597354,0.18132461238929146,0.3613437735448565,-0.31903905145854866,nm,0.0
170.065884,-4.02488452677849,-33.938304649796926,-115.25371331442417,0.02298879399149374,0.07460912653001894,-0.24110357701966417,0.20486692620207494,0.3667059696166027,-0.22037743899956655,nm,0.0
170.084911,-8.741474952515482,-32.88102217213035,-113.91122011380708,0.3854360076056686,0.04507650048582621,-0.26687572106248447,0.2652493728375168,0.2973562857556546,-0.1243864770742767,nm,0.0
170.094436,-10.531471227431362,-32.04542884118612,-113.7446300653804,0.3940715569048928,0.03938972759391275,-0.3919900383185431,0.2611368199185547,0.20781439825996664,-0.1578958357580787,nm,0.0
170.11350000000002,-12.017984330275683,-30.245430728851613,-115.65809135821355,0.4896872320861362,-0.13548277742693607,-0.12127080829099039,0.18866193342674242,-0.0016639086385261761,-0.31952970760061417,nm,0.0
170.122966,-12.131681057867283,-29.206539051326356,-117.57045810719683,0.3347510333188665,-0.3615877429083808,0.032249953758069994,0.18073407358331237,-0.07566735911349806,-0.39301085981354683,nm,0.0
170.132461,-12.201756425013407,-28.029339820067246,-119.63298073838497,0.2380364273162149,-0.6552043392107239,0.2743023950209961,0.1987432333973833,-0.10168500708945168,-0.41862163829455573,nm,0.0
170.151484,-14.073183861209136,-25.525721288134047,-122.71721730299323,0.11781138096766601,-1.386195853124338,0.6222458981066197,0.32348152908329675,0.07103958562149533,-0.37317145905042226,nm,0.0
170.17049899999998,-18.99473023220641,-23.814968694790707,-124.0095980982492,0.13150265787530271,-2.1038605800743655,0.6029459630011765,0.37911913949830167,0.34028926430647055,-0.3243297331140298,nm,0.0
170.18934299999998,-25.631600832899142,-23.673726639931907,-125.40773684037971,0.012493326257703856,-2.7169410729423014,0.3126353196168684,0.3235966993241372,0.5457891603463084,-0.4423904433957181,nm,0.0
170.19885000000002,-29.092003561030804,-24.561222537081868,-126.42073901042092,0.24440490869505982,-2.8764130616952084,0.2878584274098463,0.2138786597109111,0.619761980323359,-0.48195765598686124,nm,0.0
170.208364,-32.313985425698846,-26.243123656190715,-127.41122409348021,-0.3300067695517768,-2.5822130071588694,0.09604404240308274,0.06804736663933002,0.6720667430640447,-0.47032533757575923,nm,0.0
170.227381,-35.281610920070854,-29.683414189437283,-128.32552362033658,-0.1751287752569613,-2.077800602487912,-0.11547154732348065,-0.13707086285361209,0.3358861381149656,-0.14717335227945458,nm,0.0
170.23689099999999,-35.86615805913755,-30.698886800435975,-128.14584718355422,-0.3506261540543966,-1.5806574117792678,-0.49921937337525507,-0.10930106501003391,0.20980508941374137,-0.01717756712272048,nm,0.0
170.26544800000002,-34.28621645969935,-33.774354987718205,-127.7038143955799,0.5263330573175333,-0.7984343418125598,-0.46324139786647417,-0.3036669695162255,0.03162324237062906,0.026699827234212357,nm,0.0
170.28445000000002,-30.64647714345804,-36.69038077704693,-131.07502107057496,0.38189267173750946,-0.6610867216400693,-0.1169088555599466,-0.44820083524785287,-0.039842233447941695,-0.16750723095424522,nm,0.0
170.29412699999997,-28.68140847025815,-38.15611250684466,-133.0829407314398,0.13310608127619974,-0.5342434779314904,0.09406232439744092,-0.4393001239574001,-0.02968974369239927,-0.15785175568972906,nm,0.0
170.303642,-26.762541962804058,-39.1594244040136,-134.54617609375828,0.17358184847060945,-0.40096118956440296,0.18099797416809882,-0.36475599857963575,-0.07164926718896392,-0.0481720882233323,nm,0.0
170.313167,-25.218504055233456,-39.52182260071042,-135.06950097463138,0.1760799537392817,-0.16679427937236946,0.008315455724621527,-0.2321721173634812,-0.11275121859120388,0.09573839365614617,nm,0.0
170.322666,-23.891198611637996,-39.32415515509412,-134.5360696163347,0.26242257678041087,0.06393431516750545,-0.20928704835086984,-0.12899206971113064,-0.16807928980445605,0.27984642935179316,nm,0.0
170.33219,-22.34955489779799,-38.714364059307314,-133.27525911379192,0.5312732401377365,0.288623936925473,-0.33279631230568196,-0.09106420301155228,-0.25247361436331717,0.4507235971618295,nm,0.0
170.34170200000003,-20.124787993302743,-37.84716969687294,-131.87337219728778,0.6049492094767276,0.5310064163413426,-0.38755922680693977,-0.12180104197529677,-0.37060401327109177,0.5601373739835899,nm,0.0
170.35120500000002,-16.561071969777903,-36.81052672700397,-130.8542283154857,0.7557750031390769,0.6499249442320297,-0.3827123215008807,-0.23269504582487277,-0.5593205111053292,0.6395157578786774,nm,0.0
170.36069899999998,-12.078024873993893,-35.84136180101563,-130.5038727146011,0.839776951691949,0.9385560205718918,-0.0021238701160009236,-0.33807932482360536,-0.6718505935327586,0.6038103618291489,nm,0.0
170.37023200000002,-6.894047989428309,-35.12408477458717,-130.77744433297536,0.19163422306373643,1.2024077896089025,0.04383479369544937,-0.45558662100510244,-0.7323889131027405,0.5487184231551908,nm,0.0
170.408266,15.44790100420602,-33.272415005119626,-130.99533849608298,-1.044302602416935,2.185648597988802,0.42402405871610777,-0.5253589681440782,-0.6175923893224141,0.6753938099296478,nm,0.0
170.417583,19.036645742636356,-33.67953562135398,-129.64868607255158,-1.1641404654879868,2.305366757382364,0.2813268022789364,-0.46374538249905684,-0.4059927166152732,0.662447787160988,nm,0.0
170.42709399999998,21.174197465907096,-34.4077260538588,-127.89251164270021,-1.2702570836355664,2.2664767135765578,-0.10249149842778832,-0.34933576545036243,-0.1877312769570947,0.5875348040628476,nm,0.0
170.436609,22.119774118769612,-35.21796714397876,-125.96821718379422,-1.1588662423849692,2.235041637028655,-0.245038140341525,-0.23651624986730127,-0.029924894481955747,0.4897041481522808,nm,0.0
170.474844,15.95117674498595,-36.153988947785564,-120.41613318611076,-0.5375619233791095,1.2356698706781695,-0.0316678688008427,0.23115309462042116,0.3377741198185554,-0.11188941348162149,nm,0.0
170.49384799999999,9.470376609473917,-35.74645063606985,-118.5217292525439,-0.33914682212474223,0.5251679227657351,-0.03108668472344162,0.28579698041538754,0.457823880556428,-0.19686377679802144,nm,0.0
170.50337499999998,5.989217612257052,-35.570137367934656,-117.30234173129202,-0.15381500338546925,0.3433531245694872,-0.0350119563803941,0.28241439734330015,0.4813050762164993,-0.1635373466449836,nm,0.0
170.512884,2.5073598362095235,-35.36632587250914,-115.93048242715011,0.0020343666602257006,0.28200560045137696,-0.10409239057764202,0.27689650511783565,0.4868997917082285,-0.13068922081728762,nm,0.0
170.52238300000002,-0.7289112652094545,-35.02765634514669,-114.57154111159522,0.1007324123278499,0.2247904875514082,-0.3515774369787249,0.27320648212303944,0.44769250359412494,-0.101734616743487,nm,0.0
170.531888,-3.41485335168917,-34.56052198889701,-113.45558080462614,0.22269086588014123,0.3182987702573147,-0.5637056905839789,0.25114372264764684,0.36315602421495274,-0.08334005972503093,nm,0.0
170.54140500000003,-5.3836041765461085,-34.07003767090148,-112.79210850172598,0.4226877916003189,0.44267275229988606,-0.5256689006592618,0.20415898130931667,0.2587609197718862,-0.08896373475291784,nm,0.0
170.55094999999997,-6.743183628529648,-33.42434828393152,-112.71482920345959,0.48103329861607147,0.4690825176170584,-0.4453688650787624,0.19274031080696757,0.15679165012582516,-0.13514403038320427,nm,0.0
170.57949900000003,-7.882168942981485,-29.72683891265608,-115.13964995960521,0.33933716326932967,0.02750587374728138,-0.06881878028069016,0.2511139599854516,-0.09851196322544525,-0.221110917199904,nm,0.0
170.59845700000002,-8.373304740103562,-26.58522790780948,-116.9028862689922,0.218139170969972,-0.45027794683723343,0.24352591118233577,0.30100660453963546,-0.09499684302307855,-0.18589676160633398,nm,0.0
170.607966,-8.950337171372226,-24.995827908042084,-117.46836560430057,0.23366015202248788,-0.6631290900620981,0.34115394333340504,0.3164717870381358,-0.053427888220786375,-0.16346746523499303,nm,0.0
170.61748300000002,-9.810257747789128,-23.453267695576084,-117.90880062966743,0.2859609979614956,-0.9076389576027498,0.4967182647113599,0.33230358398369186,-0.004845211110812917,-0.15883523841204922,nm,0.0
170.62700700000002,-10.990881282128177,-21.84880932938711,-118.39189403188972,0.4298632484275581,-1.294375653292282,0.5445331669254667,0.3720258622447328,0.040667660596517274,-0.18772705355457486,nm,0.0
170.63650600000003,-12.86829413087286,-20.33514911836966,-119.1229492440078,0.460587564001936,-1.7403905060999587,0.4369618263022261,0.420277209738386,0.16190767417564123,-0.28140454058940995,nm,0.0
170.64602599999998,-15.347885462529517,-19.264162601205257,-120.14891336729387,0.3746284252040838,-2.2195244518466093,0.41057569140516187,0.403250111013362,0.3007055150993673,-0.3729504177285274,nm,0.0
170.655356,-18.249419484019512,-18.69887981861714,-121.38674622865177,0.382726617230062,-2.773021219513733,0.5890417878775195,0.36423748495916186,0.4153913645256987,-0.43561151858625435,nm,0.0
170.66485400000002,-21.52680753834027,-18.627852410077097,-122.62634274997069,0.20146602767608232,-2.950583916748435,0.3664167460417235,0.32765855036413066,0.5214328882123869,-0.45631246420927785,nm,0.0
170.67439700000003,-24.830952508685435,-19.160343914590985,-123.47268485256973,0.2934816917732768,-3.0501421781459,0.2457671866881735,0.23824967285426657,0.584962640182644,-0.38110069339611025,nm,0.0
170.693383,-29.818726932043614,-20.727146060055674,-123.34166886360623,0.3876413118739388,-2.683585546603472,-0.003038354779593767,0.085291699257649,0.39731460316680844,-0.05942318357429803,nm,0.0
170.70290300000002,-31.6835863233064,-21.111890441477303,-122.35229485646632,0.33877522798046644,-2.253214692847207,-0.36495353926802365,0.11106719328801927,0.3371124953250962,0.06887422806471064,nm,0.0
170.72191899999999,-32.97800830449006,-21.59830296259804,-119.50344543164944,0.6555644259482126,-1.4727034355207151,-0.652755737490296,-0.04419120701281561,0.051805328183116166,0.2822365488918996,nm,0.0
170.73142299999998,-32.55383391094356,-22.14175379148339,-118.45377997007965,0.6168355458140953,-1.0548202024313558,-0.6647245485988814,-0.14682644183597038,-0.014753368021983833,0.24619903531351348,nm,0.0
170.740964,-31.159509123705575,-23.134825898501475,-118.05169762279581,0.29596720782005587,-0.748386877093044,-0.5577357727690069,-0.31064439498616153,-0.13149460992897297,0.19217343385358637,nm,0.0
170.750659,-28.384535069494195,-24.400215111786345,-118.39402477336395,0.2948736081195249,-0.6270362554413543,-0.20006193219778384,-0.47733464059964625,-0.32693063756409624,0.15919342268243866,nm,0.0
170.760146,-24.746829878945068,-25.573221249258655,-119.37371920073328,0.09023736065383957,-0.47072874470245085,0.11460680954394853,-0.538284818506712,-0.4633092309385255,0.11477214046862755,nm,0.0
170.77916100000002,-16.241779077228745,-26.838116225639837,-121.49941786891581,0.046292974242755504,0.039221968107746766,0.5972984112643874,-0.48359852541311865,-0.6045988923876577,0.19543740401843504,nm,0.0
170.78868000000003,-12.642884243368167,-26.955370714825687,-121.93196672154701,-0.2428574221610554,0.3770330404058018,0.48371103014919287,-0.37197697219623205,-0.5334477486866304,0.2403800765285705,nm,0.0
170.807698,-6.9586004771951435,-26.18099013844491,-121.47816239289416,-0.060020849012123866,0.9411692792516619,0.542709321585501,-0.16166641076941451,-0.44223897867468703,0.29833371448350215,nm,0.0
170.826718,-3.3244995976004525,-24.671289625590138,-121.32540694520466,-0.1667839644627214,1.226981000945078,0.6053506256662486,-0.03841236090369117,-0.35300693835481384,0.12321980284655897,nm,0.0
170.83622499999998,-1.6904238459695036,-23.571398402628404,-121.89674866440754,-0.2232749268180951,1.2095123104582577,0.3301327342736881,0.016916401363663562,-0.37001625240880953,0.017771158317875645,nm,0.0
170.845738,-0.088589272104031,-22.48639025003297,-122.79553740259273,-0.36031370714747063,1.4164490979815771,0.01919072888345633,0.011555454592475228,-0.36580386959831335,-0.0564741837937862,nm,0.0
170.85525399999997,1.9346868923435396,-21.9499975906544,-123.74199795852509,-0.3479811035182505,1.6335563083330156,0.0017254403580390166,-0.12992894123700272,-0.3726598510819728,-0.038753633995287314,nm,0.0
170.874267,6.186738485512194,-22.061381649893242,-124.43927235431936,-0.35189820460234306,2.1373710078276122,0.3267248345693072,-0.24366983025035968,-0.293475730017484,0.1407365715300977,nm,0.0
170.88359,7.759756506794881,-22.23607654953502,-123.61352930771743,-0.3778331612778569,2.2474628295437147,0.24738665252564404,-0.20598500625633373,-0.22312017739184187,0.28053561422086626,nm,0.0
170.90280499999997,9.0698799804371,-23.32543675003192,-119.73170064847105,-0.5449752562633224,1.7868231561490906,0.22501504319169757,-0.15302718076133978,0.016688339083174696,0.47033737207056325,nm,0.0
170.912317,8.764152843678442,-23.972261652941995,-117.12981990765942,-0.5418952752406737,1.4475097687926994,0.1354330867390528,-0.10074264479238533,0.10831736173850727,0.49288478423608284,nm,0.0
170.921824,7.923652996809689,-24.69841993220845,-114.57017216432727,-0.4235435534468319,1.2097394692303278,0.15186417488925547,-0.07747619998442552,0.19820992120479983,0.43987800125608345,nm,0.0
170.940843,4.969434920145797,-26.227910210057477,-110.82944023824786,-0.18536562452985933,0.7389804332837087,0.0902097562141477,-0.03335137660578568,0.3210812231169379,0.17144251086044945,nm,0.0
170.95987599999998,1.0745068565883484,-26.86794426034119,-109.45339819767062,-0.001081339776448205,0.3724021457451136,-0.1803445925297684,0.06001929983502242,0.35393831530250447,-0.10042524834758106,nm,0.0
170.969369,-0.9992760147045943,-27.123531912534702,-109.34630627602345,0.01483277780889935,0.15769405999330807,-0.20985546644327702,0.06091834862830637,0.36255292848676696,-0.16831945323389205,nm,0.0
170.988394,-5.422892535050448,-27.487035940811154,-109.15513652554355,0.0013188131258605202,-0.0425219639899347,-0.2401896631533894,0.08751243798037574,0.38617306764708315,-0.17950332503229213,nm,0.0
170.99790099999998,-7.476486519003095,-27.610671791544952,-108.88508661967575,0.005650190692816828,-0.1220543536887514,-0.37088551341494336,0.08150124587445122,0.34992325991351986,-0.13611745862502228,nm,0.0
