timestamp,roll,pitch,yaw,acc_x,acc_y,acc_z,gyro_x,gyro_y,gyro_z,markers,motor_input
177.017973,0.9006644437607334,-5.180389653112201,-110.7670729558182,-0.7591735540536749,-0.24380548970944255,1.563952984497667,-0.18425981286674142,-0.2990416135526535,0.3312645475268855,nm,0.0
177.027478,2.1101041523014863,-5.292130775916469,-109.78025614323846,-1.2690314711222184,-0.08188865853328361,0.7722181437410389,-0.11771996671827292,-0.2210282256822569,0.2149651180884246,nm,0.0
177.03698899999998,3.9969632969297333,-5.821333710096594,-109.40113108742631,-1.3670176292334217,0.056820622337801815,0.1691644065895717,-0.23892219783485624,-0.3215317840529585,0.10747472028202275,nm,0.0
177.0465,6.249109352587411,-6.990026626170261,-109.61440292361485,-1.2749979011006782,0.31039129161844053,0.9031913039215221,-0.38307093344115395,-0.3472483213066851,0.002321193580070281,nm,0.0
177.05601399999998,7.818426582733016,-8.323936831266035,-110.18598390429106,-1.6466456920883146,0.6611541742370739,0.5592872558605022,-0.36993047592814676,-0.2049653609725675,-0.07798529064449675,nm,0.0
177.065526,9.369587889208265,-9.463985731861037,-110.70331059021402,-1.6708585450068612,1.0457089634918566,0.39242527742286165,-0.333779457999533,-0.21093093749677547,-0.06111773894936039,nm,0.0
177.075032,10.5564334758801,-10.608483478560379,-111.01893819057267,-1.4222307419542666,1.3433859405527684,0.5261349196798338,-0.31011334526348733,-0.14031432551547066,-0.027416054930985388,nm,0.0
177.08455,10.596951431673773,-11.911907352901245,-111.12728484638664,-1.4756470787254772,1.260733166569591,0.1476137470216053,-0.25908366169956226,0.08308666369865088,-0.025589290365221704,nm,0.0
177.10354600000002,8.71313932160369,-13.976507343003034,-110.37706022490973,-0.8846847394254105,0.8934868575938409,0.2838310871457683,-0.09581597704537943,0.29260481544014594,0.03907274967503455,nm,0.0
177.13210899999999,1.9160956225163341,-17.56982645962364,-109.30049016909082,0.04046440589882851,0.4922721460822894,-0.0030725241926655156,-0.1201855450958284,0.5239590676131289,-0.11462949183357557,nm,0.0
177.141626,-0.505607683575465,-19.063350331009065,-109.43010130087374,0.2977702139923797,0.665046977966118,-0.2515146191632458,-0.14306815891617888,0.5302487922409339,-0.18079442846263374,nm,0.0
177.16044300000001,-4.572418582915973,-22.255119666911103,-110.21348388698824,0.5385557288781653,1.0730703184185504,-0.6616850748602934,-0.19332464896645285,0.4127646751482273,-0.2185592641615383,nm,0.0
177.169955,-5.851958308733294,-23.335996809392544,-110.68873759728685,0.9201789105288208,1.3241433500501825,-0.5973598325353765,-0.13420641785766318,0.2944158837708772,-0.19526728736966117,nm,0.0
177.17945799999998,-7.1397253614870815,-23.848172094606568,-111.18807510090679,0.9857180226203365,1.5279675393801706,-0.7383769421814064,-0.02533716261056568,0.25507679685921925,-0.2036992350022841,nm,0.0
177.188979,-8.162987984842118,-23.843820197977937,-111.66029980958959,1.0552702697385725,1.6141662470093279,-0.7498796615080601,0.055227096942098694,0.1720738887821063,-0.17769691868917206,nm,0.0
177.20801200000002,-9.544357192316662,-22.08502186976873,-112.69337721366318,1.2550293784585853,1.3543469003899324,-0.2967118181930689,0.25475479896458597,0.022460289393628225,-0.16488575678916553,nm,0.0
177.21750699999998,-10.144897806910503,-20.452562585558457,-113.3508169610355,1.209595734452405,1.0535275019893968,-0.20674285533346104,0.33057782717851825,-0.026155448208466252,-0.17554468145693217,nm,0.0
177.236709,-11.6215460448911,-17.422876021958906,-114.67670377502363,1.023577067100534,0.3103837234138186,0.07789376444096907,0.3058563658844054,0.02696144778001411,-0.1798012213203634,nm,0.0
177.24621800000003,-12.498124783140765,-16.219080458732968,-115.19747153236077,0.9349068132701875,0.013655262858395432,0.054220487885452216,0.2752554444418769,0.04993903783923207,-0.15538994922101823,nm,0.0
177.26528199999998,-14.579528736789268,-14.747176395907138,-115.64248020879677,0.9622268610949215,-0.1049971243619419,-0.21490186701507788,0.17350965715709057,0.14698078994118075,-0.07861026890353415,nm,0.0
177.274772,-15.770925827351158,-14.553650058605056,-115.53523760843406,1.0977000112484516,-0.06637821178709111,-0.22873845914280364,0.12044772494961183,0.19095329145695794,-0.03872975176123325,nm,0.0
177.29362999999998,-18.510721344982425,-14.245461039831778,-114.91154453505955,1.119262059050826,0.028799495843071073,-0.5048349743258558,0.13410794519133282,0.22922032384560756,0.006695812448938133,nm,0.0
177.30315800000002,-19.79230790398395,-13.915480895855145,-114.42937306992559,1.0166709423848759,-0.1070314259960092,-0.5395395684624843,0.14977549123922726,0.19808548673650214,0.03502655830047364,nm,0.0
177.32213800000002,-21.45301623018716,-12.574933912924847,-113.53607982979253,0.693071184246733,-0.6368630024519603,-0.5120703399472881,0.17560113246592052,0.057527047647090455,0.05327690468489943,nm,0.0
177.331646,-21.80514469204853,-11.920135775004269,-113.19632470397586,0.46991756699052023,-0.914734648330626,-0.5008411787745922,0.13355769231709555,0.010476101813369271,0.05421523440723546,nm,0.0
177.350649,-21.714217505498382,-11.277191814566859,-112.64026030909723,0.037164792706554345,-1.3172986573238592,-0.376328201176128,0.016932911993583852,-0.046735064254128586,0.0595997060008068,nm,0.0
177.38888,-18.970839676731867,-10.013157226120352,-110.74178013764755,-0.21661439539568916,-1.2803080885727771,-0.11037907028766425,0.027346283048076476,-0.20796449386247826,0.15636203935964024,nm,0.0
177.39838899999998,-17.937398828257084,-9.181378398228444,-110.15564444432758,-0.22531756484950669,-1.284402991412782,-0.09698077774002377,0.07066875059461047,-0.2510938553096919,0.15185325465043056,nm,0.0
177.40789400000003,-16.843666131489996,-8.152217312484911,-109.66879073543565,-0.3067342076891322,-1.3281066207266485,-0.12867322152082117,0.1059397563953444,-0.2756324044865982,0.13012563963729232,nm,0.0
177.417401,-15.727260066188288,-7.041650695107178,-109.28031303954515,-0.4175795087656348,-1.410703491019568,-0.10243597027700284,0.12173417885442897,-0.2850554068065556,0.10661271450409968,nm,0.0
177.44597100000001,-12.514383569081994,-3.5958992988285563,-108.15039198024826,-0.6678690634523708,-1.1817275456605716,0.18997468843611645,0.14917121856396484,-0.2268751335552268,0.09165057572275971,nm,0.0
177.455497,-10.945503480486522,-2.983593744761483,-107.12496144946414,-0.8316343506420054,-0.5609323107909285,0.4143913311546353,0.009384132827518625,-0.33852023116969165,0.127484906322951,nm,0.0
177.465002,-8.14121086769595,-3.077570076475806,-105.81477974401027,-0.5884067487176656,-0.650697997469376,1.006800303957633,-0.18760144043653082,-0.5363719085711741,0.15860354368730417,nm,0.0
177.474508,-5.431533189492998,-2.84589136316459,-104.62472058557775,-0.8033012915205952,-0.3300505647991284,0.6046884097447489,-0.10764054557222158,-0.5389220616036863,0.12379491465042182,nm,0.0
177.48401700000002,-2.709569073686524,-2.41106961224916,-103.71026513669972,-1.1509428640328305,0.29410519764281534,0.3072642284891374,-0.059153247282792455,-0.5530303628961685,0.08487336580291789,nm,0.0
177.493531,0.5652141391110521,-2.570299105990132,-102.90830129724708,-1.3163945648050999,0.45998255447032876,0.6413172305501049,-0.19120465828811717,-0.6350327488554535,0.05780585783678083,nm,0.0
177.503032,3.860169383248536,-2.9529147019200157,-102.19079719730402,-1.5990803290631226,0.28668182782830004,1.2015085915685115,-0.2266058842650217,-0.6320990038940856,0.02865975720693955,nm,0.0
177.512554,6.677842623906851,-2.8464917762182456,-101.7157224172801,-1.8877604911146695,0.1816676731903711,0.7985393712045787,-0.10563373487476392,-0.5604105747374215,0.017746134057580246,nm,0.0
177.522052,8.872660826967172,-2.612199875111742,-101.54853687576492,-1.9017352419040456,0.041233278685169995,0.6738242257321264,-0.05382725347957909,-0.4438901232495995,0.01261552957100741,nm,0.0
177.531577,9.993375356826109,-2.9206942481204696,-101.66846623874879,-1.9099127896721533,-0.2925465830833868,0.5049086018602862,-0.11755109621147701,-0.2115082959668449,-0.0076206857424477295,nm,0.0
177.54108,10.06237037749908,-3.6411771685208305,-101.96422316812317,-1.8304295613210328,-0.5573072381175033,0.533203232869629,-0.1558557065786111,0.011992474266179469,-0.002379890230484395,nm,0.0
177.560104,7.538520176655992,-5.625530320315439,-102.35444023198392,-0.9983299245437074,-0.2979369959602963,0.5002161182641426,-0.16415029340922635,0.37949567957730246,0.009098297469883901,nm,0.0
177.56956499999998,5.263851890355794,-7.254710149804223,-102.24352049008239,-0.6404351418485439,-0.12136099232107836,0.4483440568889947,-0.23475389816653192,0.50719029741924,-0.033970353629355216,nm,0.0
177.58863599999998,0.38531323829488007,-10.591072326017683,-102.43875137814277,-0.023033537930041523,0.2693999441896983,0.021826313920087128,-0.22173199440094693,0.5314830104568032,-0.1204707860101149,nm,0.0
177.59812200000002,-1.8143893284791979,-12.162424558379477,-102.74545646583839,0.07997282452114858,0.3661420626116723,-0.17041496639861864,-0.22606367707409014,0.48565646274016067,-0.15135796503223026,nm,0.0
177.607633,-3.5188369213518857,-13.71111570971796,-103.1295601263909,0.11049267636390293,0.37694392844553626,-0.24504303602366134,-0.241058582053421,0.3893736509383712,-0.15583897954629067,nm,0.0
177.61714500000002,-4.620366228592935,-15.042888903347487,-103.55118722671006,0.3453114365552537,0.3958504121992875,-0.04182722594077106,-0.22359315158159201,0.2652933097702072,-0.14132210289799568,nm,0.0
177.626651,-5.4523137309178,-16.09550754194467,-104.03828744790533,0.341623094772016,0.41655823270091996,-0.2268866379881137,-0.17993476262411984,0.20210565118990023,-0.1440727247479592,nm,0.0
177.64566799999997,-5.348146613404359,-17.889781591442436,-105.26656158658997,0.5342833048459267,0.6193609146364689,-0.2240548110361415,-0.19931052926736006,-0.027891453259812148,-0.11408987760169775,nm,0.0
177.65516499999998,-4.673955354676753,-18.595052299112464,-106.16386963975235,0.5445704726297109,0.8356698977846315,-0.2842119540983705,-0.1843007325626654,-0.088814100192994,-0.13906133750623967,nm,0.0
177.674186,-2.2781015014218005,-19.22174208733596,-108.78659458191629,0.7869779004307049,1.526137188310523,0.04197208827463878,-0.12575324821159567,-0.22796733601578437,-0.20623492282803058,nm,0.0
177.69303900000003,-0.19176281170735537,-19.131373377183717,-112.08816767960181,0.9027810051467905,1.9745888194639043,0.19919252276431104,-0.055532447766370556,-0.16873946667181022,-0.27433002038471727,nm,0.0
177.70253799999998,0.15461257262916064,-18.865061577479988,-113.51378668831879,0.8910171622763402,1.9120141424581005,0.08433255746578193,0.009981557216922015,-0.08343950208811655,-0.2654152160154049,nm,0.0
177.712078,-0.15218596430224796,-18.344141718205584,-114.49360750971204,0.8496309767058313,1.6823479457919035,-0.059093897566533736,0.10517043677055647,0.008724877656232232,-0.21834988486602008,nm,0.0
177.721596,-1.1160634232050235,-17.590148693020698,-114.91686478147233,0.8458999934163585,1.3429647038601178,-0.18344529147198493,0.2000428289580049,0.10188031268475806,-0.1467717125111659,nm,0.0
177.731279,-2.726528384771043,-16.793340759146762,-114.83224196317187,0.8442547407059761,0.9725730975917392,-0.23478234787595967,0.26042168430276286,0.21072664885794914,-0.08066056078917518,nm,0.0
177.74079200000003,-4.843081864156918,-16.074564452533195,-114.41070274057459,0.8563607309707163,0.6018689511960461,-0.13294013657416182,0.2862152948323094,0.3080314189013058,-0.0374723728195993,nm,0.0
177.759831,-9.871461358395514,-14.648016451789177,-113.46420214077095,0.8895708967060494,-0.009929684256660963,-0.2713137811522425,0.3179594676267953,0.40092724013000186,-0.051067846936890524,nm,0.0
177.769334,-12.498553059982997,-14.047638777758936,-113.23979930102075,0.916617230628968,-0.20169606613920177,-0.37778356259552553,0.29823979926126376,0.41900826876457653,-0.0860503408965275,nm,0.0
177.788196,-17.446496689467597,-13.179370050934986,-113.09326312050862,0.8699284369345346,-0.47433403066977414,-0.6133281165130593,0.24477521453318993,0.3927247388579299,-0.12931572638658262,nm,0.0
177.797694,-19.5396141725805,-12.652204004619554,-113.00471555987927,0.7817948640030714,-0.6068270462880263,-0.9064143239474018,0.24229027525505337,0.3341651519932685,-0.1185624537906547,nm,0.0
177.80722599999999,-21.469828627616476,-11.88736482394873,-112.84529763689,0.8084059000427918,-0.7431540973815414,-0.8697129715300501,0.27335722117855343,0.28800243989125324,-0.10291748781544093,nm,0.0
177.81671200000002,-23.263649390616475,-10.805629590581614,-112.62104735280109,0.763369234848729,-0.8435748291849521,-0.8240609212203495,0.3211162760299442,0.24113809135120962,-0.08550958527198975,nm,0.0
177.82621500000002,-24.803112812154012,-9.53195331141104,-112.32726874146624,0.793190793202424,-1.0119652204531953,-0.6871686971278721,0.3370980467707952,0.18286854298828017,-0.05304751373565243,nm,0.0
177.8452,-27.118423069087136,-6.697312469596833,-112.16581292860437,0.43127163687454123,-1.3690875679914023,-0.6331167835899726,0.33108168046684383,0.06790373004524856,-0.004626632571826333,nm,0.0
177.864203,-27.416867299487958,-3.2754914480985544,-111.9849916966673,-0.04253856434651245,-1.7306224817799567,-0.6088149673418005,0.31189353104603923,-0.16038797118606754,0.022114307377029175,nm,0.0
177.892732,-24.8445838828284,2.404154389276163,-111.06853720446851,-0.18914895006328686,-1.5308236344897752,-0.4316215055390014,0.25755936861328077,-0.33316091457704616,0.07009321731906604,nm,0.0
177.911953,-21.486427561809172,5.875435303997132,-110.80108775783486,-0.24097444428449283,-1.034496408457443,-0.13145432457982056,0.1528422952147507,-0.4941750584159204,-0.030046552809839467,nm,0.0
177.92144699999997,-18.80006623694366,7.193194636582508,-110.94559016261665,-0.14410439284795987,-1.0098787084576426,0.23995605941354237,0.04204009376697586,-0.5946661559080373,-0.09176871086907494,nm,0.0
177.94999800000002,-9.837279509788232,9.166919748413664,-112.16222169044845,-1.0577722696955736,-0.7235221055847951,1.177106826279704,-0.2214178135123978,-0.6468907051624683,-0.1913748348574727,nm,0.0
177.959327,-5.955591310072426,8.960550766633464,-112.4280198777804,-1.3342942079729954,-0.7441777430183303,1.4604103114387699,-0.34285419770447245,-0.6952061117300744,-0.1802310259569704,nm,0.0
177.97833999999997,1.4808813125241906,7.644851190686279,-112.5378568139335,-1.8297166036684198,-0.05218603177712229,1.2604237244652197,-0.4455203754616425,-0.6001664834749707,-0.10515193970076243,nm,0.0
