timestamp,roll,pitch,yaw,acc_x,acc_y,acc_z,gyro_x,gyro_y,gyro_z,markers,motor_input
158.006455,-44.223806867419704,-10.399955218792721,130.93353457938863,-1.7340842817809219,-0.5094713898767466,-0.10037879956444778,-0.1146323293081216,-0.41045778089905216,-0.07472662455820454,nm,0.0
158.035,-48.25890664103126,-5.4814758436066215,129.6381475768708,-2.4978951374228875,0.609849720857631,-0.32278505414632724,0.003942566851062168,-0.37543918458130515,-0.13118861759970132,nm,0.0
158.05401500000002,-49.32148665135101,-4.3498893847758575,128.92847419554258,-2.53706514001954,0.9825796988065573,-0.18727386742622992,-0.0422549169706753,-0.06615358037538457,-0.057185513495271456,nm,0.0
158.073028,-47.787612536922666,-3.6275533677980074,129.28248428473123,-1.5660886308992819,0.6526019579970643,-0.3472925099032112,-0.16639322832365316,0.11948358672952282,0.09491362713339906,nm,0.0
158.08271900000003,-45.91230420883739,-3.4032657657648717,130.03873259435017,-1.181962447449833,0.5340913394211475,-0.17658344186401775,-0.26875898862826403,0.2720333111708743,0.17980292946182125,nm,0.0
158.09224200000003,-42.78786042092602,-3.0593625859050877,130.85735140302643,-1.0456012412836257,0.32818892922655674,0.10541322065049216,-0.4526346870301369,0.44313337688636406,0.2038243252639267,nm,0.0
158.10173999999998,-38.339769700982345,-2.433692971573019,131.52367934009632,-0.7929432024247528,0.4174315365168953,0.16573287853701307,-0.6751212393257731,0.5998011953317581,0.17972556306067788,nm,0.0
158.111257,-32.73145049021407,-1.6214494209679464,132.07318523981695,-0.9065725195098344,0.4427475763510571,0.612116746572757,-0.8641588554183146,0.7414346599623061,0.15207248102822402,nm,0.0
158.12076499999998,-26.275841775351658,-0.8508588121917995,132.619669010796,-0.7165781216861625,1.1124874599759358,1.2167179985294632,-0.9794958487550456,0.8646301213395091,0.1380900633814488,nm,0.0
158.139783,-8.08977019187999,0.273503143652533,134.2411572068913,-0.8104825480486092,2.511809294720579,2.182977673281758,-1.4380737145654356,1.4011850694374646,0.19246054759780637,nm,0.0
158.158807,9.239094678043228,-1.8780451451057654,137.48466887190273,0.8567778192315947,2.835228641035381,2.026741925516682,-0.8680805159303687,1.300288156755554,0.34987918105936017,nm,0.0
158.168307,16.296096853941897,-4.583117479958102,138.53193953794917,1.8111800513089502,2.4312360605942827,1.1777335088499685,-0.685522092227113,1.3581588684148942,0.2815848835950675,nm,0.0
158.187155,27.317431109108405,-10.24239247713418,138.18935196924494,3.140015100604358,1.5627928989976925,0.8977928688309683,-0.30425216934137433,0.9561474047583448,0.031334992189532104,nm,0.0
158.19665999999998,29.709122635813653,-11.85403459177013,137.57361203462955,3.271157836580665,1.3429151653504017,-0.23408800207167801,-0.13315102613784482,0.565938184220248,-0.03994766896115839,nm,0.0
158.20610200000002,30.96481010629882,-12.765274023699126,137.13931233861285,3.314654576921998,0.9300376751017072,0.10955120350260095,-0.05818290802442037,0.31193376191925504,-0.0418621906916184,nm,0.0
158.215613,30.034922936761504,-13.282042664132833,137.01432071657507,3.042198901382965,0.8691667180572097,0.14678138735927684,0.20232712127981242,-0.03632515372287127,-0.07532364618977065,nm,0.0
158.225112,27.55563619998721,-13.81928266123026,137.35612807699945,2.6506045383226424,0.7658552041641378,0.0015734514215499035,0.4263779474875635,-0.23736275004481439,-0.05583331438817475,nm,0.0
158.24432099999999,20.091058344779576,-16.206688041312137,139.33573903086827,2.0110603128922757,-0.12443979939791541,0.4935642408212212,0.803990195911359,-0.3169323011935077,-0.00045608391258980736,nm,0.0
158.27267700000002,4.830794548265814,-19.476165785065454,142.54852496531936,1.9097565297842776,-2.2673339915089112,-0.10057708135621922,0.9074582189305558,-0.4913896468573585,-0.24886236903585068,nm,0.0
158.282188,-0.7268416158603985,-19.922303104037525,142.17984988150826,1.8186798540597353,-2.6175482023056413,-0.45670848576335177,0.8854825232186257,-0.5551687271889462,-0.45116722562640865,nm,0.0
158.291705,-6.3204842843660325,-20.04599913523971,141.1600593454933,1.498158449037686,-3.1438248617139566,-0.2921045687109823,0.8431978605667501,-0.6194821632234867,-0.5879790777783778,nm,0.0
158.31071699999998,-17.532416194818243,-19.795277098822805,139.4989722591258,0.7855206091932221,-2.3984816475850668,-1.0108294098837527,0.73447372622129,-0.6519622331278095,-0.47464658825013817,nm,0.0
158.32024800000002,-22.150707987832696,-19.32935070740878,139.33671432642814,-0.020731490821553854,-2.4379127514611927,-0.7762428132665619,0.6048342980229328,-0.6241489512454966,-0.34010309421700646,nm,0.0
158.33924800000003,-30.684300807685048,-17.352365927998893,139.3664723222641,-0.5640259615424905,-1.0183290281831145,-1.4355885292265724,0.41118427708534305,-0.6248566902292617,-0.21632054808801413,nm,0.0
158.35824899999997,-35.78985255464701,-15.932688621421637,139.4928954840491,-1.0816089072109865,-0.7629555245014265,-1.3111688920419886,0.292344533111611,-0.3698351556457198,-0.13489821412097278,nm,0.0
158.367783,-37.4141830480599,-15.6741843124055,139.15422582408746,-1.0364786986899612,-0.5749397000979506,-1.266688079128334,0.20765183405359805,-0.23052439493926952,-0.15152753782676914,nm,0.0
158.38688,-39.113771987917346,-15.603103425108888,137.86329112734626,-1.0195794530351872,-0.584235086363459,-0.8860539224883831,0.11914483923692978,-0.09120886340375511,-0.17828475459534793,nm,0.0
158.396381,-39.63278975989496,-15.365104274447665,137.16078207171395,-1.0901423821295269,-0.5927968196282656,-0.6521626932942066,0.046121351056903334,-0.0903966225080393,-0.16310770999979696,nm,0.0
158.405902,-40.193896820576356,-14.664017132000128,136.46313295015324,-1.264336316742394,-0.6293221500137991,-0.4548933015440044,-0.012404124598577775,-0.16429380623990886,-0.16343713499370988,nm,0.0
158.41540899999998,-41.08176949180066,-13.520439824568397,135.81666216237886,-1.3646044253840894,-0.31803115538030724,-0.3626506228443875,-0.02972927411480037,-0.27231178929306415,-0.1672845502312137,nm,0.0
158.42491199999998,-41.94513991371542,-12.050340140652029,135.2561333571491,-1.6676518272735894,-0.07119595083397846,-0.23290997019556547,-0.08126015806489495,-0.3159253572922956,-0.14500380075115576,nm,0.0
158.43443599999998,-42.74878391107648,-10.40214389139954,134.75646721309707,-2.1020806947155455,0.17914099177183113,-0.05678448585146667,-0.1171333057859586,-0.33272907631688126,-0.12587690835551488,nm,0.0
158.44393599999998,-43.531813630614046,-8.710168623166437,134.25473233055547,-2.5575545631981256,0.48115924402031585,0.0576815279671898,-0.1286866390694055,-0.3354843185065926,-0.12099283922037438,nm,0.0
158.47244700000002,-45.57855867731537,-5.71934340161437,133.38651498470955,-2.5480497915546936,1.037628333612658,-0.1548516262791861,0.00011896704508539228,-0.14005056111629807,-0.02708437459455326,nm,0.0
158.481979,-45.69586738570662,-5.515638732022027,133.5727675490379,-2.2791024026198805,0.8082986934550617,-0.07703462061868759,-0.009103166317107945,-0.03272562767391398,0.04055492255183211,nm,0.0
158.49148399999999,-45.40832168163366,-5.350606025615508,133.92367778113857,-1.865461847262555,0.5308448863916129,-0.10168796259556902,-0.059168393556478266,0.03092206245989722,0.0811935142830114,nm,0.0
158.500999,-44.43759177629394,-5.189603016299949,134.4246785201997,-1.207505911503844,0.7411968303993182,-0.21341382877826642,-0.15373300365007475,0.12884583279683923,0.12342589890621579,nm,0.0
158.51069800000002,-42.058607459695224,-4.943965398277469,135.070094769357,-1.092411620399243,0.413234695659077,0.0346861508207027,-0.3647605592617492,0.3150955355302107,0.1760234138587195,nm,0.0
158.52019399999998,-38.53042289547178,-4.4739288365171515,135.73070694583197,-1.0857315287669778,0.38773409194161024,0.30286766370176416,-0.5632510123478549,0.4403885195103831,0.19418133478554525,nm,0.0
158.529709,-34.052341846302006,-3.5846964445894436,136.231596588932,-1.1259370791553331,0.27267880909890313,0.6492880129233066,-0.7627945916998966,0.506880177435205,0.16615490011021408,nm,0.0
158.53922400000002,-29.088791855447383,-2.5136838743950243,136.6730300041129,-0.9386276750934094,0.714425995328232,0.8590537139366647,-0.8629880172650083,0.5419675506537571,0.14290947174580385,nm,0.0
158.55824399999997,-16.03266365144947,-1.4810762482552475,138.07861540021275,-0.8233354153988027,1.5485926051490195,1.5983488643808628,-1.0837095148289089,0.9553977871428948,0.20815346070736943,nm,0.0
158.58676599999998,7.410895963092935,-5.256678499885086,140.66448020506033,1.3834676273715243,1.9782082890149981,1.845813055953046,-1.0135401874149683,1.38849269360353,0.23665126832190028,nm,0.0
158.596278,15.632151400735168,-7.8444160853701845,140.80241776989982,2.1810613168368316,1.8628734878229332,2.12217378001457,-0.9383737872567542,1.4481596536162533,0.20849574107955057,nm,0.0
158.60561299999998,22.437544441498595,-10.068858453708884,140.7079496521211,2.8192861315862427,1.844349610708815,0.8483845005037409,-0.7615060569675197,1.2081390155396363,0.18559044737782301,nm,0.0
158.61511900000002,28.1848416608259,-11.806123570624214,140.62597149909678,3.2691308084759028,1.4655270733774852,0.04245410270074768,-0.6550082096980508,0.9965169409274941,0.19368296674258445,nm,0.0
158.624634,32.34693652020467,-13.486071778663133,140.4921558820267,3.536946809983447,1.3777923937621301,-0.04144857096566946,-0.41645008900716673,0.7874333433820967,0.14711074708303212,nm,0.0
158.634149,34.15124653783465,-14.972470990324725,140.65017201040422,3.329534602436734,1.4655284391065753,-0.5791424595739609,-0.0839723090148543,0.4633482330079815,0.11186838836302404,nm,0.0
158.643566,34.1020543937709,-15.934234012526971,141.62407824777938,3.1011728841532675,1.2033963446010274,-0.7114699204331385,0.12544993072834898,0.15507431612321168,0.1839136829788439,nm,0.0
158.66259399999998,29.05037255086764,-16.943313169747395,144.45205869064026,2.7357497814081917,0.29623299642725404,-0.05462240081501062,0.5651912233999957,-0.29810094817254934,0.0654252269983896,nm,0.0
158.67209899999997,24.59603506830707,-16.899735097002758,145.31575857475596,2.4654246968516915,-0.19026339983847698,0.32641061386160436,0.690636390490096,-0.4858969883974356,-0.09384527014436096,nm,0.0
158.691115,13.516630908494127,-15.654237287128305,144.41010998870266,2.2717361338083513,-1.5767334204985075,0.34239524783449604,0.8497534456500985,-0.7195763583623056,-0.5278705319440657,nm,0.0
158.70064599999998,7.378382037649087,-15.921248564067175,142.51498110722713,1.9372512308574796,-1.9291552777484777,0.33616466070216167,0.9827208744062726,-0.6478349611552805,-0.7178229433571998,nm,0.0
158.710161,1.1397391116882145,-16.57759825944062,140.56715021052,1.5208381421499466,-1.9167504843957828,0.054533171671718506,1.0225176331468186,-0.6294569727511555,-0.7422261189277496,nm,0.0
158.719663,-5.032205641003951,-17.083697332079318,139.30821797661474,1.0702862835029385,-2.390581238861537,0.18687936846425493,0.9730429968171284,-0.670084026365178,-0.6114446946021459,nm,0.0
158.729187,-11.755731126388756,-17.327309337200987,139.08236186452046,0.651221912126061,-2.3490297584233337,-0.24016017355941782,1.008394636504088,-0.7897146339423992,-0.44380581486042436,nm,0.0
158.738705,-18.23502951123991,-17.014009924806526,139.76617841961945,0.18999005293489696,-2.3055874279745514,-0.48850596184395867,0.9040675725208616,-0.8401087963080156,-0.24533316900165247,nm,0.0
158.748208,-24.11655783799906,-15.864127931836393,140.6632767312632,-0.43951864871634805,-2.561804594415311,-0.6015220517367319,0.7241845018176337,-0.8859685047959612,-0.15179293830424392,nm,0.0
158.75772500000002,-29.59240615163492,-14.224861046505831,141.1313242532008,-0.606218918739765,-2.0808664361167275,-1.2448701891988336,0.6182656726639185,-0.9089715503418632,-0.18792643067591372,nm,0.0
158.76720500000002,-33.79661914186945,-12.876337481092348,141.06487270356146,-0.7745561816416964,-1.7159896538409996,-1.496838442874485,0.4708388187401595,-0.7107885628612574,-0.2067164995703191,nm,0.0
158.77672500000003,-36.724152982290875,-12.318778307368211,140.5126558270006,-1.2310399070156313,-1.711139543475721,-1.4029872466762814,0.37623404407545497,-0.4351372845546354,-0.233991223032742,nm,0.0
158.78622900000002,-39.08837131026883,-12.51006428524546,139.50155559690182,-1.374481620827196,-1.2226766863313303,-1.379604445498529,0.3825869720480021,-0.25503691201901985,-0.29927164316306265,nm,0.0
158.79575000000003,-40.64545352433597,-13.115926575014146,138.32008901824886,-1.456761006940127,-0.9152165405108759,-1.2222900415910765,0.31292073506934814,-0.09585729276808702,-0.30039031930101134,nm,0.0
158.805324,-41.68731483572713,-13.756073687595263,137.37202505743085,-1.6521180533354733,-0.888808432369947,-0.9281022050294552,0.24073979665916456,-0.028816828766170473,-0.23273116179124217,nm,0.0
158.81484500000002,-42.750094542953775,-13.96843103855341,136.84543339536725,-1.6446913099153313,-0.6306950152434634,-0.70927132980947,0.18471143421956546,-0.09727368715381973,-0.1506293572763133,nm,0.0
158.82434500000002,-43.614023429269196,-13.374467294097148,136.71735170341532,-1.6896153600362176,-0.6025909547121748,-0.5655975753556255,0.045415180271062325,-0.1896253993009372,-0.06061926805376298,nm,0.0
158.833858,-44.37555654302651,-12.015467270708257,136.8915890378316,-1.7351084127598684,-0.5761754137843825,-0.5611348750590391,-0.0736078192380458,-0.2880149821157488,0.0073189287739276795,nm,0.0
158.843379,-45.05932875786834,-10.22604039480317,137.19043885147346,-1.6654131193855486,-0.3603121953836162,-0.6499108932747149,-0.14186994111895904,-0.34150081630621765,0.03934373711470645,nm,0.0
158.85287300000002,-45.375807500960704,-8.377643047078534,137.35372404956212,-1.7314015873754196,-0.24893693560829697,-0.6516429196714384,-0.2013921864533951,-0.3019284802247458,0.028262899428037877,nm,0.0
158.862378,-45.38239237942346,-6.790351595222116,137.16196470626912,-1.8032410744131282,-0.13349376036619276,-0.5972781585166339,-0.21103431519527885,-0.22183140890768055,-0.03290044873474176,nm,0.0
158.871901,-45.18048786703985,-5.714349209347961,136.6465554461556,-1.7893780847341876,0.16212473171651948,-0.536540194746704,-0.1727856370677377,-0.11734059914502928,-0.09327558973965576,nm,0.0
158.890911,-43.73890069255768,-4.690802947507073,135.236017428575,-1.8392473057809002,0.6449706827695569,-0.20126045342897375,-0.18251061909343266,0.07815583724083203,-0.12231855142714057,nm,0.0
158.90043699999998,-42.453161338499726,-4.198129658513488,134.7356215373372,-1.6007144292639381,0.8966546300625141,-0.17833906687631104,-0.2470176979115913,0.12449642984827665,-0.07545019082524332,nm,0.0
158.909936,-40.493522662951634,-3.529536563214868,134.63592304522874,-1.2400267833935243,1.084754664347535,-0.2566078965547489,-0.3662074608395938,0.1970559519856721,0.010777494151835026,nm,0.0
158.919452,-37.37124912918173,-2.7184273870197924,134.99692265943077,-0.9088283988293765,1.1569324441432425,-0.28932549592992485,-0.5509239454481087,0.3414734188405318,0.10986911687294028,nm,0.0
158.929159,-32.77331919817555,-1.8447200630879435,135.6956470055609,-1.0534265001999874,0.6374470187698982,0.23654331176446206,-0.7731268635215766,0.535541840551695,0.17891120236450375,nm,0.0
158.93866,-27.4924046438809,-1.0078239649209408,136.42502783127438,-0.8176534651957025,0.5622724241235277,0.657000696366763,-0.8733216550976716,0.6265238430890374,0.17343525540992236,nm,0.0
158.95767700000002,-15.285459444790304,0.25971309138302345,137.18909297935076,-0.5596812512986779,0.8974925774493375,1.3866351925176732,-1.0009786105806633,0.7894850198378045,0.04368474300347651,nm,0.0
158.97670100000002,-3.922542114865357,2.2820687376694013,136.75580278392184,-0.022473189392839144,2.3310099771022053,0.7212178815912814,-0.9680690913933264,0.6128120558674687,-0.09218984785064228,nm,0.0
