timestamp,roll,pitch,yaw,acc_x,acc_y,acc_z,gyro_x,gyro_y,gyro_z,markers,motor_input
174.00317600000002,4.803286945001803,-14.50212995705403,-124.88164062438315,-2.059911638622873,-0.42691168106709204,0.31943413263814807,-0.03758035061767176,-0.2479141417546223,0.22771354641055921,nm,0.0
174.041212,3.9615135558186085,-13.314139935130523,-126.1747586368645,-1.0194912500294235,0.1946777903333948,0.06872515270467475,0.14940336750426492,0.07293758904123049,-0.25215970040345237,nm,0.0
174.05072800000002,2.820603979636889,-12.660874312414496,-127.06642590595013,-1.1111808888210775,0.043636021035225424,0.04749946163650012,0.22417606760262582,0.10163743490867198,-0.23376360103883725,nm,0.0
174.06024299999999,1.5429646217579513,-11.869512924055089,-127.40044799860395,-0.957774277184965,-0.17899161463789764,0.19624631632038503,0.26379656148172254,0.10439332635149237,-0.12498461169897285,nm,0.0
174.069762,-0.05718661300076914,-11.026197286451197,-127.06158404738694,-0.8796111890339479,-0.4324364481513417,0.2632914154891714,0.31077150947098114,0.14920280421777132,0.0006830840527975156,nm,0.0
174.079261,-1.6987123942239823,-10.12276907444259,-126.18697947521446,-0.6478846273581778,-0.5815231237324665,0.2507924121365346,0.32420282264876077,0.15269905472167358,0.11142212205659062,nm,0.0
174.126813,-10.034383537146395,-10.179817131425676,-124.04780485932223,2.266875519550751,0.6099845890171988,1.357144577692716,0.05228964120864063,0.42185951146439216,-0.11266652939807988,nm,0.0
174.13632700000002,-12.006685827669044,-11.504048274569994,-124.092516500946,3.1027643345573797,0.8816235897287986,1.752308821199409,-0.01642297652678399,0.4712868704760885,-0.08427284719220222,nm,0.0
174.164699,-19.677613973076248,-12.290698822706421,-123.33759903442292,3.749044348507187,1.0496065347101555,0.18279567912858447,0.30511219488870195,0.3944377844302313,-0.042924479251444325,nm,0.0
174.17421,-22.22625932183007,-12.501937070857906,-122.98215657147429,3.3285603348431327,0.44023726382333794,-0.23062058616665332,0.22318760918625244,0.4420780519608131,-0.03711696919311415,nm,0.0
174.19322000000003,-26.57361417276772,-13.982979042472548,-123.3689082875417,1.3534522606352652,-0.24940107986977408,-0.7868593551050005,-0.001112192559245591,0.387655910945081,-0.14693106289011043,nm,0.0
174.20274099999997,-27.291742609064148,-15.926331979824385,-123.6849849004892,0.7405420816201992,-0.6271350301291476,-0.6977370341225297,-0.261430542021553,0.3329041940284999,-0.09767814766928536,nm,0.0
174.21240200000003,-27.52168755365582,-18.392962404172344,-123.88620470088867,0.17329622850313992,-0.6661422353966,-0.5747144886596265,-0.3997369110199138,0.313547007469838,-0.050877403361028625,nm,0.0
174.240935,-26.6314618526294,-24.22750436243291,-122.39084274312194,0.20869356191615052,0.3529768321591901,-0.7196282116731699,-0.30010596749285795,0.1508359908913014,0.22642805775682148,nm,0.0
174.25026799999998,-26.521806206224554,-25.116422293653883,-121.10226040475487,0.3266595770817418,0.4540105510391024,-0.8416361663769155,-0.17553743585444068,0.07859337830130261,0.27059940622484174,nm,0.0
174.25977200000003,-26.488021888512193,-25.188631214996125,-120.04971967591173,0.34170169836941544,0.4271711109489686,-0.9526379987205617,-0.029251376304434543,0.003732974759049344,0.21708289010150175,nm,0.0
174.269309,-26.477494767371613,-24.890493881409657,-119.4582012259757,-0.009144113967380253,0.2634326413247404,-1.0389786319197984,0.03717985157778207,-0.029791933280445073,0.12278213615839266,nm,0.0
174.278802,-26.086779126310738,-24.71116334019772,-119.34107582834574,-0.2974709163677085,-0.1386738229015858,-0.8599203689083132,-0.01730488806804027,-0.07807454414419825,0.05963798131542816,nm,0.0
174.28832500000001,-25.374025487324655,-24.779793794293354,-119.67832233144442,-0.5879759770981805,-0.6080203231428231,-0.5477764752103692,-0.08955498027388645,-0.10457077066568563,-0.004546790018237382,nm,0.0
174.307335,-23.17944117122363,-25.558502357794758,-120.7266123747697,-1.3507691263917456,-0.9907224448792623,-0.26862486544879405,-0.22629797522583356,-0.14589718361483825,0.030525381093581445,nm,0.0
174.317012,-21.994270810488008,-26.327252785407417,-120.66443154374203,-1.1413219815128774,-0.878640424835261,-0.041377851952508524,-0.2551775444667163,-0.10343246748938548,0.11895770599102247,nm,0.0
174.326359,-20.961425204524843,-26.998790943242604,-120.30885742189295,-1.3201885351885299,-0.5092784679844337,-0.3871470900638875,-0.2235660338607447,-0.08971124461554847,0.1665477280441576,nm,0.0
174.345566,-17.27852685952625,-27.88369306646837,-119.55805985865817,-0.7154843968739002,0.1279835661503584,-0.36171141997704315,-0.25582562225520256,-0.2739010549465848,0.2504336195003774,nm,0.0
174.35487700000002,-15.099235465049665,-27.839883191921974,-119.65974899996269,-0.9787103343608674,0.2747545526069219,-0.464955746441693,-0.19710029754734448,-0.3391177915110212,0.18510418526424463,nm,0.0
174.36457099999998,-12.297314757498647,-27.142212365936718,-120.20783654108736,-1.025459743420378,0.2569421118826913,-0.333645897323802,-0.1414748639399007,-0.50054747339796,0.15020095676482456,nm,0.0
174.37407599999997,-9.268658719831933,-25.947756026245433,-121.05931125387009,-1.1689953816150678,0.08142316836322656,-0.00171616835149976,-0.08488289635274986,-0.5883208814167524,0.1008005838321394,nm,0.0
174.383591,-6.418678869804885,-24.500641644650734,-121.95436747861324,-1.743885134515214,-0.24855775614483291,0.03394776061140737,-0.03698325511029441,-0.5913051512603532,0.06352213774403163,nm,0.0
174.39312099999998,-3.6336080611146535,-23.020107927474935,-122.5269671068138,-1.9199954566557582,-0.6125796387523048,0.36923384621525923,-0.03573312251052066,-0.5897301077734549,0.10882701948767746,nm,0.0
174.40262800000002,-1.617878345276631,-21.724570987760778,-122.59951476499418,-2.052068144864957,-0.7646954286012309,0.4178092239066491,0.003640631564942088,-0.4542437919274846,0.13727491722137308,nm,0.0
174.42163200000002,0.3455046177567727,-19.904409695241107,-121.90640758635807,-1.4791594706180122,-0.3261452381186971,-0.11471545057752928,0.04762063471188899,-0.19986480479019214,0.1163129214377692,nm,0.0
174.43097500000002,0.9754110537907892,-19.25539965629156,-121.99906408442943,-1.15552604305692,0.027616744174819345,-0.3908549454604917,0.03343643234530785,-0.16998460175583693,0.02103829090754908,nm,0.0
174.44066,1.5128887469410062,-18.72033319258417,-122.65088851116593,-0.8371489532491981,0.15545049931071825,-0.019504209368794632,0.02221579983757393,-0.14353289970588978,-0.09833501561106973,nm,0.0
174.45967700000003,1.253049819281871,-16.876008807941208,-124.87658823015414,-0.8646352498862677,0.13612375705417276,-0.15714898100218605,0.18901878723746493,-0.07815891280451487,-0.2488554648204214,nm,0.0
174.46919499999998,0.7082538077113995,-15.696781553970856,-125.73579447753238,-0.7493938187255282,0.038450079153589695,0.05437825707538695,0.23939500028993455,-0.05029723694668772,-0.2057008338048322,nm,0.0
174.47869699999998,-0.29616064211838355,-14.591249254008124,-126.06772257533066,-0.7526704624658936,-0.15479320021140888,0.2737088114946854,0.2793325921330093,0.028390643749966957,-0.12204190096661506,nm,0.0
174.497716,-3.022684605128891,-12.084800057979,-125.18190868083555,-0.013931679320529713,-0.34885614391336967,0.8041752023768192,0.3719212998837668,0.08376950474260032,0.057452813823217645,nm,0.0
174.507219,-5.076474844193559,-10.81462199854345,-124.55246939754764,0.3089358288241457,-0.16486625460883272,0.6835439202768455,0.4251727740660514,0.18644160778879512,0.04180324949651615,nm,0.0
174.516736,-6.913303971188077,-9.722708357304642,-124.21371482756713,0.8323917890009181,-0.03205955701796001,0.6433891527406547,0.37086033596887247,0.1764143374142367,-5.865457673193982e-05,nm,0.0
174.52625200000003,-8.721052246783954,-8.67256553438851,-124.44242521255427,1.825024738389377,-0.0048346258090303336,1.1662236297696726,0.36118134688610215,0.17791135728968296,-0.10568779511159088,nm,0.0
174.545266,-13.956117037479,-6.57568799895846,-126.93676790113491,2.4925146390992157,0.33993903047558127,0.8973287911408191,0.4598611247795009,0.29841095337041407,-0.37342977289650797,nm,0.0
174.55478300000001,-16.25570634265144,-5.57626252501065,-128.8103078233737,2.864244393419501,0.3632518438175877,0.9607778857595565,0.4252197983255354,0.24145882077251893,-0.4245293199628242,nm,0.0
174.57382299999998,-20.071962347523954,-4.132263828931371,-132.23881984468773,2.37221470058354,0.18751265683224472,0.547166570564086,0.30713064866230794,0.1695229410565527,-0.34172120305611503,nm,0.0
174.58335000000002,-21.420686534050066,-3.3703552250225495,-133.53969826708433,1.821570771337573,-0.0629034596914737,0.41587358709512645,0.2816181548453577,0.09772440667026303,-0.2779644601740698,nm,0.0
174.59285100000002,-22.434766287817432,-2.710594181362284,-134.51583966499348,1.2257010812919542,-0.15512632168239374,0.13053377389643764,0.2224154199015736,0.0583229822665569,-0.2059133689200147,nm,0.0
174.60236999999998,-23.03993951704981,-2.748056061632509,-135.05158386220756,0.787053885041086,-0.34542645508321446,0.04470185563053196,0.06647712161746448,0.0956749827673872,-0.112625269094329,nm,0.0
174.611908,-23.434451369847004,-3.6430476122894415,-135.26598919911225,0.39379629592253834,-0.481195120215003,-0.03635744097893373,-0.08388965720712047,0.18723365361040148,-0.046751462363373075,nm,0.0
174.621426,-23.722202138136222,-5.071434842140662,-135.38358959361221,0.21994450630396065,-0.43242674193998387,-0.01677485837961421,-0.1736656239567106,0.2483725426638441,-0.02713124805310063,nm,0.0
174.63091,-23.849145023393593,-6.842160072054297,-135.44194715418234,0.15329173285484238,-0.18958946048320696,-0.19831356763244293,-0.24430032514381436,0.2748914157789197,-0.01331490176829042,nm,0.0
174.64038200000002,-23.785731203118814,-8.934118788000674,-135.3409202806911,0.29317574073757535,-0.015413035951165603,-0.26574516717459595,-0.31651195966241186,0.29401754102148864,0.023178908174676053,nm,0.0
174.659393,-23.731913776950403,-13.062401532769984,-134.72690868190475,0.39908452832005115,0.38121649784687106,-0.43712583340964567,-0.2921542227518126,0.27216987324616804,0.07344274073218338,nm,0.0
174.668911,-23.608954281496253,-14.575389838140879,-134.33870287447996,0.4346155174372775,0.45856354397118254,-0.5350201816124079,-0.24610106328243073,0.19992616016906892,0.0853842183020814,nm,0.0
174.67843100000002,-23.479137657126092,-15.744917400789936,-133.95440657353242,0.3174807454704915,0.4392220192702493,-0.6040801944355004,-0.19889300285213726,0.14953504176562185,0.08562236265205066,nm,0.0
174.697438,-22.942072357263935,-17.255734583877313,-133.49798934227084,-0.0024118608823557094,0.13688718583374393,-0.5632566548145178,-0.14917999207542446,0.04739380843529895,0.05182688884519485,nm,0.0
174.70694999999998,-22.540955367609353,-17.817012202553173,-133.49963664502735,-0.17820405836918113,-0.012448362814525512,-0.5478833997327127,-0.14763964099193244,0.026132181747593786,0.02579714572428828,nm,0.0
174.71644999999998,-22.038938908316318,-18.44400476906446,-133.61380296136502,-0.32684620257451885,-0.1290367621609726,-0.5187137238411493,-0.1702080502580974,0.021621009777980538,0.010311252467980798,nm,0.0
174.725963,-21.42374535790079,-19.153860176312314,-133.79032737672617,-0.3545725464818469,-0.18069375200426546,-0.4512849230069741,-0.1967241897908753,0.018265832542709862,0.006189937575164686,nm,0.0
174.744989,-20.007330851217052,-20.634607531561713,-134.09350952114667,-0.2736033309622316,-0.0666973602444894,-0.4600408673568703,-0.2147971393793525,0.006593267013584327,0.02812858583913619,nm,0.0
174.764019,-18.376249980228348,-21.648913685632714,-134.15702292138042,-0.12073954999382701,0.08135525525488566,-0.4538819046714798,-0.18002571399473594,-0.05229315365365258,0.06080406935991935,nm,0.0
174.773513,-17.46042878107591,-21.806573174735785,-134.1648918979964,-0.07399930818927453,0.09788913927799177,-0.4227785163051729,-0.15482346922358303,-0.09597025823665656,0.06762452488246137,nm,0.0
174.78302799999997,-16.471885353171444,-21.759356199078553,-134.20917292084204,-0.07837200160417358,0.06251058414279793,-0.3593640346638358,-0.13486836790505782,-0.13421397836645818,0.06570022906092528,nm,0.0
174.80204899999998,-14.286510062150827,-21.227607255375727,-134.5297658286419,-0.2258910598757391,-0.05771081482487365,-0.20856109493477915,-0.11476471256339085,-0.19138821557441987,0.04206698800851819,nm,0.0
174.811583,-13.075220992099828,-20.86156476441919,-134.81417871268638,-0.299237970236128,-0.11849695824927214,-0.11327643444210492,-0.12063479067255796,-0.20846170358562732,0.030477973124405443,nm,0.0
174.840131,-9.367092189133702,-19.718657156233203,-135.95646085769008,-0.3750907319709641,-0.14096811933525494,0.06053051070122246,-0.11873527534901375,-0.21246709552031465,-0.001061141843694149,nm,0.0
174.85914499999998,-7.130843974690262,-18.833126867335405,-136.78655609424715,-0.2934057666485979,-0.084832479764168,0.11112828073182424,-0.09999807112494058,-0.20152750401893857,-0.013204529124699181,nm,0.0
174.86864699999998,-6.148960111128888,-18.365789996849404,-137.18854128356543,-0.2635444346914715,-0.09456556504521949,0.09797733303163997,-0.08596387266177777,-0.1915067956522959,-0.019157922811314558,nm,0.0
174.89715500000003,-4.017571594793114,-16.999441166938304,-138.24593493022812,-0.21333222491161713,-0.16146877126658868,0.2382169860023563,-0.038074629227610915,-0.13873382660668232,-0.03054101049523222,nm,0.0
174.906668,-3.4534987146414418,-16.517808968442047,-138.52912028624124,-0.2205960717911517,-0.17370169045920233,0.256735634726254,-0.030222561957946818,-0.139788337626831,-0.026295630060818087,nm,0.0
174.91617699999998,-2.8490500452378673,-16.03625203218892,-138.784081933914,-0.20420168597316452,-0.1888619525851827,0.2371394832196696,-0.03690248227011036,-0.14498600204227968,-0.019473162812159713,nm,0.0
174.92567599999998,-2.186223194155719,-15.612332550702366,-139.02599709383475,-0.18993256051248017,-0.1730268558465458,0.23753891262475332,-0.05377473411371726,-0.14374590708723173,-0.014780242544600456,nm,0.0
174.954218,-0.18641132191546075,-14.647771774571726,-139.84191398116775,-0.12766558921843604,0.036951602977808085,0.32427637822283034,-0.06540802969320722,-0.1206560305139357,-0.029008827945023713,nm,0.0
174.963722,0.3234849263336511,-14.278263223396221,-140.10908404688956,-0.0716884686649201,0.09641900688199238,0.40780083641781206,-0.04129909005229112,-0.11602834104363484,-0.03120063120022803,nm,0.0
174.982748,0.5123374358431596,-13.367413689238063,-140.44353671719327,-0.003422318686882298,0.10558570351571303,0.486459338750047,0.05738827211655731,-0.06059934407253608,-0.03152825947105856,nm,0.0
