timestamp,roll,pitch,yaw,acc_x,acc_y,acc_z,gyro_x,gyro_y,gyro_z,markers,motor_input
153.508161,3.8246596396005605,-19.36770179117774,126.58106114056287,0.01251328727286727,-0.823468576550648,0.18114237528834823,0.055021699291275226,-0.27986915946999735,-0.16930980822706312,nm,0.0
153.51767800000002,2.678935851623035,-18.46729188775615,125.89579921774073,-0.15580743198047145,-0.8155595103947502,0.40418702255279804,-0.01238112705863974,-0.26862845101500116,-0.21469646662492123,nm,0.0
153.527182,1.4864518300731167,-17.311614447541768,124.78098104024919,-0.43227049917702637,-0.5367708642469631,0.6233349354158546,-0.05217184319385274,-0.3063714153709397,-0.2995829637278824,nm,0.0
153.53672600000002,0.022341508478692384,-15.911344526023067,123.3297620497098,-0.823068147863192,-0.2464644456300949,0.752478450890275,-0.06928672447876578,-0.3771328258357012,-0.37727986695234583,nm,0.0
153.555739,-5.442843291699748,-13.675575972354272,120.20927107032705,-1.7122450582719984,0.3621582832713791,0.9286438576500033,0.1754413648929298,-0.6224856916670213,-0.4654622980778574,nm,0.0
153.56524599999997,-9.583095889337487,-13.18880969062189,118.93073812267993,-2.182902269457663,0.39099192152543716,1.053022237106369,0.320716669911816,-0.7375101377250388,-0.4497778178006726,nm,0.0
153.574782,-14.634370960997671,-13.088768891220703,117.88275251219183,-2.501791638686185,0.32305310340983645,0.9205390964459769,0.45902288610534725,-0.8642705440434734,-0.43987524545413614,nm,0.0
153.58429600000002,-19.96298889867815,-13.306785903642822,116.98467453748205,-2.525758373344608,0.26538984979179675,0.5050764256532383,0.5257727314625977,-0.8905681532418258,-0.422396313076354,nm,0.0
153.60313299999999,-30.0815378094974,-14.537252911814951,115.16946196958132,-2.835588961749969,-0.2526865705638424,-0.1204110460100728,0.5701968968443029,-0.8114868067301942,-0.4384665169902205,nm,0.0
153.61264100000002,-34.72251897676113,-15.503103692354575,114.01158180988378,-2.762492279471876,-0.1621952232766028,-0.46730986368631117,0.5584197093136678,-0.7257776802865761,-0.4682739345135182,nm,0.0
153.62215799999998,-38.64499610700946,-16.597652365129154,112.68088481808643,-2.8204154158690637,-0.05278454097261641,-0.7047423777167361,0.5095820288650214,-0.596847039784094,-0.47830384260114306,nm,0.0
153.63166800000002,-42.056105709708405,-17.81971430683084,111.34831454121401,-2.6796760084462137,0.3288127472746437,-0.9093044733862334,0.4807929007217765,-0.5044409241474653,-0.4628314982404707,nm,0.0
153.64118800000003,-44.727904018868884,-19.09256373793009,110.19956538660097,-2.398598141198919,0.7764977305624825,-1.052333757751146,0.4277600879670975,-0.37589424719060255,-0.3927281355194903,nm,0.0
153.65068499999998,-46.536415792249656,-20.34623645896911,109.37941179513722,-2.3386988159611652,0.9942306341444377,-1.0759811031630682,0.3611649964397862,-0.2279958579009364,-0.27934789931142173,nm,0.0
153.660202,-47.719358755376646,-21.60321648599332,109.04662523255257,-1.9693000456270278,1.1712426956728004,-1.0568040734462267,0.3200375280156564,-0.11855140222897821,-0.1440749644020032,nm,0.0
153.67916899999997,-47.811619865825826,-23.720680390687097,109.72997665310795,-1.5770550644276473,0.7777866700004672,-0.8749816848114076,0.1728932226939481,0.12287308990506512,0.13390165941157617,nm,0.0
153.72699200000002,-37.946503521626,-24.482987491686856,113.4345945773751,-0.49647974489228114,-0.5709000645489871,-0.3700098067715721,-0.250346802498764,0.43586359548342507,0.377796640200524,nm,0.0
153.736503,-34.98053903038477,-23.88441485271561,114.17914340541908,-0.29648826754304947,-0.4791987103128337,-0.24558618247255135,-0.318974350536223,0.4567433249738031,0.39740968007826094,nm,0.0
153.746022,-31.696906378149865,-23.0956920019251,115.0154567386574,-0.27348383926964787,-0.4933217713937198,-0.08245903140030476,-0.38538500749882615,0.49253606486757245,0.4338276771947843,nm,0.0
153.75551099999998,-28.43210127680078,-22.27905675102362,115.99929618603042,-0.10591576966004655,-0.4059415633937321,0.10080171041002177,-0.39833919638516385,0.4844267204079993,0.45269028926207777,nm,0.0
153.76502100000002,-24.980423136484493,-21.490613161845083,117.1157985086157,0.1788227664629991,-0.31810419662455075,0.20706638997359855,-0.41929463988737914,0.5140723947510691,0.4839278428097552,nm,0.0
153.774525,-21.06214351935549,-20.742344080726316,118.29816511665072,0.2598545487279654,-0.5278164049844497,0.36419430373694894,-0.46466814057852635,0.5897992798941009,0.521241484422785,nm,0.0
153.78403699999998,-17.156062118815928,-20.100175374035715,119.42416998854665,0.6479666181211139,-0.6749581201043906,0.34303003681969274,-0.4585735928361166,0.5917666187709314,0.4993274555378249,nm,0.0
153.79354500000002,-13.118150932080479,-19.606519118792708,120.41408396141013,1.1039869117709376,-0.6997978104311882,0.26338453692788644,-0.4576076659197389,0.6220524035055645,0.47288226583750176,nm,0.0
153.803059,-8.622083591031867,-19.10315385438687,121.20029319427785,1.439270207708087,-0.8435336303223804,0.32817288147312373,-0.5147121931224591,0.6904194480172254,0.4548993029478787,nm,0.0
153.812581,-3.8151151989803127,-18.498614144936308,121.7624539752907,1.842890400321283,-0.7971356015258702,0.3952886537050339,-0.5727190900280527,0.7265213736923011,0.4208521937238003,nm,0.0
153.822082,1.4094863552803714,-17.879717995544326,122.17717753898282,2.2141161692295386,-0.5890601640037484,0.4380756544844768,-0.6256155297203111,0.7902897417683293,0.4065975823128017,nm,0.0
153.841102,12.608007405271046,-17.11711642804248,123.01829410516247,2.708702842657001,0.14426298330584508,0.9408995973521133,-0.6217322735985167,0.8725950593437588,0.4179606067888478,nm,0.0
153.85061499999998,17.682750326746685,-16.90629387831202,123.73434455526899,2.8768647944016594,0.5969458579844508,0.8064089676637741,-0.5665183598323443,0.8007306604115934,0.4345736042772483,nm,0.0
153.859944,22.146466853180115,-16.892664552891482,124.73989303425387,2.9237953263087895,0.8270403391705211,0.5546589314412556,-0.48102571037614367,0.717827432762386,0.4543541019516446,nm,0.0
153.869451,25.714484357471672,-17.214193446162707,125.87333594340042,2.927892074677681,0.8778861415030882,0.32715207900461735,-0.3406683776943755,0.6068138280058853,0.4292189819169585,nm,0.0
153.88839700000003,29.30813006757714,-18.373990808052017,127.87956601791079,2.9067990924378555,0.6369634240746349,-0.08493422098626958,-0.044870250558784436,0.26476038810891994,0.25241338881449876,nm,0.0
153.897906,29.33266018976133,-18.775688534904525,128.58814130952825,2.771903279710493,0.42065648833396246,-0.1452705218991691,0.06062916848208772,0.06555303421662952,0.13602137995462735,nm,0.0
153.90742400000002,28.247347737620682,-18.89199173855524,129.08755168413165,2.495616069753329,0.28227608908239804,-0.10577878569858563,0.14752418038166967,-0.1334044871449547,0.022575683591179074,nm,0.0
153.926619,23.41447201255139,-18.32363065237894,129.8465063057312,1.5868420568204122,0.18388045407614048,0.10383125174360837,0.2815880044855568,-0.44595442227731774,-0.1109827976607295,nm,0.0
153.936136,20.001029916786706,-17.9110711750903,130.21129579376392,1.0758001787732274,0.1628518935625959,0.15070341181445088,0.35608791848133325,-0.5378759524240199,-0.14576523018641957,nm,0.0
153.945643,16.25125832002485,-17.556138426503995,130.54772203001735,0.6223465845471071,0.09587504174094959,0.1842545715351554,0.4112008151841713,-0.5779723512116296,-0.16705681331458141,nm,0.0
153.955144,12.374185788078657,-17.222417596080703,130.77560876810105,0.293116533297536,-0.07484116447578464,0.15543532753773318,0.4345630808932506,-0.5925053592141234,-0.1914889353646494,nm,0.0
153.96467800000002,8.476653574749761,-16.90314061410629,130.73279811477275,0.1078506072160689,-0.2582072939025081,0.06999388122262633,0.4416721182705994,-0.5937604466991563,-0.24199178944980854,nm,0.0
153.974168,4.887045079280723,-16.618237803016893,130.28814532523108,0.09857662014958833,-0.4005867435574513,-0.2575979651894841,0.40728972780674366,-0.5471253512063506,-0.30007164991230545,nm,0.0
153.98368200000002,2.0354190098674962,-16.39435141515573,129.40299346114676,0.047459620254657255,-0.7784434757424732,-0.05924343782205593,0.32047088020682885,-0.4358891252582995,-0.3426900225959716,nm,0.0
153.993193,-0.4878426465761331,-16.074422504356267,128.1235552024328,0.004795109727855767,-0.9709677251629735,-0.11296086056082044,0.2584575277862526,-0.4052877471370295,-0.4001886950781286,nm,0.0
154.01231099999998,-4.371649709667876,-14.838721553114567,125.20687011161888,-0.18766954685770298,-1.0157065457455388,-0.15296763117509618,0.08441955954136042,-0.3356975523925944,-0.3780946846717022,nm,0.0
154.021743,-5.985457839290496,-14.063025954085141,124.00582307841145,-0.44303707096607664,-0.8897474601317495,0.08155499778085798,0.056013801368731055,-0.3331427113426725,-0.3230506357032672,nm,0.0
154.04077600000002,-9.051847654034564,-11.717315209903001,122.48160204414515,-1.090878592137221,-0.46372589079807863,0.3982173803451251,-0.061358092437499574,-0.37602102289182104,-0.1908918023009215,nm,0.0
154.050262,-10.756579895719398,-10.338295672725481,122.04395904734105,-1.4189877869602971,-0.2872964335257504,0.3015619007184964,-0.04768663562296655,-0.4184361263208756,-0.15432568471681876,nm,0.0
154.05979699999997,-12.840199376009743,-9.178881910941783,121.69719311231017,-1.7559817922939398,-0.04994653970859812,0.30311063845537745,0.02711840705707528,-0.45957038921455196,-0.1412426846806298,nm,0.0
154.06930400000002,-15.300786644108689,-8.151915830884974,121.28312700902772,-2.20503821626731,0.11074607426084165,0.4655950040077757,0.08646022444836268,-0.5106506198686794,-0.15780903748558658,nm,0.0
154.078633,-18.40485185802559,-7.180154603573888,120.68127884033689,-2.693524153089223,0.40318487705338024,0.3945199826803299,0.1579153802388815,-0.6162938741882377,-0.20349899317134146,nm,0.0
154.08816299999998,-22.35860034637224,-6.42716667813953,119.83516377525761,-3.1176757849948022,0.6811720323525131,0.18491571681069188,0.27379571915678297,-0.7432002667993617,-0.26245344361000605,nm,0.0
154.11669600000002,-33.555161216741006,-7.757955167280746,116.79924030553643,-2.6265683121775005,1.218215951345471,-0.2583673974841343,0.4394737937515205,-0.39585838917893007,-0.25423648981660285,nm,0.0
154.126208,-34.770352451291586,-8.827851459537683,116.3999525494061,-2.583147638912306,0.7714791825697628,-0.3084552680076148,0.307860807346956,-0.10858870773755132,-0.11142705322476089,nm,0.0
154.14522000000002,-36.70640058411158,-10.481979064286694,117.37885897856626,-1.5356771589067268,0.41346438860338197,-0.6911779978690377,0.20487967739485094,-0.06688183794624818,0.11695902704690676,nm,0.0
154.154817,-36.332160849353215,-10.985916711678334,118.10997095248052,-1.849712809482609,-0.20960622031113063,-0.3811145154355556,0.06323545731043324,0.12297976576055962,0.16448757265268776,nm,0.0
154.164318,-35.893829136849384,-11.590990819379856,118.43397541398393,-1.6257485368545987,-0.12004096437272702,-0.45248154247456285,0.07410645688660436,0.14406563792009558,0.08617394428368727,nm,0.0
154.173841,-35.37228210467826,-12.468328404073507,120.63596735243931,-1.3308183360463814,0.15086558906480502,-0.48056569310296227,0.10647208039528874,0.18878788538545618,-0.02828142169550531,nm,0.0
154.183341,-34.52872115373508,-13.652757762036769,122.36294091459027,-1.5129076821174805,0.14294016267496137,-0.2042176166046307,0.11803134076856216,0.27801619541928047,-0.105541782535498,nm,0.0
154.19299600000002,-33.96151262563193,-15.002776403941935,121.45600721406434,-1.3489851064359626,0.38262257419548507,-0.0819121799099569,0.17904099279494187,0.24750029558886655,-0.1494033567378383,nm,0.0
154.21201599999998,-32.78327282764315,-17.099712266295853,120.78393581318194,-0.9743815971682683,0.15573257913411767,0.039171642255002505,0.09336417362934683,0.20739257310486925,0.036523127892032305,nm,0.0
154.240354,-30.951823212103506,-17.028194350920508,124.2486669418448,-0.13314781561804753,-1.1126074178467433,-0.3808104403968501,-0.13717326787172507,0.10166691718235464,0.3516142151589675,nm,0.0
154.24986600000003,-29.662106857561565,-16.67434149926373,125.56334030764626,0.12750584779118826,-1.3367761256863155,-0.39771802628922787,-0.19259643883513541,0.1741160694105612,0.341375038384868,nm,0.0
154.25938299999999,-27.562355997599948,-16.35803403578373,126.31760263215249,0.3215810700393938,-1.3877589347794292,-0.3242354785223857,-0.28114195910441964,0.30138981052678665,0.27336674308220543,nm,0.0
154.268902,-24.509028842929258,-16.114213284034278,126.45084298472337,0.5012949618021643,-1.161500437279558,-0.29402756100423844,-0.38089510501338203,0.4560122683991393,0.19979452693370836,nm,0.0
154.278583,-20.341099125174757,-15.968264861564096,126.2238451169063,0.500607069587843,-0.8964787651790699,0.06169563223785035,-0.49229304697792114,0.6413737874348197,0.1864732983147977,nm,0.0
154.288086,-15.413636955445156,-15.704398021231396,125.97302844929253,0.6067350835478383,-0.466934508635116,0.44760818770387856,-0.5956167213704265,0.7486010727386385,0.2192764645465438,nm,0.0
154.297605,-9.7778413270793,-15.269169779237014,126.09887485216466,1.0578958985844193,-0.13923683998716968,0.4119426777118637,-0.7043091506459837,0.8411084919589293,0.32547809730909427,nm,0.0
154.307111,-3.214253630023181,-15.168760325851153,126.8367010918176,1.3942756686396365,-0.07439479044528431,0.7874985069514634,-0.7647724742240792,1.0210106916609747,0.4901901181442366,nm,0.0
154.316631,3.855788790695422,-15.522914166487121,128.01366860806718,1.9295528104237625,0.054834912994944245,1.108575848714248,-0.7693075653568231,1.140405959777511,0.6062822814889538,nm,0.0
154.326115,11.138766585660866,-16.09174771408247,129.33327112053496,2.599321138709003,0.24546545724266824,1.0430180703398073,-0.785107052618788,1.1796809695394415,0.6561244393215807,nm,0.0
154.33564900000002,18.5418695579112,-16.794430835826013,130.46075063648112,3.179438757208915,0.363091039321566,0.9051889750055088,-0.8025110892660421,1.19372884114827,0.6389158476058516,nm,0.0
154.344974,25.559969322068742,-17.500420711592326,131.11324909081867,3.544418630868891,0.7096507273819169,0.7921236116405848,-0.7698711808519014,1.1213304836417344,0.5377366652029941,nm,0.0
154.354496,31.569242711706515,-17.831503335549957,131.38791345812538,3.5981019555554172,1.1511690783157935,0.4139168680468332,-0.7067459770941915,0.9175541806436036,0.4122774304081633,nm,0.0
154.36391999999998,36.14002743456009,-17.723959743269408,131.5542690166754,3.345644271936341,1.4377667455290304,-0.041234507283923846,-0.5946189090094897,0.6501888265100196,0.30434893012116665,nm,0.0
154.37342800000002,38.90021910980609,-17.55463969493583,131.71598095163708,3.0504005923430806,1.6793469419366986,-0.2668983560079589,-0.37705663015517826,0.38222259609958725,0.191138169626016,nm,0.0
154.38294199999999,39.71971228356492,-17.671919439444924,131.99841677841783,2.646252316057197,1.759524716264959,-0.49049780151932015,-0.08885260461152134,0.14315528481690656,0.09742714999143941,nm,0.0
154.39263300000002,38.86015185736116,-18.23595476223043,132.55952030721932,2.4116257798721406,1.5810054369062012,-0.3863507561100993,0.19171200079089157,-0.03403501751108588,0.05069454745711637,nm,0.0
154.41164899999998,32.87988166855249,-20.38176115860807,134.43014073373158,2.0769901004854114,0.620684090613641,0.08790331211661216,0.6404322061075799,-0.31926804975656053,-0.04917127918948768,nm,0.0
154.421346,28.332529875106072,-21.302016965835662,135.49489808906625,1.8340600303017802,0.08352162457039486,0.21820134894472243,0.730453423053746,-0.4596041648206142,-0.11776266304669199,nm,0.0
154.43067499999998,23.312610162761125,-21.703136184449804,136.34965288213084,1.5113951562995822,-0.3721948104156287,0.22084226726702588,0.7270532357377327,-0.5801055847401225,-0.2035375290147506,nm,0.0
154.440186,18.25849341561691,-21.664491922617987,136.69984236380824,1.1264931252823394,-0.631707518134637,0.2078837651179383,0.6771581919795442,-0.6395218384715582,-0.3092417093440655,nm,0.0
154.44969,13.341530214842553,-21.336297279847603,136.47170687471765,0.6893037085569622,-0.7096319716816082,0.2522786820249154,0.6211259397263984,-0.6639182079277876,-0.41113933427864807,nm,0.0
154.459211,8.743583145808094,-20.789321095647793,135.8158970839665,0.26181495611301636,-0.5340177144853335,-0.022987210755545506,0.5453348213689249,-0.6607146100633898,-0.46604800048225364,nm,0.0
154.46870499999997,4.81495825805103,-20.200274039871328,134.9469165531907,-0.06405808860048111,-0.7096614260762991,0.18967473393999013,0.4440520749218194,-0.5879297714410275,-0.45263674964536305,nm,0.0
154.47822599999998,1.0060114755206895,-19.78108906258871,134.00659010396032,-0.3124551765398448,-0.7017529044285021,0.05276657399935806,0.445338626557305,-0.5566379267125349,-0.4515691237294404,nm,0.0
154.48775300000003,-2.4408274354854247,-19.54519423178635,133.14177573329397,-0.3696126060346497,-0.646572516605021,-0.14976992314670998,0.4174082423179685,-0.4898733243759362,-0.40732995318600507,nm,0.0
154.497247,-5.162408670494405,-19.353603281839852,132.40164610582934,-0.41691750514241144,-0.9225424903874757,0.005673492310497601,0.32485499066382617,-0.3897582182828337,-0.3310923284019325,nm,0.0
