timestamp,roll,pitch,yaw,acc_x,acc_y,acc_z,gyro_x,gyro_y,gyro_z,markers,motor_input
170.50337499999998,5.989217612257052,-35.570137367934656,-117.30234173129202,-0.15381500338546925,0.3433531245694872,-0.0350119563803941,0.28241439734330015,0.4813050762164993,-0.1635373466449836,nm,0.0
170.512884,2.5073598362095235,-35.36632587250914,-115.93048242715011,0.0020343666602257006,0.28200560045137696,-0.10409239057764202,0.27689650511783565,0.4868997917082285,-0.13068922081728762,nm,0.0
170.52238300000002,-0.7289112652094545,-35.02765634514669,-114.57154111159522,0.1007324123278499,0.2247904875514082,-0.3515774369787249,0.27320648212303944,0.44769250359412494,-0.101734616743487,nm,0.0
170.531888,-3.41485335168917,-34.56052198889701,-113.45558080462614,0.22269086588014123,0.3182987702573147,-0.5637056905839789,0.25114372264764684,0.36315602421495274,-0.08334005972503093,nm,0.0
170.54140500000003,-5.3836041765461085,-34.07003767090148,-112.79210850172598,0.4226877916003189,0.44267275229988606,-0.5256689006592618,0.20415898130931667,0.2587609197718862,-0.08896373475291784,nm,0.0
170.55094999999997,-6.743183628529648,-33.42434828393152,-112.71482920345959,0.48103329861607147,0.4690825176170584,-0.4453688650787624,0.19274031080696757,0.15679165012582516,-0.13514403038320427,nm,0.0
170.57949900000003,-7.882168942981485,-29.72683891265608,-115.13964995960521,0.33933716326932967,0.02750587374728138,-0.06881878028069016,0.2511139599854516,-0.09851196322544525,-0.221110917199904,nm,0.0
170.59845700000002,-8.373304740103562,-26.58522790780948,-116.9028862689922,0.218139170969972,-0.45027794683723343,0.24352591118233577,0.30100660453963546,-0.09499684302307855,-0.18589676160633398,nm,0.0
170.607966,-8.950337171372226,-24.995827908042084,-117.46836560430057,0.23366015202248788,-0.6631290900620981,0.34115394333340504,0.3164717870381358,-0.053427888220786375,-0.16346746523499303,nm,0.0
170.61748300000002,-9.810257747789128,-23.453267695576084,-117.90880062966743,0.2859609979614956,-0.9076389576027498,0.4967182647113599,0.33230358398369186,-0.004845211110812917,-0.15883523841204922,nm,0.0
170.62700700000002,-10.990881282128177,-21.84880932938711,-118.39189403188972,0.4298632484275581,-1.294375653292282,0.5445331669254667,0.3720258622447328,0.040667660596517274,-0.18772705355457486,nm,0.0
170.63650600000003,-12.86829413087286,-20.33514911836966,-119.1229492440078,0.460587564001936,-1.7403905060999587,0.4369618263022261,0.420277209738386,0.16190767417564123,-0.28140454058940995,nm,0.0
170.64602599999998,-15.347885462529517,-19.264162601205257,-120.14891336729387,0.3746284252040838,-2.2195244518466093,0.41057569140516187,0.403250111013362,0.3007055150993673,-0.3729504177285274,nm,0.0
170.655356,-18.249419484019512,-18.69887981861714,-121.38674622865177,0.382726617230062,-2.773021219513733,0.5890417878775195,0.36423748495916186,0.4153913645256987,-0.43561151858625435,nm,0.0
170.66485400000002,-21.52680753834027,-18.627852410077097,-122.62634274997069,0.20146602767608232,-2.950583916748435,0.3664167460417235,0.32765855036413066,0.5214328882123869,-0.45631246420927785,nm,0.0
170.67439700000003,-24.830952508685435,-19.160343914590985,-123.47268485256973,0.2934816917732768,-3.0501421781459,0.2457671866881735,0.23824967285426657,0.584962640182644,-0.38110069339611025,nm,0.0
170.693383,-29.818726932043614,-20.727146060055674,-123.34166886360623,0.3876413118739388,-2.683585546603472,-0.003038354779593767,0.085291699257649,0.39731460316680844,-0.05942318357429803,nm,0.0
170.70290300000002,-31.6835863233064,-21.111890441477303,-122.35229485646632,0.33877522798046644,-2.253214692847207,-0.36495353926802365,0.11106719328801927,0.3371124953250962,0.06887422806471064,nm,0.0
170.72191899999999,-32.97800830449006,-21.59830296259804,-119.50344543164944,0.6555644259482126,-1.4727034355207151,-0.652755737490296,-0.04419120701281561,0.051805328183116166,0.2822365488918996,nm,0.0
170.73142299999998,-32.55383391094356,-22.14175379148339,-118.45377997007965,0.6168355458140953,-1.0548202024313558,-0.6647245485988814,-0.14682644183597038,-0.014753368021983833,0.24619903531351348,nm,0.0
170.740964,-31.159509123705575,-23.134825898501475,-118.05169762279581,0.29596720782005587,-0.748386877093044,-0.5577357727690069,-0.31064439498616153,-0.13149460992897297,0.19217343385358637,nm,0.0
170.750659,-28.384535069494195,-24.400215111786345,-118.39402477336395,0.2948736081195249,-0.6270362554413543,-0.20006193219778384,-0.47733464059964625,-0.32693063756409624,0.15919342268243866,nm,0.0
170.760146,-24.746829878945068,-25.573221249258655,-119.37371920073328,0.09023736065383957,-0.47072874470245085,0.11460680954394853,-0.538284818506712,-0.4633092309385255,0.11477214046862755,nm,0.0
170.77916100000002,-16.241779077228745,-26.838116225639837,-121.49941786891581,0.046292974242755504,0.039221968107746766,0.5972984112643874,-0.48359852541311865,-0.6045988923876577,0.19543740401843504,nm,0.0
170.78868000000003,-12.642884243368167,-26.955370714825687,-121.93196672154701,-0.2428574221610554,0.3770330404058018,0.48371103014919287,-0.37197697219623205,-0.5334477486866304,0.2403800765285705,nm,0.0
170.807698,-6.9586004771951435,-26.18099013844491,-121.47816239289416,-0.060020849012123866,0.9411692792516619,0.542709321585501,-0.16166641076941451,-0.44223897867468703,0.29833371448350215,nm,0.0
170.826718,-3.3244995976004525,-24.671289625590138,-121.32540694520466,-0.1667839644627214,1.226981000945078,0.6053506256662486,-0.03841236090369117,-0.35300693835481384,0.12321980284655897,nm,0.0
170.83622499999998,-1.6904238459695036,-23.571398402628404,-121.89674866440754,-0.2232749268180951,1.2095123104582577,0.3301327342736881,0.016916401363663562,-0.37001625240880953,0.017771158317875645,nm,0.0
170.845738,-0.088589272104031,-22.48639025003297,-122.79553740259273,-0.36031370714747063,1.4164490979815771,0.01919072888345633,0.011555454592475228,-0.36580386959831335,-0.0564741837937862,nm,0.0
170.85525399999997,1.9346868923435396,-21.9499975906544,-123.74199795852509,-0.3479811035182505,1.6335563083330156,0.0017254403580390166,-0.12992894123700272,-0.3726598510819728,-0.038753633995287314,nm,0.0
170.874267,6.186738485512194,-22.061381649893242,-124.43927235431936,-0.35189820460234306,2.1373710078276122,0.3267248345693072,-0.24366983025035968,-0.293475730017484,0.1407365715300977,nm,0.0
170.88359,7.759756506794881,-22.23607654953502,-123.61352930771743,-0.3778331612778569,2.2474628295437147,0.24738665252564404,-0.20598500625633373,-0.22312017739184187,0.28053561422086626,nm,0.0
170.90280499999997,9.0698799804371,-23.32543675003192,-119.73170064847105,-0.5449752562633224,1.7868231561490906,0.22501504319169757,-0.15302718076133978,0.016688339083174696,0.47033737207056325,nm,0.0
170.912317,8.764152843678442,-23.972261652941995,-117.12981990765942,-0.5418952752406737,1.4475097687926994,0.1354330867390528,-0.10074264479238533,0.10831736173850727,0.49288478423608284,nm,0.0
170.921824,7.923652996809689,-24.69841993220845,-114.57017216432727,-0.4235435534468319,1.2097394692303278,0.15186417488925547,-0.07747619998442552,0.19820992120479983,0.43987800125608345,nm,0.0
170.940843,4.969434920145797,-26.227910210057477,-110.82944023824786,-0.18536562452985933,0.7389804332837087,0.0902097562141477,-0.03335137660578568,0.3210812231169379,0.17144251086044945,nm,0.0
170.95987599999998,1.0745068565883484,-26.86794426034119,-109.45339819767062,-0.001081339776448205,0.3724021457451136,-0.1803445925297684,0.06001929983502242,0.35393831530250447,-0.10042524834758106,nm,0.0
170.969369,-0.9992760147045943,-27.123531912534702,-109.34630627602345,0.01483277780889935,0.15769405999330807,-0.20985546644327702,0.06091834862830637,0.36255292848676696,-0.16831945323389205,nm,0.0
170.988394,-5.422892535050448,-27.487035940811154,-109.15513652554355,0.0013188131258605202,-0.0425219639899347,-0.2401896631533894,0.08751243798037574,0.38617306764708315,-0.17950332503229213,nm,0.0
170.99790099999998,-7.476486519003095,-27.610671791544952,-108.88508661967575,0.005650190692816828,-0.1220543536887514,-0.37088551341494336,0.08150124587445122,0.34992325991351986,-0.13611745862502228,nm,0.0
171.02643200000003,-11.727690865989217,-27.536738530812983,-108.97762230107897,0.2603302750742336,-0.1020578695663465,-0.4212169363228477,0.06013160264332615,0.16783504918785516,-0.1722029461894379,nm,0.0
171.03593700000002,-12.300793994072597,-27.304674738555757,-109.86985907234092,0.2765433948541455,-0.19423515508040004,-0.35012381699822714,0.06369252259013275,0.07856048297561913,-0.2305674886678932,nm,0.0
171.04545,-12.545757235072898,-26.925350950055623,-111.2082014862654,0.15204713582562185,-0.3401238154073948,-0.3727734800262974,0.07240057591029224,0.012531045911321793,-0.2893780379757627,nm,0.0
171.054974,-12.51459202626593,-26.53483045750117,-112.77741090276615,0.08352719371369223,-0.4905049962553662,-0.20529131961141212,0.05633284666304,-0.03578266911302304,-0.3104841159329714,nm,0.0
171.064488,-12.39530054528371,-26.106564942211616,-114.37593727878406,0.028274699288671625,-0.6595146832167658,-0.025828407566417244,0.05591251632474209,-0.05488043790807003,-0.30863882050293595,nm,0.0
171.08350900000002,-12.390842512425833,-24.800924116650897,-117.21541831883268,-0.07317496933223556,-0.9089580870162443,0.004548805991305611,0.11855762430284625,-0.057759626372648795,-0.2711029651472996,nm,0.0
171.093015,-12.575270616918342,-24.099759553156577,-118.4158907999599,-0.03312618284102446,-0.9699387053039774,0.03395917140562715,0.12570077145757963,-0.03574772292054312,-0.2550184051360989,nm,0.0
171.12153099999998,-13.426549533623815,-22.602147139236845,-122.29036524358641,0.08569016034744913,-1.0594788019541947,-0.109112374265034,0.07622170573528857,0.007184207365415468,-0.3094857032900657,nm,0.0
171.131048,-13.621931633679749,-22.43740151242419,-123.89263014031151,0.1336845238921043,-1.0653209896828948,-0.034471226831385926,0.03327987427593555,0.013741179418853187,-0.33515010111305815,nm,0.0
171.14055900000002,-13.737236616524195,-22.327412779894857,-125.62190745010219,0.13059786221871383,-1.1063654674799444,-0.035528636891776356,0.016228698362632955,0.006892250693616178,-0.35437547894467536,nm,0.0
171.15007599999998,-13.828652927268825,-22.211897147560514,-127.39444427301844,0.1013243277782412,-1.0775382281575145,-0.1711868887900688,0.014700594395641992,0.002202612538598722,-0.36117458445123946,nm,0.0
171.159573,-13.8642246274471,-22.23278848324497,-129.05959174367024,0.08247707680084629,-1.055928382251566,-0.15236348444053746,-0.013104409909304733,0.010525422818246465,-0.3354235980413507,nm,0.0
171.16908400000003,-13.762717195919738,-22.31489297263726,-130.55259607922008,0.073830478235189,-1.0573328688956742,-0.08952397902417569,-0.03849963833181157,-0.0008159031371870994,-0.29057326350141677,nm,0.0
171.178596,-13.462307551647665,-22.282566683921655,-131.90539181011474,0.061665719501467285,-1.010605133266469,-0.1353897420513977,-0.045574746598674915,-0.04271851966588016,-0.2474437002615775,nm,0.0
171.18810399999998,-12.903292623079318,-22.210410238835557,-133.1358533466994,0.09143344232170392,-0.9228812899229955,-0.19205341321980626,-0.07307912838873437,-0.08247591856555975,-0.20351743692040034,nm,0.0
171.20712899999998,-10.997288363226492,-22.39782547245143,-135.4075463774235,0.15571144411205937,-0.7392877489212968,-0.10589537307375273,-0.17361750350812094,-0.11789766692787854,-0.1441867839333372,nm,0.0
171.21667,-9.733524179742746,-22.517679263178476,-136.55250298611455,0.16333591371223627,-0.6084713067352724,-0.0866556029068149,-0.1984156886028552,-0.14107735966770207,-0.13270330117713247,nm,0.0
171.226173,-8.37085855337569,-22.634967655478388,-137.64262640385607,0.15255585115166545,-0.47933108325147794,-0.05180944180361105,-0.21406755404372757,-0.15000403296866827,-0.11389454718571256,nm,0.0
171.235689,-7.008329183403259,-22.74455627300046,-138.56511688568577,0.14174333675704306,-0.3650689617163101,0.03645031313730672,-0.21550815973610413,-0.14736683531477093,-0.08010251598258432,nm,0.0
171.24516300000002,-5.748888114169956,-22.746749704646742,-139.22228335192827,0.14760460699761058,-0.25475793067061603,0.12095227942101276,-0.18899946616157545,-0.14816067602204083,-0.03497154841994614,nm,0.0
171.254671,-4.664841656130801,-22.585654041505723,-139.5542383785239,0.18554524990766952,-0.13336161774794975,0.1314730199811456,-0.14452136924450681,-0.15048740767212135,0.01604310735777896,nm,0.0
171.264194,-3.7577523916554165,-22.30693507777376,-139.56517941270593,0.22961378445521935,-0.05313615187733884,0.1794474711559986,-0.10503576709553493,-0.1470755756194673,0.06579450002109263,nm,0.0
171.273701,-3.007695162325651,-21.930833151494696,-139.34119716611113,0.2883795000674079,0.02730723794925447,0.23416028095332989,-0.07026088936140017,-0.14351073423730787,0.09983096433093806,nm,0.0
171.28320499999998,-2.340610537942522,-21.435005152023795,-139.01080068967332,0.2918488002996993,0.08588244372576705,0.19052494937898168,-0.04253090521840344,-0.1522528099063594,0.11374163016052939,nm,0.0
171.29274,-1.6452539992161768,-20.849771949915066,-138.67879167283735,0.2519705483832665,0.11753151036260036,0.08917882519688543,-0.03417948213043248,-0.16981635381314056,0.11471970408797162,nm,0.0
171.30223600000002,-0.89014988369131,-20.244452047470066,-138.39978570780804,0.25603679016592973,0.16805304975915172,0.18748786795911138,-0.039373631776573534,-0.1808294510272596,0.10673085000605705,nm,0.0
171.31173700000002,-0.12188963126254183,-19.645275747402014,-138.1883458540606,0.23901199241064894,0.2128666104469885,0.22884084630273857,-0.04165385911027394,-0.1821497276864195,0.09238430442162457,nm,0.0
171.32125,0.6112451479974628,-19.039258138328105,-138.01519866798108,0.12848665302391954,0.24040829598853727,0.14801489770380824,-0.03556499712036075,-0.17929711246973615,0.0806431353145939,nm,0.0
171.35930199999999,2.835464703462468,-16.581820229495076,-136.48678648447563,0.0687535618268254,0.4456945720458407,0.1303256233214061,0.012538924562774513,-0.10636928424376249,0.1230482955164108,nm,0.0
171.36881100000002,3.1103495691086387,-16.12766406266992,-135.92213676736236,0.1237364502154741,0.4538829224005149,0.1145805569748098,0.011358793442794292,-0.09932133853953264,0.12502221679020192,nm,0.0
171.37831400000002,3.316227863570706,-15.676774328472515,-135.4372508566827,0.17356643231093957,0.43141800893250964,0.1696633027009556,0.021261222688904992,-0.08953688040495701,0.1047499599385465,nm,0.0
171.387826,3.358676831434564,-15.258218551551773,-135.0946896213938,0.08081708207956977,0.39224446740533436,0.09682188283388468,0.039720141402020646,-0.06260920663807998,0.06716384313023907,nm,0.0
171.39735,3.377621473964986,-14.884024126158671,-134.87813275960193,-0.02306558050945857,0.3390507251322696,0.07435129420481101,0.03696545865703835,-0.05290036462973671,0.04060527783506644,nm,0.0
171.40686000000002,3.4195416588670966,-14.555419725511653,-134.7286235087018,-0.09155540778977607,0.27441584900603516,0.09090731785349714,0.027535287610717277,-0.049490810920094844,0.028277898162383113,nm,0.0
171.416368,3.4370613272940536,-14.292333340239297,-134.57698576603943,-0.1572931232460831,0.2518047002894811,0.046431190098741325,0.021662660679116697,-0.036828664834082474,0.0274056221124252,nm,0.0
171.42588199999997,3.4999300694527116,-14.125768799706687,-134.3611861326849,-0.18117182340526874,0.263299072147419,0.010355359399156291,0.001827003991446144,-0.0295099087928141,0.04243397222593133,nm,0.0
171.43540099999998,3.644477344446395,-14.037185921518635,-134.05257088256147,-0.13554098196244735,0.31198916720557834,0.01468309510323563,-0.020291053511174637,-0.03001217576955062,0.06492751870585446,nm,0.0
171.454415,4.1549108529326135,-13.892022159250455,-133.26135360972847,-0.022075674036835302,0.45629879456070715,-0.020635760102682595,-0.04127018094929582,-0.05084312759785572,0.09219525199316662,nm,0.0
171.46392899999998,4.5285897558845205,-13.779486146123263,-132.87888124007765,-0.0023422475590165978,0.47911986256439615,-0.039088643143289546,-0.046585789697831455,-0.06633937705596112,0.09036115475856069,nm,0.0
171.47343400000003,4.9416844230582075,-13.625108858384044,-132.55803907680396,0.0006422196409315541,0.4806178679044556,0.013682657546664959,-0.045225215036983506,-0.07799895683085527,0.07962368030566488,nm,0.0
171.482942,5.289246119967005,-13.401334411305275,-132.30541973461325,-0.12462230512680746,0.4184547210485484,-0.00487561875647265,-0.02598333815390193,-0.07824528317978245,0.06253908563888319,nm,0.0
171.492452,5.610320267866151,-13.117646653165632,-132.07180802028836,-0.21195394749812765,0.3859502417965014,-0.012498497768730212,-0.013312805290006446,-0.08265425890468005,0.057117633050913844,nm,0.0
