timestamp,roll,pitch,yaw,acc_x,acc_y,acc_z,gyro_x,gyro_y,gyro_z,markers,motor_input
166.50898800000002,59.504737076510104,-44.342517360445356,-143.2883956135251,-0.5343658844112837,0.7481101066862073,0.09608484439374845,-0.07519986342897365,0.07978835047950526,0.09291250753954026,nm,0.0
166.52802899999998,59.28370694722431,-45.638325265713675,-143.03516521812003,-0.49873386814987547,0.6573229803719551,-0.04667772581635712,-0.08356941942568662,0.1182200081733385,-0.024849914609927103,nm,0.0
166.53753400000002,59.08274415168452,-46.49544914707075,-143.24306689764467,-0.4761333569509786,0.6875989690267994,-0.07347540154024691,-0.09254700269146864,0.14749242929866055,-0.07458826411578512,nm,0.0
166.547048,58.64272757069028,-47.4411001945783,-143.45858019525812,-0.4331066235263489,0.7507389919778736,-0.10724530708967496,-0.07684772032951699,0.18133173677790163,-0.11130185809044872,nm,0.0
166.56606200000002,56.93551606069468,-49.486273637371326,-143.879138756603,-0.3043143610896375,0.7877403834295458,-0.14872137842256314,-0.03073521154928544,0.23782573484218417,-0.19793500576776693,nm,0.0
166.575575,55.67153284434602,-50.4653428609907,-144.16102166050143,-0.24724494095924937,0.7753570425617493,-0.13029741646756826,0.003955110112819303,0.24842293868315996,-0.2532057007577107,nm,0.0
166.585098,54.190516971173224,-51.30922694751749,-144.50421252737272,-0.17087322962647197,0.6958299402741985,-0.13588728801515595,0.040670738748970266,0.24085658493927253,-0.3015220407651121,nm,0.0
166.594612,52.64093664002514,-52.02394758691629,-145.00902680606188,-0.09687419084281947,0.5981984526617907,-0.13841109100603496,0.061597159504633826,0.22283860477114367,-0.34695127340534254,nm,0.0
166.604123,51.147369587258574,-52.66949307818348,-145.74046292074883,-0.050505704355342705,0.47886305111485894,-0.14302184346984304,0.06369677772794025,0.20554363955375785,-0.38549687849768155,nm,0.0
166.613637,49.752466090109884,-53.308247413740595,-146.61758162578764,-0.01482133310265403,0.39916530897868546,-0.13245404444104733,0.05511136212607047,0.1956969267522892,-0.4007114212603853,nm,0.0
166.623207,47.89323151006442,-53.749695551361995,-147.07744607021772,0.03481072158206093,0.3160323449962326,-0.14992467943908575,0.04444321769367843,0.20138770842196216,-0.39264140138701226,nm,0.0
166.63265800000002,46.57474618036956,-54.55062268312992,-147.85850386460578,0.0821153246700099,0.22978128567141792,-0.19178286607132713,0.030408078906731677,0.21515245601558974,-0.37201248348863014,nm,0.0
166.642166,45.289004140149174,-55.44768708227959,-148.4853152082053,0.1588325406758032,0.1570933351849715,-0.22703461921053714,0.016902913186068774,0.22769477587961218,-0.33776518422998186,nm,0.0
166.65167399999999,44.070682991988456,-56.363303449899206,-148.972204814869,0.25124915928719793,0.16941198996155168,-0.2671798040507163,0.007777962570142674,0.22525315714021682,-0.30061568701461744,nm,0.0
166.670693,42.23756207948914,-57.78071796358191,-150.06181254716827,0.3638552113338088,0.1093295381164793,-0.24791884095861824,-0.0027903208547914167,0.14314487358409858,-0.252252559232,nm,0.0
166.680289,41.8098531255035,-57.6507985638465,-150.8969121614189,0.3451299238690228,0.08884871311459654,0.030683281003776458,0.020859857817003138,0.07022384027326527,-0.24012869229260372,nm,0.0
166.689721,40.90898550603119,-57.38077910674945,-151.32985625367067,0.13904537377473658,-0.14454090333338934,0.22881936612546863,0.09685425598415538,-0.0018149043747569813,-0.23959587206623692,nm,0.0
166.69922499999998,39.89195683879639,-56.86318672419914,-151.44090742381965,-0.09904513286581365,-0.38343714683030083,0.3021953486506512,0.13257283295741917,-0.039091807931758954,-0.19409852813990164,nm,0.0
166.70870699999998,39.252608468589614,-56.644188742310455,-151.4654731067725,-0.16443347420289436,-0.5892742649169782,0.2428666177812141,0.06847344481222004,-0.005876615027574953,-0.11282292100164025,nm,0.0
166.71822799999998,38.936394064776685,-56.98911579165519,-151.42226169401016,-0.006258379154475868,-0.4072038074625228,0.19394654893212276,-0.016749425979732804,0.07642538145682098,-0.04506709819179152,nm,0.0
166.746612,36.95327827606826,-58.13319275664608,-149.19491776821513,0.7726419727167971,0.03605608408911897,-0.5775662410135888,0.07222153128077308,0.046566212444455225,0.034404327657541596,nm,0.0
166.775342,35.79866590487578,-53.66592182606902,-148.79171432119293,0.21031791873394878,-0.32774260703970826,-0.06318360875223474,0.19335816860898236,-0.35529316444640463,-0.08405622787510696,nm,0.0
166.784818,36.10269199009861,-51.594288968588494,-149.6437941005764,-0.09697055484708737,-0.391305022871848,0.31304767403047,0.16654744186432346,-0.3759843531342424,-0.12392275733007167,nm,0.0
166.80381500000001,35.78311574917109,-48.203851823297924,-150.67806015141673,-0.4469472735537113,-0.6650536341180792,0.3849223995038228,0.178614931006423,-0.24025188466830494,-0.12090154105380453,nm,0.0
166.813339,35.13697876066423,-47.122420275660765,-150.54722692746836,-0.6552052592164194,-1.0804605032170995,0.040518936051189856,0.16825280526058192,-0.14606678060362618,-0.07209914568042507,nm,0.0
166.822845,34.56919257743852,-46.24025672293742,-150.0180568617099,-0.702595165260741,-0.8983032523305247,0.09122108501790954,0.14138819807527048,-0.11488708389635072,0.020424439160943435,nm,0.0
166.83236100000002,34.593455998465735,-45.24520072446844,-149.3939670646898,-0.6480523752711744,-0.7931009417809576,-0.19428350478464376,0.08370481929497627,-0.17403544157268466,0.1254157844836921,nm,0.0
166.84188500000002,35.81146809045541,-44.111556803344875,-149.39158382153082,-0.5004399866516231,-0.5155912551989058,-0.33898233787433196,-0.047482942262744514,-0.2841551583353493,0.16864394512449307,nm,0.0
166.85138500000002,38.184176275715785,-42.60278953038322,-150.34123233177382,-0.38895288292663066,-0.21946852236411263,-0.3117522075926595,-0.16075689765389864,-0.4353422216489297,0.13227971759035528,nm,0.0
166.860892,41.08480078624931,-40.3569246154092,-152.00349951293606,-0.23589238548589858,0.18822289068620654,-0.06814043128806745,-0.17783890496613586,-0.6044930412617538,0.04750438861423997,nm,0.0
166.87041100000002,43.403281771154354,-37.388666330843726,-154.02560103378235,-0.3511734926467193,0.3947199284931094,-0.020919056094680175,-0.06555178199202269,-0.6942727489817656,-0.11865431329979223,nm,0.0
166.88941300000002,45.401706158752305,-31.246976887595604,-157.80824200641456,-0.7235142144738661,0.47943386663658244,-0.09551382990078186,0.12062712230838801,-0.5794216410309794,-0.2852599322469629,nm,0.0
166.89893099999998,44.696838532106426,-28.920021744403577,-158.90669950363315,-0.706725353641505,0.47770492773760603,0.02480364307797396,0.2731519066165011,-0.38754903383490175,-0.29782499178164823,nm,0.0
166.90843199999998,42.70762498862934,-27.286298036730912,-159.29133717180025,-0.5713726532988155,0.38591519734341156,0.06401068100438036,0.43284097234099433,-0.1791619230307005,-0.2719817203831717,nm,0.0
166.91795,39.6127246760541,-26.20855541263126,-159.1042206095996,-0.28385245485339566,0.2526198412943619,0.2773197526557007,0.5818826100407091,-0.0034503571820562067,-0.24874397337885143,nm,0.0
166.92745699999998,35.87005524970311,-25.38665796592979,-158.5948116054233,-0.2793058837162285,-0.15031712316147794,-0.2727744538794921,0.6765465907619987,0.09238471522243993,-0.23126182363646572,nm,0.0
166.936967,32.71928009254943,-24.6180222359182,-158.08218985328293,0.15859235712989314,-0.18773015531956688,0.4191519320276762,0.5761047699752139,0.070945446494586,-0.17091017861221197,nm,0.0
166.946475,29.34620299657416,-23.77949059623377,-157.92677300629265,0.24235535160849506,-0.39438264888664976,0.5940583019960577,0.6220364210411784,0.07863066851568108,-0.2523471086865498,nm,0.0
166.95598700000002,26.08732918624747,-22.964895734277093,-158.23860264790684,0.009066042088557763,-0.6346096894316605,0.23993133715935033,0.604604062623642,0.07653273251168571,-0.3275867098250371,nm,0.0
166.965495,23.573326572087275,-22.311843777607596,-158.87032400433378,0.012645521863201958,-0.7589365169038225,0.4834825079760574,0.46837060840433603,0.05299939743249167,-0.32627221910477794,nm,0.0
166.975182,21.317182287556196,-21.93353308933729,-159.6353626069362,-0.13800287302142464,-0.8253906289517514,0.3456103553913048,0.40642196404501707,0.08279895585772831,-0.32905703315278495,nm,0.0
166.99405800000002,18.498917113455754,-22.32622234330384,-160.54829859597046,-0.21885995404578965,-0.6858463608924762,0.27146399584471836,0.1471010137689764,0.14151525687952926,-0.13844950585204863,nm,0.0
167.003563,17.72898654593937,-22.929713457695055,-160.36274178086748,-0.13147043600141886,-0.5454515725669883,0.20777482422588187,0.08187955320167516,0.16754750767604107,-0.027249219325777438,nm,0.0
167.01309899999998,17.31217548286122,-23.67708143999822,-159.78487185056704,-0.05978900574581551,-0.40129277916041534,0.05886251895459795,0.009141017514752355,0.1728002753343757,0.07776941340305683,nm,0.0
167.04164,17.96999805485171,-25.80435587621508,-157.7553004053441,0.059953527168874754,-0.19685726210353321,-0.03936061598123851,-0.1360384399406863,0.08942933795418427,0.1374020906822755,nm,0.0
167.051144,18.70477462261109,-26.374393177988903,-157.54993575579158,-0.009355709986688254,-0.18352621973425548,0.03460823602602643,-0.17798930972206778,0.060531784266235324,0.10114976258332435,nm,0.0
167.08919,21.426476596362633,-28.88772571884118,-156.65190131550446,-0.09465798816010493,-0.1210940637615497,0.07057790752675201,-0.14977424981786824,0.10523036825205438,0.09525331919067592,nm,0.0
167.108167,22.087800118535093,-30.378057796524203,-155.31106519622625,0.15856521207912846,-0.13424683831071915,0.07298368961884012,-0.12157138089721474,0.1112913910048358,0.14404749269677206,nm,0.0
167.11767799999998,22.417959706722296,-30.937864142478162,-154.81535322501202,0.22102287935862838,-0.14339452386138393,0.02433800430795011,-0.1117888951211167,0.08148713412173607,0.12853020479613786,nm,0.0
167.127264,23.190332509643376,-31.15847830729038,-154.694029246753,0.21471784833066307,-0.1418032107088543,0.029407361221689993,-0.12434758095818951,0.03305948498847175,0.09932417508752872,nm,0.0
167.13670699999997,23.91214097118418,-31.323206337388587,-154.7078833245644,0.17373254064556826,-0.10397467770359413,0.11991957318326552,-0.13881343457013037,-0.01946970034076335,0.06764370714400803,nm,0.0
167.146222,24.719997111617023,-31.332640373546802,-154.8936165998541,0.05309507008303913,-0.0715368052622506,0.1250767525897602,-0.138815488308519,-0.053707610351190496,0.04228009350889441,nm,0.0
167.165219,26.272722674257935,-31.37609324980587,-155.133671408547,-0.10526649012026783,0.04480828247096705,0.1591496614418161,-0.13066194435863987,-0.0383295719462218,0.06193538422512767,nm,0.0
167.174745,26.770794549786793,-31.535993039991308,-154.93284638816945,-0.10063923321804678,0.11418385027000223,0.1304599392102622,-0.10363725793681187,-0.0038453540443924347,0.08737962327462333,nm,0.0
167.19377699999998,27.15832647672503,-32.04161200904117,-154.01244620079316,0.07657718892512509,0.2045233809331764,0.027049621485299734,-0.0537120024912493,0.042231796693396925,0.10736991915037235,nm,0.0
167.222362,26.63751310806502,-31.337552751204377,-153.1940375741201,0.15589682007108716,0.24410925802684785,-0.06444681700703252,0.0,0.0,0.0,nm,0.0
167.241385,26.211508250741865,-30.58836091965678,-153.4107280107432,0.004594972713103695,0.21914523051157095,-0.06198825398990832,0.004457512743942682,-0.036068029952782237,-0.05119992858355915,nm,0.0
167.25089499999999,25.87962481369664,-30.38275932236503,-153.34199087772717,-0.038941946416552166,0.1945264297445177,-0.05337264654658692,0.0,0.0,0.0,nm,0.0
167.26040700000001,25.426950691856856,-30.311169760844276,-153.0078894675569,-0.043021782057506244,0.17398467809774815,-0.06139087802623988,0.0,0.0,0.0,nm,0.0
167.269912,24.93328170351456,-30.338310751170955,-152.43941458270936,-0.007410226924044293,0.13397063517942173,-0.09825464660264072,0.02532795034506576,0.04590138127129541,0.05909239141116226,nm,0.0
167.27942299999998,24.482022449407765,-30.37356388900702,-151.7529666696423,0.06345908537534567,0.11890380670229544,-0.1051751722911085,0.021114068311517544,0.0616611649724585,0.08706252388520243,nm,0.0
167.298444,23.9488551159368,-30.294029561207584,-150.65611288660998,0.1320426598619546,0.10610579601564131,-0.11191310694265572,-0.005616874415108515,0.03891120460373882,0.06757411223398,nm,0.0
167.317462,23.974709985812463,-30.141453077158403,-150.44013180753825,0.01082711119264295,0.07772514326704323,-0.05975258378120532,0.0,0.0,0.0,nm,0.0
167.32698000000002,24.062235010329264,-30.148836001134445,-150.51705442193494,-0.06127884588025462,0.0677628233986475,-0.034421938803076445,0.0,0.0,0.0,nm,0.0
167.34599799999998,24.065819834335148,-30.53881398877717,-150.42309828991637,-0.17905068935919663,0.003347782878699575,0.005467275055054341,0.0,0.0,0.0,nm,0.0
167.35550600000002,23.941942361022875,-30.862071891091475,-150.10440332060517,-0.15285114144904602,-0.016492931843288598,0.009147063336693117,-0.023106898498782818,0.03585159493076752,0.04650713432507491,nm,0.0
167.36502800000002,23.770858134430334,-31.20251478098889,-149.6461142178847,-0.09690742269906559,-0.038322257679465024,-0.005917291840117854,-0.013460154057644336,0.054514445261234015,0.06951106911888566,nm,0.0
167.38404599999998,23.531291694176023,-31.725207208542205,-148.75989687741836,-0.0011462162048894453,-0.08097616178572957,-0.021458486271330676,-0.005705469603432074,0.047575627894148334,0.06673161725007719,nm,0.0
167.41257199999998,23.773998839397123,-32.07821327249503,-148.49068362835578,-0.10776352412697339,-0.1399174601889538,0.036820771911763625,0.0,0.0,0.0,nm,0.0
167.431543,23.89528325942101,-32.22827449520786,-148.50781978734256,-0.19587625920293233,-0.15065122372483097,0.08516302222295666,0.0,0.0,0.0,nm,0.0
167.44105299999998,23.828940377009097,-32.28417218920794,-148.37214763940898,-0.1940985337484022,-0.15359476383644152,0.07764327878857623,0.0,0.0,0.0,nm,0.0
167.450614,23.720953472476275,-32.59727689868521,-148.15670379648986,-0.15636345603687102,-0.12897857244823116,0.05533038897082836,0.0,0.0,0.0,nm,0.0
167.46012800000003,23.57643603872692,-32.86810023159414,-147.9197112736833,-0.10429713625376848,-0.08975559760219765,0.031544113220246195,0.0,0.0,0.0,nm,0.0
167.469638,23.438141644131537,-33.05671689456234,-147.74022004931004,-0.04268396540229456,-0.07875286935870521,0.025837455085514122,0.0,0.0,0.0,nm,0.0
167.479144,23.33910391666868,-33.1415749927403,-147.67390815493084,-0.01949907614806505,-0.07668433266171962,0.005707189874450289,0.0,0.0,0.0,nm,0.0
167.488645,23.287375880756958,-33.13593090624908,-147.72892108993352,-0.021270990179679653,-0.0760200479808621,0.010877302950652087,0.0,0.0,0.0,nm,0.0
