timestamp,roll,pitch,yaw,acc_x,acc_y,acc_z,gyro_x,gyro_y,gyro_z,markers,motor_input
171.50196200000002,5.877090596333329,-12.910612311550889,-131.81727179929376,-0.26138494729838635,0.31001331162709234,0.071992995992176,-0.017314137859447788,-0.06463482082160703,0.05851155978536186,nm,0.0
171.51147999999998,5.9777842161347685,-12.831731735707796,-131.5133181409089,-0.3344226920758515,0.2525829984117581,0.03594596166743089,-0.014628559424262224,-0.023472784098564937,0.06083836111660382,nm,0.0
171.52098900000001,5.9995106875892565,-12.843758569117245,-131.1346529185786,-0.3372804430923599,0.2070230481509729,0.028864848948689067,-0.017981251532016698,2.5240612764223076e-05,0.07226821922095746,nm,0.0
171.56860400000002,3.9847892563191127,-13.3949123636834,-128.91602792313003,-0.09960836445300951,0.19230625912220284,-0.11217004622903956,9.539732159333418e-06,0.04903866239663664,0.049251274990951006,nm,0.0
171.578073,3.788254748351847,-13.386139114183301,-128.63591249589825,-0.0341084995889098,0.16418397499737686,0.09112000035046658,0.011776714234396926,0.029971124835601614,0.04295165489271529,nm,0.0
171.587642,3.295081924939754,-13.33524127345508,-128.37161026023705,-0.06599761723379603,0.120440480523241,0.06744654089025738,0.029266304760961117,0.056354559661523425,0.026202014386023913,nm,0.0
171.59707899999998,2.9065747334599044,-13.410942585741413,-128.15000760157162,-0.0724242642446871,0.10032863598222598,0.14326712628532293,0.021343132274848454,0.07000979992894776,0.022530785221755112,nm,0.0
171.60656500000002,2.515553158391856,-13.452829583073209,-127.90708001964624,0.01651861189616729,0.0437165389304656,0.31289224016296735,0.026663448470394275,0.06632761500731835,0.02668863681710972,nm,0.0
171.61607,1.8537551526281804,-13.386883999664391,-127.65826995126373,0.027798547109841663,0.04873537797399206,0.23347793860589638,0.07573262046352842,0.0949637865526332,0.01541943014498312,nm,0.0
171.63511100000002,0.46592906502729775,-13.042038886963034,-127.18110130559393,0.0028173630252172556,-0.05283265390868868,0.054856555662639646,0.08865214869657193,0.07002106033213974,0.016342605113754176,nm,0.0
171.66365199999998,-1.1333258331530018,-12.618594609396228,-126.7248458845635,0.11208676331313763,-0.16318144363262682,0.1133735929865824,0.03459903580877147,0.04640988051049729,0.00670529735912447,nm,0.0
171.67313900000002,-1.3430410589582344,-12.6983759316056,-126.62372576917856,0.20560037366908626,-0.17514232841687497,0.19020572962303608,0.0,0.0,0.0,nm,0.0
171.68265799999998,-1.542788020743664,-12.922039251681333,-126.54172885600904,0.11867840338506419,-0.13258346437603225,0.00341105941788344,-0.026543363720144948,0.05924428813503702,0.004525024749861503,nm,0.0
171.701676,-1.527553137186775,-13.563766594937418,-126.36067760567036,0.2001515446121684,-0.09420317486812002,0.17740983569759317,-0.06204470608660672,0.04620581254487474,0.013124796182846447,nm,0.0
171.711175,-1.57551414247595,-13.89135287527791,-126.26200832901206,0.1376415816305899,0.0193039387114832,0.25482665929954174,-0.0611960330175951,0.04749059182968193,0.014581399246736678,nm,0.0
171.73019100000002,-1.483355052731531,-14.576086737381248,-125.98726175672692,0.13028414118939916,-0.03145231985220828,0.3268698589100492,-0.05984593698704904,0.044923418780285,0.024140526631316803,nm,0.0
171.749225,-1.659264403712271,-14.909611472028558,-125.63275835725393,0.21236892721337752,-0.03600166634443211,0.2394163160890362,-0.02950206580293074,0.036706595434169285,0.028337419712516188,nm,0.0
171.758747,-1.9456499332251909,-15.19725891755504,-125.48021096422436,0.15527376980270524,-0.08372263002392046,0.08079583284082616,-0.02858127516899364,0.07946754968198451,0.012992623436915263,nm,0.0
171.768246,-2.2797700135869494,-15.505916231322615,-125.35884158345486,0.2615052061501132,-0.09976484192287681,0.2521999819704122,-0.026921126670969926,0.089308211876155,0.004039052312616733,nm,0.0
171.777754,-2.8344605531938676,-15.781995730608767,-125.27295116104912,0.3850066435694339,-0.10147775848057185,0.20389257975993455,0.0027524712817341367,0.12016372143488833,-0.015156891111568553,nm,0.0
171.787268,-3.690761447351186,-16.139378863934603,-125.21456466999211,0.45100097825961455,-0.12632402100408777,0.0984111437381587,0.022686942783172237,0.17691807680846047,-0.03764442704093257,nm,0.0
171.79677,-4.810215386644067,-16.59246979821986,-125.1776110453816,0.57527201464188,-0.18322010678003414,0.11279192847258887,0.035792260231617724,0.22911282903238434,-0.05766708542615829,nm,0.0
171.80628700000003,-6.263494683875397,-17.05101679691358,-125.1698092741972,0.6470850266808078,-0.24962551692349563,0.014108309351640307,0.07134478366815969,0.2817627675772009,-0.0842073689808597,nm,0.0
171.81578900000002,-7.972086665205012,-17.495558581742124,-125.18072074436594,0.6516032687991005,-0.36571970679933347,-0.06349080356514866,0.10135707219179714,0.3196408052356182,-0.10492389468825529,nm,0.0
171.825322,-9.771408380612678,-17.92640464306301,-125.17962605637419,0.5136846093840701,-0.5868055648607206,-0.18934393647404263,0.11313142649829548,0.3316992605576312,-0.1101196552600155,nm,0.0
171.834819,-11.481055895343408,-18.28214629723547,-125.1395520684079,0.33909833044016674,-0.8818243071973868,-0.17152722323499411,0.11503893868062097,0.30863526096820243,-0.0986923647885026,nm,0.0
171.85365099999999,-14.280316276164662,-18.75215257804388,-124.93548317120572,-0.08471343956962014,-1.497358281041776,-0.24120877637229185,0.08839665593519015,0.22756408543391474,-0.05814745261566674,nm,0.0
171.863171,-15.26648979078746,-19.157766461298642,-124.82622740464308,-0.2513456232903784,-1.6788950190702816,-0.23595629977100235,0.02610006387723591,0.2014648461661881,-0.04172009385842105,nm,0.0
171.882195,-16.197747361049007,-20.37617958870246,-124.93502293037218,-0.2873790193717232,-1.4301099849488963,-0.31796561089146885,-0.09239559694786444,0.12033361777674925,-0.04024370342231719,nm,0.0
171.891873,-16.224247842913137,-21.000317073249427,-125.08200717484799,-0.110788499738089,-1.1905991714953332,-0.2807961271506529,-0.1135547011701463,0.07772766366199277,-0.030344076619315482,nm,0.0
171.901223,-16.09711918070418,-21.515893785484252,-125.24156579045534,-0.3377470720737131,-0.7768319176659146,-0.5957312281581665,-0.11209352722613691,0.042056017660881455,-0.021724485556316966,nm,0.0
171.91090799999998,-15.154109338244455,-21.922035310516375,-125.29950780751236,-0.29003112484746096,-0.5482164724142019,-0.40169891065708885,-0.18174352794124585,-0.09432907748177843,0.05912549069727001,nm,0.0
171.920335,-13.616501661090187,-22.062454035813953,-125.22831329562948,-0.23329256852224814,-0.3257830714449377,-0.2075938580022381,-0.2018686763609678,-0.21508843398035973,0.13011022205049907,nm,0.0
171.929926,-11.673670254908476,-21.88655089201458,-124.99537196958917,-0.6590993378778677,-0.13549155409564143,-0.4127694313928096,-0.19282230818510065,-0.3138365385379259,0.19235626435945724,nm,0.0
171.939427,-8.663076793289717,-21.480059509800896,-124.54306133185759,-0.4395733433228985,-0.1083604205889451,-0.02793065876609721,-0.26677479104006085,-0.505440020300262,0.3127743368067483,nm,0.0
171.977471,5.027234213920192,-20.528184633702157,-122.61110162323298,-1.3961776533943953,0.343604838227819,0.8068130470657281,-0.37513582573015675,-0.5656056591348457,0.31989040809100716,nm,0.0
171.996482,10.44237008710173,-21.019479401355827,-122.17960536006683,-1.8429079644909858,0.5755370554595483,0.44046962627152986,-0.3329706377136048,-0.36710886229634015,0.21751648814847344,nm,0.0
172.02501900000001,13.959523691128956,-23.519246325176844,-121.55430490220527,-1.4038237634166721,1.3120481383994451,0.2336578746245349,-0.23432145416516498,0.005685996861306296,0.0922922717818994,nm,0.0
172.03453399999998,13.935812467478627,-24.407934375938808,-121.24836453753906,-1.0431885598277184,1.4709037101956872,0.2153406055178256,-0.16298602161966055,0.09407129594238368,0.05507073395020092,nm,0.0
172.044045,13.297054500119645,-25.095321953705263,-120.87781908379999,-0.7741397342750997,1.4689843848513089,0.11006509893071711,-0.07138094117316492,0.1681261319558427,0.016589793862999136,nm,0.0
172.053555,12.275577717630476,-25.492668072795215,-120.41779260113559,-0.4524079639347752,1.3916214658460968,0.16041140317140096,0.012347145469879393,0.1972668277414255,0.0008902696428713723,nm,0.0
172.07258,9.005119066760122,-25.54706569816633,-119.41128871982218,0.0585012865760849,1.1324580269537956,0.09522243195737218,0.1594742648101621,0.2767375575307569,-0.061526168594869673,nm,0.0
172.08208199999999,7.060377605809015,-25.403774171103176,-119.02288657800781,0.4770842385599821,1.167028067948954,0.2976638563622526,0.18290269837627876,0.2907790242073543,-0.09268881383044102,nm,0.0
172.091596,4.656047849083877,-25.17597149539734,-118.8767128756979,0.847977275874295,1.207412346030992,0.2722738096857142,0.2367657998135061,0.3570670066048874,-0.17896663680074978,nm,0.0
172.11061600000002,-0.9570837085731879,-23.994550546969396,-119.57172349140126,1.8210367780280459,1.375002874985693,0.6178693988590855,0.36646580226924075,0.3761078951130036,-0.3396802470977871,nm,0.0
172.12012000000001,-4.510687672675706,-23.014299350829152,-120.51440914869741,2.2724342684756818,1.188856375692353,0.7148377317473438,0.4824572290587003,0.46641806249904233,-0.4735983549671569,nm,0.0
172.12963799999997,-8.705475348332067,-21.879985071077265,-121.79616816661384,2.4892244850515266,0.8851105222370504,0.7048817235678844,0.5818320895311402,0.5474658100575786,-0.5776800861181041,nm,0.0
172.13895900000003,-13.194871554365852,-20.72218266047869,-123.23928447344863,2.830409229085644,0.38323156526109053,0.619493749173871,0.6315899500707503,0.5830195217239738,-0.6150189435625398,nm,0.0
172.14846100000003,-18.37233389662962,-19.815243914747207,-124.63313839956098,3.0371060064357014,-0.1619279591216898,0.5361689531878248,0.6796180130595756,0.7076477356766886,-0.6367443854849474,nm,0.0
172.15798700000002,-24.080493132804733,-19.264720968317796,-125.73504571574021,2.8754350516457285,-0.6106442223045778,0.2863082438274598,0.6970383768170958,0.8196022405288772,-0.6003198758422826,nm,0.0
172.167494,-29.643033013519315,-18.962957947763428,-126.38650919587333,2.6053149061874064,-1.0599469223340865,-0.1433016073133883,0.6549538335691025,0.8183077915426048,-0.4915133468069495,nm,0.0
172.17700599999998,-34.83959806188446,-18.790718508645064,-126.62223918790306,2.2462869357004833,-1.310902868984713,-0.6032574833453762,0.6004062070395146,0.7741883002236691,-0.37922310436941653,nm,0.0
172.196026,-42.73687691218164,-18.918135728435566,-126.26859044782726,1.2528673499401717,-1.3121786509518532,-1.469142834607794,0.34860274507798333,0.5442809923070838,-0.1655797894431852,nm,0.0
172.21505399999998,-46.418599291038774,-19.891834695682814,-126.20823338279075,0.706694882864727,-1.0395667528007704,-1.5629388916543125,0.03520326840097908,0.2759556457023325,-0.09777466524779121,nm,0.0
172.23408600000002,-46.15557410458077,-21.5205898852292,-127.1088731926516,0.4173147117618478,-0.9276884066133312,-1.1270192662929184,-0.20175717288703895,0.023483124426407775,-0.06943794921115182,nm,0.0
172.243591,-45.1303362103975,-22.067486691309686,-127.91123754789199,0.1126296472713644,-0.865046806059186,-0.909445140917534,-0.21468186349934104,-0.08055225401649982,-0.07752470668601413,nm,0.0
172.27210799999997,-40.75868979606969,-21.233512035493508,-129.97244890457273,-0.6722105170160695,-0.9510591960047389,-0.5372950057482784,-0.08759316566376046,-0.2830148816555419,0.01725744674601572,nm,0.0
172.281617,-39.14078457385725,-20.394231718996668,-130.25066603430443,-0.888942437775139,-0.9854646506342668,-0.50842552819491,-0.0789111834270438,-0.3356232873081517,0.06505861718324327,nm,0.0
172.310146,-31.894156393423433,-17.536875121371775,-130.81461631646002,-1.099996626364407,-1.112797280525486,-0.2088952059405908,-0.22042533089928756,-0.5197819140457339,0.14125203516237225,nm,0.0
172.31965899999997,-28.858355575235947,-16.59615699265842,-131.07892989598545,-1.3261115447725247,-0.891419430592206,-0.20284008971851028,-0.2518632165194153,-0.5583923814794108,0.1286743422383708,nm,0.0
172.32935799999998,-25.125918779462236,-15.643040477299236,-131.39670553260228,-1.3224418794348298,-0.786393164337252,0.009403377972429563,-0.3433055519876836,-0.6618184299559736,0.14619451005352485,nm,0.0
172.33886099999998,-20.821389267229065,-14.688390806861893,-131.73862896767005,-1.3227346058457532,-0.6973400760853793,0.3481078653538842,-0.42267784220518123,-0.7454566124146174,0.1583326794548098,nm,0.0
172.348194,-16.12152399297149,-13.776061628208648,-132.03537585614157,-1.6025160742914466,-0.46894952576907667,0.48298217238558033,-0.48688323420437624,-0.7974569827145466,0.17214741362090422,nm,0.0
172.35771200000002,-10.963980249383168,-13.024692227466774,-132.1978644101556,-1.53822818993245,-0.413569954792227,0.9064922050516085,-0.5760073306169772,-0.8427651049554012,0.20579554013242732,nm,0.0
172.36723800000001,-6.019827901146498,-12.400427678985253,-132.3578548749517,-1.8103875416122643,-0.0682954441187925,0.9491674847717622,-0.5709824426466961,-0.7956052527470576,0.18369775106286915,nm,0.0
172.37693299999998,-1.1360485994747536,-12.002330735826746,-132.58206316329813,-1.9249091928456368,0.1699474863483661,0.8634696315882631,-0.6002100840880907,-0.7561896498410311,0.1586165995694386,nm,0.0
172.386454,3.2707825574619274,-11.959430875850986,-132.9678993382816,-1.8779081796353316,0.2591267185666693,1.063241562362021,-0.5933231853862042,-0.6370884611457233,0.10188061446684366,nm,0.0
172.39596400000002,6.422614052033739,-12.10291924686233,-133.56509355294472,-2.0537672445265427,0.38712942901636993,0.7607685302873413,-0.45722342048798226,-0.4276051655107293,0.007347711878255149,nm,0.0
172.414948,9.366874626181486,-13.035250120922845,-134.84693214951483,-1.8058102464816046,0.4470640745129226,0.5509904347665627,-0.22797534272322484,-0.034378754799225704,-0.08615236957635353,nm,0.0
172.42446199999998,9.142425238379204,-14.12786021401869,-135.18855336782448,-1.6211000457236606,0.4172464779939321,0.3993000376866576,-0.13690979334841724,0.1877877703297969,-0.08386248268475421,nm,0.0
172.433976,8.11769872533111,-15.550191908136604,-135.03476608279115,-1.2281755965299848,0.31837861272696066,0.5446930163727063,-0.07375315629369439,0.34391491263362,-0.0263069106966223,nm,0.0
172.452976,3.748184249743949,-18.17780584447488,-133.1933199706253,-0.35332943815401807,0.0958512565529323,0.32823895452565494,0.14249793768885782,0.5108835125893861,0.0707208379778541,nm,0.0
172.46249400000002,1.0096459134920992,-19.014168056904825,-132.01028674462708,0.22571380402347876,0.05744169063917763,0.3581706033341105,0.21477528979164498,0.4979831676027823,0.05918041716237105,nm,0.0
172.472,-2.0295545467811507,-19.473713948209078,-131.19067039769325,0.577501766287929,0.06719693905454968,0.25575112698049,0.2987992919711006,0.49292180656170104,-0.03862249195987361,nm,0.0
172.48151600000003,-4.709635981551377,-19.61910178743326,-130.975290936054,0.9981330281774767,0.20765218797584514,0.18357521864859222,0.2964964255659947,0.4027310837902968,-0.1379797852720008,nm,0.0
172.491028,-6.93136502754904,-19.809222011231256,-131.36708424014992,1.973754929928792,0.20828497781986635,0.9052254580955754,0.23316163876811632,0.3430261645462572,-0.22956977881433377,nm,0.0
