timestamp,roll,pitch,yaw,acc_x,acc_y,acc_z,gyro_x,gyro_y,gyro_z,markers,motor_input
7.040265083312988,28.954428661417104,17.136991285341292,109.23229304996882,3.250877775410269,0.9797397449418843,0.5349770502172597,-0.5706178255973448,1.5501382688228917,-0.6411429457581127,nm,0.0
7.042627334594727,35.69923248048296,16.899311668466407,109.9509402465569,3.52003257220795,1.110181843355722,0.043197269292159376,-0.38444572873376426,1.2384799454983872,-0.27610137481938796,nm,0.0
7.07168984413147,42.51465927255267,12.561386315421924,115.82404571052592,2.5947187375290137,0.4042510439735085,-0.7622951259363835,0.29692226324160226,0.12137533587345713,0.4072774149990395,nm,0.0
7.081438779830933,40.41351141246592,11.930775056759474,118.05641546486162,2.1982207900172153,0.15252242498826848,-0.5909110241390989,0.30163692125542296,-0.30224273851099526,0.49651637448143243,nm,0.0
7.1057257652282715,31.02202561567623,13.7702788333899,121.09167332339177,0.8931725556394581,0.2917091346074179,0.2659792430072901,0.33347018802246914,-1.0743993820745332,0.4401701908164693,nm,0.0
7.108478784561157,23.438998854738838,15.39710755085829,121.75912858731364,-0.41474697768142993,0.5119081270276694,1.177102787460985,0.4961685722500615,-1.414562209231022,0.46044260834498685,nm,0.0
7.144863128662109,-2.99728423931221,17.194049593854057,122.92503083159511,-3.5035368310128345,0.9205762296787341,3.4033300787663165,1.4556510078627447,-2.444450464448487,0.9773729529113437,nm,0.0
7.1535961627960205,-29.824723258098242,18.66138088849453,125.88567469930275,-6.554752116741484,-1.851249619884855,0.36084985228167554,1.3176554309836683,-2.199387549947053,1.1217713608268884,nm,0.0
7.156195640563965,-43.728304679499495,18.939123084524322,127.1029690372549,-3.8253899116789243,-2.0679650436679857,-2.0399943394991444,1.5287522315084492,-2.1379627775975676,1.1314452223927787,nm,0.0
7.173205137252808,-54.33679835212675,17.89531254666647,128.1358790723771,-1.7083381855653417,-1.7762141391300748,-2.6761081223418253,1.3998883053765996,-1.4545995449956632,0.8612961788499023,nm,0.0
7.175368070602417,-61.5821004942143,15.722403149034339,128.54448543764482,-1.5611685726966578,-2.8970910531814327,-2.616893993335322,1.2048669059863215,-0.8060813845420834,0.49790332784978414,nm,0.0
7.193743944168091,-68.71659759199757,9.917466398934897,128.2051223389925,0.2668714466459159,-1.2987453658560089,-2.3256239225133797,0.6605930459023316,0.07535019057049312,-0.017767000372149077,nm,0.0
7.209989786148071,-67.38430546875782,8.621707697685576,126.31171659451165,-1.0069366123558954,-1.7684951244663443,-2.0766503626017876,0.04909167312069929,0.37892275199237363,-0.4211188018992545,nm,0.0
7.215860605239868,-64.78177351674181,9.271743313624773,123.1901909852724,-0.8593346267978159,-1.1623221669680635,-1.6661567788789122,-0.39768036315510613,0.3609305794541666,-0.7094043440019433,nm,0.0
7.2206480503082275,-60.29314769118484,11.505696622451879,120.35706734766785,-0.7969596690999942,-0.5700500974025255,-1.461409956183897,-0.8420504284612192,0.5284894335855065,-0.7313751871839723,nm,0.0
7.2368855476379395,-53.91184539385461,14.477228239636647,118.61969012079247,-1.31365677214809,-0.28354645702183967,-1.1465282177102114,-1.1251634805355633,0.8046816692613259,-0.6207676199707413,nm,0.0
7.268509387969971,-26.82141377411073,18.787732612057862,117.52407992501625,-0.5735699734091675,-0.6337785558529607,0.8495076032802203,-0.8697802903667463,1.7785012098859923,-0.636038584323143,nm,0.0
7.270676612854004,-16.166312095582526,17.579908764091638,116.28447484674909,0.4849107867207087,-0.4246044406375965,1.6232705523805453,-0.6893201218889482,1.9305708257075642,-0.8577332304745406,nm,0.0
7.287437915802002,-4.432289004840729,16.670692618066074,113.79146492926901,1.2469536450331822,-0.14687590008927723,2.4498409968458943,-0.7753367695174462,2.1235368924285396,-1.1660778104684122,nm,0.0
7.292885065078735,7.752846760801708,16.810391461519743,110.57526355752287,2.093071041473788,0.5062032969442337,2.8387795725724105,-0.899108018139652,2.1637673387687832,-1.3376792350977589,nm,0.0
7.298726320266724,19.419192318114348,18.104477195821065,107.76544900380296,2.968163906628166,1.0721951314249891,1.5747680920671925,-0.968993531244163,2.028369168523601,-1.2721073465014479,nm,0.0
7.319859743118286,40.180882604891075,21.39976371348126,107.1849469884314,3.8395110852437173,1.1967520488856676,0.0976978191508057,-0.7712716111675897,1.6341068795435068,-0.5819469649964564,nm,0.0
7.33180046081543,47.50715213008491,21.093859922936115,108.87252730638085,3.2478986287578095,0.466649072695495,-1.3859311857990093,-0.3632497078283822,1.3226730981397916,-0.22570933432523665,nm,0.0
7.348094701766968,54.960738156396296,17.32383969080576,113.50476226242272,3.0323123930571088,-0.12357438596209155,-0.9437614482853539,0.23303726048571852,0.51204408109561,0.32195073058930035,nm,0.0
7.354247570037842,54.289572303374115,16.020443840929303,115.79544791820065,2.5732611822733547,-0.5850036624664703,-1.1416768772097303,0.2915377067487792,-0.0037493704359115136,0.4834358943321272,nm,0.0
7.363379955291748,51.89092205025056,16.235673191956508,118.05786139779975,2.536768096889532,-0.013671242344950976,-0.0339400228707586,0.17138729115155998,-0.42635110430459955,0.5726377258534415,nm,0.0
7.3757123947143555,47.12777172924212,18.137342965903052,120.13482179160351,1.7037558730928002,0.11181702626447923,0.0015936845333833593,0.11226617256146415,-0.9767207755060578,0.683841937034636,nm,0.0
7.406035423278809,32.837814456483414,22.92186537212782,122.5164444168653,-0.4493093086260763,1.0730715452576263,0.8773844173058034,0.4208634019875954,-1.46873089692313,0.7338571261951479,nm,0.0
7.409655332565308,7.7784522524983695,24.429177065092656,125.23850462552522,-3.370695273499181,1.73644418819704,2.9019143407959547,1.3772039607116542,-2.0980686119620775,1.448156653316033,nm,0.0
7.424762964248657,-4.954430780416771,24.733884503772604,127.84911466392903,-5.894500889407375,0.6512209948771385,3.0439921054041994,1.3389398558867203,-1.8891438768071893,1.5749373105562836,nm,0.0
7.430694341659546,-18.464672501839242,25.90214706406243,130.297975248128,-6.74961561569569,-1.7075392105151952,1.0816679758021888,1.3671628848968032,-2.034083339156027,1.6412933398463239,nm,0.0
7.4586992263793945,-32.89937818923264,26.730221343918064,131.59416394770648,-4.181105416796832,-2.714008994723786,-1.3885926938679332,1.5783420240437345,-2.052295805437051,1.5385073735728922,nm,0.0
7.460745573043823,-54.633828689904306,23.26085211217817,131.13295965283154,-1.740399614931654,-3.4410508133709565,-2.2551545972012885,1.547884787896301,-0.9538781359857853,0.6563773680796097,nm,0.0
7.47637677192688,-62.21963369643832,19.428645933116666,129.94523114648408,-0.011815035201135513,-2.3045427318982354,-2.440541072936031,1.503468794372369,-0.5636978173437739,0.3201092142052214,nm,0.0
7.4784018993377686,-66.04679321893511,15.667953208559558,128.57593525663833,-0.01789162526810149,-1.7136139733849973,-2.158126871462784,1.0467656464822734,-0.07631372924055647,-0.03710649438563699,nm,0.0
7.527881622314453,-63.79477597798236,15.775493520476328,119.4252746482037,-0.547867346444207,-0.6413007517063848,-1.8156702387882167,-0.6350872176688439,0.22222936493236636,-0.8591856356315908,nm,0.0
7.530070066452026,-52.79687504527253,21.563280608861778,115.50967464972936,-0.3233348886820525,-0.21326168562595701,-1.3926270237032483,-0.9990446102416093,0.8329006927540202,-0.7030565215298733,nm,0.0
7.546140193939209,-44.111815665949905,22.72656280168346,114.91461386394012,-0.39072297947455625,-0.6122963417778031,-0.932819784057392,-0.8880230580053595,1.3723209898716735,-0.7444601836031651,nm,0.0
7.5664074420928955,-23.876237031374533,19.801122183322338,112.5632449174948,-0.12536685305583575,-0.1705658114949544,1.4213178747066373,-0.38085335563480816,1.924797924598554,-1.0456123854650947,nm,0.0
7.569178104400635,-12.165037932546777,18.264935765956118,109.4835300547293,0.5569437222733318,0.19310501545767028,2.561840749905166,-0.49662730879152195,2.191507046652283,-1.3469960143617523,nm,0.0
7.585731744766235,12.855771585113628,18.530510338726838,103.31982106065486,2.857279170261095,1.1951030808907417,1.7644115774896558,-0.7154826388324914,2.246433925858299,-1.2765113986155454,nm,0.0
7.6152074337005615,36.76577155554327,20.566725462310945,104.08475703203949,3.9019339604232552,1.0116457108091168,1.0746750423434661,-0.6219422070309776,2.042136490515148,-0.5116092716613038,nm,0.0
7.617326498031616,45.21800723962031,19.829330333810546,106.36356270232648,3.498286057598178,0.24858657734012665,-0.735068378004784,-0.27112030422052347,1.5756326476071623,-0.13520112759876504,nm,0.0
7.637331247329712,54.713428927824175,17.011084802050764,111.72473562029188,3.1447090150592327,-0.2942227517121346,-0.6100145595876773,0.021296278520373527,0.6485520737143977,0.3323025460389025,nm,0.0
7.639498233795166,54.77616430086197,17.095731241929606,114.23503859302245,2.5278395955404886,-0.6495819312625661,-1.0734112210229292,-0.01963288369342636,0.008508414570362756,0.4643081177807452,nm,0.0
7.66050124168396,48.45783670136006,22.226446245485757,117.77938245820108,1.6746364931438233,0.2237205239019788,-0.2380002113418727,-0.21410824622636315,-1.027210832980679,0.5927038941955901,nm,0.0
7.684439182281494,33.77680103440107,28.57960279042757,118.55694657868082,-0.5764451878860605,1.0912880815869686,0.4122171525880864,0.22504029948417356,-1.5525764844961425,0.7752389291944248,nm,0.0
7.686585903167725,21.24940926436298,29.977707731034332,119.0479863412067,-2.7007774053184495,2.366939452506393,3.0367710886237727,0.8167605750610472,-2.0464246795271777,1.313786514768776,nm,0.0
7.710070371627808,-7.512925427000429,30.506185420922204,123.76472691928844,-6.332104697098013,0.9990645514322074,2.6567420364366443,1.1631503139647263,-1.943904046940586,1.928029792891531,nm,0.0
7.716580867767334,-21.718635961467914,32.0423549922279,126.43993173018124,-7.975432997679489,-2.2405956898293424,1.2459277767587071,1.154701149338318,-2.15513922236409,2.0121247382161633,nm,0.0
7.742871284484863,-51.427601520627555,32.13320764992076,127.5156200847905,-2.261702782422456,-3.43543834591481,-1.8728765105079215,1.518183991040172,-1.6469860501271725,1.4176072159310396,nm,0.0
7.766460180282593,-70.39996105528215,24.396559482670227,124.61355960762855,0.6406659737307793,-2.4877115300377994,-2.4228423785154805,1.6703420927264898,-0.7119619329500091,0.4661057227502293,nm,0.0
7.768649339675903,-74.83537896499628,19.64426566966002,123.0726038023759,0.06883512346222048,-1.6010441496799401,-1.9798289160246774,1.2497890541269316,-0.14069091903918615,0.018838322857607538,nm,0.0
7.778047323226929,-75.85010298387066,16.57206285323563,120.31083113817508,-1.1620684953067686,-1.5811013219677617,-2.3673795348070468,0.6263649682394994,0.1718568069651444,-0.5034743969997197,nm,0.0
7.780507802963257,-76.2129994374797,15.904335418999418,116.32961008692791,-0.35260613050421563,-0.26963395854389227,-2.0493328972140445,0.15301039569026245,0.014376594170120405,-0.80506575191054,nm,0.0
7.807272672653198,-68.35877191613649,21.06830225014409,110.19649686299387,-0.7006425979225867,-0.12292692777919519,-2.075598867310495,-1.005978444579815,0.740848708326748,-0.857473425661871,nm,0.0
7.833199977874756,-39.22014534376667,26.326481485126482,111.58161793763938,-0.6747737452054317,-1.3440290499991037,0.06195139059227406,-0.7284959698019473,2.0793286390474623,-0.8011625378879761,nm,0.0
7.849443197250366,-27.10898678864123,24.65770362034569,111.12169120101889,-0.6096911216844253,-0.6734334028038543,1.869252774239062,-0.4742518136409526,2.172493824620713,-1.0980904037251056,nm,0.0
7.874219179153442,11.85592634852772,23.1638423880975,102.63195943995055,2.7453430049970966,1.9209905345146647,2.4148829469021114,-0.7318125223564826,2.342452383084549,-1.5391903668980338,nm,0.0
7.890026330947876,25.136755008549958,25.091956753375094,102.71201810487474,3.6350395999909817,1.5027027295844744,1.6531661667929598,-0.9003484963840512,2.2887048730831827,-1.08305156872249,nm,0.0
7.8920392990112305,37.34903385217249,25.925225693430466,105.20757287933516,4.1325778635145065,1.121491453437272,1.0407635810296962,-0.6885702556418444,2.104969437544772,-0.5683078466790352,nm,0.0
7.897474765777588,47.07746501674278,24.840846402223743,108.80976520326199,3.7561456721141915,0.5423734177522584,-0.37991758197683034,-0.30455030033594166,1.7491402365491404,-0.1292390674838914,nm,0.0
7.919667482376099,58.64904652653504,21.67281439862058,116.67994722552235,3.0108290491011185,-0.2943471938881077,-0.45166726691778314,-0.08788413775915403,0.8000879393862613,0.41876733604219385,nm,0.0
7.922435998916626,59.33342551186045,22.175150091963705,119.5674037521019,2.252104395349666,-0.40486760362526003,-0.9473978305951324,-0.14868970668627776,0.06701122889471312,0.48467992358891976,nm,0.0
7.953631401062012,52.8249891521375,29.766426887574458,122.1989657838124,1.1882634430654941,0.6312401326062865,-0.2696748655293221,-0.3562305949143204,-1.2126486888798966,0.5667742068535052,nm,0.0
7.956497430801392,45.01472374303651,34.62430888171826,120.93715351999838,0.2543005695841816,0.39062935329536114,-0.5644541425682138,-0.1305512995610182,-1.6346286748137933,0.5676147210972895,nm,0.0
7.96666955947876,34.39416614761824,37.98368835329113,118.28375319507016,-0.8736074941071329,1.198553644928332,0.06319764326197064,0.2696869640075094,-1.8188476043970938,0.7166618647634295,nm,0.0
7.987837791442871,7.577691213139094,38.997466873113936,117.11158825078132,-2.7196501619778024,1.6529422493072474,1.308271334003839,1.0028103390767018,-1.7888110785316995,1.768501094755914,nm,0.0
7.989983797073364,-4.353747874522675,38.3886914334765,120.24727635218966,-6.44424787323928,1.3853462349796293,3.1466170275369194,1.0097537318817076,-1.5717661565067211,2.1331292236479853,nm,0.0
8.016645431518555,-31.52406098096522,40.62538375952422,126.85416917101989,-4.654368425092729,-2.9512153941755677,-0.5319321690495006,0.9668821464342989,-1.8619598292492987,2.3185562742644246,nm,0.0
8.03275203704834,-43.938981985479145,41.413254210967516,127.61504584285821,-3.588874377607504,-4.174672563554178,-1.0027064823556533,1.012578789413678,-1.5766008154246205,1.8089262497926077,nm,0.0
8.034980058670044,-55.7362440076227,40.51792410108315,126.65333852357281,-1.407082431078159,-3.740018036857219,-1.6696841075803823,1.2209957629950001,-1.3007618511777164,1.3714243186031767,nm,0.0
