timestamp,roll,pitch,yaw,acc_x,acc_y,acc_z,gyro_x,gyro_y,gyro_z,markers,motor_input
15.050135135650635,23.818977040274483,72.52919991726742,-6.584187998670475,-0.0017617732517751473,-0.30443936430356194,-0.09923245624523501,0.2860218408805545,0.1394725935723115,-0.26576879293057953,nm,0.0
15.084521770477295,27.842346843486702,73.49091696290593,-4.14825943977303,0.00029660432584672076,-0.40075945547829994,-0.5544680623322452,0.24431315794968136,0.16339626723510609,-0.29327245651630146,nm,0.0
15.091309785842896,35.76614073601772,74.38134623657409,0.02176498055205016,-1.2206507318237008,-0.2785594277249797,-0.9405729712217681,0.22409063271294746,0.031379547985507926,-0.4202937384943479,nm,0.0
15.094682216644287,40.50428633232022,74.04953970261349,1.8827932943762764,-1.6287516274621046,-0.20183387358159802,-0.46715729145067364,0.2503747767549439,-0.06782556112658378,-0.5633329024109753,nm,0.0
15.096776008605957,45.11924478205656,73.30644411905712,2.994086896159664,-1.7105766646275984,-0.5277086943913882,0.18632184315605638,0.25717469645285423,-0.14275638482474462,-0.6998277716399143,nm,0.0
15.111258506774902,50.07958147504626,72.66915857883637,3.8509406082338167,-1.5706287656630087,-0.8389464639716956,0.6531473193439916,0.28898349692618647,-0.11399776432092361,-0.8251853706895875,nm,0.0
15.117567300796509,55.763920411423896,72.70748796238627,5.367441362422591,-1.4777631294966282,-1.1070078129540502,0.7270260830454369,0.32756954830328777,0.032420623926982334,-0.8317331704756182,nm,0.0
15.142314672470093,67.8283281278661,74.79980813879332,9.780440649609357,-1.5606346394344768,-1.0878090773221056,-0.2302437477542233,0.26518759628282773,0.29937231505088807,-0.7457554440938753,nm,0.0
15.144503831863403,72.4142671328384,76.17141966590471,11.010807119077311,-1.3561297167824506,-1.2519184571904989,-0.9388525824353331,0.16571226874097483,0.31268666193962197,-0.6790492885485495,nm,0.0
15.151874780654907,75.97176220549882,77.34009759228451,11.826388972847603,-1.4040951685522742,-1.1391497310936598,-1.36150544099445,0.10242924214399479,0.2633052844136157,-0.5616771579882648,nm,0.0
15.180765867233276,76.97749331116647,78.14382405303247,9.034474823730276,-1.1790343567059094,-1.0600733195496195,-1.0169774294985574,-0.04992036159908714,0.018193432285546197,-0.35226713772317414,nm,0.0
15.182887077331543,74.59762253871224,77.88980229736593,5.764346548763424,-0.8755972353802051,-0.955275388902672,-0.48941105145787617,-0.10091556569862767,-0.06296327481973883,-0.21026315100693715,nm,0.0
15.20737338066101,71.80236764975089,77.63184267469788,3.11586902898924,-0.527037514807335,-0.9733623075965552,0.0321948669384938,-0.12388714516738107,-0.06057453707197951,-0.0009778481481390695,nm,0.0
15.211258172988892,62.40917760085535,77.93147470906094,-2.48550511627714,0.3299781124276793,-0.6721494281347874,0.628085182442246,-0.2594847978948594,0.059371635014154635,0.4688279247154759,nm,0.0
15.223913669586182,52.889380629462536,78.27332566841812,-7.9475177492460105,0.9617107044758969,-0.6241597287400695,0.6085439382924809,-0.393772454350626,0.10285898883283838,0.7868155223083136,nm,0.0
15.251022815704346,18.6054329908083,77.49094490109458,-24.58504416301452,2.3334816364305913,-0.011487398256832494,-0.30258990281891335,-0.4499150250963435,0.04177279156878951,1.2193159123307458,nm,0.0
15.356914758682251,28.3161128002051,73.29058637601929,-5.346970819679312,0.1262094954434499,-0.47352795165639366,-0.4648469617222798,0.4841359208704096,-0.03156898813759103,-0.4934627924210389,nm,0.0
15.366135120391846,35.82876276136022,73.19198133094805,-0.5571963322526926,-0.0885032071018351,-0.6030339820540889,-0.5915038150168025,0.42305494410938577,-0.04771142046345699,-0.5083907826559098,nm,0.0
15.38648247718811,46.8257206370814,72.40925864939575,4.232645645229442,-0.5517557868430408,-0.8655623493713787,-0.4911543415117731,0.2976503403171168,-0.0764094375026297,-0.6590643570737631,nm,0.0
15.388550996780396,51.164547237157024,72.06486764244669,5.403010061298833,-0.986504566014046,-0.9778593026307831,-0.23346118517347725,0.2610742467190897,-0.05045266600496566,-0.6216535850027265,nm,0.0
15.39791226387024,55.24448924488791,71.73358535649862,6.286771866009979,-1.584452574975903,-0.9012542743238062,0.09709016565281003,0.25031923853786703,-0.04342589848222334,-0.6292273060397492,nm,0.0
15.421964406967163,62.72600593579667,71.0808854453182,7.311971313047821,-1.6938324496127137,-1.0687252386657404,0.7594584396609576,0.22600690615522817,-0.024161466513625,-0.5991245139142477,nm,0.0
15.518064260482788,73.85771343016614,72.42551673311887,12.7308094387329,-1.2959120374680686,-0.864623989541021,-0.3088049558692853,0.21620966057491672,0.21159764996836555,-0.24084770565233787,nm,0.0
15.521512269973755,81.26216972793542,73.82448024175429,18.187836967615784,-0.7633835568184727,-0.5436902608694631,-1.223625674274557,0.11749975691231104,0.15855826454188435,-0.18576435244452025,nm,0.0
15.523793458938599,82.26290109093827,74.0548138908284,18.468629094943804,-0.5367529345553901,-0.5381147368687401,-1.3269905691472512,0.027945025418591923,0.06171966459892195,-0.1520072736857544,nm,0.0
15.52641749382019,80.5468250194429,73.64772019923525,15.856792270319508,-0.15355552247158133,-0.5170969739453067,-0.49547062891956895,-0.07087031921876424,-0.08534551873619778,-0.10154513660500422,nm,0.0
15.529618740081787,72.51305135408323,72.89312968079821,9.299157103444122,0.22996867032643756,-0.49293692748063017,0.37633062532377426,-0.2686568753128895,-0.12369196133203902,0.17864082800495287,nm,0.0
15.532004356384277,65.95987386849728,72.65043662454336,4.979957849208539,0.2719307291479769,-0.2562722315175737,0.5042486050149029,-0.3880683575764281,-0.09765579604020387,0.3773904231506806,nm,0.0
15.54676628112793,50.852794042371976,72.48418016584739,-4.043034563885258,1.3126719354701613,-0.2659065917962419,0.07458166830044723,-0.4610065364237777,0.011811361834845751,0.5750838355696957,nm,0.0
15.556745290756226,42.90315486219736,72.40813315421394,-8.268493223925036,1.3913500681065163,-0.0446281076344649,-0.21697755077257183,-0.48731033531895485,0.03290232775588631,0.6839245433130482,nm,0.0
15.577197074890137,28.324387354655784,70.64748171713023,-16.26371015391925,2.032923374193649,-0.09913082131748928,-0.282674732960428,-0.4812594759735242,-0.11377825327393473,0.5647188521518588,nm,0.0
15.594074487686157,23.417873376555395,69.46943743484911,-18.320633468845912,1.7144858834654606,0.09106376656609842,-0.10011139309008317,-0.3984523806376139,-0.13201464568452517,0.5214869864038914,nm,0.0
15.596372842788696,20.525725446972377,68.25687224515147,-19.130092814416418,1.489103228545889,0.2266478797465772,0.2663688541882118,-0.284016927151478,-0.16986810944218134,0.3879506032030292,nm,0.0
15.612386465072632,18.783262407574618,66.3511652844772,-18.041966364399542,0.8809868937400339,0.2146786087433537,0.8449893093454721,-0.08022796104541294,-0.14363206829615463,0.24904098255040755,nm,0.0
15.636338949203491,20.75229181612852,66.46089941999018,-14.173364239312807,0.6290400048674402,-0.04201742975069177,0.8480502262703103,0.10753077061297034,0.028850944122786947,0.19478451047341996,nm,0.0
15.639062881469727,22.45072665167298,67.26815593766092,-11.614565276445333,0.3833636564531274,-0.14038104290665923,0.3481632938401306,0.15904982576620963,0.120935331798699,0.18926642099481358,nm,0.0
15.663253545761108,27.392627417883833,69.31200737419292,-6.08142132594468,0.2594087995411853,-0.30140290599778063,-0.5476607072357814,0.2045410378394666,0.16321195484029385,0.06543430088385348,nm,0.0
15.665932178497314,30.124950196780315,69.98293453121497,-3.602628195230724,-0.12015240855102573,-0.2870182840865864,-0.9156865856785453,0.1933299397224756,0.11135781639517041,-0.01747685481924925,nm,0.0
15.687207460403442,33.254143433282,70.22654826715406,-1.5248362781177895,-0.4792768668697606,-0.1725362412702032,-0.8621400984259361,0.20746198327666193,0.032836168963568585,-0.17706105995733212,nm,0.0
15.690792083740234,36.156272651938444,69.93587176964638,-0.2675635327208695,-0.9977361353087139,0.01613234733389659,-0.5553706949038076,0.18934049839421568,-0.06755088082842187,-0.3053295136575501,nm,0.0
15.712980270385742,41.754995447601665,68.0088358776422,-0.6921250553761119,-1.5844245108619832,-0.41625222831209435,0.6509559043907023,0.21713591894037837,-0.23254213414896535,-0.7287532306746257,nm,0.0
15.715239524841309,45.196417485960765,67.16647044960787,-1.4339176884856564,-1.4047208930631956,-0.82977614270587,1.0423324299358525,0.2521936494967764,-0.17781899809260476,-0.8281406439278433,nm,0.0
15.74289584159851,54.46578636071486,68.1048768064287,-0.2506418118244089,-1.415337418989589,-1.1520720895717964,0.29466108570757077,0.383059891378621,0.1700813976235432,-0.755121348857444,nm,0.0
15.746407985687256,59.76281071739234,69.30344749956272,1.4108252541157582,-1.2999813204079427,-1.0957484515558191,-0.5011762013496777,0.37350709441184005,0.2431658235208458,-0.6869927675217037,nm,0.0
15.751044988632202,64.48651826490644,70.32675213069398,2.995655853944678,-1.1728846080960116,-1.131257647755887,-1.1845066585356114,0.3087051270263284,0.2172906893089938,-0.600388733052417,nm,0.0
15.79324984550476,70.71604989879532,70.76935532697621,4.289863394359142,-1.0371892116211476,-0.9932134809493656,-1.3586507758443704,0.15178676716261136,-0.006154323581981274,-0.45942961628160534,nm,0.0
15.795591831207275,71.39845660189928,70.1504334140196,3.2742933113632455,-0.9754675483621648,-0.9344261952906678,-0.9605501570201384,0.04495527666694865,-0.1204382527547107,-0.3569707671077605,nm,0.0
15.813167572021484,70.75141419340322,68.52706413491461,0.9923057346385649,-0.5747930281663945,-1.0137423331861974,0.05510656678945364,-0.034989945953077396,-0.15293824158282188,-0.12103463485632422,nm,0.0
15.815497159957886,69.87614705482697,68.07506412983982,0.554078827513747,-0.3652342877505934,-0.894017909581802,0.26869250541911177,-0.07222851554466836,-0.09089387480582709,0.06378385829302358,nm,0.0
15.81905460357666,68.00934893553534,67.91654457678514,0.04828350427549919,0.11116109568870344,-0.8411620515946945,0.4360825081295166,-0.14855870709991545,-0.03209017555617141,0.2465405781452437,nm,0.0
15.869577169418335,56.1621692836888,67.76451490746797,-3.938674672754607,0.8875022095842618,-0.5472521058517057,0.2634654329244254,-0.5679485637886048,0.001500850712381021,0.8855418014513086,nm,0.0
15.873131036758423,41.331455390003086,67.25815149961228,-7.491256699460638,2.2966432632283187,-0.44105522579758927,0.2541458388970354,-0.5564901025054892,0.013014023245954983,1.0808907544326498,nm,0.0
15.876506328582764,34.776688337343174,66.8030526373889,-8.29403427294903,1.9509201744671063,0.18507683724092752,-0.0653150650340845,-0.52776376412048,-0.024425525128105943,1.0813846087304904,nm,0.0
15.907486200332642,25.626009211388666,65.2523362544846,-8.742778548588536,1.8991543859766795,0.7117937148743761,0.10895111654354565,-0.3535903350807517,-0.11070671175294881,0.7468397146684855,nm,0.0
15.911195039749146,22.162167530513507,63.81260063957605,-7.6495746511054925,1.0499021591176259,0.7414202297256343,0.463197972113007,-0.10165895088959175,-0.14202608856486182,0.3125148945285996,nm,0.0
15.933602333068848,22.484413062658167,63.33954058363148,-6.347288625462695,0.8303464676714776,0.5219623900471568,0.6797088101215896,0.011148571302342172,-0.1056097197869827,0.1925592272086844,nm,0.0
15.938321113586426,23.820137893345905,63.284792956418876,-4.517104912733723,0.4534803111037519,0.27562752682690583,0.7284385080914778,0.1128238365972955,-0.03023652476188075,0.13059077561494672,nm,0.0
15.940476655960083,26.02391827466389,63.51240747787267,-2.2445792160218616,0.4180616312375977,0.07370857728434865,0.6414140067848418,0.19423797818870586,0.026123160496539243,0.061672150246770883,nm,0.0
15.958088874816895,31.35699693028128,64.85727970079385,3.0065772656766203,0.1382595334168123,-0.20322896856797318,-0.14192397928851605,0.2295086839187754,0.16116752407484788,0.035153467979905574,nm,0.0
15.960518598556519,34.21002535829393,65.6191266440009,5.376481466983925,-0.06934147914090716,-0.20982104364847304,-0.5551466064633958,0.22139570673494288,0.16272553424284192,-0.0445862051157308,nm,0.0
15.97747540473938,36.95798277255594,66.15801949757767,7.181296778681508,-0.3156985800435196,-0.16166339062304447,-0.904961467006045,0.20535510252490524,0.12518639509176535,-0.14557007823514262,nm,0.0
15.984132766723633,39.50888155368467,66.40863972103351,8.39727309849624,-1.1440327652544562,0.13258176246178885,-0.9470016706662243,0.1903238837772923,0.07116386874513612,-0.23554773916647717,nm,0.0
15.988842964172363,41.29268998031489,66.00012899616482,8.210209369343865,-2.0732812941587007,0.18892897213201784,-0.534464394854446,0.14809752103614213,-0.06647484805799705,-0.3757550593143638,nm,0.0
15.998929500579834,42.47508476712775,64.82884704558951,6.386693779390882,-1.4172673578689405,-0.5376848212358725,0.3418688604685606,0.12153055592305519,-0.22630297680307868,-0.6070651476936558,nm,0.0
16.02524161338806,47.118129954488275,63.98461265648855,4.4901396912046705,-1.7567183725966422,-0.8219699854065688,0.6795121869933732,0.2555484295851384,0.03600066006035541,-0.6177705699589623,nm,0.0
16.02931308746338,50.88242700846193,64.81693104555046,4.759639203463957,-1.5385312529175816,-0.9145695936982652,0.44588006341456415,0.3037768506909028,0.18895408260322458,-0.6514793176716771,nm,0.0
