timestamp,roll,pitch,yaw,acc_x,acc_y,acc_z,gyro_x,gyro_y,gyro_z,markers,motor_input
16.5406813621521,14.864420206562404,60.175252764908215,-7.346249009314065,0.028098541318544425,-0.23215361162441034,-0.33343063919923005,0.14400793692307404,0.021260323578774575,-0.1781405267661754,nm,0.0
16.569840908050537,21.429454645514266,60.56700660955359,-4.097216545775654,-0.33435051194130233,-0.22061235544152294,-0.801143897716048,0.3867259111901101,-0.014345552166616544,-0.2862907235443134,nm,0.0
16.57272720336914,25.365426928291672,60.167247783329856,-1.8910408709454285,-2.116877600458052,0.1495751679509822,-0.8725618292031972,0.3801220765122522,-0.10822988645297113,-0.25450497814589973,nm,0.0
16.59424352645874,28.920141164028266,58.394445644987314,-1.0823289284578161,-2.591506624663664,-0.13240040160922115,0.22676530712067514,0.3498930681881978,-0.3717953621765521,-0.47545153609338436,nm,0.0
16.59676170349121,31.962129488378235,56.057054420306685,-1.9342517145793618,-1.7954439907891848,-0.9656667613705422,1.2682546171083366,0.31351365295321193,-0.4835072821132102,-0.7206728066045772,nm,0.0
16.601646184921265,35.47007057131069,55.99181602371248,-2.690133612810741,-1.866572351700272,-0.8180163635814729,1.5539812680355043,0.387004611295706,-0.03472861416583123,-0.7645972333283275,nm,0.0
16.621471881866455,37.61667361636339,58.16466401823903,-3.688541714973399,-1.8528306825471348,-1.0467467484742707,0.9567694711088996,0.2518836415539894,0.41634307312654006,-0.5795951159561306,nm,0.0
16.625566720962524,42.058605565680864,62.88001191734207,-6.275197805695735,-0.49082625100783595,-1.6455772519900658,-0.9590953604934244,0.3388980206524074,0.4211384869556696,-0.7437890042303595,nm,0.0
16.640263557434082,44.17074649555894,64.4831712482556,-6.454979979750075,-1.1431460724611326,-1.2712966455353534,-1.4978715952393828,0.21445626858469274,0.2949621720769613,-0.4274242035666236,nm,0.0
16.642524480819702,45.37399032751483,64.64348754498327,-7.414498172574382,-1.5650468232985397,-0.9972280939387971,-1.977275778371311,0.09898684639214296,0.015951950152094205,-0.42167907898821216,nm,0.0
16.66832160949707,48.190687512763056,63.340943749004246,-8.395546327372456,-0.9230417183952311,-1.2202378367741342,-0.618277455987196,0.05876508553202129,-0.138188836885822,-0.24676704432518268,nm,0.0
16.673627376556396,48.458274806629866,62.93231735037911,-9.079402896199984,-0.9383117259540733,-1.0896202647364182,-0.1444303106769153,0.003992574245031906,-0.08731970044821137,-0.21342743800064584,nm,0.0
16.696433305740356,44.00668464971033,63.798329101106766,-12.042224754699,0.1694867802719952,-1.3645416930347225,0.5829176932598898,-0.30149916017761436,0.2127377215666061,0.30213409602131525,nm,0.0
16.719783544540405,33.737752291300154,65.16483523798152,-16.631672144762284,1.8595040797579119,-1.2262671967879786,0.5303089708561333,-0.42258374983710706,0.2259773123883989,0.5482761917326802,nm,0.0
16.721986293792725,26.59889955302494,65.34903866703448,-18.251880863618435,1.6048711080095643,-0.6392088715463944,0.2720401514428862,-0.5672559887780724,0.20961697823556072,0.998280769496811,nm,0.0
16.73863434791565,19.993825752645378,64.8295473736354,-18.82835709065424,2.36430881556346,-0.37413539238856375,0.7154012268625359,-0.5686860898876354,0.07250061966292912,1.1132021935105365,nm,0.0
16.741668462753296,13.991111633733047,64.03139316271277,-18.15522097533732,3.0321642742615698,0.27769997814881003,1.0930401098815958,-0.5497242122073759,0.005807451735570477,1.2515365884017995,nm,0.0
16.766234636306763,5.950549485593658,64.01878707395167,-13.997971444658372,1.40702127732501,1.3191001554185986,0.3264672239321924,-0.22258295485265736,0.1112076292459661,1.009961526403385,nm,0.0
16.76838731765747,4.897411739298704,64.44418815411251,-11.532268452164844,1.4495709707024549,1.6127860593417878,0.23564983518336516,-0.07522659669743696,0.09347708019720558,0.7015997718800802,nm,0.0
16.79658341407776,5.384073131269962,65.00688285863458,-7.950053505619468,0.9314134297308355,1.1324875575025848,-0.19917120711378705,0.08102491757075436,0.021954734460219165,0.15623502383117494,nm,0.0
16.7992422580719,7.11445135605738,65.10898093265722,-6.591166241395668,0.9808478759773434,0.806447171613501,-0.1325953513290576,0.14353352372521644,-0.008446242926285633,-0.0441349479738501,nm,0.0
16.812557220458984,9.483649417219736,65.1391489603702,-5.18347433412013,0.6038149480774627,0.3422727991244462,-0.22752919833099322,0.1950333308565423,-0.024509248769630967,-0.15228550751865497,nm,0.0
16.830743074417114,17.006985522852926,65.06549242338036,-1.269404136460673,0.2841610274290189,-0.1382304430781991,-0.004189369878581715,0.3337280334780977,-0.035721880296103736,-0.3182044329229411,nm,0.0
16.858346223831177,25.972260110022752,64.99510712094511,3.046271526800925,-0.2839031796835788,-0.24439881229085508,-0.23079154274742336,0.38974359559025207,0.007335438162625139,-0.4355902010481844,nm,0.0
16.868743658065796,29.92365371547415,65.05398670924923,4.663081951199008,-1.5499668518626337,-0.06545824110819827,-0.490278165741408,0.32710798353433174,0.026515905503741104,-0.40468612439891866,nm,0.0
16.887531518936157,36.0845397011807,62.64105449631489,1.0635919348343095,-1.4825461069204715,-0.9715976663009892,0.5357049854343382,0.13696636980938248,-0.10354851677071664,-0.6687873118241577,nm,0.0
16.907694339752197,40.80025089676643,64.8832459261801,-1.1958556013651467,-1.5463984270369455,-0.9661149186365995,0.17255965582533403,0.19243640585741512,0.2780481315330261,-0.7060780327372267,nm,0.0
16.91229820251465,41.763528124413725,66.46410322612219,-3.4775587622200708,-1.412973902207157,-1.0767941201628932,-0.6970402089223894,0.08479666401428662,0.30900911276577614,-0.6640406882638817,nm,0.0
16.928784132003784,42.30426687531231,69.26906062268226,-8.966305737204415,-1.3175401490520264,-1.1772919001651776,-1.288613947726581,0.02060510150964045,0.23377149136645947,-0.6227729983159825,nm,0.0
16.960055828094482,41.00734418045537,69.65818507331547,-15.458930838150085,-1.1234002700672665,-1.4033508669609314,-1.1915454642838745,-0.04151183693235816,-0.006536314445954067,-0.5385098247383858,nm,0.0
16.96214532852173,41.24215042665537,69.41356144283223,-17.221684939720966,-1.092752250277054,-1.2762796793231157,-0.8055583030232235,-0.006791544400468913,-0.05459215895264336,-0.4288741650579844,nm,0.0
16.97864007949829,41.51972907687774,68.81546431480629,-19.240926930202924,-0.5871173812836625,-1.1526301397283585,-0.5215913358245253,-0.020372154534700447,-0.04898932500744657,-0.19466715096163123,nm,0.0
16.98531937599182,41.418806601101956,68.92979985812832,-19.403683341693462,-0.13544859254604621,-1.0877695526316242,-0.3505219561853004,0.0,0.0,0.0,nm,0.0
16.997066259384155,39.345208143216645,69.03419646868082,-20.087523243421565,0.6330884980654042,-1.3089910397043802,0.25993251866945466,-0.14220702493610238,0.06739927997283258,0.2398615572004562,nm,0.0
17.021746397018433,26.963295963872028,68.03054986647456,-24.48770922897044,1.6248293166680998,-0.6603853744049981,0.9550029456121664,-0.5395187156076817,0.08548990384611381,0.8569252515415101,nm,0.0
17.02682113647461,17.677888501595962,66.82324890071673,-26.90364220207719,1.7064771293117558,-0.05342611116523829,1.4676791383630727,-0.7560437741254705,0.08616323256656962,1.2478518866724806,nm,0.0
17.03937339782715,8.905598526094085,65.25035934433834,-28.502864858383656,2.0201419196731316,0.12336039501296622,1.0671287573014183,-0.7856716724164015,0.04699673107897866,1.3303293272121206,nm,0.0
17.06067156791687,-1.534357087157366,65.47726678146341,-27.279836587995387,1.6444799712916047,1.2056914769454363,-0.2662731415176866,-0.2663424640666382,0.2636156319324132,1.0475114434473338,nm,0.0
17.079352378845215,-3.1265062286477465,65.28854134461253,-22.810332118332138,1.8542329004534475,1.1573741438196326,-0.9709049475170265,-0.016871719061962113,-0.07792847485985709,0.4625711013461385,nm,0.0
17.081780195236206,-1.8362602717978211,64.85959755817522,-20.58233102472882,1.2535711274672339,0.9732286555839282,-0.918802679950423,0.06398698131463626,-0.13053826843649852,0.21477651270946915,nm,0.0
17.09850811958313,0.8220603627755172,63.90651991256494,-18.477932280085085,0.9672418978464622,0.7181436326929839,-0.45280180879696463,0.14793686790767194,-0.2672707233056661,-0.06752141603462232,nm,0.0
17.113720417022705,8.134879188378232,61.282114753120624,-14.720153769334575,0.504643144269068,0.12278777762081017,0.6533090769572043,0.27328192848272304,-0.33161062408710995,-0.31855177724125927,nm,0.0
17.130661249160767,12.044068121585576,60.500065181680895,-12.94162814770153,-0.055741328889536944,0.009501314256436699,0.9118881471876601,0.3275373259030298,-0.2521815383691299,-0.3519889911127652,nm,0.0
17.133108854293823,15.835385018132861,60.07692763678277,-11.219264927195225,-0.12884729157645106,-0.23217471634148334,0.5105925659656911,0.3452975227078784,-0.1701543293365649,-0.33956061693732154,nm,0.0
17.14265203475952,20.03044130222953,60.52575643739311,-8.96664178405061,-0.028252149997953887,-0.4114133904721533,-0.10992599283872037,0.42020999508707835,0.007660630539140972,-0.3000322052837423,nm,0.0
17.177239894866943,29.245356947098443,61.41430517428494,-2.95991801605665,-0.8693909124532148,-0.389560860906465,-0.9995626830026728,0.43082962094201493,-0.03710824022208667,-0.22773306940818283,nm,0.0
17.181806564331055,37.736990621925926,59.05214944328071,1.212139142861448,-1.5311263997315718,-0.4684530743248965,0.046553651273999484,0.40264455248616815,-0.27854423160501335,-0.3687830089751013,nm,0.0
17.18557357788086,41.04884065222487,57.5402042950274,1.9090971360676312,-2.349234155838915,-0.44369943348345153,0.6149683991529644,0.3516409402972134,-0.2984886248052241,-0.4582733797846399,nm,0.0
17.200891494750977,44.553764848667676,56.53830342500727,1.79736843315715,-2.4089827392167886,-0.7482955104705938,1.0551434726766027,0.3831035524761388,-0.1926619462720288,-0.6476365984139633,nm,0.0
17.236621141433716,55.99401884522646,60.231298452463776,3.338268002950487,-1.395597436266053,-1.2289957195716303,-0.743898716173148,0.40465443456788236,0.32222843124625794,-0.5951635510490403,nm,0.0
17.23910403251648,60.30620344093396,61.23416547720423,4.49152026043686,-0.505941668423628,-1.4343342275538382,-0.9937721033554241,0.4000602327633116,0.227914613450374,-0.5532270462878247,nm,0.0
17.256059885025024,62.56940970543619,61.404507346140306,4.8353763099413865,-1.191502953380995,-0.8395361373056209,-1.726986820275979,0.20673939274796402,0.05052346570231095,-0.35775068516462605,nm,0.0
17.258718967437744,64.22923510700579,60.746006115082665,4.099023403773434,-0.570394846655355,-1.0976687687075244,-1.454435129800205,0.16364450391305047,-0.1199420202510129,-0.4696887494429043,nm,0.0
17.261197566986084,64.81342147879019,59.85246335695501,3.0387181126275284,-0.07808932897451439,-1.4729297436407807,-0.7535303281599244,0.06233578627977839,-0.17587040869937,-0.3468915531935242,nm,0.0
17.29656219482422,62.863963334144856,58.90254662220398,0.5954384305285401,-0.45415838152057536,-0.9168203383531508,0.06977427331003003,-0.1228746035056107,-0.06620876357772594,-0.10377742285434502,nm,0.0
17.299498319625854,57.85280619528583,59.53028715478318,-2.4736065223564263,-0.007721505920427491,-0.7670881069938675,0.672104287846996,-0.3148501160771517,0.11070028705087608,0.21712194302468718,nm,0.0
17.354382276535034,41.86627567802685,60.140874128416556,-6.798705087443776,1.5240606263775733,-0.416854013628254,0.31116658344999365,-0.5848883873254038,0.04842968128829887,0.8445183905400456,nm,0.0
17.357242584228516,37.620208875181525,60.08546879768463,-6.231708223498951,1.7551799245387385,-0.03383045938559245,-0.06472919812573794,-0.4288125107440311,0.032363357780193204,0.8671110629885693,nm,0.0
17.36002254486084,32.55508428627082,59.02748450009288,-3.802938189947803,1.6368642328634888,0.7379109374298186,-0.3345894745986252,-0.2422336831074075,-0.13859509228443018,0.614230400118208,nm,0.0
17.377847909927368,29.914102981576878,56.90934901071034,-2.9700727638732896,1.1278540144652667,0.7578355819987319,0.23022325722784162,-0.1282003414240131,-0.221473884495123,0.1994763340765034,nm,0.0
17.402034759521484,30.07444731700345,55.12192342465186,-3.228970486064442,0.749521178346181,0.1833085271976277,0.6918653118888918,0.04584565897124691,-0.16279857616612073,-0.1169606053245404,nm,0.0
17.411542177200317,31.307965310711243,54.70101098786849,-2.9941934896819467,0.5357020894129906,-0.08618687546542703,0.7048106057892225,0.13283082628686588,-0.0987950764815397,-0.1670472596030136,nm,0.0
17.413705587387085,33.11041499519371,54.57385595583465,-2.3733422599347804,0.4697546681148158,-0.303904046796858,0.6048865811658592,0.20301782775820423,-0.04178489678623086,-0.1821329194105162,nm,0.0
17.432118892669678,35.16972310360252,54.749059456951116,-1.457362030472302,0.470352902918636,-0.46259909640348745,0.425765134992565,0.2349682307074927,0.02089987771640272,-0.16522700895182904,nm,0.0
17.43429732322693,37.11827499289448,55.17993855472698,-0.5207162157718154,0.4008068046386454,-0.5101443851945777,0.09570235381699084,0.22070254981443238,0.0765518620881904,-0.14429721375158353,nm,0.0
17.44650936126709,38.722344094004086,55.72530931508725,0.04814883297392663,0.3940406391597572,-0.5084121719322086,-0.1749292345373765,0.1776774577263668,0.10287701928287464,-0.16309973088331725,nm,0.0
17.471694707870483,39.97187124553488,57.550428098189506,-1.7115711873226824,0.14635119461122778,-0.46127218209897025,-0.6507920472626444,0.003689668555102598,0.12950357717238584,-0.21625540101187238,nm,0.0
17.49786877632141,39.99434129159218,58.822931953697505,-3.3533915099170133,-1.3017054438688607,0.21694152383344986,-0.9267764044101826,-0.0053282191922953805,0.1021675562489992,-0.15819621585265714,nm,0.0
17.50676393508911,40.82983066413803,58.665318770649556,-3.8997850877386746,-2.4311481514102704,0.31982713342409735,-0.6289579945912112,0.0786927202169701,-0.041889179217510196,-0.2825511710601889,nm,0.0
17.509613037109375,43.850607957556164,57.695551789551466,-3.976419831510593,-3.1263735567218482,0.0875273050202594,0.5009817022705291,0.2991743586629365,-0.21975494632212259,-0.56978339918463,nm,0.0
17.53548502922058,51.686458427405206,57.442754444308974,-2.3387450667516325,-1.5160826841443458,-1.4305277401442664,1.8258975556938721,0.36370801760242977,0.11746752928231369,-0.331398762107378,nm,0.0
