timestamp,roll,pitch,yaw,acc_x,acc_y,acc_z,gyro_x,gyro_y,gyro_z,markers,motor_input
27.0720431804657,-10.573354293151063,-1.5851946481485963,-83.2424232527435,0.6380093443032048,-1.2081013655302746,-4.700664729290074,-0.14187814442591223,-0.35193359086232945,0.7565616207891296,nm,0.0
27.084638357162476,-2.120844287071156,-4.157319014234642,-78.69774020820378,2.122983314437546,0.021889363730484158,-0.788293202736898,-0.25233419236562266,-1.7611276894284358,0.9888915727691714,nm,0.0
27.086784601211548,8.860934634837603,-7.338150987716861,-74.21197831114485,0.6695067453910806,2.338096137398722,2.3062702431787456,-0.09766884465160862,-2.288687776606761,0.9596115116904297,nm,0.0
27.089533805847168,22.993823798933978,-10.844169932565693,-71.96518521876303,-2.6992594851640614,3.9350364558948168,1.9394144559867212,0.159280024241592,-2.8883047558539747,0.7306912940228318,nm,0.0
27.095089435577393,44.038230923052026,-14.222710939289165,-73.25303308628793,-5.556041916208585,5.226895243507367,4.750277058920665,0.6191388266336494,-4.132599541582432,0.4879290191219936,nm,0.0
27.10652494430542,65.6474523307597,-13.571393589175447,-77.53109323642958,-7.802447178817675,3.4633390128667294,2.0979398802393012,1.1856205177107797,-4.041056409654412,0.1819476945430214,nm,0.0
27.13188123703003,102.97211252390076,-1.6007376579257202,-76.66451798388927,-6.966430691724613,-2.5523288504669472,-3.3462366929020497,2.0301051783539252,-3.2758269068402743,0.8041091495065521,nm,0.0
27.161086797714233,125.01211170817545,2.915864637400284,-68.81114617100398,0.9848874823502863,-3.0684054839813695,-4.904177706581566,0.6555479491545112,-1.5344905504586164,0.5240214053463086,nm,0.0
27.16385841369629,131.54727306761933,1.0642822822077829,-70.93290642703933,3.534723769359142,-1.8025228971688294,-1.2568709647572756,0.11502704842240208,-1.3584028898026987,-0.47499116813160414,nm,0.0
27.16607356071472,135.7012490918188,-1.4643742695859283,-78.19536094928912,0.8872325344199583,-1.4907050321703008,-1.3433099674610605,-0.25428707103707027,-0.9419576247261282,-1.4544490262189498,nm,0.0
27.182592630386353,135.3016218737282,-4.6491148133391444,-87.44635446001446,1.8483849768994505,0.09221803946583186,-0.464773912203135,-0.6321086076414407,-0.007636108784739857,-1.8596983885391531,nm,0.0
27.186089277267456,134.58373299085892,-8.48983739533908,-95.26671457430909,4.032913430781686,2.8035712518044704,1.6567451651342848,-0.755907599201348,0.1521815104337922,-1.5848157542971888,nm,0.0
27.191962003707886,134.46909823672794,-11.08229106013066,-99.62482413734664,2.4273682879575618,3.547270250483837,0.9384304452518454,-0.502272171148697,0.07987552254729421,-0.8792260351746574,nm,0.0
27.216485500335693,131.81695094500236,-11.33835927926729,-94.13728356231609,5.218180778884209,1.7829829515331967,2.548915553295821,0.18656396051265572,0.11958300591473618,0.9072643084217614,nm,0.0
27.222174167633057,132.4985398452236,-8.900274482479668,-87.58899122884257,2.4739806617397684,0.08393464209028509,1.0469349060957802,0.4985858750845725,-0.14940032607070758,1.330967505599882,nm,0.0
27.24880814552307,132.54359222770293,-4.53162806985548,-76.41658795458216,4.038382119098458,-2.3185846902067997,0.2512967614258336,0.3314550090996594,-0.007671299241306507,0.9320738365104788,nm,0.0
27.251383781433105,132.75408773036003,-4.854143723146127,-74.47223986769957,2.5430151685919955,-1.8942270305552893,-0.3980542809740754,-0.03880251568436657,-0.06132863586012348,0.388520600931099,nm,0.0
27.27589774131775,131.45931386867832,-8.52645201530372,-77.05012537291027,-2.643237550747214,-1.0842050209193288,-3.096817356525726,-0.43424511229554386,0.021201142974978122,-0.4252981066279375,nm,0.0
27.285799026489258,126.63445251333762,-10.526129006372264,-78.81053982807015,-4.4150816016436725,0.07771712021880917,-2.988555745731668,-0.5785288449486874,0.841692083367461,-0.5166332494331076,nm,0.0
27.292070627212524,118.36671611359512,-12.114806131873195,-78.93418890790049,-4.6764167617513985,1.105267819480775,-2.842867164012461,-0.6135583663175281,1.5242671426259276,-0.3553661151338996,nm,0.0
27.3036367893219,109.7039860626889,-12.939237734402898,-76.9771521993733,-6.600355627703464,0.6943634132065626,-2.182724130088221,-0.5112417379338118,1.6117390333203718,-0.09602039493766598,nm,0.0
27.31336212158203,90.65846505778252,-11.529962295897047,-74.5383983170477,-5.409138449946056,-0.4808684252013169,0.39810099945528105,-0.2688098834443032,1.8680422416058915,-0.30131710114556093,nm,0.0
27.331530332565308,83.76431331067685,-10.36196561034953,-74.72322309831098,-3.586666430043423,-0.8085084650185598,0.9028419588650338,-0.1286594232675434,1.3605583309026086,-0.3238537699751918,nm,0.0
27.35014843940735,79.42381643428888,-9.388785202741998,-75.39641612358726,-2.777678310225385,-0.2599898868814824,1.4069544908581981,-0.02909399455614952,0.8692027362328238,-0.33730181710237733,nm,0.0
27.368767976760864,77.16091028361377,-8.330034393921528,-80.11506050021185,-1.682749476961809,0.5252807909366317,0.5859736471555015,0.0977865024452189,-0.058033984980966354,-0.5290302768100462,nm,0.0
27.37104630470276,78.90520669183513,-7.743816157906557,-82.1834084830614,-1.8190496383800148,0.8386853435640812,0.48798042520818596,0.17302475603293005,-0.3321794563606454,-0.37630310985014126,nm,0.0
27.378366470336914,80.81419640506155,-7.067370705407734,-83.61990019049942,-0.464250866153701,0.8066496989128271,-0.4781491362372495,0.18529218655106297,-0.3678326433575105,-0.2493664826378002,nm,0.0
27.38885188102722,85.7415194992183,-7.101863327450652,-85.65364096191095,0.48171673251807584,-0.405600949778807,-0.25292766899901176,-0.02299475041080828,-0.4488682821759091,-0.12570479298716644,nm,0.0
27.40466570854187,85.72644351285123,-8.05508277698796,-86.26399263568989,2.567300321821293,-0.541321490583383,-0.454994507689206,-0.1859563411910842,-0.019148501772357725,-0.1330695175416689,nm,0.0
27.40980863571167,84.04125084476836,-9.520323761611941,-86.61089702228996,3.637381918181859,-0.6614566767464581,-0.4338890271171416,-0.31071176163063174,0.3041756993623202,-0.23388201716130005,nm,0.0
27.439526319503784,67.04692664361792,-11.649268681152888,-85.43358535471555,2.4612406404637968,1.1243706418247206,1.0325150668221024,-0.08921266483418118,1.6297361028172554,-0.2589090445626488,nm,0.0
27.488000869750977,27.22012374363846,-7.265189030532353,-84.90772796219014,3.028878838321715,0.9073844063444368,3.474762043384158,0.044144733522292715,3.0748245648791044,-0.3802892709681481,nm,0.0
27.49136996269226,-3.2690251591446207,-5.391436320497558,-81.9022216026691,4.886800527902059,-1.1429800112150086,1.7034246358905476,-0.1528598442906679,2.8904059550325867,0.09390099767314322,nm,0.0
27.494855165481567,-16.168777289795493,-3.9664582191935485,-80.07366100581265,3.5670756520604248,-1.5875946373952086,-1.705237162010226,-0.13352583520194405,2.5783284489554625,0.15268029883662843,nm,0.0
27.51254940032959,-23.900833535215718,-3.768542467523054,-78.8260757520051,0.36182692029559516,-1.6189170171754232,-4.8270996614155814,-0.25476397901461334,1.5165618044504872,0.14546335470662988,nm,0.0
27.52282166481018,-24.00117833088501,-5.951396341824968,-77.70922981834782,-0.3379747807675576,-1.457275838486646,-5.250006829006549,-0.44273709725903315,-0.0791510621607443,0.22260342938864214,nm,0.0
27.542035818099976,-10.03212104777282,-13.31756325736144,-75.55493938783009,0.15979813202707563,1.0016710558620954,-1.3790048231025585,-0.3152183142150574,-1.7761393732028166,0.5105280949563316,nm,0.0
27.55119824409485,4.448381848015346,-15.680218901498666,-74.27053661418738,-1.2965517880357573,3.1660824258122586,0.15066420130188526,0.2887637155695125,-2.8433238843029534,0.8137170592161614,nm,0.0
27.5542414188385,25.578368724612037,-16.648680860425188,-73.72529779624169,-3.599064377638485,6.699662944120214,4.823080238608745,0.957801125933913,-3.9653899200293417,1.1267141166284564,nm,0.0
27.559600114822388,47.76446586317729,-15.615836865574611,-74.68152851957211,-7.39787517533544,4.296922165460886,2.777588001509264,1.3823844778916787,-4.053144927141303,0.8943696239812314,nm,0.0
27.585312366485596,90.89572584733827,-6.0502885511666324,-73.61874491573533,-7.065616412861601,-4.079005678947123,-0.8405833406076396,2.1759489149023516,-3.747143694813966,0.9334178262926901,nm,0.0
27.58868670463562,107.7499601795832,-2.2890745119827587,-69.96377787247944,-5.033455061340813,-6.8284710900008765,-4.272633871766223,1.7734179585091405,-2.9689249768284562,0.9626084843114405,nm,0.0
27.61335587501526,130.6911003406409,-4.687590589236863,-69.12253210662698,3.058403265846144,-1.6004308180182858,-0.7972408317809218,0.39190033761566734,-2.283077269893546,-0.23528630122376562,nm,0.0
27.637381076812744,145.69701157252183,-7.690016961981854,-85.99021720435546,2.628977371162977,2.080903190034033,-0.07542578864529058,-0.008231991072717902,-1.0340650397614033,-1.7916881904721131,nm,0.0
27.6397647857666,151.18836663949722,-9.11865475125201,-93.56359131461224,3.088943655882012,4.123832392642669,1.0735534037814283,-0.2702460911682959,-1.097195311789304,-1.354306427924005,nm,0.0
27.649367570877075,158.4216558747588,-10.616113296220789,-97.24611045348732,2.5316501735368484,4.936866929334434,1.577285323506421,-0.42128293289925345,-1.4005116683933152,-0.48630859281029765,nm,0.0
27.675410985946655,177.16620978078492,-11.983127560159641,-91.9589501586706,1.817027237814452,0.8512146133741098,-0.09713190786356465,-0.33541758000780886,-2.0400945403893767,1.3326825627866992,nm,0.0
27.678252935409546,-169.4619837268859,-15.294333970807672,-85.83238500935627,2.455729867423804,-1.8525419380151293,-2.239575846252324,-0.6000133373931551,-2.6205860053291543,1.8607678557800698,nm,0.0
27.69400143623352,-154.64839053085825,-20.022587723765422,-80.95806440747855,4.519411982521079,-3.7487392557566985,-2.733252585791339,-0.6025269240977648,-2.920617488192953,1.881116849447658,nm,0.0
27.6974995136261,-138.7858298417312,-24.1211673834867,-79.5304892728372,6.376003763118734,-3.832545135265041,-0.7076511878276935,-0.2998140338097788,-3.0405096711910153,1.4903231838365352,nm,0.0
27.71983242034912,-102.94468292554772,-21.301437467705806,-83.1437482862493,2.654372502699467,-1.4255985680025447,0.06725715403609091,1.1639013666308526,-3.14218847030013,1.094481630728699,nm,0.0
27.729226112365723,-88.53120720557472,-15.139805026213809,-80.99256564995686,0.5057999721071871,-0.04981816678407264,-0.4745352565848896,1.5900000621455985,-2.5525682546341213,1.3444397349605337,nm,0.0
27.74997043609619,-65.94161491697088,-9.132416466026596,-70.27028061009425,-2.2699391576485395,1.7122709164591985,-2.0095434602190188,0.819585646354008,-1.9724888120971786,1.4668247041294773,nm,0.0
27.806529998779297,-22.080381452019896,-20.879439328029683,-75.88044783216644,-1.305710334925682,1.7679422876178057,0.1450179816336977,0.32549492580781764,-3.568983024495309,-0.04578695757357772,nm,0.0
27.809255123138428,-0.12185021073620989,-20.156607043521294,-83.64433071899965,-2.509594222453655,2.632130171536468,3.336939282399107,0.8618263252803163,-4.034779985311423,0.0016382715618402856,nm,0.0
27.811673879623413,40.554740427633654,-7.493476224534717,-88.46747666840912,-7.7876536297095775,0.468474782950161,2.4669212172005652,1.4926944552245036,-3.6287340728530664,0.7180120685496377,nm,0.0
27.813637495040894,58.08019955317821,-3.0416170641149667,-84.67749060885906,-6.452280014947573,-1.6724865939718165,-0.3647244811446931,1.0917844531966643,-3.4459500347858016,1.0628319268479247,nm,0.0
27.833438873291016,87.00271351675359,-7.437898851202497,-78.84002274541255,-2.5936394363841537,-5.04934028381617,-1.7445609177987305,-0.38859299125193625,-2.564212481060725,0.5097187565935317,nm,0.0
27.837310552597046,95.55112034183388,-13.419489819991732,-81.3328066639941,-1.0953764497772867,-2.8356145425762853,-2.0464264401215497,-0.8807680992628474,-1.873370704872476,-0.1962958822495268,nm,0.0
27.87624740600586,106.59278241681423,-19.870099526321464,-98.46101515758865,2.455806671170736,2.7955156970439665,-0.9519822035679111,0.11000043620953158,0.3526279031068101,-1.1084070257568546,nm,0.0
27.878426790237427,99.01943893689057,-18.353186014927942,-99.57716613460616,3.787694688909082,2.281122383491796,-1.5993930713075586,0.529133451694081,1.356244768815841,-0.7272165435701708,nm,0.0
27.895726442337036,90.07857235784395,-17.43899987589609,-98.00737565591325,3.5517336827812587,0.7507412482744061,-1.9983305474913449,0.44457819271892424,1.6442591147495267,-0.24503888653331765,nm,0.0
27.904484272003174,80.9158040041654,-17.65372149602942,-94.58152384325794,0.2237985233374493,0.685554895396247,0.4403075663176681,0.15166327632768029,1.7322132170450848,0.12227617436691593,nm,0.0
27.933813333511353,44.762501940572456,-16.479694808353624,-84.7910775898476,1.0164163566932163,0.04395512904287015,3.1974255865006107,0.016947435874442893,3.9456507362685582,-0.2497994750410018,nm,0.0
27.937997817993164,6.08122725306591,-10.882860474417546,-78.71654325806335,6.763943886548147,0.8075879472201245,7.481391306376622,0.0005359366264897378,4.011729249793001,-0.4712661754353373,nm,0.0
27.972089052200317,-31.852603862533503,-7.497366230866104,-80.27742481491056,4.794951237037748,-0.06845828491480908,-1.044300630335519,-0.5720835971733336,3.3058434819474063,-0.6960661432661601,nm,0.0
27.974274158477783,-45.12836358553192,-9.805865049256642,-81.1316906257309,3.2774070845541496,-0.35131332107103286,-2.873296343748896,-0.8893073218691682,2.5117616257412774,-0.564706934358895,nm,0.0
27.976903438568115,-55.78601911432327,-13.28366096744931,-81.0095758739277,-2.646286883892606,-1.7754886900129483,-4.36393693142692,-1.0203270752747464,1.9510261478525615,-0.395017087419031,nm,0.0
27.979031562805176,-60.80210152546233,-16.401906819914636,-79.89996879734971,-4.461915905023309,-1.3684934566865914,-4.140180815657327,-0.7855200056338207,0.8474295798259956,-0.026393854536160194,nm,0.0
27.9944064617157,-60.766032301781166,-18.676525637584728,-77.89894924628989,-2.105062928329406,-0.3452394679521471,-3.952421786897626,-0.4546266757395007,-0.1011765788217551,0.41199683477510674,nm,0.0
28.00017213821411,-58.94545281328697,-19.84203962530323,-76.34939105915981,-4.028490775127172,-0.32130639968452723,-4.3341141977573265,-0.15975619857034146,-0.3944554971914101,0.43959435331176755,nm,0.0
28.022683143615723,-42.15714103670705,-18.67019149506294,-77.81135301252161,-0.6394604462209978,1.676337964405649,-3.19692855512358,0.646700300040692,-1.9298150873480704,0.4149287171301437,nm,0.0
28.0300235748291,-29.708907850823625,-16.88062079759241,-79.92949695254269,-1.4810290655393552,1.6572824595083477,-1.9255416020531777,0.7975707182185124,-2.269019906292661,0.34206823997124136,nm,0.0
