timestamp,roll,pitch,yaw,acc_x,acc_y,acc_z,gyro_x,gyro_y,gyro_z,markers,motor_input
23.046605348587036,-8.31333146234234,31.844051421886068,-71.91454170783051,-0.29948652831323175,-0.06730149704324632,0.14563972368542158,0.03138614794896657,-0.07308550248307825,-0.046943970117906596,nm,0.0
23.04897665977478,-7.888210830089206,31.951227970892408,-71.87330924879612,-0.3189975498139282,-0.07572411043669817,0.18096764215967406,0.032931575123332626,-0.0700009762573871,-0.04357103881114714,nm,0.0
23.055328607559204,-7.521876769580748,32.07773485916464,-71.84773742148062,-0.37733492832465193,-0.06809516918509553,0.15903897524406235,0.03351826362906994,-0.05914079643335033,-0.04068707649156836,nm,0.0
23.079872131347656,-7.11832733379236,32.43965333292674,-71.95103466276574,-0.3395133989711525,-0.03528050332266038,0.23924871955803784,0.0,0.0,0.0,nm,0.0
23.09813165664673,-7.3083003482913655,32.65307537958606,-72.18667433572709,-0.2381006919346094,-0.02773800050226898,0.34400606649445825,0.0,0.0,0.0,nm,0.0
23.10135793685913,-7.930473036740788,32.9078189134538,-72.51052465077602,0.009826322299765397,-0.02162513178397083,0.5446477777121563,0.006886450907746755,0.10754910727489088,0.013403980911725894,nm,0.0
23.116605043411255,-9.232709571357818,33.243572861528214,-72.89957637553867,0.36635406532702075,-0.023974220486411037,0.770562803799656,-0.010731498410985325,0.22086992314451837,0.07606848012082283,nm,0.0
23.13609743118286,-19.117743472179725,35.158813102924924,-74.03629945352264,2.045670788359438,-0.23319559279793614,1.1170924408060847,-0.03235035011382933,0.6605122759313199,0.43301335760517085,nm,0.0
23.15781044960022,-29.194490244787566,37.34991883142192,-73.54707657186715,2.4051076157549027,0.14397625824829957,-0.0803880541174435,-0.02495691093530537,0.8819596688904282,0.7549971781527055,nm,0.0
23.160280227661133,-33.38756722037159,38.566101519964995,-72.647725539135,2.340325109399467,0.3180885753866395,-0.6603385786416346,0.03145469775090056,0.6940813434645318,0.7131769979495537,nm,0.0
23.178913116455078,-36.35034940106531,39.78320935897497,-71.55934987315203,2.204225937195241,0.5236605917916483,-1.063140497999931,0.08150134127316791,0.5019150444243162,0.5947214606353495,nm,0.0
23.182839393615723,-38.07777503765885,40.77503088185123,-70.49602441451721,1.3918342925984921,0.6556125503266051,-1.451605273233355,0.09307590858658193,0.3031506224396759,0.4239984919427797,nm,0.0
23.189536571502686,-37.832445532160435,41.20025138634397,-69.30795300597312,0.7804408385840838,0.7881092996255614,-1.5305032389943314,0.08408676524916765,-0.01670181027803284,0.173752993076398,nm,0.0
23.210765600204468,-32.00749206647818,40.17956822971662,-66.66619489405846,-0.973611899140631,0.8992906729287702,-1.3063702690375514,0.07731281038008474,-0.6078923262414831,-0.29147402095882163,nm,0.0
23.216628789901733,-25.591417613336414,39.06372896701723,-65.2200991957678,-1.6383385900417258,1.2513492190359687,-0.964545028681247,0.1936309589513784,-1.0048796480247937,-0.6002121368124128,nm,0.0
23.22939658164978,-16.322712940944783,37.637325194884895,-63.62910298657675,-1.4128632429332932,1.3115117909989116,0.06477112881935246,0.36789511317519635,-1.44455987806549,-0.9274904893088934,nm,0.0
23.25461745262146,8.015560526939716,36.44512380760085,-62.08662559895946,-2.5020767581623016,0.24574088863967913,3.1334926469334667,0.9699832308066156,-1.8797545131605424,-1.6168352259382497,nm,0.0
23.260223627090454,22.81670266676248,37.298870294029065,-62.44828731019725,-3.5318940103828713,-1.1981456759125717,3.6097099363908507,1.2575534612663697,-2.01850396849517,-1.98048813062882,nm,0.0
23.28343105316162,56.1933416639464,42.671193686226765,-61.93582614568994,-4.905395027497654,-3.9079662608868384,1.4966361800981975,1.763582289911309,-1.9499980822258247,-2.1510681127998597,nm,0.0
23.294085264205933,84.93630352258437,47.54919751688153,-57.30217470152087,-0.719474248680143,-0.9709993589606553,-3.878602306626162,1.259329996919265,-1.4145682795418681,-1.5170913757270885,nm,0.0
23.313130855560303,94.18232654766078,47.010596630657254,-56.901684680636095,0.12545829729021413,-1.4103419663055723,-3.401024413857101,0.5949614626103817,-1.107209338334929,-1.2926670994168077,nm,0.0
23.31530475616455,95.74726868365288,44.97616397085146,-59.54203229179028,2.577941631686992,1.294708812410638,-3.1337887378060647,-0.22790151598902925,-0.3948759400603639,-0.7664421804646523,nm,0.0
23.32001757621765,93.09186772166787,42.179078763392106,-64.11258042530854,2.3688052367754007,1.71170062575909,-1.4280396390039694,-0.6717569297226713,0.07878145450153773,-0.5610515071245095,nm,0.0
23.340300798416138,88.0973956006071,39.88908748322442,-68.42803989132821,3.0246958676349096,2.7971619034928006,-0.476005002007879,-0.7196894614185252,0.5089105667477746,-0.22031038724763885,nm,0.0
23.34253191947937,81.54811817711892,38.763925624011506,-71.17285395402784,2.3010430934169785,2.4492289232334277,0.6266328027194856,-0.5590142309406195,0.8765449412608367,0.26805664624486636,nm,0.0
23.36549949645996,64.69782290103485,40.270888347021646,-69.80997426571727,0.9364625654147134,0.9377981726610215,0.6715904551450661,-0.16564508812229037,1.2856222241641693,1.3946409349664632,nm,0.0
23.367852449417114,55.00838041689527,42.89525392917543,-67.09003442731503,0.5864675812107862,-2.240579992501161,2.940727116221926,-0.048613733859210556,1.5455748146775377,1.8173657958376361,nm,0.0
23.390719652175903,25.58179439157982,48.004591923090715,-65.27610031832303,3.255885350562753,-2.874516123136044,0.7927772998716299,-0.48036108027459423,2.0308382409142665,2.2231496535301467,nm,0.0
23.40747046470642,12.223342870904142,49.181340991281694,-65.51984973186167,4.78015456009896,-2.055045967931316,-0.06473024625474898,-0.532811230690487,1.7033549754128336,1.9478010621674444,nm,0.0
23.409766912460327,-0.7981158036603645,48.96992552409604,-66.221111437942,1.5685956758083242,1.0272184408529237,-3.6175464632680043,-0.7468555068582163,1.5362286808226435,1.8220393535285473,marker_1,0.0
23.427207946777344,-6.295446186146788,46.600244029520766,-66.07417041428023,-0.6465481695198412,1.7492542012649324,-4.380697025093397,-0.743056459657576,0.47800152419785386,0.8373778275512404,nm,0.0
23.439101696014404,-3.5311050787496465,42.92615902960397,-64.97422735666451,0.024128755083973837,2.1405048275171863,-2.3685449083322165,-0.5164618637515863,-0.6699082411415977,-0.17774661622831192,nm,0.0
23.44095730781555,4.009383995694109,38.54425425772438,-63.58211778582998,-0.6468758011457135,1.7360217568187504,0.3638314877200164,-0.30177587063872013,-1.4183571677527957,-0.7163396441926542,nm,0.0
23.45819878578186,36.88543683776746,35.217839903658074,-64.10370988321108,-2.9969272277996053,0.5764583384836374,9.785572463032796,1.3106068923254888,-2.736483539476994,-2.4265151164722405,nm,0.0
23.461435794830322,51.56319220417886,39.02505656022362,-67.00840897977575,-6.527531089570976,-1.893960788542937,5.254593094544165,1.658332116864741,-1.8215275454633275,-2.368449812568845,nm,0.0
23.474748611450195,68.78259702691732,45.77265494241844,-66.0783254097935,-7.713082961314972,-2.6522740900242447,-0.3241040975851097,2.243707668499224,-1.7991428366735351,-2.1565602881818835,nm,0.0
23.48697280883789,92.79787709710666,51.29741660117631,-58.75760841786733,-5.550251664487572,-4.238310550179009,-3.256801199176161,2.4383099019946632,-2.3048980018329748,-2.163239550491531,nm,0.0
23.499337673187256,112.50991346915148,52.5642458583607,-50.37850620053406,-1.22489171350959,-2.742025049322119,-6.221601238002559,1.6171239361197096,-1.8240553385440674,-1.4462469571319725,nm,0.0
23.519333839416504,125.67863549429417,46.401754637099096,-54.359811775367916,5.900244201367845,-0.23872248220738457,-1.9171690307503382,-0.26717507604301083,-0.9126916617812715,-1.7270566766691067,nm,0.0
23.547789335250854,128.23133628574945,39.59298733274595,-85.07910509576212,3.4908790687660556,2.510981155290573,3.3108175977537946,-0.2068948294336862,-0.08640105600376521,-1.7523825445295718,nm,0.0
23.55121088027954,134.94537561259997,40.20250368271758,-87.9316885619949,3.5322938425239165,2.0523140926283387,4.2996958914042205,0.1961867425777846,-1.0245857769727413,-1.4410322075447373,nm,0.0
23.568618535995483,166.95347698486768,44.23064815326427,-75.71637794089739,0.5800296898056994,1.3265405817136653,-2.134719951999511,0.7117059011571103,-2.5562044401601254,-0.6677280282644792,nm,0.0
23.598732233047485,-161.92851324444317,35.852568744877956,-59.49864469163213,2.950041824220274,-0.9192475221209193,-3.429590157154811,0.028722364313843805,-2.255886001345094,-0.43027391909915874,nm,0.0
23.600860118865967,-156.3413134272117,33.92961145550201,-58.19518060205664,2.9862301568906684,-2.030487471077903,-1.4446182162410084,0.1580540888463426,-0.9891004880593386,-0.37530090229293783,nm,0.0
23.604666709899902,-156.81604698674366,36.44312889452192,-60.022238371327724,1.6814657433705906,-0.9538617886870732,-0.592470100791438,0.40532422324732775,0.31948777544235163,-0.3082005463622612,nm,0.0
23.615201950073242,-163.80164556440258,41.79819325611955,-63.87822201475293,-0.7924840461250522,2.4316295786950404,-1.789509786037453,0.4487812089871665,1.4553458971221684,0.11213552569056445,nm,0.0
23.6396906375885,161.27832009030757,46.106432557663986,-72.41997082980193,-8.524550737699897,5.097923995326127,-1.3549332148240372,-0.9218126268050559,2.603223890868088,2.174011475259157,nm,0.0
23.643914461135864,141.85016623136084,44.14817979757178,-72.42558930335814,-10.340158236155341,2.818569911562544,0.460703754299462,-1.1864158753006386,2.498392892901757,2.7474187344571717,nm,0.0
23.655396938323975,124.09667474063036,42.97832303172374,-69.87935098892407,-10.422623158924424,-2.6365205130141227,2.1408983681364844,-1.0424544413480044,2.3666694757005518,2.946918666605559,nm,0.0
23.66353940963745,106.06962611342729,42.92433233667261,-65.56159525197634,-6.057546376198927,-5.987190940290458,2.4011756921702023,-1.005921667056364,2.448507575131024,3.307565024300631,nm,0.0
23.68430256843567,74.10851781896426,45.93755803188367,-60.149316367842644,2.9673352429915067,-4.046756275051325,0.6893666518244778,-0.7096177942029064,2.091221033191107,2.43641500128422,nm,0.0
23.694512605667114,56.5052060400478,48.36006551924415,-63.78725397797426,4.700326115121503,-1.0221938118766862,-1.0653435779676317,-0.7048440091488029,2.3428492225797224,1.844564674138042,nm,0.0
23.700820207595825,37.29900403753141,49.19064379807146,-72.10800624474088,3.6965648096832426,-0.5447647686648546,-0.8306696657813053,-0.8041031054880076,2.406915316629654,1.2209902243089656,nm,0.0
23.73539900779724,-0.8802985720671049,39.86792087203678,-86.17469296071516,5.541252580816719,-0.7883285602961883,4.536886855097675,-1.595971714641668,2.6426060249762005,1.6159544163143142,nm,0.0
23.737638473510742,-19.300371752622958,33.65300338001275,-85.82840613412733,6.8345542895973335,-0.012400587820129762,4.4718649870339755,-1.4495641067145528,2.857946887995008,2.2735173079736053,nm,0.0
23.739871740341187,-36.226791338676954,31.781481994275794,-82.0444561635626,9.343264935276258,1.7404147199551805,2.662841535133887,-0.6832599482403123,2.7910588194150994,2.5845480256109137,nm,0.0
23.756303787231445,-53.339590560425286,34.63832779300978,-77.34871028132893,9.188859596176863,2.724707256982833,-0.7339676648465828,0.037214615839421636,2.915755526313784,2.8133872771841633,nm,0.0
23.758223056793213,-68.85423224855488,41.26579816970094,-75.19655354267185,4.892035107097338,1.6574552111070178,-3.336930287413373,0.6948554812894776,2.682893434713044,2.3425806875298543,nm,0.0
23.776888847351074,-81.08917836143063,48.784804703596336,-78.36373920356954,0.7710115081987933,1.5218663217409414,-3.9745327233445042,1.0604384821369726,2.015054615476856,1.1038055921670968,nm,0.0
23.794251203536987,-91.81715516209712,54.12482314841425,-81.3212616382953,-6.781630927593984,-0.3005356000967918,-1.3843552218167607,0.10935683933030883,0.1331212613371892,0.5871131599780771,nm,0.0
23.796416521072388,-83.96483906782859,50.802963172978366,-73.59908871560646,-3.4479209684720304,1.458425274933992,-2.717357952326809,-0.44365179846865554,-1.0926260176065112,0.298930898148947,nm,0.0
23.804671049118042,-77.40877991900561,44.058169867767816,-67.80452314870112,-5.982238407274691,-0.5641761112628714,-2.354568916056284,-0.9830019953674948,-1.298296135633662,0.19273300740290963,nm,0.0
23.831849098205566,-58.34331704308492,33.2039031022869,-64.33507302895403,-3.843412044648772,1.8948047148993155,1.1303475131523153,0.04830628799430187,-1.9122768913440582,-1.068254700863414,nm,0.0
23.834217071533203,-46.26275215859463,34.39259860898235,-65.38025865954916,-4.65059279018886,3.6186423695648258,2.278866826231577,1.0624869740459284,-1.7323885709823426,-1.5548648230036026,nm,0.0
23.868817806243896,-27.683113587997383,43.485807773507,-72.3696401627781,0.1278518749703892,-0.7741467552596991,2.8384548371578324,1.2406481936556477,-0.5227970477874857,-1.6940838180567406,nm,0.0
23.87116026878357,-20.868520542449332,48.418045219085236,-76.5165899081717,-2.5458665220107473,-2.2024625492348178,-0.3394754490759598,1.1956193729490023,-0.6578281086042069,-1.817063954888179,nm,0.0
23.87592053413391,-8.314595068721435,51.684855112903726,-78.12664943854628,1.578673786010249,-5.124599994104097,-1.6826745038554558,0.9798035392084294,-1.4377076232262258,-2.258190274862436,nm,0.0
23.890589714050293,-0.07970306780113309,52.744439092232305,-76.50456761443688,0.3621682420960734,-6.476079091075214,-4.340775210237718,0.4177329888626426,-0.9423643060782118,-0.9883245211849846,nm,0.0
23.89270567893982,1.729138235177318,51.12299587593544,-72.05249297653644,1.1445153502977836,-3.2137013747533767,-1.1151888407313144,-0.26286685101765234,-0.30664342564360353,0.5972258083798558,nm,0.0
23.922332048416138,-38.344332478546626,39.96408181732874,-74.97138304119731,8.107591278006737,3.706291952232485,4.4345070270354805,-1.480090846247566,2.9802304491700684,2.157439448343219,nm,0.0
23.942567110061646,-75.66778035095847,33.098747329351646,-76.00606260635266,8.013146742606784,5.393179616938994,-2.73631117346571,-1.1213128320729144,2.518867793810066,2.25554845299232,nm,0.0
23.961891412734985,-94.2405526250489,34.01666144810704,-77.00839385127806,3.390151317168372,2.171149490159553,-5.203020831735789,-0.5239115146896022,3.046589079768453,2.0339733148190913,nm,0.0
23.96423649787903,-110.08110377096352,37.544702151087044,-80.89407112789141,-2.505891923369942,-2.4519799494154104,-2.805965953959873,0.21416638982579095,2.6436054941074296,1.2279587470698752,nm,0.0
23.96826434135437,-119.83651061329758,41.76347693570567,-85.8046570571279,-3.889051864371993,-0.8204962101866649,-3.5241382056569015,0.6656398237948428,1.5767369279372065,0.2694108177525557,nm,0.0
23.991607427597046,-128.33806150700468,45.61463914634371,-85.07942210856858,-5.1537730474625345,-0.6051890721002007,0.15747956262710044,0.21697977806400148,0.13480553626248354,0.7368716890096437,nm,0.0
23.996793746948242,-125.86187247079914,44.72842033656723,-77.3584705691568,-5.477881596043715,1.3996776531495039,-0.4401681753928849,-0.11721801906199558,-0.38501210669038266,1.197713004134638,nm,0.0
24.006001472473145,-126.69106861524068,42.59588663501541,-66.45886905738995,-5.545522574415705,0.8012300361318163,0.9898048954006392,-0.4371012096223433,-0.029564619803552353,2.3007863300473437,nm,0.0
24.02025079727173,-129.56408608692394,41.3308338824536,-56.84505698887806,-3.550886637695309,0.9271030881642341,1.5987980434314641,-0.41739273796090326,0.24720100972887943,2.3135687574933628,nm,0.0
