timestamp,roll,pitch,yaw,acc_x,acc_y,acc_z,gyro_x,gyro_y,gyro_z,markers,motor_input
26.537415027618408,-177.58954498478502,-10.152850920538178,-88.32113503541613,-0.20537932793575572,-0.5273688944554675,-1.107392064031766,-0.05438707733849891,-3.2012532662275,-0.01936472164219298,nm,0.0
26.539937496185303,-156.34991935256397,-10.003850898417879,-90.91735207029458,1.9268151998496252,-1.0000189306639453,-7.346518225222811,0.0656579099679742,-4.190219750926597,0.2401985597045152,nm,0.0
26.58779501914978,-91.03260173247932,-1.3722517223628492,-90.60314180154886,7.533850801765333,-0.46968066509629325,-1.3501593769931926,0.5979276019545786,-4.348362749677543,0.5434601555001329,nm,0.0
26.590087890625,-71.82579226151843,-0.21973690199814927,-86.16068682723845,7.542473684302319,-0.0318189058458242,1.3598114211841068,0.32912884049074004,-3.84644271126518,0.9437898628986637,nm,0.0
26.592685222625732,-58.257473466678675,-0.918244283614467,-82.7977960998835,3.6588245777245945,0.719910044877536,2.8527597244887977,0.11334147262595466,-2.7266758696026985,0.7041931170333464,nm,0.0
26.604456663131714,-47.59089527844458,-1.930431290369772,-81.61132343427896,0.6882583888099596,1.692347464362123,1.5527345210246435,0.07912735104700352,-2.152040210383731,0.2951253246770077,nm,0.0
26.60744333267212,-39.94271281390276,-3.7314743440127502,-80.99303353879435,0.2739502114303966,1.7684980950912064,1.65405279972739,-0.13537790206709588,-1.5757464056695958,0.20305298251604087,nm,0.0
26.615008115768433,-35.8472409210147,-5.4235127696409124,-80.51345078126502,-3.082431516734103,-0.256899107647119,-0.23373120705497613,-0.21378732417827392,-0.8704949995290777,0.1646033016645108,nm,0.0
26.662028312683105,-29.646135575410423,-5.426730880917613,-79.82600029870447,-3.9212452655465944,0.34384093024695433,-0.6448949563930022,0.19956485811283087,-1.2277013009372568,0.2568664721695864,nm,0.0
26.664682865142822,-10.790565933996625,-7.065834364317715,-75.47428964440292,-2.3898253406159724,0.38054438217667713,0.7059099510795035,0.13949793943784214,-1.90082338510404,0.7074958099306948,nm,0.0
26.66970443725586,27.60180341357058,-11.721316831911828,-72.1200728501368,-5.081779893400223,1.8002175924334611,3.3105282454945573,0.4385894405984995,-2.841274073495032,0.3939586529066706,nm,0.0
26.697833776474,51.347052476171825,-10.086517171475192,-75.50956477232864,-4.954838101855833,0.5494520937951918,0.21047532959651197,1.0169141704020075,-2.0439876966210186,0.15642163366408718,nm,0.0
26.72228741645813,59.84316074948638,-6.347690470048526,-76.61657642439913,-4.00675716763249,-0.046908231114782706,-0.4072400733491198,1.1317710307764546,-1.4634075313138375,0.010403415456615878,nm,0.0
26.724713563919067,66.07655849884111,0.3375928090116263,-79.49208480897128,-1.6635715281842007,-1.8347122952919348,-1.6748692996678562,0.6410637105741804,-0.26869305415409994,-0.28535186756017533,nm,0.0
26.72809648513794,63.52606949105208,2.0257455514692295,-81.84553716023187,0.6910934628145811,-0.8811125484243612,-1.9952681899253082,0.25109816331521023,0.5517345030883546,-0.47334770353533917,nm,0.0
26.7401704788208,56.581503955332444,2.355018046024428,-86.18639312401305,1.040007670128195,-0.2975172712942724,-0.2292794817914174,-0.0812340873647697,1.3821945882766484,-0.827464751524815,nm,0.0
26.803534746170044,21.14126427963554,0.20522061640250006,-94.33859225494005,1.7134317498379226,1.2767432564767858,4.465828813744586,-0.1041382107487914,4.155404190861525,-0.6214394367134608,nm,0.0
26.820303678512573,-86.61747391174322,0.16647647785879927,-88.97932717479164,3.4965496231299924,-2.414160595941583,-5.975687533848138,0.6806575609769733,4.071439945695356,-0.14749666240424128,nm,0.0
26.822922468185425,-116.7089535402813,1.4167411780877022,-87.88532478200338,-2.1561081101494923,0.19882742974628978,-4.918569829424231,-0.23024542796853334,2.715158727148787,0.37214429420499456,nm,0.0
26.83800220489502,-129.73351691760092,-1.9577763615120618,-84.31045837202844,-4.783823613028422,1.860904816870073,-2.6487309817962705,-0.8451581117700652,2.5494443952292376,0.7122037119631592,nm,0.0
26.85561990737915,-159.78629106385037,-4.809307470738486,-71.46084456620153,-3.6691501585440194,1.4865186758733078,-1.9340496539668044,-0.9060647296741025,3.1374562019927463,0.9375725354829987,nm,0.0
26.86173391342163,-172.7444249122607,-3.9139543360149602,-70.61476380724999,-1.6755147569275988,1.1228912448063748,-2.1588741973941934,-0.6591050272178834,2.5006272013965036,-0.021619969732643757,nm,0.0
26.892250061035156,157.00628888941236,-4.778099483968726,-77.66158535565917,-7.650761223828615,-2.4181629794219064,-1.9875559324379775,-1.1775547034323008,3.7546007001245534,-1.067524519743316,nm,0.0
26.894729375839233,138.6660270617783,-7.702033925924987,-80.87549401612472,-3.661239762499901,-1.2755830033455053,-0.8657129649223267,-1.2376228770189481,3.4727439982545767,-1.0394960882098918,nm,0.0
26.89704656600952,127.85549945420264,-10.534389915327976,-82.44279155940664,-10.397467772512154,-0.7687281535070281,-0.24864149969189,-0.8578313409371494,2.0254888105394344,-0.6600440516043776,nm,0.0
26.92119598388672,98.5687905627858,-7.123913317198943,-82.79237226143564,1.3427111791944688,2.4330471952032595,0.6055897170631118,0.3219656168172918,2.73230203241405,-0.5221240542729416,nm,0.0
26.954142093658447,86.93936098285896,2.6851198676745125,-87.41576389478124,1.6947233333226677,0.8040073792776462,1.9094420176627322,0.8971559487924846,1.490971992902882,-0.5060014915239232,nm,0.0
26.956268548965454,79.37854182408678,5.612752940729541,-89.54119229833982,3.4833919278441967,-0.382389949818206,-1.3911066416452915,0.5479750728759161,1.5189412802008355,-0.32828018342699844,nm,0.0
26.958489418029785,77.02424622645701,5.218833925464964,-90.03892960545276,1.7398050392773758,-0.6673963554141171,0.7085606332475098,-0.07829006086696841,0.46273425407978686,-0.06791935920719738,nm,0.0
26.974907875061035,72.3798698702514,2.179850853898654,-89.46118008976744,2.506882338397785,-1.1309919763110121,1.5861334973768852,-0.6109185583090734,0.918576564348071,0.1632286561910241,nm,0.0
26.97726607322693,64.86943455584121,-1.837128158828265,-87.64834802950651,3.989621066451814,-1.3679262867696345,-0.0278943113761446,-0.8409309115034558,1.4757439967655417,0.3549160045891572,nm,0.0
26.982170581817627,59.175331632524994,-5.144956735448789,-85.02838390258296,3.344426919526164,-0.15636729088778475,0.9996874406635645,-0.7339467150276369,1.0851861822907114,0.44315251922930937,nm,0.0
27.01290225982666,28.85678465394629,-4.22029299085705,-84.36584529262923,3.125638853909079,0.46683689316479865,2.13735218196648,0.1802195949880546,2.4288320920014836,-0.4661891477153827,nm,0.0
27.030166625976562,17.25184534330954,-1.800924236981962,-86.50142987890177,3.5992091292304678,0.21025495239977135,2.8891372211858903,0.2877024687273069,2.344336301619874,-0.5561410856051858,nm,0.0
27.034146070480347,4.861622301176365,-0.9972290678164255,-88.4989331403956,3.6702032493765846,-1.1563091041657074,1.2764710268029944,0.04130055149573624,2.4779143203596474,-0.4648172178743892,nm,0.0
27.0720431804657,-10.573354293151063,-1.5851946481485963,-83.2424232527435,0.6380093443032048,-1.2081013655302746,-4.700664729290074,-0.14187814442591223,-0.35193359086232945,0.7565616207891296,nm,0.0
27.084638357162476,-2.120844287071156,-4.157319014234642,-78.69774020820378,2.122983314437546,0.021889363730484158,-0.788293202736898,-0.25233419236562266,-1.7611276894284358,0.9888915727691714,nm,0.0
27.086784601211548,8.860934634837603,-7.338150987716861,-74.21197831114485,0.6695067453910806,2.338096137398722,2.3062702431787456,-0.09766884465160862,-2.288687776606761,0.9596115116904297,nm,0.0
27.089533805847168,22.993823798933978,-10.844169932565693,-71.96518521876303,-2.6992594851640614,3.9350364558948168,1.9394144559867212,0.159280024241592,-2.8883047558539747,0.7306912940228318,nm,0.0
27.095089435577393,44.038230923052026,-14.222710939289165,-73.25303308628793,-5.556041916208585,5.226895243507367,4.750277058920665,0.6191388266336494,-4.132599541582432,0.4879290191219936,nm,0.0
27.10652494430542,65.6474523307597,-13.571393589175447,-77.53109323642958,-7.802447178817675,3.4633390128667294,2.0979398802393012,1.1856205177107797,-4.041056409654412,0.1819476945430214,nm,0.0
27.13188123703003,102.97211252390076,-1.6007376579257202,-76.66451798388927,-6.966430691724613,-2.5523288504669472,-3.3462366929020497,2.0301051783539252,-3.2758269068402743,0.8041091495065521,nm,0.0
27.161086797714233,125.01211170817545,2.915864637400284,-68.81114617100398,0.9848874823502863,-3.0684054839813695,-4.904177706581566,0.6555479491545112,-1.5344905504586164,0.5240214053463086,nm,0.0
27.16385841369629,131.54727306761933,1.0642822822077829,-70.93290642703933,3.534723769359142,-1.8025228971688294,-1.2568709647572756,0.11502704842240208,-1.3584028898026987,-0.47499116813160414,nm,0.0
27.16607356071472,135.7012490918188,-1.4643742695859283,-78.19536094928912,0.8872325344199583,-1.4907050321703008,-1.3433099674610605,-0.25428707103707027,-0.9419576247261282,-1.4544490262189498,nm,0.0
27.182592630386353,135.3016218737282,-4.6491148133391444,-87.44635446001446,1.8483849768994505,0.09221803946583186,-0.464773912203135,-0.6321086076414407,-0.007636108784739857,-1.8596983885391531,nm,0.0
27.186089277267456,134.58373299085892,-8.48983739533908,-95.26671457430909,4.032913430781686,2.8035712518044704,1.6567451651342848,-0.755907599201348,0.1521815104337922,-1.5848157542971888,nm,0.0
27.191962003707886,134.46909823672794,-11.08229106013066,-99.62482413734664,2.4273682879575618,3.547270250483837,0.9384304452518454,-0.502272171148697,0.07987552254729421,-0.8792260351746574,nm,0.0
27.216485500335693,131.81695094500236,-11.33835927926729,-94.13728356231609,5.218180778884209,1.7829829515331967,2.548915553295821,0.18656396051265572,0.11958300591473618,0.9072643084217614,nm,0.0
27.222174167633057,132.4985398452236,-8.900274482479668,-87.58899122884257,2.4739806617397684,0.08393464209028509,1.0469349060957802,0.4985858750845725,-0.14940032607070758,1.330967505599882,nm,0.0
27.24880814552307,132.54359222770293,-4.53162806985548,-76.41658795458216,4.038382119098458,-2.3185846902067997,0.2512967614258336,0.3314550090996594,-0.007671299241306507,0.9320738365104788,nm,0.0
27.251383781433105,132.75408773036003,-4.854143723146127,-74.47223986769957,2.5430151685919955,-1.8942270305552893,-0.3980542809740754,-0.03880251568436657,-0.06132863586012348,0.388520600931099,nm,0.0
27.27589774131775,131.45931386867832,-8.52645201530372,-77.05012537291027,-2.643237550747214,-1.0842050209193288,-3.096817356525726,-0.43424511229554386,0.021201142974978122,-0.4252981066279375,nm,0.0
27.285799026489258,126.63445251333762,-10.526129006372264,-78.81053982807015,-4.4150816016436725,0.07771712021880917,-2.988555745731668,-0.5785288449486874,0.841692083367461,-0.5166332494331076,nm,0.0
27.292070627212524,118.36671611359512,-12.114806131873195,-78.93418890790049,-4.6764167617513985,1.105267819480775,-2.842867164012461,-0.6135583663175281,1.5242671426259276,-0.3553661151338996,nm,0.0
27.3036367893219,109.7039860626889,-12.939237734402898,-76.9771521993733,-6.600355627703464,0.6943634132065626,-2.182724130088221,-0.5112417379338118,1.6117390333203718,-0.09602039493766598,nm,0.0
27.31336212158203,90.65846505778252,-11.529962295897047,-74.5383983170477,-5.409138449946056,-0.4808684252013169,0.39810099945528105,-0.2688098834443032,1.8680422416058915,-0.30131710114556093,nm,0.0
27.331530332565308,83.76431331067685,-10.36196561034953,-74.72322309831098,-3.586666430043423,-0.8085084650185598,0.9028419588650338,-0.1286594232675434,1.3605583309026086,-0.3238537699751918,nm,0.0
27.35014843940735,79.42381643428888,-9.388785202741998,-75.39641612358726,-2.777678310225385,-0.2599898868814824,1.4069544908581981,-0.02909399455614952,0.8692027362328238,-0.33730181710237733,nm,0.0
27.368767976760864,77.16091028361377,-8.330034393921528,-80.11506050021185,-1.682749476961809,0.5252807909366317,0.5859736471555015,0.0977865024452189,-0.058033984980966354,-0.5290302768100462,nm,0.0
27.37104630470276,78.90520669183513,-7.743816157906557,-82.1834084830614,-1.8190496383800148,0.8386853435640812,0.48798042520818596,0.17302475603293005,-0.3321794563606454,-0.37630310985014126,nm,0.0
27.378366470336914,80.81419640506155,-7.067370705407734,-83.61990019049942,-0.464250866153701,0.8066496989128271,-0.4781491362372495,0.18529218655106297,-0.3678326433575105,-0.2493664826378002,nm,0.0
27.38885188102722,85.7415194992183,-7.101863327450652,-85.65364096191095,0.48171673251807584,-0.405600949778807,-0.25292766899901176,-0.02299475041080828,-0.4488682821759091,-0.12570479298716644,nm,0.0
27.40466570854187,85.72644351285123,-8.05508277698796,-86.26399263568989,2.567300321821293,-0.541321490583383,-0.454994507689206,-0.1859563411910842,-0.019148501772357725,-0.1330695175416689,nm,0.0
27.40980863571167,84.04125084476836,-9.520323761611941,-86.61089702228996,3.637381918181859,-0.6614566767464581,-0.4338890271171416,-0.31071176163063174,0.3041756993623202,-0.23388201716130005,nm,0.0
27.439526319503784,67.04692664361792,-11.649268681152888,-85.43358535471555,2.4612406404637968,1.1243706418247206,1.0325150668221024,-0.08921266483418118,1.6297361028172554,-0.2589090445626488,nm,0.0
27.488000869750977,27.22012374363846,-7.265189030532353,-84.90772796219014,3.028878838321715,0.9073844063444368,3.474762043384158,0.044144733522292715,3.0748245648791044,-0.3802892709681481,nm,0.0
27.49136996269226,-3.2690251591446207,-5.391436320497558,-81.9022216026691,4.886800527902059,-1.1429800112150086,1.7034246358905476,-0.1528598442906679,2.8904059550325867,0.09390099767314322,nm,0.0
27.494855165481567,-16.168777289795493,-3.9664582191935485,-80.07366100581265,3.5670756520604248,-1.5875946373952086,-1.705237162010226,-0.13352583520194405,2.5783284489554625,0.15268029883662843,nm,0.0
27.51254940032959,-23.900833535215718,-3.768542467523054,-78.8260757520051,0.36182692029559516,-1.6189170171754232,-4.8270996614155814,-0.25476397901461334,1.5165618044504872,0.14546335470662988,nm,0.0
27.52282166481018,-24.00117833088501,-5.951396341824968,-77.70922981834782,-0.3379747807675576,-1.457275838486646,-5.250006829006549,-0.44273709725903315,-0.0791510621607443,0.22260342938864214,nm,0.0
