timestamp,roll,pitch,yaw,acc_x,acc_y,acc_z,gyro_x,gyro_y,gyro_z,markers,motor_input
7.546140193939209,-44.111815665949905,22.72656280168346,114.91461386394012,-0.39072297947455625,-0.6122963417778031,-0.932819784057392,-0.8880230580053595,1.3723209898716735,-0.7444601836031651,nm,0.0
7.5664074420928955,-23.876237031374533,19.801122183322338,112.5632449174948,-0.12536685305583575,-0.1705658114949544,1.4213178747066373,-0.38085335563480816,1.924797924598554,-1.0456123854650947,nm,0.0
7.569178104400635,-12.165037932546777,18.264935765956118,109.4835300547293,0.5569437222733318,0.19310501545767028,2.561840749905166,-0.49662730879152195,2.191507046652283,-1.3469960143617523,nm,0.0
7.585731744766235,12.855771585113628,18.530510338726838,103.31982106065486,2.857279170261095,1.1951030808907417,1.7644115774896558,-0.7154826388324914,2.246433925858299,-1.2765113986155454,nm,0.0
7.6152074337005615,36.76577155554327,20.566725462310945,104.08475703203949,3.9019339604232552,1.0116457108091168,1.0746750423434661,-0.6219422070309776,2.042136490515148,-0.5116092716613038,nm,0.0
7.617326498031616,45.21800723962031,19.829330333810546,106.36356270232648,3.498286057598178,0.24858657734012665,-0.735068378004784,-0.27112030422052347,1.5756326476071623,-0.13520112759876504,nm,0.0
7.637331247329712,54.713428927824175,17.011084802050764,111.72473562029188,3.1447090150592327,-0.2942227517121346,-0.6100145595876773,0.021296278520373527,0.6485520737143977,0.3323025460389025,nm,0.0
7.639498233795166,54.77616430086197,17.095731241929606,114.23503859302245,2.5278395955404886,-0.6495819312625661,-1.0734112210229292,-0.01963288369342636,0.008508414570362756,0.4643081177807452,nm,0.0
7.66050124168396,48.45783670136006,22.226446245485757,117.77938245820108,1.6746364931438233,0.2237205239019788,-0.2380002113418727,-0.21410824622636315,-1.027210832980679,0.5927038941955901,nm,0.0
7.684439182281494,33.77680103440107,28.57960279042757,118.55694657868082,-0.5764451878860605,1.0912880815869686,0.4122171525880864,0.22504029948417356,-1.5525764844961425,0.7752389291944248,nm,0.0
7.686585903167725,21.24940926436298,29.977707731034332,119.0479863412067,-2.7007774053184495,2.366939452506393,3.0367710886237727,0.8167605750610472,-2.0464246795271777,1.313786514768776,nm,0.0
7.710070371627808,-7.512925427000429,30.506185420922204,123.76472691928844,-6.332104697098013,0.9990645514322074,2.6567420364366443,1.1631503139647263,-1.943904046940586,1.928029792891531,nm,0.0
7.716580867767334,-21.718635961467914,32.0423549922279,126.43993173018124,-7.975432997679489,-2.2405956898293424,1.2459277767587071,1.154701149338318,-2.15513922236409,2.0121247382161633,nm,0.0
7.742871284484863,-51.427601520627555,32.13320764992076,127.5156200847905,-2.261702782422456,-3.43543834591481,-1.8728765105079215,1.518183991040172,-1.6469860501271725,1.4176072159310396,nm,0.0
7.766460180282593,-70.39996105528215,24.396559482670227,124.61355960762855,0.6406659737307793,-2.4877115300377994,-2.4228423785154805,1.6703420927264898,-0.7119619329500091,0.4661057227502293,nm,0.0
7.768649339675903,-74.83537896499628,19.64426566966002,123.0726038023759,0.06883512346222048,-1.6010441496799401,-1.9798289160246774,1.2497890541269316,-0.14069091903918615,0.018838322857607538,nm,0.0
7.778047323226929,-75.85010298387066,16.57206285323563,120.31083113817508,-1.1620684953067686,-1.5811013219677617,-2.3673795348070468,0.6263649682394994,0.1718568069651444,-0.5034743969997197,nm,0.0
7.780507802963257,-76.2129994374797,15.904335418999418,116.32961008692791,-0.35260613050421563,-0.26963395854389227,-2.0493328972140445,0.15301039569026245,0.014376594170120405,-0.80506575191054,nm,0.0
7.807272672653198,-68.35877191613649,21.06830225014409,110.19649686299387,-0.7006425979225867,-0.12292692777919519,-2.075598867310495,-1.005978444579815,0.740848708326748,-0.857473425661871,nm,0.0
7.833199977874756,-39.22014534376667,26.326481485126482,111.58161793763938,-0.6747737452054317,-1.3440290499991037,0.06195139059227406,-0.7284959698019473,2.0793286390474623,-0.8011625378879761,nm,0.0
7.849443197250366,-27.10898678864123,24.65770362034569,111.12169120101889,-0.6096911216844253,-0.6734334028038543,1.869252774239062,-0.4742518136409526,2.172493824620713,-1.0980904037251056,nm,0.0
7.874219179153442,11.85592634852772,23.1638423880975,102.63195943995055,2.7453430049970966,1.9209905345146647,2.4148829469021114,-0.7318125223564826,2.342452383084549,-1.5391903668980338,nm,0.0
7.890026330947876,25.136755008549958,25.091956753375094,102.71201810487474,3.6350395999909817,1.5027027295844744,1.6531661667929598,-0.9003484963840512,2.2887048730831827,-1.08305156872249,nm,0.0
7.8920392990112305,37.34903385217249,25.925225693430466,105.20757287933516,4.1325778635145065,1.121491453437272,1.0407635810296962,-0.6885702556418444,2.104969437544772,-0.5683078466790352,nm,0.0
7.897474765777588,47.07746501674278,24.840846402223743,108.80976520326199,3.7561456721141915,0.5423734177522584,-0.37991758197683034,-0.30455030033594166,1.7491402365491404,-0.1292390674838914,nm,0.0
7.919667482376099,58.64904652653504,21.67281439862058,116.67994722552235,3.0108290491011185,-0.2943471938881077,-0.45166726691778314,-0.08788413775915403,0.8000879393862613,0.41876733604219385,nm,0.0
7.922435998916626,59.33342551186045,22.175150091963705,119.5674037521019,2.252104395349666,-0.40486760362526003,-0.9473978305951324,-0.14868970668627776,0.06701122889471312,0.48467992358891976,nm,0.0
7.953631401062012,52.8249891521375,29.766426887574458,122.1989657838124,1.1882634430654941,0.6312401326062865,-0.2696748655293221,-0.3562305949143204,-1.2126486888798966,0.5667742068535052,nm,0.0
7.956497430801392,45.01472374303651,34.62430888171826,120.93715351999838,0.2543005695841816,0.39062935329536114,-0.5644541425682138,-0.1305512995610182,-1.6346286748137933,0.5676147210972895,nm,0.0
7.96666955947876,34.39416614761824,37.98368835329113,118.28375319507016,-0.8736074941071329,1.198553644928332,0.06319764326197064,0.2696869640075094,-1.8188476043970938,0.7166618647634295,nm,0.0
7.987837791442871,7.577691213139094,38.997466873113936,117.11158825078132,-2.7196501619778024,1.6529422493072474,1.308271334003839,1.0028103390767018,-1.7888110785316995,1.768501094755914,nm,0.0
7.989983797073364,-4.353747874522675,38.3886914334765,120.24727635218966,-6.44424787323928,1.3853462349796293,3.1466170275369194,1.0097537318817076,-1.5717661565067211,2.1331292236479853,nm,0.0
8.016645431518555,-31.52406098096522,40.62538375952422,126.85416917101989,-4.654368425092729,-2.9512153941755677,-0.5319321690495006,0.9668821464342989,-1.8619598292492987,2.3185562742644246,nm,0.0
8.03275203704834,-43.938981985479145,41.413254210967516,127.61504584285821,-3.588874377607504,-4.174672563554178,-1.0027064823556533,1.012578789413678,-1.5766008154246205,1.8089262497926077,nm,0.0
8.034980058670044,-55.7362440076227,40.51792410108315,126.65333852357281,-1.407082431078159,-3.740018036857219,-1.6696841075803823,1.2209957629950001,-1.3007618511777164,1.3714243186031767,nm,0.0
8.041006088256836,-64.72148528192858,38.25255112184848,125.24480064305405,-0.35262250831177794,-2.536977562059986,-1.744188583749129,1.18425590257956,-0.8456051336287286,0.8617103535253501,nm,0.0
8.070735454559326,-71.881324348989,35.47051702984213,122.58836064664006,-0.07096705504461823,-0.5809986347658979,-2.3771686914696324,0.29713309889925127,-0.22225376838694916,-0.013996378705375125,nm,0.0
8.072842836380005,-71.02762992582625,37.50958674760196,120.6114833544929,0.34471386540612503,0.1021930194946338,-2.420024584261221,-0.4186734844980217,-0.08282246418006309,-0.4942997761790926,nm,0.0
8.0811128616333,-66.50436723432784,42.037226752123196,118.55122532768378,-0.8668619799853476,-1.447383706563109,-2.132803050346446,-1.130173903672087,0.17053760179082403,-1.0258285680397923,nm,0.0
8.108080387115479,-50.465097260463864,51.133199386657495,119.77458033238695,0.5121404319104708,-1.968169787534486,-0.4213976393621992,-1.2599644952125204,0.7216262727366146,-1.070654186363474,nm,0.0
8.110248565673828,-38.857554046964566,52.57700704979259,121.39370951776414,-0.5585810566304421,-2.380103171571178,0.6488046320584195,-0.971874754285379,1.101371652869225,-1.5084532046185957,nm,0.0
8.117132186889648,-29.46054307618057,52.0376186960456,119.32777624499613,-0.7702144098238679,-2.0135843067388697,1.269477593317647,-0.4816043957778143,1.0587701699757834,-1.9218700712737027,nm,0.0
8.13913369178772,-18.677614634878136,49.49363608951114,103.3673888642387,-0.7070020008719291,1.0905676643755966,1.0841484811325783,0.021950470770133602,0.6321005929996926,-2.6661877457102015,nm,0.0
8.145405530929565,-14.488179193597913,49.955804109693304,93.41729155476831,0.32034453988293143,2.717913481780428,0.9443441188348038,-0.16139529814692508,0.5285185041993438,-2.7293442639582532,nm,0.0
8.171975374221802,-1.0292907256395145,54.01511413097717,81.72933759747336,2.8321862307680616,2.5947580048545764,-0.3410429433994951,-0.3256017969883527,1.040710820869083,-2.154724273996091,nm,0.0
8.17603611946106,10.288055896358314,55.410743867307616,82.49196740056223,2.826738592953658,1.881374926563325,-0.6408350100068878,-0.08963293049518632,1.332390529150906,-1.7632720032588156,nm,0.0
8.223616123199463,34.94841164444447,51.85632962921645,83.54697061656331,2.3886650616186227,0.12280492869408521,0.47873351488704663,0.3242206650500171,0.4706316596023089,-1.2592128566059277,nm,0.0
8.225720882415771,33.9342403263232,52.56182080429925,76.99069729618434,1.8768439741473506,-0.4764449008645275,0.40402336752110507,-0.1542627149752881,-0.10387092416673949,-1.2167224287345069,nm,0.0
8.228039503097534,27.796520400200308,55.22412644640156,66.16013174934271,1.3246744590332378,-0.7188196358095383,0.22370526402369897,-0.7271712523232853,-0.5267686891654824,-1.2499215171525864,nm,0.0
8.230113744735718,16.095738509866404,57.96728555660919,50.53447686354044,1.2810597787336366,-0.5066582529498466,-0.07738161686075087,-1.1334194471336685,-0.8212033996454137,-1.2536509957038044,nm,0.0
8.273290395736694,-13.200623042118997,57.75052964315046,16.59061175486601,0.6817066633714888,-1.0007445632830347,-0.4179000121810599,-1.2343728873561854,-0.8387846734461567,-0.7376059796815186,nm,0.0
8.276557683944702,-30.242725396990323,50.17840257097081,3.556937172331572,-1.70589738801792,-1.5309923980493665,0.29774393156292533,-0.7280853443718506,-0.9769047977681801,0.35834308264369885,nm,0.0
8.278746604919434,-34.56144929246956,46.08592244719042,2.581837894068206,-1.670365200579815,-0.44884638000522553,1.310750606103822,-0.5253044861842028,-0.8611855776392506,0.44501248313438024,nm,0.0
8.302366495132446,-45.94675221145817,42.05361127628669,-6.139314499353819,-2.65425693348061,0.5115113894816157,0.5691739646865839,-0.9617150570037882,-0.3223772073566279,-0.28540823587171127,nm,0.0
8.307830095291138,-52.70753868015932,39.07965416622368,-13.395531645681178,-1.9921431999107284,-0.23920882508769326,-0.5332359724153088,-1.107342121944752,-0.42441441596409324,-0.5717900834067801,nm,0.0
8.316822290420532,-57.34788759394842,34.69676291251112,-20.008935595848172,-1.1965912177139126,0.060171235959855726,-0.9399210205183165,-0.9580686469210322,-0.6398177689956253,-0.7645194278103125,nm,0.0
8.322721242904663,-60.127584044166625,29.591163664690704,-24.269359761896858,-0.7165413716322349,-0.5249225826392031,-1.2464407949501906,-0.8143694876962673,-0.7852120439829361,-0.6259436612752742,nm,0.0
8.332905530929565,-60.99045843740907,25.239701201097212,-26.495878542729592,-0.4572158630408205,-1.2232923735503014,-0.8606004859134956,-0.505583456786662,-0.7364040029707869,-0.4291493485914985,nm,0.0
8.357818603515625,-58.03014913440169,23.4518250248101,-28.01196708033938,-0.5549767929980778,-0.4374149419822365,-0.026613956924493455,0.33428168075997655,-0.11358915072669068,-0.25159341487760206,nm,0.0
8.374826192855835,-50.74848661078844,27.316443430213372,-25.233046893406424,-0.6830689056817605,0.5911232249368155,0.9650461340468384,0.8476599104068337,0.032560428484275,0.0022874253289145922,nm,0.0
8.40009880065918,-43.76662235140517,30.93784705625906,-24.023691102305786,-0.23617330154886348,0.6377661031777073,2.0428240891940974,0.630801124030893,0.07708195863877995,-0.35446282513289284,nm,0.0
8.402199983596802,-42.339523742857324,32.3311089205681,-25.79895147852557,0.6863199503309751,0.4464632683641605,2.2986559005541705,0.34068563944137487,0.1367011273231755,-0.5243955025199163,nm,0.0
8.408879518508911,-43.303041678982055,33.99906793653269,-29.085516429652554,1.18122955610627,-0.24398572187950948,1.997988006909735,0.012216295979807983,0.35674608685798115,-0.5724701593326191,nm,0.0
8.436049461364746,-50.802209374662404,38.89809566863855,-36.87435500387308,1.6248350160677425,-1.1513284702759892,0.9372360728290664,-0.2738536076843632,0.831778117348541,-0.20565189346210622,nm,0.0
8.464694023132324,-70.53680711059575,49.78879334778848,-49.34550843581092,0.43623461635996835,-0.7670594836456041,-0.2847405831517695,-0.19557434421564832,1.2341516240415074,0.17804265503300204,nm,0.0
8.467214345932007,-79.76319175829437,51.80650212334702,-55.89875455893025,0.84507416421106,-0.2602423341086606,-0.2686861486988437,-0.3845962157730214,1.1581180004332277,0.14997944980244143,nm,0.0
8.476627826690674,-89.93082537831368,51.58360185365723,-63.53538036563292,0.7451636481675015,-0.2517730399793682,-0.6006074293800402,-0.6705724151721626,1.0526363686851787,0.10140780565957341,nm,0.0
8.502009153366089,-107.60865399435751,45.96645904537942,-75.20233574099812,0.46219401084704215,-0.942992535586589,-1.1973838873771347,-0.9409996344236583,0.826135576081384,0.2813243107203623,nm,0.0
8.505752801895142,-114.31328374493341,43.23861675095769,-78.10948226061635,0.28598929603525314,-1.3582304684478868,-1.305192482880919,-0.7472654869565044,0.7910294558789465,0.39744848762283674,nm,0.0
8.523258686065674,-125.7625853087464,43.291885733444296,-83.05630286008832,-0.12777807459806995,-1.4677024654568447,-1.4106087968827663,0.10897843817398326,0.8137929070290966,0.25504489435768307,nm,0.0
