timestamp,roll,pitch,yaw,acc_x,acc_y,acc_z,gyro_x,gyro_y,gyro_z,markers,motor_input
29.53720736503601,35.826571880738435,-21.99795053004071,-59.910666373228665,-0.06301371996031425,-0.018592263702176547,0.038380294873488936,0.0,0.0,0.0,nm,0.0
29.540910720825195,35.7454024792457,-21.99482530968082,-60.01468290727898,-0.06986915071683303,-0.019786806101334237,0.0440201151823513,0.0,0.0,0.0,nm,0.0
29.568110942840576,35.56808008669756,-21.958217898942745,-60.30021938986675,-0.07377008156357405,-0.020993792684932715,0.04542376340140862,0.0,0.0,0.0,nm,0.0
29.572377920150757,35.45190832250421,-21.93788110873787,-60.460043253421965,-0.07696719687075261,-0.022623567824303418,0.04534744312467376,0.0,0.0,0.0,nm,0.0
29.5968759059906,35.17351606787088,-21.878025788091303,-60.71615575511647,-0.0673214423849604,0.005934670526200777,0.02237985124686245,0.0,0.0,0.0,nm,0.0
29.605818271636963,35.03381657987252,-21.844248836125644,-60.82968049194244,-0.0477165436700251,0.026902480265518246,0.025136515446993905,0.0,0.0,0.0,nm,0.0
29.608360052108765,34.90361651839861,-21.80326516738585,-60.947414181538434,-0.042604158682381744,0.03299554885747428,0.012942986456121974,0.0,0.0,0.0,nm,0.0
29.63460874557495,34.69728160982295,-21.705279267107375,-61.199237877089814,-0.01783148576462259,0.032434330245568375,-0.01473313424456479,0.0,0.0,0.0,nm,0.0
29.63682508468628,34.627854890411044,-21.676072831939887,-61.33301111650467,-0.012109373897527012,0.02214850909659408,-0.010033077424249871,0.0,0.0,0.0,nm,0.0
29.666493892669678,34.55362251969743,-21.646659750603643,-61.59208639932587,0.0,0.0,0.0,0.0,0.0,0.0,nm,0.0
29.668731927871704,34.53566442461088,-21.656218930832324,-61.725844443384695,0.0,0.0,0.0,0.0,0.0,0.0,nm,0.0
29.692753314971924,34.47864783679762,-21.702581174249413,-61.98510927956743,0.0,0.0,0.0,0.0,0.0,0.0,nm,0.0
29.696072578430176,34.44199512618835,-21.72086683326208,-62.09404440837587,-0.018461852261063998,0.00014417021878578696,0.02200955615355604,0.0,0.0,0.0,nm,0.0
29.70266318321228,34.40923021825516,-21.726210983229127,-62.228925037218225,0.0,0.0,0.0,0.0,0.0,0.0,nm,0.0
29.710389614105225,34.40151067130272,-21.716141537968554,-62.39670443855439,0.0,0.0,0.0,0.0,0.0,0.0,nm,0.0
29.719693183898926,34.41557366844632,-21.697188051139364,-62.54868515396291,0.0,0.0,0.0,0.0,0.0,0.0,nm,0.0
29.742457628250122,34.44092777208419,-21.696873370193607,-62.83627920864177,0.0,0.0,0.0,0.0,0.0,0.0,nm,0.0
29.750141382217407,34.43624738846224,-21.741962689620188,-62.95514585373654,-0.007176726631595188,-0.02083423864422583,0.031009759397320324,0.0,0.0,0.0,nm,0.0
29.7712242603302,34.35845869815681,-21.89226558685664,-63.05969018290867,-0.02247738601362598,0.0006544443029555152,0.026794386637206437,0.0,0.0,0.0,nm,0.0
29.777738571166992,34.293463292615726,-21.953550180976823,-63.085602002904174,-0.023235408135782547,0.0007368973825524032,0.02772326698401103,0.0,0.0,0.0,nm,0.0
29.800421476364136,34.12096873193737,-21.995000393941154,-63.15582752656223,-0.04208229016735885,0.024420170343714225,0.02573477005517028,0.0,0.0,0.0,nm,0.0
29.805700302124023,34.01546868043764,-21.98461818197164,-63.18824459776189,-0.035813161173663836,0.001378756447521391,0.04306127674243208,0.0,0.0,0.0,nm,0.0
29.844201803207397,33.90370643077168,-21.97245922576525,-63.203128260963354,-0.03396150351001682,0.0013695138728526451,0.04097796984107138,0.0,0.0,0.0,nm,0.0
29.846577405929565,33.66730099557657,-21.9893255423983,-63.26444465626189,-0.03066848410642837,0.001396022550248982,0.037254468553430314,0.0,0.0,0.0,nm,0.0
29.85005784034729,33.54279129285157,-22.03240954209969,-63.28359357447725,-0.02109095774881072,-0.028340895027847868,0.057796217823740934,0.0,0.0,0.0,nm,0.0
29.852381467819214,33.415000181505654,-22.088185670059392,-63.26730468826306,-0.029009750542210447,-0.02747971253764458,0.06726541872585429,0.0,0.0,0.0,nm,0.0
29.866711854934692,33.30208812381204,-22.145568583433114,-63.268474488909106,-0.03127193513706936,-0.018616575490735837,0.060706176512913504,0.0,0.0,0.0,nm,0.0
29.87654685974121,33.2049603986884,-22.177082015293955,-63.30328810260006,-0.038371923057844134,0.0021966984533109968,0.04710640453454447,0.0,0.0,0.0,nm,0.0
29.903326749801636,33.04087847603466,-22.065660659685307,-63.494197849053755,-0.030471116169501683,0.0018657917901048913,0.037666733730508835,0.0,0.0,0.0,nm,0.0
29.911731004714966,32.994957775318255,-21.995490528902945,-63.53202326664054,-0.044388902998547856,-0.015619588575955329,0.014362782433963711,0.0,0.0,0.0,nm,0.0
29.91787624359131,32.93981615470684,-21.928506437030357,-63.57323117357384,-0.046494520631424584,-0.021692267128570985,0.003147344990680466,0.0,0.0,0.0,nm,0.0
29.93299388885498,32.8755511627985,-21.874134654994247,-63.61841359923535,-0.050689179188245934,-0.025477057878390292,-0.000747597052715716,0.0,0.0,0.0,nm,0.0
29.954983234405518,32.708515205010755,-21.733870592970042,-63.68573157220427,-0.08255753982104344,0.03108294909541254,-0.016981348340170198,0.0,0.0,0.0,nm,0.0
29.974747896194458,32.48996423440684,-21.503274533942317,-63.77908796651915,-0.10097447990669359,0.06921462746796277,-0.019269414079390434,0.0,0.0,0.0,nm,0.0
29.99220085144043,32.36216200830297,-21.35965814871617,-63.85628466280934,-0.09778115035742357,0.07630579246021482,-0.021681568309265212,0.0,0.0,0.0,nm,0.0
29.99436855316162,32.22595150640316,-21.219868465713883,-63.954983032738376,-0.0888446197318398,0.07593718101101121,-0.015000789155175082,0.0,0.0,0.0,nm,0.0
29.99682378768921,32.07711752761192,-21.114215831506076,-64.04678687083488,-0.06801606394006651,0.07428749714745822,0.011707452989386568,0.0,0.0,0.0,nm,0.0
30.004295587539673,31.90442327460698,-21.049245646064886,-64.10323140504501,-0.07564308194200643,0.05732238984450734,0.041469220105696585,0.0,0.0,0.0,nm,0.0
30.01344084739685,31.71110529450084,-21.028665770216275,-64.134034120971,-0.05327430077045938,0.0657900775541019,0.06812678439272779,0.0,0.0,0.0,nm,0.0
30.045971870422363,31.304906929363977,-21.160284771305054,-64.22384178382673,-0.003828733935335342,0.07205826912364562,0.08949583725584484,-0.05051491108833571,0.01195447120764754,-0.007340631851033907,nm,0.0
30.048222064971924,31.071557724086066,-21.354379588868074,-64.23213269723698,0.006573147778007419,0.057757034557828775,0.12572670915964174,-0.05572043826199361,0.009735245141130076,-0.0008718385458569892,nm,0.0
30.05542492866516,30.846969673651927,-21.560148900634694,-64.17084748447817,0.02470564303830182,0.012936441874514886,0.16183990537087212,-0.057118321354725034,0.007130245442734715,0.010339561793152577,nm,0.0
30.060476303100586,30.64909848517563,-21.777914739169002,-64.04592231522214,0.04006320877229628,-0.03101446436297919,0.19140759258489895,-0.05711308180457007,0.0014278477015707363,0.024838867396617746,nm,0.0
30.08701491355896,30.406082908700327,-22.283938855092515,-63.62854381527062,0.03345914002479178,-0.041022168749415576,0.19857291368666902,-0.05727072549083299,-0.021450118799022175,0.04434299321965251,nm,0.0
30.092463731765747,30.365760472226313,-22.562579984951707,-63.42593867901581,0.015108486479207775,-0.0023975319548833543,0.17056326344839975,-0.05497119718087462,-0.030994147138591253,0.040736665570266804,nm,0.0
30.10596466064453,30.38412435525643,-22.80393049130783,-63.32773720868356,0.004278484721001778,0.041674980316843094,0.08400621346062453,-0.043356101469841174,-0.037511011057437156,0.0318780623720299,nm,0.0
30.134181261062622,30.638528097996208,-22.983560444761324,-63.335776106525344,-0.07376362052734498,0.18483326578860154,0.008275171230597591,0.0,0.0,0.0,nm,0.0
30.136536359786987,30.820339800187874,-22.64130171427375,-63.455870819343524,-0.08207516090454688,0.20117897671468263,-0.03283692466121304,0.0,0.0,0.0,nm,0.0
30.15493607521057,31.189586102996365,-21.721025240919484,-63.85447212480146,-0.05896362550163382,0.12011804935723466,-0.05330626251366367,0.06805960644588527,-0.008597749030533699,-0.016536724321946708,nm,0.0
30.15735173225403,31.366256253276934,-21.28661076869787,-64.03983058948818,-0.010560784095017357,0.07016524738201106,-0.06373788829552275,0.0732851681612468,-0.005178926068590032,-0.011716059463509556,nm,0.0
30.166751861572266,31.539366336071044,-20.94179492827789,-64.1767222494745,0.01469844262588102,0.03192865308456694,-0.05589419820242113,0.06649799008722139,-0.007439913488823526,-0.005217805532456156,nm,0.0
30.18733310699463,31.878865448541756,-20.52271274755333,-64.36113027770126,0.03428454703026219,0.03271838563461074,-0.08286023736134461,0.0,0.0,0.0,nm,0.0
30.205286502838135,32.03555279845414,-20.361757007155592,-64.44430725985166,0.011809620132334919,0.06728331582592968,-0.088276846289646,0.0,0.0,0.0,nm,0.0
30.272019624710083,32.14205816380237,-20.296970458484623,-64.54824692824343,-0.009199320080167845,0.10636650548275597,-0.10045599842514727,0.0,0.0,0.0,nm,0.0
30.2742121219635,32.26300526202216,-19.98489806619366,-64.81828806062528,-0.05190567742330176,0.10094325525835608,-0.11160205563393828,0.0,0.0,0.0,nm,0.0
30.277004718780518,32.1335586414651,-19.69006722252618,-65.00827009515156,-0.015397991236102155,-0.0020709914537144145,-0.07062285683541542,0.0,0.0,0.0,nm,0.0
30.280217170715332,31.69028962065503,-20.08315038727508,-65.08527218044672,0.07865050338907593,-0.1091784124060559,0.004618830148226099,0.0,0.0,0.0,nm,0.0
30.282225370407104,31.550325083917215,-20.374314815854245,-65.09926577044213,0.06518330442837669,-0.10025467564072678,0.014583405811792788,0.0,0.0,0.0,nm,0.0
30.30801224708557,31.342575278306168,-20.922774197284276,-65.20259206756151,-0.004077850191310147,-0.028421874447699634,0.03667241718087945,-0.05116782375557515,-0.01669052600794909,-0.02006079216289105,nm,0.0
30.325822114944458,31.1613451066931,-21.20268379886657,-65.4348895800125,-0.051167685776844246,0.052067880592118254,0.06977467465918957,-0.038055763964873576,-0.015508543988444156,-0.029467555291560973,nm,0.0
30.33358597755432,31.062168821990024,-21.241726214434085,-65.57423880212625,-0.049008818274335,0.06422653235247172,0.07030740872491048,0.0,0.0,0.0,nm,0.0
30.362149953842163,30.840033153015018,-21.29068025303796,-65.74685117549195,-0.02180105609372418,0.037042925632949926,0.10964612914251907,0.0,0.0,0.0,nm,0.0
30.380350828170776,30.625896566635394,-21.349194802854026,-65.74360354342501,0.020953295234384238,0.016023200270874186,0.1202003876045727,0.0,0.0,0.0,nm,0.0
30.382534503936768,30.574574453924694,-21.395488365963264,-65.76415403203656,0.0279171210487631,0.01970597712100409,0.12319618401176495,0.0,0.0,0.0,nm,0.0
30.389057874679565,30.577347834982685,-21.446778119765575,-65.79058727789402,0.012989915131732501,0.049272792963951706,0.10083696419870872,0.0,0.0,0.0,nm,0.0
30.405893325805664,30.66476222127984,-21.4418672842969,-65.85454417755815,0.0013413852227725717,0.04079987763062719,0.09339944114428612,0.0,0.0,0.0,nm,0.0
30.428570985794067,30.89707179437819,-21.309453997374213,-65.96774407074474,-0.07280024780434573,0.056429754055513426,0.046372987093358284,0.0,0.0,0.0,nm,0.0
30.433268547058105,30.996203272261084,-21.1965061734351,-65.98018890010195,-0.06998347347000596,0.055434900814746293,0.04315392192886977,0.0,0.0,0.0,nm,0.0
30.435725688934326,31.045286947904238,-21.082529696977787,-65.97694304447003,-0.0908635012146216,0.02027625180479713,0.03425460144299492,0.0,0.0,0.0,nm,0.0
30.449553966522217,31.059378233384738,-21.00128818696381,-65.93842863641785,-0.07362417972423248,-0.025758602018396783,0.016925509585164457,0.0,0.0,0.0,nm,0.0
30.472862720489502,31.025967862106906,-20.92106754693459,-65.71480735713885,-0.06322316294506226,-0.06310722910227214,0.03781771067231444,0.0,0.0,0.0,nm,0.0
30.47614884376526,30.972063433148612,-20.890174419436907,-65.65015414689772,-0.06702363946348945,-0.06381510314605755,0.07203863939716777,0.0,0.0,0.0,nm,0.0
30.495336055755615,30.8118813533657,-20.89012626321115,-65.82404675546782,-0.004660007456523188,-0.0785698799426471,0.0033740776829105463,0.0,0.0,0.0,nm,0.0
30.50420880317688,30.749931818934087,-20.890766772697198,-65.97711332540813,-0.011246024905234549,-0.06886767215344589,0.03128098189707512,0.0,0.0,0.0,nm,0.0
30.52439308166504,30.63675950966439,-20.866986180233702,-66.24486969095211,0.022650822883887603,-0.05146540962913528,0.021434813547545957,0.0,0.0,0.0,nm,0.0
30.527668714523315,30.601432217740875,-20.866597960715115,-66.36212199014143,0.024650461289685743,-0.056321155718354415,0.023435645529797232,0.0,0.0,0.0,nm,0.0
