timestamp,roll,pitch,yaw,acc_x,acc_y,acc_z,gyro_x,gyro_y,gyro_z,markers,motor_input
6.047406196594238,-24.633666241473843,25.413083321177513,132.17057148006256,-5.450655993821956,-1.9926469877329456,-0.5353922217150479,1.7074442725021952,-1.8252579335994592,1.4196292008798321,nm,0.0
6.0526416301727295,-46.253872797872134,22.984510930690277,134.20199308700094,-2.890382824776133,-2.610175204405212,-1.7788737428921604,1.3519414810664268,-0.9591059841049988,0.8922340043329512,nm,0.0
6.0585854053497314,-53.874951715932774,20.83971494483121,134.34261685838527,-1.5739793446609842,-3.1558443331429684,-2.4214721310004554,1.29700193949703,-0.7004466691669838,0.6006841430594857,nm,0.0
6.154739856719971,-62.189792483071045,14.911625318696524,132.9771789875231,-0.11903385122723836,-1.8673258125824304,-2.326122329327587,0.6923070096204513,0.1467033638465121,-0.09866847023495627,nm,0.0
6.161142826080322,-40.45186100766644,14.354738599475354,121.29725000215784,0.34658861414705366,-0.0852096852226324,-0.3655081420444946,-1.2998504574651006,1.4280711127242285,-0.6002512881029851,nm,0.0
6.1637468338012695,-13.000613061573201,17.383209283054292,120.94216801667375,-0.4732963135144597,-0.9999166210252771,2.680145697651383,-1.42162715860941,2.140270085669797,-0.7252324612470936,nm,0.0
6.166760206222534,-1.484031321919479,17.10928642788932,120.30705630219384,1.5082264929524274,0.7229157356478533,2.035535329776776,-1.0655126172939353,1.935831227183317,-0.7856471956240361,nm,0.0
6.181689977645874,23.055271197718618,18.88185025547059,117.26490245637467,2.43178476361965,1.2548520136034862,2.0001017203308122,-1.2383753099070058,1.8710318732849858,-1.1097584920155579,nm,0.0
6.196924448013306,32.3011526233014,19.853624593614782,115.48541366252091,3.0544077153937295,1.562010692055251,0.11550834331743937,-0.9471103907591236,1.4843196716741716,-1.0066024044704796,nm,0.0
6.2124247550964355,46.44874502668456,21.20104772483621,115.31308236361897,3.0432410145294693,0.2927092631943739,-0.6675474911264265,-0.5329739312488843,0.981018026440371,-0.38298818743896235,nm,0.0
6.214671850204468,48.94909930572571,20.520274244150603,115.87902255859336,3.237309224311295,0.2297788516548627,-1.059525962149486,-0.0771430684923792,0.48496717345950996,-0.07871642132304602,nm,0.0
6.221787214279175,49.26871595395679,19.63134273459163,117.15614918593408,2.758668519921255,-0.14090567847264154,-1.2300534489299453,0.13426063837793514,0.13752765988313795,0.22003710777228472,nm,0.0
6.234814405441284,47.72300511775231,19.375990212040755,119.10577108526064,2.4224106315169656,-0.10875118847206751,-0.21490077550953815,0.1845401546412131,-0.22872673344594682,0.4800464396674915,nm,0.0
6.257377624511719,38.622370136208424,21.888899846211743,122.35258028227868,0.9795175604989989,0.25541140202620005,-0.28226625235847386,0.19899199401311765,-0.9800878248670466,0.6225365182096084,nm,0.0
6.2767322063446045,25.15043006841935,26.046573097127034,122.70423637758391,-0.45262089490819796,0.9852112703699283,1.0284558797210905,0.4437387255732249,-1.3483845743550356,0.5042649295805081,nm,0.0
6.307751417160034,-13.218027176512583,28.325239755946534,121.49075523177265,-4.07764647024472,0.0034702256100494835,0.7311263355309627,1.1773849524564255,-2.1050163778618316,1.3298051129779185,nm,0.0
6.30984354019165,-25.253158458965522,28.24635329033733,122.6786802860937,-6.393828169434486,-1.567128024428691,1.1089953070527259,1.1488110579662243,-1.7776415415978601,1.3655010918459622,nm,0.0
6.325171709060669,-38.289855169733855,28.22441755724749,123.43992823849662,-4.616850486609078,-2.331052559314219,-1.1479113716346483,1.2648013767071116,-1.9122388598560183,1.3811893675930502,nm,0.0
6.33427619934082,-49.486202896403995,28.050601671048884,123.14687772603277,-1.685026316084621,-2.252916503572862,-2.081775523294576,1.1193806429764368,-1.6195677830624278,0.9917023875209261,nm,0.0
6.336405277252197,-56.941261084477205,26.785019144026634,122.44051290735995,-1.4958994514106574,-3.000887643012175,-2.1065341393113712,0.9346016796631414,-0.9627122426899638,0.5371460830255291,nm,0.0
6.349204063415527,-62.60512708814964,24.41910913436416,121.27982694125272,-0.7590533256829383,-2.5682346138962533,-2.3538104429425277,0.9454657637244369,-0.6047532132698997,0.2483790864325038,nm,0.0
6.357009410858154,-66.1164907214944,21.81227602213473,119.14691718536737,0.09000127760761548,-1.7042679510439447,-2.248249232903619,0.7797801677333427,-0.28241657324580793,-0.16434055438951767,nm,0.0
6.363381385803223,-66.59994926025242,19.770183957726996,116.26797997256023,-0.6833056247544554,-1.7887245411443822,-2.16102894339468,0.40776349040473037,0.12328655394612284,-0.5596286968634897,nm,0.0
6.373655557632446,-65.57635057426795,18.766355131814393,113.11508935341678,0.04713864684459641,-0.9544649855329402,-2.2299918340626532,0.10610137926102677,0.272458784976248,-0.7169405553819764,nm,0.0
6.383389472961426,-62.94426084325699,19.12026683662625,110.02617521669309,-0.049976736418639166,-0.6303976016749183,-1.659084743074806,-0.2440359254495101,0.44972857246276593,-0.803269604599443,nm,0.0
6.406030654907227,-57.889368922705536,20.645521804412105,107.57193958272532,0.09659024923184596,-0.7135140473738977,-1.4194472673232341,-0.5895981808175886,0.8146239152318501,-0.846070229311715,nm,0.0
6.422447681427002,-38.03402779704001,24.317227566517403,105.56330949682597,-0.7776795675826943,-0.7133207973104299,0.09694596173744102,-0.931304936260408,2.0591780007911007,-1.043068584417335,nm,0.0
6.427247047424316,-24.416295902815314,25.162520093782316,104.94124391390505,-1.6040445646495307,-0.6320619371494473,1.3793315816176432,-0.7967084040144616,2.357870727033048,-1.1972707274625178,nm,0.0
6.433250188827515,-13.022403360435883,24.775567357672234,103.6649187285452,0.41420040427926613,0.575535636318425,2.2811387289051983,-0.42099897473695364,2.033564370484261,-1.1686815828121495,nm,0.0
6.447015762329102,-1.0106743140422767,24.01561676556831,101.76714771968385,1.61950842614208,1.306254358284843,2.386923494152414,-0.32145541537850103,2.1788109602630725,-1.3505376428569877,nm,0.0
6.46768593788147,23.136945992665346,23.714240120532743,98.59010845278581,2.8801715268392414,1.03950223031723,0.9584041154451716,-0.32494561757689405,2.053044785901745,-1.1737940319223503,nm,0.0
6.4816460609436035,41.36378508216205,22.159977678863918,99.88137515098629,3.4337382445964892,-0.007042517045130733,-0.23053504848022824,-0.008149072332574246,1.5665453890963232,-0.3946315923383243,nm,0.0
6.497604608535767,46.92246084593359,20.140548764191056,102.18104236456462,3.4319525531628305,-0.31411379892322494,-0.28092021012205004,0.201278612609071,1.1000337207281754,0.04484253436648947,nm,0.0
6.4997382164001465,49.17165648836165,17.935528404591707,105.23505035745524,3.0156439567288578,-0.5345314026101251,-0.900449781298013,0.3302845961221355,0.5226785443453172,0.4376151139250111,nm,0.0
6.5067832469940186,49.20321231848316,16.34911862391462,108.85605392047017,2.5136169786727507,-0.3811761726905198,-0.8368593045398536,0.3040334029033752,0.10373959206135529,0.6935670037096486,nm,0.0
6.526035308837891,47.03580043499558,15.883670740438365,112.50942305628949,2.0263944931311513,-0.02172534516991651,-0.32112418566543544,0.23696475098687356,-0.35203575492221467,0.8174883096659901,nm,0.0
6.531631231307983,42.6665369257035,16.608943946914632,115.55969867622169,1.331668004764134,0.4093215246663246,-0.12729395100911012,0.21338924818338406,-0.8207972265375627,0.8114438467483024,nm,0.0
6.548882007598877,27.61111844795518,20.531254658397952,118.90720127746496,-0.8311297561991167,1.8027282853265758,2.627685583779766,0.4205593528847505,-1.698242334683472,0.777391851806637,nm,0.0
6.555280447006226,14.946611339430188,22.526408426595157,119.04469523258754,-2.2303393343587725,1.6021124501783244,2.4289954062581964,0.8054167149723697,-2.2476741975533177,0.908855660662267,nm,0.0
6.570905447006226,1.5229434295846251,23.653484392174306,118.73976999809555,-3.215779910916261,1.0153246396992541,1.5939370439620097,1.0086003880148415,-2.263209687470926,0.9575750372122126,nm,0.0
6.572884798049927,-11.264282814553486,23.885545431935498,118.73565336837486,-4.9776508274993585,0.037249310462875065,1.614457790929456,1.0961606332438671,-2.065683207755208,1.0050469235392618,nm,0.0
6.611223936080933,-45.917684356532654,22.52547349287627,121.29119637939031,-2.743771535843707,-1.9407153555467982,-1.8852518249525443,0.972107683601454,-1.4394202692143414,0.930800253865337,nm,0.0
6.6134655475616455,-53.09210850977665,21.87647503602711,122.02328059861284,-1.5433934694410114,-2.1595066232958784,-2.3210218349575236,0.8131318738088056,-1.0507759375352983,0.6920822122476837,nm,0.0
6.628683567047119,-58.089179448706815,20.845629123989113,122.21321422153272,-0.5398140147384618,-1.8848892472958854,-2.4066118963501895,0.6739652374163859,-0.6662073485558092,0.40628689744561486,nm,0.0
6.632562637329102,-60.13240356675211,19.606773508388198,121.57805959164024,-0.3496914412324764,-1.8367073774231062,-2.4488636649234152,0.41705891438869963,-0.18159724796655,0.0186393288019521,nm,0.0
6.6646459102630615,-57.84438518482352,17.58680249501026,117.98788441017592,-0.8557795881859251,-1.0879229921069324,-2.00028202491555,-0.03722571848535734,0.4203968770878075,-0.5528908844655629,nm,0.0
6.666962146759033,-53.81529454496745,17.58283072571901,115.47856233078825,-0.35264444342446916,-0.5790274189645691,-1.927236088612953,-0.33982120833513435,0.699993368796391,-0.7487259396463573,nm,0.0
6.669377088546753,-47.98896060715528,18.228463343389194,113.39221640589167,-0.8571819482713244,-0.552951826263955,-1.1211005973772674,-0.5699806502963847,0.9700556039465205,-0.7694342587311935,nm,0.0
6.6944663524627686,-29.84916316695709,20.474049830023993,111.78247061209943,-0.31501393764127134,-0.3910923652792626,0.7236622122846734,-0.9765840734514778,1.7881765908545406,-0.761331829980754,nm,0.0
6.702778100967407,-16.546131703327738,21.742004152587043,111.80765921524483,-0.90642294267759,-0.8247663735415095,2.371400987782201,-1.1432954305675707,2.2272043745707717,-0.9047463865381904,nm,0.0
6.709011554718018,-4.306473612213205,22.40929321667954,111.61285994225724,0.8717756283463892,-0.44893803811002575,2.2267724550792445,-0.9513253376202605,2.0723729559075013,-0.9245614812785075,nm,0.0
6.732879638671875,19.858888262434455,23.971030414703897,109.7917051826268,2.550814957268117,0.8562673225883235,2.269019840350905,-0.9769587435452762,2.036441461522689,-1.1984559458328186,nm,0.0
6.734952449798584,30.396149023319566,25.53174079447337,108.75937216480884,3.013771366479704,0.9453458592720518,1.0325582752029498,-0.9219251687683299,1.7106212059912853,-1.1148951834257597,nm,0.0
6.754666090011597,38.97242584261675,26.97016646586158,108.24585166066377,3.658779777638082,1.0270067319633527,0.13075224240054972,-0.7576235744244436,1.3725895587308363,-0.8898202052865475,nm,0.0
6.7702796459198,50.16423081705259,27.51265831928941,109.9149844592694,3.4705326049001015,0.11717856230239401,-0.6831794643051464,-0.20710786869210573,0.7370005595931995,-0.19658970340414936,nm,0.0
6.774824857711792,51.68487459418149,26.59928426780525,111.75892779988767,3.039284087495212,-0.4151010358778197,-1.2524377231950734,0.07645430183493902,0.32084591080840197,0.18855540551427427,nm,0.0
6.80208683013916,48.90292803942125,25.62030409707219,117.40966963029305,2.223645972058145,0.09872609764726842,-0.19960599263116408,0.2242137742541676,-0.39854350687058465,0.8069568198373119,nm,0.0
6.804239749908447,44.47539886387936,26.391695196644793,120.34059861230163,1.5096774190399003,0.3687081120847724,-0.15416021866418173,0.2527792308943357,-0.7691811915446006,0.9616006749632053,nm,0.0
6.813230037689209,38.740210031338535,27.797903427287256,122.80028807484513,0.497966436652107,1.0169912111683659,0.4333302364591875,0.30041618800867664,-1.0144614839605006,0.9847024363986503,nm,0.0
6.820340394973755,30.896987148063186,29.417441458211094,124.4928953541357,-0.6000177723152297,1.4208767164216387,1.0939037841490367,0.5007328670609222,-1.3222227849292678,1.0592796656386587,nm,0.0
6.8464295864105225,6.348927773730313,31.285326282381718,125.77058935563116,-3.979118228830116,1.63385363131475,3.2760947698852623,1.2814037723011944,-1.9959162569835054,1.486489711759357,nm,0.0
6.850817441940308,-7.75564283900621,31.67364109658733,126.29026831537125,-4.762692457913056,0.1520016674309176,1.5738061217526835,1.3617429007997024,-1.9835345227770798,1.572103284974279,nm,0.0
6.877195119857788,-34.099819338198984,31.06182161648934,128.22025522965964,-4.773805369359997,-2.60345244065205,-0.6442048493018941,1.4742094178499785,-1.6745914452745765,1.57978621746316,nm,0.0
6.879880905151367,-45.552025609082825,29.987253468330547,129.11527481957418,-2.3183776219498267,-2.3272383389892473,-2.0219725436038605,1.4057203761830568,-1.3947915306903398,1.3438382169247214,nm,0.0
6.897893905639648,-53.87197535337783,28.460516509627936,129.572737831416,-1.3582839449126738,-2.692391280512373,-2.013024015884787,1.160369446437861,-0.9169505481634191,0.906713372304709,nm,0.0
6.914116621017456,-63.17149737733988,23.585730594670753,129.82885653041376,0.36281839159010815,-1.7901398528944183,-2.293419724664852,0.8198676106673107,-0.15550270654797443,0.2891455660296764,nm,0.0
6.921474933624268,-63.70425220635911,21.523925854501968,128.57053991701324,0.19361536682416036,-1.6622017103454525,-2.261259430973761,0.38357013679318264,0.198248992503129,-0.20646171501574304,nm,0.0
6.926316022872925,-61.99756517836526,20.373603852777617,126.31659971656477,-0.6372922084358472,-1.6918716828274791,-1.929309965818212,-0.009344149404558256,0.407013935797001,-0.5822722453610754,nm,0.0
6.945485591888428,-58.4766478713025,20.154676555689683,123.68698224014092,-0.6593129364051751,-1.0507453328681218,-1.6482082832825415,-0.34076412356755936,0.5802925217517053,-0.7799264316648638,nm,0.0
6.9629902839660645,-36.69757796942832,21.83780750959017,118.82820337986014,-1.0386049254134546,-0.07370922822145184,-0.16302936791668418,-0.877021244308546,1.3823547116277743,-0.8045212800232017,nm,0.0
6.987417936325073,-17.498727805988516,20.67045385108777,117.37220386623525,-0.14392598749568208,-0.10314588308807816,1.2789879410781864,-0.6310154299419011,1.6572041355894944,-0.7981790767302522,nm,0.0
7.0109028816223145,1.566082540062311,17.806398423248645,113.8590870224129,1.625646565951578,0.18101954368721093,1.8754272835906431,-0.5209976245357004,1.8150039832207046,-1.0190875722044825,nm,0.0
7.013692617416382,11.128297908886456,17.063697398157906,111.58803627355876,2.5664808080093646,0.5393892288051653,1.7614833111512334,-0.5607126375018442,1.7518152027156924,-1.0268460399089163,nm,0.0
