timestamp,roll,pitch,yaw,acc_x,acc_y,acc_z,gyro_x,gyro_y,gyro_z,markers,motor_input
20.04953694343567,-6.736288066101429,54.93097566525491,-24.52645089240995,-1.244806594511393,0.6538367136838316,2.5744419943502646,1.0095709569207536,-0.23420643887629441,-1.3883370669629553,nm,0.0
20.071009874343872,9.345219147063805,59.21839078091072,-24.679525543983967,-1.4454035397493135,-0.8736348107997559,-0.2709100862210621,1.0615539522244506,0.027340318354121023,-1.5211096458791842,nm,0.0
20.07327127456665,20.064376107682957,61.52134781230814,-24.19334394993007,0.8520590084613522,-1.7442106147092662,-0.10076158551922863,1.1497646393746674,-0.025981413726132763,-1.7916359462064844,nm,0.0
20.0910701751709,27.55593049526146,63.0492493065705,-24.547933194462807,-0.16816909322511553,-1.8190070855649132,-1.816185888108301,0.7542272502961704,-0.01419071781393751,-1.4112536600660839,nm,0.0
20.096089839935303,33.44991969360434,63.75745716736625,-25.604872040539014,-0.7081647866762997,-1.581936983689953,-2.4983164411016445,0.5307171002484102,-0.09960148503131741,-1.2548412419099877,nm,0.0
20.09895420074463,38.028158810633,63.79692387498649,-27.090471063344786,-0.30861476561055656,-1.7230477721216002,-1.4989057990570351,0.35810873580779634,-0.1758100038516927,-1.0915605519810057,nm,0.0
20.11418581008911,37.077029196573115,62.37410355341682,-32.94273210298286,-1.196805206365712,-1.264648122766528,0.0720923413781781,-0.2219325932285427,-0.07100984052202469,-0.2962119076276642,nm,0.0
20.131364583969116,34.392538815095364,61.87112175724643,-35.702628827237184,-0.7232485069405011,-1.441985020981794,1.234965208818763,-0.27265850115532564,0.057185845518654674,-0.014744328305297393,nm,0.0
20.14383316040039,30.283687834238652,61.83043516013736,-38.055161746361016,-0.7168416424084039,-1.0228759730179737,1.4184016883547694,-0.3231506314561677,0.22513709810793833,0.33364593897298883,nm,0.0
20.150691986083984,25.826958145985376,61.97650461046459,-39.923680475310725,0.10336053746564966,-1.2891154666292166,1.3924010964583373,-0.31585407171224966,0.28555803334245305,0.5077971133725052,nm,0.0
20.170936346054077,15.08385695192605,63.302757289408284,-41.275011942317064,1.618861497048282,-1.3638868684650727,0.6342030731856436,-0.2962357038882129,0.4721494202484085,1.074169186619024,nm,0.0
20.173346757888794,9.157049381455964,63.999702557115135,-41.39004083843784,2.4650026169363377,-1.0505522190119614,0.6769356492994841,-0.31050528611468897,0.44855232963314595,1.1385369359543527,nm,0.0
20.182895183563232,2.457779177058503,64.29644701621584,-41.82577572899494,2.314252310259045,-0.12187857577319783,0.17782550024461766,-0.40513535591021554,0.42768396556351507,1.2060766842309285,nm,0.0
20.218712091445923,-10.226293862875178,65.02702836875645,-43.163726540720354,2.3781211394637314,0.5877602787468048,0.15533913686727677,-0.3200054364552498,0.3972494345470679,1.0034085109424085,nm,0.0
20.22176170349121,-15.253733117449487,65.34417909477517,-43.186359812957484,2.166794220407961,0.8391377712237756,-0.04290410019709535,-0.27162200855932905,0.32628029737364794,0.9441842868440874,nm,0.0
20.22434949874878,-18.72114154716989,65.6777945777252,-42.193073577074586,1.9933055105880038,0.8084535180162074,-0.380676594446573,-0.17301221321478788,0.23427672254943663,0.8512706173880671,nm,0.0
20.240241527557373,-20.55413333298567,66.67315639943892,-37.18163875797457,1.8108411994632037,0.7483709957586205,-0.723383007451931,0.036518017893915684,0.0668814772755524,0.6372885389386088,nm,0.0
20.268092155456543,-16.885365447846873,66.00325908931742,-29.64121634586452,0.7718451515191858,0.4056059750649589,-1.0669293082723283,0.0946948556244729,-0.21718046891148246,0.3110821352366436,nm,0.0
20.271776914596558,-14.200621754110692,64.78366636926877,-26.319506497007538,-0.4396313472232928,0.2632979565019213,-1.3334122424799582,0.07849147196125543,-0.3324133888847381,0.15231147654869998,nm,0.0
20.296663761138916,-5.6984132635224265,60.45890036469435,-21.120354816929776,-1.5243048595584276,0.10260108631189846,-0.5216040445948543,0.2521813178458651,-0.6563432440709653,-0.4433732787471116,nm,0.0
20.306358575820923,-0.23607278042131338,57.610202366446565,-19.252805147246065,-1.2508640324333624,0.17510708088998106,0.635605302300325,0.3279246226258097,-0.7401874476379985,-0.5903979517402851,nm,0.0
20.308682203292847,4.786247515172984,55.11444589134625,-18.307175480643,-4.218827308211164,0.3528338312419039,0.23072221645311194,0.362848802946971,-0.6627084585148989,-0.665846968584327,nm,0.0
20.40814185142517,10.903210114340407,53.553717982138195,-18.97602040150469,-3.2555250920189196,0.718089319593128,2.1590797257747854,0.5729076001801865,-0.5336252257112304,-1.1473780310310615,nm,0.0
20.41077160835266,18.995971631719407,59.10826303029498,-30.164947563318,-2.2458495627534023,-1.1192841524009391,0.472422656980973,0.47335375399289703,0.5110116706219671,-1.1290880902245475,nm,0.0
20.415987253189087,54.44509191303432,65.19622973234502,-20.290260329023504,-0.30667773362745926,-1.6512339088277679,-1.2834237782628395,0.31966329441973745,-0.21092677114810265,-0.8633950456402372,nm,0.0
20.418108224868774,54.01415480170464,65.79200498019604,-23.798771514075707,-0.5495053998490732,-1.2711348041599486,-1.0332517262994962,0.003950421822597973,0.12470249224943965,-0.5880685881366002,nm,0.0
20.42172622680664,48.87941004387348,67.36586895981219,-31.00300587206487,-0.3653657970538392,-1.7284218120199677,-0.5947712600381718,-0.2242349447663095,0.4690856503506971,-0.43912469047138764,nm,0.0
20.42555022239685,39.16231137577929,69.36330217672798,-41.3047574959075,0.3909205517427546,-2.297047907955123,-0.0963554734804919,-0.34885985579011114,0.7464066679445795,-0.1790323685145745,nm,0.0
20.443618059158325,7.414959401819698,69.53482118573868,-64.55574088861067,1.265482080546508,-1.616087194218753,0.8404661672588593,-0.7886830400591922,0.871541104212059,1.07926877216978,nm,0.0
20.447227716445923,-4.899866329160937,66.69670801195579,-68.76400967993987,1.9341554933101657,-1.9457713022357201,0.9752600846132609,-0.8929079077663582,0.6190960872270407,1.5422232219576346,nm,0.0
20.475399494171143,-18.224351757547133,64.4300030581101,-61.5056878604204,5.2676442667020185,-0.1395346883046611,1.4200738312099341,-0.30628103663912026,0.4489458511766885,2.230432670060893,nm,0.0
20.480347156524658,-24.21537461709841,64.76410923278479,-55.42288182984172,4.6588749703969965,1.3075853582693577,0.9182427290471571,-0.22044942767652337,0.466156256043169,2.356234708150888,nm,0.0
20.519370079040527,-36.248719362690366,64.27885727010676,-49.01102741163175,1.0110251557479613,1.7099182119540488,-0.35502220798159145,-0.35487341318101917,-0.034834966217496044,0.5855369360771315,nm,0.0
20.521435976028442,-35.825386005724255,62.09932988615601,-47.93154919464318,1.1214912961172567,0.8522221781509561,-0.7016899302864195,-0.30691643612534886,-0.3310533851507419,0.11470915441278676,nm,0.0
20.544411659240723,-32.89000596024962,60.286746197115804,-48.71321839748818,0.508368012560701,-0.1888800612222568,-0.8653130464468474,-0.01663458585892769,-0.2044961199136424,-0.3169517731085701,nm,0.0
20.562570571899414,-16.78694031670053,59.34931380536388,-40.40224609561327,0.9245533872638008,-0.7204733854586431,-1.28123565499613,0.7195313812509203,-0.7153596140484427,-0.7246550789438335,nm,0.0
20.633007049560547,-5.719010813025622,59.295630542747766,-33.64655139694876,-0.4135292646421007,-0.49496188605928326,-0.8177508809945656,0.8903903281149964,-0.6970158989976931,-0.607754649967555,nm,0.0
20.637454748153687,17.68253977343616,53.579276760540544,-22.052087062375715,-1.950877789385984,-0.18662567069442096,0.8016555480998376,0.8778386086176926,-1.2321322565738269,-1.0222089371353216,nm,0.0
20.64070963859558,35.241104378449904,47.82408226808321,-22.626438639529603,-3.937409183765043,-0.09292528754461613,2.9976044887187947,0.8480396105937668,-0.74233220608651,-1.6079504382751575,nm,0.0
20.64334273338318,48.22047246793124,52.88558225401305,-30.659478767484202,-3.087901797805231,-2.399076499226367,1.4837535746052828,1.041865857439051,0.31299053683120304,-1.7875081277971754,nm,0.0
20.6604483127594,54.61407300446192,57.57822787779752,-32.669651724642975,-3.4204973696128866,-2.2138607129208556,-0.8786797966741751,1.1095204444947149,0.4155999187200866,-1.4281148193075992,nm,0.0
20.662768602371216,64.0683667813954,60.64962143466768,-30.95856149177753,-3.2794226845018426,-1.5872291571081205,-1.9045591088623517,1.1431325598650162,0.011174832032014383,-1.2562490469560568,nm,0.0
20.66530132293701,74.66154742149496,60.82960662723505,-27.361346376673215,-2.7329319051889382,-1.9691183628215738,-1.8374735238616315,0.9157412974308382,-0.4698762883030035,-1.0989969209166566,nm,0.0
20.814563751220703,81.36527371585579,58.6802002562425,-25.175032015804437,-2.4881001020988314,-0.9119022442304632,-1.947403931439025,0.41115813499230053,-0.6791846175650849,-0.7336200556188052,nm,0.0
20.820060968399048,-48.46345422142933,57.42308902899903,-62.11211617121417,0.4752459185462565,0.6451997744829078,-1.767070774713807,-0.20590389925680436,-0.09536222630774431,-0.4181257004277451,nm,0.0
20.839759588241577,-39.95398611203279,57.40342636090752,-61.71172097014154,0.1963423218897067,-0.1277217368225851,-1.3146714913278776,0.3473676867212975,-0.5183120984704022,-0.7267924441979304,nm,0.0
20.85698914527893,-31.285246930358287,58.14925242075548,-58.525902776603914,0.11632476057306963,-0.029220531444100802,-0.6317450554657094,0.582421944399894,-0.7388587243786765,-0.8368813973310434,nm,0.0
20.87603235244751,-10.177238339828364,57.8199013591198,-49.58974046575757,0.12286199317814224,-0.22870015923565387,0.8172694669068662,0.5844127619134883,-0.9329701182546895,-0.9830256068829166,nm,0.0
20.894549131393433,-1.8394990244840748,56.99200485402221,-47.7179842148493,-0.5469562949649536,-0.3597453239023578,0.9708126917905228,0.462804996630007,-0.791637631242045,-1.0824319182793243,nm,0.0
20.92143177986145,11.595429870244446,57.20595297057514,-53.317830597963855,-1.3139159639542028,-1.4389721661393973,0.0017081600563692084,0.3006476682154362,-0.164807104834581,-1.0711742475565051,nm,0.0
20.9244863986969,14.18149376958822,58.07496058595617,-55.086956009430565,-1.4107821026214828,-1.5772415386927139,-0.4506504025204663,0.29433226394003675,-0.12628167459518738,-0.8370489499199596,nm,0.0
20.941718816757202,16.747693730794605,58.48042637977745,-55.28671368691811,-1.497017711827226,-1.5143083602829568,-0.8639810861528149,0.2116824441437464,-0.17838438400223885,-0.4953770234689765,nm,0.0
20.943894386291504,19.621776485632815,58.18999974314331,-53.767416582368014,-1.3691722427346875,-1.3959357827180496,-0.8975106442066223,0.1185011417921829,-0.28244602231709426,-0.18179123774458614,nm,0.0
20.973450660705566,22.343466225457636,57.320568534104815,-51.22396863869076,-1.0128152544449416,-1.3002047820131035,-0.4323512930283403,0.029438702254257945,-0.33923319460526213,0.06434444810642924,nm,0.0
20.975727081298828,21.256750295456836,55.51816309423057,-48.085027308508735,-0.34806399677019506,-0.4623806803466578,0.5805631793069728,-0.18663833969581084,0.17559493226802633,0.32437973487131233,nm,0.0
20.993550539016724,17.42333208565494,55.834453727092225,-50.23571516119429,-0.1579072676803544,-0.3408256898364922,0.48841053008286406,-0.2430233727575307,0.3654864687398116,0.25047856946504204,nm,0.0
20.99578285217285,12.58838617080655,56.14716179945596,-53.43650812131827,-0.008989300848588481,-0.3429211276206802,0.18116253904731083,-0.2934798614104278,0.46062292806452704,0.20279735202367755,nm,0.0
21.03292965888977,1.883836028451837,56.074371809120876,-58.97292431110829,0.23171556189734116,-0.399725786662369,-0.27971180173571436,-0.15438954093327306,0.17672983618521163,0.27893851908868994,nm,0.0
21.035147666931152,1.059941610962227,55.92851436053808,-58.19330147424928,0.4009758205556007,-0.2731517571889572,-0.1817039652625875,-0.08270348471246698,0.05792621433748999,0.30860843268601107,nm,0.0
