timestamp,roll,pitch,yaw,acc_x,acc_y,acc_z,gyro_x,gyro_y,gyro_z,markers,motor_input
12.546427488327026,26.225568795848556,69.7266335651077,-29.04631576825943,-1.2870346082649582,-1.0190623515744137,-0.041115093260251645,0.4135525071183192,-0.004859786075558987,-0.5059953254198463,nm,0.0
12.556320905685425,36.52582921605787,72.14438823922109,-22.916256786367796,-1.1373527163258934,-0.8026231853786276,-0.5737231147657811,0.3900568052692161,0.07867816350397065,-0.34792865925787514,nm,0.0
12.58077073097229,46.77642355899952,73.76720714533154,-14.901258353675802,-0.7753466320506945,-0.30806736160647463,-0.22339476497984484,0.2764188224576614,0.03413615612455123,-0.1279328669807184,nm,0.0
12.587758302688599,48.62270917075176,73.72889995720647,-13.106983937477782,-0.6171729709956238,-0.3918259713758023,-0.026138761665903572,0.0883169052583161,-0.033818694684419386,-0.013598948901928145,nm,0.0
12.609401941299438,51.91655361463071,74.29718901777339,-8.537242449940656,0.049648232822431415,-0.26005436538986326,0.6601216083082617,0.10726245784794113,0.0836263626493546,0.2124746012488374,nm,0.0
12.662010431289673,49.926815672330626,76.28060690475024,3.390492456435596,1.6423850999397485,-0.24858550366463925,0.12870572807190073,-0.08012934985020463,0.014904531078171046,0.7242826489528064,nm,0.0
12.664111137390137,48.85601870852114,76.37790113090388,5.648354660188758,2.03585934609331,-0.04772299401694127,0.07493837835983203,-0.062192110977208705,0.011042076276835292,0.677968325881259,nm,0.0
12.667787075042725,46.73353295179825,76.42340392634765,6.945130368615886,1.607683148465383,0.31421797863772555,0.007435780573869695,-0.10994585679897363,-0.006980371271425341,0.687117198209236,nm,0.0
12.693941354751587,38.98501846763749,75.98026437814269,3.976762154981158,1.5443117968702682,0.24164577027142486,0.3502015391467919,-0.20434808027979875,-0.07496233316267494,0.38146231738075764,nm,0.0
12.697171449661255,34.65920793412891,75.85091942212658,1.162549334300693,0.982997718089925,0.19667284539155652,0.5161307910751699,-0.21713470382976155,-0.04205963436788884,0.2803127599700166,nm,0.0
12.722728729248047,27.79769331496265,75.81292822739411,-4.787219267179121,0.5190980971986515,-0.23142838293662374,0.45331616448328443,-0.15466124908954818,0.008328242999627675,0.0057996757419380976,nm,0.0
12.725630044937134,25.980926791223578,76.12156207212233,-6.910708030204261,0.4112084128593037,-0.4383018717473145,0.1548192264335152,-0.08925412242871206,0.0636755896179422,-0.08211129815220856,nm,0.0
12.757850646972656,24.795177266958902,76.83723198630669,-9.828816651288093,0.28060468101097663,-0.5970569417779463,-0.664541843446595,-0.010405442413434439,0.052248419884362046,-0.22449986445038453,nm,0.0
12.776784181594849,24.60610861538767,76.94251961992845,-10.840297129591994,0.247847717631337,-0.6747136714363643,-0.8806621257888161,-0.013141844468420772,0.015653193080081042,-0.17531953740354297,nm,0.0
12.778860092163086,24.395716487673358,76.09877456668707,-12.535122031499455,-0.7103661751273768,-0.4866004209213997,-0.9037858148474535,-0.027597110191097774,-0.12984713594672753,-0.20323593153677902,nm,0.0
12.795353412628174,24.62716396885925,75.34948686664175,-13.35663350496466,-1.0739131397425323,-0.3455563085637142,-0.596925108332558,-0.031165940711183355,-0.15609472114957962,-0.23260494185769154,nm,0.0
12.797870874404907,24.718038336700314,74.67411750665961,-14.571023551876817,-1.5689041384380462,-0.2714041534622402,-0.28738268940101974,-0.03664876784476408,-0.13939529395197212,-0.2906265008850501,nm,0.0
12.804123878479004,24.96094868095051,74.28580535064373,-16.40623846536711,-1.553832226404002,-0.29958365167761375,-0.06544990557865547,-0.01678719963419256,-0.08484917718013252,-0.4451102759681648,nm,0.0
12.809892416000366,25.201914872441158,74.49298536134955,-18.774843349898273,-1.5322294593534547,-0.38180037477463513,-0.09407651074078047,0.01625079585394002,0.030136291618853304,-0.5498205185146176,nm,0.0
12.841721296310425,26.239124030824605,76.19338984429525,-24.285688154363505,-1.481044853732139,-0.6469887258613887,-0.8466160848071725,0.10128001327690764,0.15608461339021737,-0.7347667370620727,nm,0.0
12.844102144241333,28.41173339580253,77.09336889949284,-25.76563411850371,-1.377638440682875,-0.7550691046177046,-1.2717836707048165,0.15782103560090632,0.11833910265433831,-0.7561331453309025,nm,0.0
12.850444078445435,32.6196427011232,77.63788473572653,-25.095842742772355,-1.4181714944901829,-0.7432323367964824,-1.459048160413802,0.20302923407498555,0.01768900170395288,-0.7269244165902069,nm,0.0
12.86782693862915,38.21934350482966,77.49996731554282,-22.832309752698464,-1.184753739617287,-0.8374097199455293,-1.4058263247943659,0.19841913824677054,-0.12469846583096096,-0.6812806487475231,nm,0.0
12.873656272888184,43.8320178119162,76.7644046089124,-20.017928922200127,-1.112561584743847,-0.8152398572995072,-1.253535164696121,0.16806383743451328,-0.22995921628500435,-0.5713311979918388,nm,0.0
12.88189435005188,48.95289391478769,75.77803545751424,-17.19720930711803,-0.9338999922340793,-0.8513008110631501,-0.8890684257048975,0.15667917196867143,-0.26594900549963385,-0.46799640022991096,nm,0.0
12.913622856140137,56.36442114491052,74.18292426753169,-12.689065564608484,-0.6172767696565845,-0.7375261709142554,-0.41092275433074943,0.1278139437623508,-0.1714781965089834,-0.22098320657109036,nm,0.0
12.923487186431885,62.80175803619263,73.50554732203881,-6.6452910732950645,-0.30420590637841133,-0.6251749919612586,-0.15154887278208837,0.16160542768970046,-0.08694206024839382,0.04231236783080123,nm,0.0
12.925976276397705,65.55331655258594,72.97543244327298,-2.994781106468227,0.42804745627832974,-1.1621432303552182,0.6511209598056884,0.13886605854518316,-0.11886188664660666,0.19373350189102398,nm,0.0
12.942975044250488,62.826921677099605,72.05945872612196,-2.3494378636905737,1.4912387569555678,-2.3891996659674475,2.9335427745695544,-0.18225247175519158,-0.17643302226338303,0.6518477103317356,nm,0.0
12.94857668876648,53.29917873176491,70.91160762080831,-5.698977607811073,1.0376955180464402,-0.8436045210869129,2.044604994879888,-0.6291341745562128,-0.18821967770377282,1.1551105962054864,marker_1,0.0
12.976691722869873,43.10048185286869,71.97767366343037,-1.312974748892187,2.507666293684516,-0.06943140039961454,1.4074352157334424,-0.2351032879281215,0.22207885061628221,1.4935754975493638,nm,0.0
12.987746953964233,33.725780431781345,72.89027741043424,1.8767408678875348,2.298027044369623,0.8729553657350775,-0.980237921991691,-0.28361763008530044,0.046533469582164644,1.1187481775696013,nm,0.0
13.003821611404419,29.373544876516227,73.00159089314195,1.4931961262148263,2.122336326448824,1.1295242559647394,-1.0064221609194053,-0.26345417143109645,0.007730759569925093,0.791679254887773,nm,0.0
13.012683391571045,23.90197180072203,72.12451274700722,-1.2214141270016543,1.2768149908383644,1.1321600423586078,-0.7687271624711481,-0.3344136046228533,-0.18473493025793541,0.5233908060179261,nm,0.0
13.030069589614868,17.2724603060803,68.61170712250404,-6.600630429271429,0.7794156058385666,0.49207034763343754,0.7054769468047615,-0.18030909882895635,-0.3301263956891599,-0.0321094354331766,nm,0.0
13.034029960632324,17.323758262677252,67.3112455903315,-7.1577945298757575,-0.10109587848893248,0.35587363372848524,1.158825419362716,-0.0331609867467664,-0.2683258341039279,-0.1308987120495101,nm,0.0
13.05046010017395,22.34009979257893,66.22100997870865,-4.868032879474968,-0.7526269037223008,0.07395618219114314,0.8283294373138557,0.2511901283033484,-0.06615317756252027,-0.2768486345008553,nm,0.0
13.066949129104614,26.227913931185597,66.48568369207153,-3.1135749134293818,-0.9644512017161079,0.03601835155959581,0.3365336197809863,0.3088846852411381,0.02366320336831253,-0.3727176566490094,nm,0.0
13.069214105606079,29.777862180729244,66.68203855683709,-2.3393892423416776,-0.3447176756081583,-0.15231790259860256,0.01098648940128923,0.2775533392057019,0.018847727463795923,-0.5084157704861844,nm,0.0
13.079877853393555,31.935927437450495,66.97831728777966,-2.688405856824129,-0.19179072748076012,-0.49592465326581603,-0.40777218876455856,0.16575729832870945,0.045353903168962754,-0.4903360979473286,nm,0.0
13.102916955947876,34.00661271531361,67.51595614190998,-6.632948486526214,-1.1000073832017065,-0.41278856688110444,-0.5447809614425709,0.056163233917407164,0.01191877637734729,-0.7076675656827672,nm,0.0
13.106549263000488,34.13562416258385,67.39663062745423,-10.30010889806423,-1.297220166393643,-0.5834169552629581,-0.44166377271092366,-0.0010138481390256403,-0.03064592278034754,-0.7912976620505836,nm,0.0
13.130368709564209,36.1713902055782,67.92136690007565,-17.370470489781606,-1.479159858652394,-0.9145277498176773,-0.13410414238672846,0.1235826444557395,0.052637626013305995,-0.9804807104052101,nm,0.0
13.157341480255127,40.71751248393006,69.92920223474908,-22.32875854069844,-1.4972244856633896,-1.3831971577157074,-0.8361333087103016,0.25058008316327796,0.1485696941769567,-0.9342430616895482,nm,0.0
13.159465551376343,44.21972037152049,71.09583200347343,-23.16723770534745,-1.3004143133301826,-1.5834056986673668,-1.1631867267627556,0.29689943194924867,0.12492345013090873,-0.8729521495603043,nm,0.0
13.168665885925293,47.61726202432738,71.89393494689789,-23.123713526534992,-1.273481189862644,-1.570613718903048,-1.4383313415466208,0.2519154502402152,0.06282926463758885,-0.6910689610787459,nm,0.0
13.17948865890503,50.61376789159515,72.17191383580024,-22.481441282412288,-1.3365750883325878,-1.3550889310382022,-1.459270581082052,0.18264004408482828,-0.019488203315707192,-0.4898410198531548,nm,0.0
13.19716763496399,53.115010019135916,72.01513350596498,-21.570203575982408,-1.007503872775923,-1.3045250722442137,-0.9030696722785068,0.12135660621443355,-0.08595876623789397,-0.325705474674552,nm,0.0
13.214195013046265,43.27311684123641,71.75709400980274,-25.56694680808825,0.2409156098207897,-0.8866985241450969,1.1671558323570708,-0.3078226173639858,0.21306035844895532,0.6592556600726821,nm,0.0
13.226202726364136,35.93257248593966,72.82779023660234,-27.635405317412307,1.4809705117548164,-1.1029328008097294,1.6511936990447373,-0.3127191421471051,0.3909690339781777,1.0200854512145348,nm,0.0
13.243476867675781,15.920378969529576,74.22714253856208,-32.158737842426454,2.875228932795161,-0.7188067773254428,0.9389921587727271,-0.4267212358437691,0.3441642526905842,1.5886750613524432,nm,0.0
13.299227476119995,5.293864907089256,75.14822964874678,-27.195158602971155,2.3318457124791307,0.8923712553779227,-0.9149474980165206,-0.11679804198654671,0.18905888372291305,1.512875398637228,nm,0.0
13.303773403167725,4.917928291017483,75.4789181728688,-22.054293415947235,2.246782486438496,1.3129234483655892,-1.0655731121988934,0.0014011114963967278,0.06049918156811942,1.1410288664036774,nm,0.0
13.30612850189209,5.156518872122806,75.16154723480452,-17.76785102839602,1.6703611408231342,1.5874477085705738,-0.9329424774742872,-0.018678181253496188,-0.07293851765563399,0.8389002836298732,nm,0.0
13.309014797210693,4.830546965613287,72.84368871675461,-14.985191251922187,1.0030015695282009,1.2182433368943715,0.17520339380425884,-0.08201365524633543,-0.27053103772942205,0.12723054609066373,nm,0.0
13.324843883514404,6.809167991462673,70.77228576647596,-14.856006156917537,0.34872082203980825,0.4247581258451897,0.9186144363070545,0.0509816083452816,-0.18905766269221644,-0.2615161661588874,nm,0.0
13.343555688858032,9.920306786806549,70.71393526258116,-13.701720922455886,0.08425556309244464,0.1942658074869438,0.7540008764477308,0.18977278965887492,-0.07104767248107309,-0.3666035571128822,nm,0.0
13.348919153213501,19.47161114378682,71.48439018717212,-9.055370649099535,-1.3127721333212437,0.2260931619952514,-0.6379467233360478,0.33469333093478926,-0.006394080597655778,-0.5004457184636505,nm,0.0
13.364042282104492,29.477207109873238,70.17655071409543,-7.001162089732163,-1.0931398627680662,-0.1487496736595957,-0.44369537899823847,0.23787659036245554,-0.2576986828527975,-0.8276592014400785,nm,0.0
13.374125480651855,31.979546829751463,68.47519793389303,-9.340703010487053,-1.0223651310654296,-0.6984335419098161,-0.18764662494741663,0.11990224988329305,-0.3690740133275653,-0.9875296560450514,nm,0.0
13.4183988571167,38.58914888530466,67.27947307596818,-19.93254967701511,-1.9746604076773173,-0.9648380595449894,0.18000063178235134,0.13292313423977145,0.006075462992363009,-1.2388233815691632,nm,0.0
13.421760559082031,44.41408683252243,69.66763668138118,-26.37999423509274,-1.8222981634867272,-1.668083979586329,-0.44281521003247043,0.3411588138381195,0.1680663535405157,-1.1782560489814613,nm,0.0
13.444897651672363,52.84140958102057,72.14418912838752,-27.28121345802989,-1.8351309957283914,-1.6249420205673684,-1.4450343372544587,0.3344568567223373,0.04861827269638195,-0.8409860162189453,nm,0.0
13.461783409118652,59.65063829114575,72.49544798089477,-24.946269234485946,-1.6011962485673479,-1.2068246256638075,-1.3020608918683898,0.12120582297185313,-0.07720308137335878,-0.2871379250359398,nm,0.0
13.491681098937988,44.063414014226105,72.63172674649817,-30.517774867569372,0.03168011179498634,-0.612930602906592,0.6895720328134956,-0.530193147632953,0.36106831838090075,1.2702987524966296,nm,0.0
13.495948553085327,30.342118805762937,72.5314008944281,-36.68333335884895,2.0228460854405768,-1.6003058340743073,1.9993406397405968,-0.703738981036609,0.4376699624204932,1.4386762952298118,nm,0.0
13.528522491455078,0.757783391339984,72.26136248581224,-45.468785899933025,2.8085700218451746,-0.11455762488175074,1.578960127140433,-0.602907832994015,0.565325464737175,2.0580101244933595,nm,0.0
13.530805826187134,-7.547005461552741,72.64522549886772,-44.22001963169603,3.548010312244075,0.6646997480711836,0.6497704472761675,-0.3099579634784253,0.4019751820240651,1.8904111664490566,nm,0.0
13.534651756286621,-11.933073903274177,73.78111585561994,-39.721908712702025,2.830551953038673,1.4082615789995676,-0.7038170403460332,-0.0444072627056981,0.33153370566810686,1.7898114654628983,nm,0.0
