timestamp,roll,pitch,yaw,acc_x,acc_y,acc_z,gyro_x,gyro_y,gyro_z,markers,motor_input
18.538060903549194,-2.269146532865244,64.86213579191313,-14.50043490283444,0.22987635276753507,1.172972213197533,-0.3515728725006091,-0.08856868724678309,-0.04890878825899089,-0.08452754181817022,nm,0.0
18.598959922790527,6.493878106778403,63.93291966829252,-14.693196598012152,-0.22448445427658797,-0.22605001123201565,-0.6615857284175657,0.401112214139455,-0.19316519239346513,-0.6983885585403597,nm,0.0
18.6010582447052,13.974235474089452,63.33295130318927,-12.289689570763452,-0.4542270978123666,-0.3536017757786525,-0.44878774152443723,0.6132516533617369,-0.28077420991024354,-0.8714619673655528,nm,0.0
18.604058742523193,22.51228263982426,62.36369389429708,-9.375641440233435,-0.44789497911898196,-0.6597384551118142,0.08266081573882314,0.7237347941756191,-0.3447015779351612,-0.949166350503729,nm,0.0
18.606277465820312,30.76826025068787,61.191291372874275,-6.899330772265813,-1.3768573157659771,-0.8776840928869676,0.16576176437021492,0.7344062195315721,-0.34929001670490417,-0.9726915623689177,nm,0.0
18.608795166015625,39.088216731734754,60.11473806855079,-5.402247650894057,-1.5590643294706175,-1.1760417083164378,0.6593313249466514,0.782327141120324,-0.3066715160348852,-1.1648150591716386,nm,0.0
18.624526500701904,46.752398721413215,59.56603100124504,-5.120583733575507,-1.6838393142458,-1.6568058039168632,0.9368004166268507,0.7512772188598034,-0.18362358865750272,-1.28326688108308,nm,0.0
18.626689434051514,53.596845989927616,59.879146793135504,-5.672888811662364,-2.1021895698534645,-1.8803129396243397,0.6399817535990349,0.6872105040290352,-0.0046233594992873125,-1.307180345322583,nm,0.0
18.633103132247925,60.33276052987467,61.026113649742165,-6.283406666426771,-2.0325077504307436,-2.1405785118856335,0.24112153662385577,0.6785038651713485,0.15870657280211664,-1.3088014562901695,nm,0.0
18.666797876358032,77.12818218333203,65.07044322723411,-3.387377074172881,-1.905666875741742,-1.5668125274165272,-1.6951861321203694,0.3897871983384199,0.140844092362463,-0.527930587075455,nm,0.0
18.669286966323853,79.15217648109476,64.96272869236498,-2.832721616819193,-1.4658704982917672,-1.5426699256898164,-1.7830063728249044,0.16200667644726074,-0.027627512281398408,-0.26802322962646247,nm,0.0
18.693548917770386,75.42981359968991,63.29596766007877,-4.188824373880895,-0.5792425677989687,-1.434481864278929,-0.8077995906541947,-0.27595789022676753,-0.15986757665236542,0.325133900005723,nm,0.0
18.735413551330566,53.19552393589358,64.72356417920129,-9.51193536440785,1.3946917774823597,-0.9582000254063308,1.0015846340962031,-0.840426362508686,0.377846107933803,1.2854440472300046,nm,0.0
18.73992943763733,26.975668069812222,66.48381904878241,-18.2989800819046,3.3555300211677226,-0.2274794680719634,1.3215061432703483,-1.0419806506276001,0.3940266350787732,1.5603213634290591,nm,0.0
18.75532341003418,13.677607818626557,66.22493964977502,-21.667593184242747,3.5328184129293265,0.6980300243824988,0.9574286540513993,-1.0279508695809485,0.30845460303098937,1.7567430739109178,nm,0.0
18.758707284927368,3.1652955927816433,65.70253605575796,-22.555861890614715,3.3075717161029328,1.5002243367827257,0.62698212074704,-0.8401476169058608,0.21664484237050552,1.7370669943806485,nm,0.0
18.76377820968628,-4.348808479356896,65.36026606075475,-21.468204814476614,2.590723483921384,2.2347355842906014,0.255157722051755,-0.6091240508229105,0.1596395663959566,1.5800070544524076,nm,0.0
18.79334783554077,-12.56003339292699,65.33079329479315,-18.037827755962553,0.27702444607633053,2.295716040358583,-0.30369471293672845,-0.23171921493076553,0.06963747614320087,0.8399718205599503,nm,0.0
18.803810834884644,-14.470323615243675,64.66635666974254,-18.044611020298138,-0.23210495946027027,1.5866435069319862,-0.49361216211057474,-0.07643340060072766,-0.08472734755616054,-0.028466237091145458,nm,0.0
18.8214590549469,-10.393149117420833,63.55369372602485,-20.328820596906134,0.03972042858794684,0.4974240152513366,-0.6268584493971925,0.21286814183333597,-0.2019347094993028,-0.757891629731577,nm,0.0
18.850698471069336,3.171126925269837,62.85707847107947,-18.369905612532808,-0.586519061738936,-0.373457215779311,-0.5229000670698096,0.6865272740767686,-0.32481593734705017,-1.1234152881910864,nm,0.0
18.87760615348816,24.589738427078593,61.13476567165971,-11.555928463227545,-1.197281151685942,-1.0933277213785715,0.48787481930327675,0.9426998292311504,-0.449883596419787,-1.2106560152336936,nm,0.0
18.880974292755127,45.129317258560995,59.02966307854084,-7.8474142935566595,-1.6553774599147473,-1.9249672796096189,1.297202727283666,0.9540938558775404,-0.3185608065702896,-1.4842887444007717,nm,0.0
18.89808225631714,53.58187395303451,59.190987084244895,-7.922560285212056,-2.053875725882956,-2.0747698850532594,0.8286630297073182,0.85854275276745,-0.08901760789646872,-1.4806190336842342,nm,0.0
18.901248931884766,61.53226079024765,60.50172204164564,-8.143400135622345,-1.936914383634025,-2.2603230568879127,0.23616292476903777,0.8216260997995389,0.14806241654988478,-1.4340841703770082,nm,0.0
18.929510354995728,75.08089313079996,64.51391446318752,-6.160130442174262,-1.9953468294873036,-1.8635332397198845,-1.5509195569533398,0.5898113887059653,0.326927862920303,-0.8385397734346222,nm,0.0
18.93277883529663,79.38174854143516,65.61349971040488,-4.8686474915299565,-1.7833154178006507,-1.4614487849084754,-1.9929119990420847,0.37474172565941943,0.18820338113921864,-0.5344208099904495,nm,0.0
18.93657422065735,80.32875393074498,65.60632734024813,-4.848977062467173,-1.3651701365045479,-1.2614383253589163,-1.9611096257045995,0.07029936872233332,-0.00435317635852587,-0.18048150489784587,nm,0.0
18.952550888061523,77.86557060857865,64.75865325162829,-5.951773579189156,-0.9347687051305649,-1.2234463711220769,-1.4991835179960586,-0.22946080943934757,-0.14655305766232707,0.21522223702933355,nm,0.0
18.95597004890442,73.1820911938011,63.702827787683006,-7.205520574543359,-0.2520720347051568,-1.4943040263589993,-0.575988234564906,-0.43659113150510753,-0.1611592878648662,0.5817994621339732,nm,0.0
18.976295948028564,57.670312726571304,63.74383552497021,-9.184475281146359,1.338077374119076,-1.3462962084758197,1.2027328907859005,-0.7831705245013133,0.22179038195556441,1.3731776268138283,nm,0.0
18.99499011039734,45.93633963113246,64.89986638287583,-11.644700170537925,1.8212766246896934,-0.7538820876325307,1.391956890005262,-0.9672252458581473,0.40827938237285827,1.6137214479463433,nm,0.0
18.997167348861694,32.41199712523896,65.85872897248669,-15.65247349959863,3.133868454912668,-0.48156475990197317,1.6860358155199027,-1.0581451856974644,0.44678166056527335,1.649538217798125,nm,0.0
19.005345344543457,18.03399266661257,66.15343820105977,-19.859142851354076,3.5523587124214364,0.5533996029830278,1.2620018591972586,-1.103326110816226,0.4054045933598508,1.7796329281901946,nm,0.0
19.036898851394653,-3.885549821171477,65.60133489746238,-22.98345635842327,2.5497612919316994,2.0371781041192865,0.003917332867190744,-0.7316429875588861,0.227173799829496,1.5844778265023494,nm,0.0
19.039846658706665,-10.404921812921627,65.52872290532345,-22.139587577595858,1.183015954246622,2.239316812267301,-0.5570617486206284,-0.508986840900057,0.18263024073985992,1.3505334528742627,nm,0.0
19.05851125717163,-15.176842694650235,65.28400374472236,-19.893150520495656,-0.1347887093709921,2.0912691517866318,-0.6381680284934584,-0.10815873260861117,-0.025395778551228442,0.39012571845301336,nm,0.0
19.063008308410645,-15.280547947777139,64.7261724291161,-19.908869924516114,-0.4670579288633086,1.5842909431577947,-0.6561666012895404,-0.04913706888200473,-0.11427680057155226,0.008199276960178598,nm,0.0
19.07829713821411,-10.601011803675608,63.331911892344806,-21.773663179882124,-0.2627985411369448,0.6223813926666052,-0.41538188659984354,0.2211124162255655,-0.24490395568961706,-0.8072161773085803,nm,0.0
19.09808373451233,-5.5852970211131145,62.89599635325318,-22.265648329129885,-0.5535338399870345,0.023161498375059188,-0.36688700625584725,0.3841101453364446,-0.26230373522832484,-1.0033024269433175,nm,0.0
19.101933002471924,2.1516076845171472,62.706815803140586,-21.437988798062747,-0.7854548767810077,-0.2973428152796461,-0.14418805239897126,0.6379659068283432,-0.3086631799532093,-1.2221532787496476,nm,0.0
19.122084140777588,22.811337348133282,62.246329174529514,-16.393778285954262,-1.115724063681605,-1.172728987268861,0.7771750389643526,0.9086309975032381,-0.3641293410289381,-1.3230497927971892,nm,0.0
19.140273571014404,33.69529100614551,61.81516157148654,-13.923312503900508,-1.3754156341562083,-1.5035944655161184,0.9861606993303765,0.9566119447363504,-0.35534064211568994,-1.442648275625441,nm,0.0
19.14249873161316,43.81358788059958,61.654361719681944,-12.510736640314871,-1.2947809692617491,-2.02082110160922,0.9739213729117396,0.9192525041486937,-0.2537603562873197,-1.5144253346678016,nm,0.0
19.146472692489624,52.44011597514601,62.231172347574606,-11.942028604204053,-1.6673706130797254,-2.0782721305856278,0.2527594748233439,0.8110080056221936,-0.06059967559041021,-1.423425794513536,nm,0.0
19.179704189300537,66.47639885994477,65.08704564580617,-11.145060786611184,-1.570850166796383,-2.132134761873464,-1.08921657993501,0.5941217444980079,0.20157086011859637,-1.0678437679738604,nm,0.0
19.182278871536255,70.63552047663603,66.37978761241816,-10.732606200011498,-1.723100556931854,-1.5263640516213455,-1.682982492116846,0.37723317078726176,0.19216122343426262,-0.6891151312901058,nm,0.0
19.184455156326294,72.33724677316606,66.93541321368194,-10.893560160814449,-1.571926842014292,-1.251381002856271,-1.7330290606486796,0.14554879771555995,0.08709200054704794,-0.35711056017069054,nm,0.0
19.202016353607178,71.17607302529042,66.6723659736449,-11.942562661422418,-1.1539314229345887,-1.3192474221926875,-1.3482298237201058,-0.10807633374779307,-0.03089446078841431,-0.008019117922862374,nm,0.0
19.20673680305481,67.53807730280312,65.91289597540315,-13.285240245199128,-0.6161114329238839,-1.5045577000586048,-0.6851536497009586,-0.32692630409381324,-0.08260554473667113,0.38666205539562987,nm,0.0
19.2113778591156,62.161695107983874,65.20890752140988,-14.216826372947764,0.07322232784575773,-1.5464123558575946,0.12756344627067484,-0.4742026622018939,-0.03010736254690565,0.7821425736070685,nm,0.0
19.235751390457153,45.04439770045939,65.24532842506767,-16.437778470313365,1.5987493594178803,-1.0825882086169325,1.1645373497797693,-0.7910048716802582,0.2737532432171231,1.4898817040669854,nm,0.0
19.239665031433105,33.70174727409825,65.68294634871424,-18.632337412395092,2.376986578151664,-0.6780686743504778,1.2487451860948982,-0.8810012649818877,0.36318394677403315,1.6165746027325896,nm,0.0
19.258376836776733,21.597540883138464,65.86471090302443,-21.25943687242335,3.4146976543488936,0.008793602835261422,1.3064139536677577,-0.9300073856723576,0.36694140441126344,1.6752282226671977,nm,0.0
19.260735273361206,9.369251630756889,65.60558632675276,-23.540214812333918,3.0757650853144187,0.9983678598266319,0.5988697779769855,-0.9568847273058653,0.32724929300978206,1.7676927138744538,nm,0.0
19.269394636154175,-0.7304878090833282,65.12768371718117,-24.63164357872586,2.692002859430701,1.617400102941703,0.13354531407469117,-0.814750366421332,0.24701815837090052,1.6124291669812525,nm,0.0
19.297050714492798,-13.390570098423524,64.18744044559375,-23.66037448044579,0.41476773828445906,2.0179055440710103,-0.8372475371226701,-0.44524687101907356,0.08212667685580113,1.0930304912677407,nm,0.0
19.307054042816162,-15.330072919942143,63.611764567954694,-22.22034784402983,-0.18042485386784687,1.8604933010983495,-0.9060727782340201,-0.20581188205711612,-0.05161442537030184,0.6300912057812594,nm,0.0
19.319366693496704,-12.785923448866987,62.375437549916796,-19.51780419370595,-0.5622032636358234,1.156127229188886,-0.6029669782202931,0.13409804864687022,-0.19077799267948647,-0.1325235113343745,nm,0.0
19.33655834197998,-8.675427601365536,61.78500001578125,-18.414807264403567,-0.6044586048061082,0.7744096498379951,-0.37712652065516816,0.3228774809112631,-0.24877263165611047,-0.5148307226348549,nm,0.0
19.342500925064087,-2.876304338919792,61.26464207310946,-17.314033976522598,-0.5841593198666258,0.39741885281878936,-0.1065313513392439,0.49132031013226113,-0.2800570870661904,-0.8094991987162687,nm,0.0
19.347412824630737,4.361499762884044,60.891716301281356,-16.08055120125083,-1.0557053713082072,-0.021860004165109873,0.00548059225011041,0.6455472012465902,-0.2830138125092835,-1.0315885576031172,nm,0.0
19.37074565887451,22.72821080172148,60.36510862307844,-13.378316368096137,-0.8036238543247145,-0.9481563103837586,1.0309871789328162,0.8767458686290073,-0.2727121210743859,-1.3847712198872066,nm,0.0
19.397584438323975,41.529614016050914,60.74846261605842,-12.190933824096417,-1.1279544773850882,-1.9512986437265127,0.9109148804173388,0.917273522896904,-0.1280812102871536,-1.5890996663669115,nm,0.0
19.48212695121765,57.34815471732676,65.63688091278723,-19.35275839781431,0.07317774237640662,-1.5552682803138442,0.22856288147980416,-0.5710504487108444,0.1678405806500718,0.8258417887789723,nm,0.0
19.48716449737549,47.892620789622946,65.8122442122081,-21.73156596888117,1.096233429223896,-1.697120499345366,1.0317463207971413,-0.7248628428434006,0.3050030530055922,1.2385279412389791,nm,0.0
19.509660959243774,22.743622448635126,66.08851656488497,-27.172113673361817,2.8230100981712805,-0.781596556908089,1.3876284443871185,-0.960620870983783,0.4598250868931519,1.8458265092133364,nm,0.0
19.51256561279297,-1.0986146385451034,65.24784643612963,-29.30900797169959,3.5148918601692594,1.3077012983789602,0.5469600866904653,-0.8883428841016534,0.3663091983330125,1.997326497291812,nm,0.0
