timestamp,roll,pitch,yaw,acc_x,acc_y,acc_z,gyro_x,gyro_y,gyro_z,markers,motor_input
2.538734197616577,-42.289084753653306,17.957469815538957,132.32171458504305,-0.5239098047551105,-2.0073078786500678,-1.8709422670494578,0.40598082569427224,-0.00360472047114322,0.204512890420705,nm,0.0
2.5556812286376953,-40.61507416094261,16.190897562385594,130.47174315472319,-0.416158113563792,-1.8345584207177668,-1.2197142328909103,-0.07984075588181082,0.29708515179245265,-0.3795883780727728,nm,0.0
2.575566053390503,-37.99321212983983,15.886233885100028,128.3969304251206,-0.6822502130800527,-1.4749678938414217,-0.7412273954997697,-0.26905852150176574,0.4422488782114448,-0.5594660330088499,nm,0.0
2.5783989429473877,-34.746878810341045,15.899378404330246,126.13486345369878,-1.1186135333538505,-0.8990198147034733,-0.23326170398657717,-0.3756103345602505,0.5095511007221194,-0.630515422333455,nm,0.0
2.5832037925720215,-31.115444824115933,16.40520710513748,123.76407569310199,-0.35767683791388727,-0.1148483176543811,-0.4084195687703061,-0.4773296800107906,0.5277668907701951,-0.6773181525855401,nm,0.0
2.6121554374694824,-17.903951660916867,16.19644286166932,120.19282431859993,-0.15525241047092822,0.20764029554367008,0.5870268450945187,-0.6538318359078817,1.3446968735253035,-0.6951842049440652,nm,0.0
2.6145944595336914,-8.444044792763302,15.501077603249524,118.90717755396321,0.4709910019780685,0.9120051944489509,1.869920698456453,-0.7661610901158844,1.6676554120891218,-0.717090510345105,nm,0.0
2.6167097091674805,3.13597607209058,15.553947018008271,117.79210743381515,1.2787783724750212,0.3522170038419845,1.59489819076274,-1.05716401616516,1.975334842301187,-0.7785964970216217,nm,0.0
2.6474006175994873,25.647907981204003,14.38921929126014,115.55598361995668,3.183017698445814,0.974132656894092,1.1761501921406867,-0.7534316192468269,1.934981231032444,-0.7556356316730015,nm,0.0
2.6634204387664795,44.09342688934189,14.336568305351973,115.34669177997372,3.4702804924931896,0.21488871554878286,0.2896935038930793,-0.7208223985587482,1.4656398131708352,-0.38841224737513974,nm,0.0
2.6660406589508057,49.27289252467132,14.26275452829804,115.80052516461909,2.9056268076521117,0.054003299125160546,-1.2183265399463692,-0.42042408462395503,0.9178482956194671,-0.20965184033007617,nm,0.0
2.6843132972717285,52.292553587147005,14.075835808737619,116.95373971974468,2.5234430061534607,0.32501950211489095,-1.410963322692428,-0.22734547911740408,0.5465648167283205,0.024755386467385617,nm,0.0
2.6864912509918213,52.672638762909216,13.924090631023958,118.66395676433562,2.1774452536992195,0.3134861565280575,-1.071929832858328,-0.007176798689435044,0.08457545912273287,0.31044842391137983,nm,0.0
2.6927809715270996,50.07048329097631,13.69140199761031,120.41050477716533,1.756949297722241,0.5610313587445002,-0.8814939198480946,0.29071030936300984,-0.41191134160562454,0.4606065265044268,nm,0.0
2.7483530044555664,30.945298641794178,16.026022297231652,125.15109274832581,-0.5774124726192463,1.0947401254778895,1.438428755454937,0.6891390610454052,-1.5061237941410173,0.6871741096046114,nm,0.0
2.750450849533081,10.572205825709837,18.63089300275162,125.65414117686976,-2.8425427110824426,0.8190163682889979,2.3947213935978957,0.9697217301162767,-1.7367963209714326,0.5423464043161043,nm,0.0
2.7695629596710205,-22.797031134699495,20.040863533753644,122.9446067313709,-3.6851869049261134,-1.1407488730170294,-0.640529676614056,1.1301020933316537,-1.6296715961992914,0.5042537075607977,nm,0.0
2.7967424392700195,-39.162671872634704,18.734967053930752,121.34930367712066,-1.8273780156119692,-1.341006713248963,-1.8762815811675027,0.8358993749183046,-1.0429308384826133,0.3259890333817739,nm,0.0
2.826066017150879,-45.62528420613316,17.268814951200167,120.06450711612207,-0.8875870413599865,-1.471290435288266,-2.1931424293230997,0.318353887759731,-0.2562315225255941,-0.05275492615198908,nm,0.0
2.828270673751831,-43.65600152843766,16.39267788708887,117.13079735744611,-0.8313823238537319,-1.110196564246265,-1.4448269196945753,-0.10488313058852433,0.38405479807361487,-0.44538701926594865,nm,0.0
2.8456993103027344,-39.83813843689477,16.17398237008121,115.22778365323778,-0.842972703949075,-0.6660013433558576,-0.8384806230301086,-0.27698484586923144,0.6905339556618229,-0.5844392576919017,nm,0.0
2.849017858505249,-34.06432390288955,16.216864499771535,113.29133192412776,-0.47738116012488346,-0.21603292140162136,-0.36609675863972274,-0.4548095168433362,1.0214974424783885,-0.6816441786271968,nm,0.0
2.8753018379211426,-15.112300466789073,17.11562297345724,110.44269810241796,-0.17646954094420866,0.04259448892308727,1.2661453713702746,-0.827664642636881,1.8924090712268535,-0.7643315143814133,nm,0.0
2.879396677017212,-3.473977545068667,17.860355217609026,110.00113901311343,0.8834633996207745,0.21421100268912496,2.0788594213015386,-0.8929791543181458,2.04696344785773,-0.7269478606093239,nm,0.0
2.8858041763305664,8.861346721658325,18.38810351306362,110.0671430889143,2.200657997477162,0.31272893307367394,2.381173393059049,-0.8905072118998264,2.179996734070332,-0.7147316760118158,nm,0.0
2.9197587966918945,43.86349401878556,19.57017685775682,110.73014621195941,3.5968750201558417,0.24281379660009766,0.6236646778066421,-0.8112310380280784,1.7987212993576116,-0.5842871402763663,nm,0.0
2.937624454498291,51.59940328389845,20.3891761726077,111.43727483397002,3.550379422395879,0.174308685483198,-0.30809602685999954,-0.6741283831097707,1.3035536942982413,-0.3911753072532724,nm,0.0
2.9450623989105225,56.62166428502381,21.084703982964353,112.68100452608678,2.6142399844116873,-0.27045787422810796,-1.6772585306165249,-0.4822175718613739,0.8220177075982378,-0.14377169354626138,nm,0.0
2.9755783081054688,59.48254316752161,21.027854270685683,116.13744108420683,1.9477806216305167,-0.046563012851464365,-1.551375295901828,0.0688309356473855,0.009882778799349949,0.3596897967909885,nm,0.0
2.978182315826416,52.24827963831368,19.362237183484574,120.41793323689103,1.1429899096235203,1.291509682019932,0.2748896889744385,0.5702613330587173,-0.6779522695547211,0.7729817005123724,nm,0.0
2.9808051586151123,44.52384070887729,19.248584713871093,123.1358419223627,0.06913216903897834,1.653076215624362,1.3405457069689346,0.7903749486769726,-1.224452360085255,1.0414114654269728,nm,0.0
2.9966604709625244,34.04374146517758,20.004512221992453,125.5367626540345,-1.1482599603866193,1.6664903797733004,1.8295824633550755,0.9940923382122705,-1.7116724045825251,1.1719559182370851,nm,0.0
2.999016523361206,22.236687797734554,21.22145996568715,126.8950835889932,-2.2612704971886277,1.199711913548714,1.9096592993716126,1.116646252518296,-1.9215583336594497,1.0925346956216724,nm,0.0
3.0299088954925537,-3.6013202277076406,22.216806080787684,125.40758718154541,-4.889887818753322,-0.27774552049194984,1.7114590994921515,1.4612849736963556,-2.0239401050440318,0.7363038558075812,nm,0.0
3.0443811416625977,-28.85178021396311,19.10917748716447,121.61091421104105,-2.995473973294595,-1.3509636335030213,-1.3478806179193612,1.5628422544703238,-1.6234922740999447,0.46138869015487904,nm,0.0
3.0464980602264404,-37.956757049598934,16.090999815625263,120.78899987098205,-2.231554253670954,-1.5536013177128765,-1.6187461694286696,1.4226976765031143,-1.1613886147313044,0.387918279308825,nm,0.0
3.0654406547546387,-44.5228869911446,13.35454101717374,120.63636156814738,-1.4021974323700575,-1.5592517228780316,-2.004405339059379,1.1261297513684267,-0.8009280138665286,0.3060680316819513,nm,0.0
3.080662488937378,-50.37388556606427,11.43108509743903,120.28626665482373,-0.2945233794395549,-1.5875794157551724,-2.239294263687811,0.2143151207596621,-0.2119539329053277,0.00023496803393840155,nm,0.0
3.109867572784424,-47.68832041767048,13.214341202952873,118.38039510345553,-0.1951009167612657,-0.9945647334466965,-1.9452429045448019,-0.39953170074632927,0.26678995404412426,-0.35448420105452166,nm,0.0
3.112022638320923,-42.911231576970856,14.037187976714575,117.1458930709856,0.17711642418456414,-0.4824422102128998,-1.817397124734274,-0.572239363665725,0.7586759969505811,-0.4701876168535006,nm,0.0
3.129699945449829,-34.91286096175464,14.050389103037048,116.20856535179092,-0.4289225860962656,-0.06557607362302714,-0.7971248514311099,-0.6897933348121426,1.4011929282411577,-0.5292349626541091,nm,0.0
3.1324305534362793,-11.208559052182798,14.203650751378786,114.2589222401984,-0.4076846017107296,-0.1436251888415003,2.232751193956275,-1.0687632003715213,2.23089915436164,-0.7040223341474928,nm,0.0
3.1418235301971436,1.360686731311793,14.355694871868732,113.52128315265513,1.5672798251203914,-0.02497298550902003,2.4545082563428195,-0.9975638484059854,2.232979718228118,-0.6692048756238647,nm,0.0
3.1696367263793945,40.804113821260245,15.366982592157274,114.22941349902295,3.581623165567071,0.13640776738581467,0.9892979535242289,-1.132944131108863,2.126497812819709,-0.541161136618336,nm,0.0
3.197345495223999,57.82986510110355,17.7198673547446,116.67713385999492,2.8723014800508677,0.4316799665831237,-1.502581100272466,-0.8086151544475897,1.1308701565956047,-0.15441897918250874,nm,0.0
3.2002036571502686,62.68373935368956,18.349287128751875,118.38290716440008,2.432006297819454,0.6373827311817042,-1.706279851647021,-0.5398406301254697,0.764360942706933,0.02623771923250005,nm,0.0
3.2152528762817383,64.21677971322472,18.24770905073505,119.9651423777726,2.0528584473328424,0.7373825219639113,-1.8111413491806712,-0.12561450467947272,0.26726289052074337,0.20623651616078975,nm,0.0
3.219975709915161,62.62495976464733,17.575176915782617,121.37371376472436,1.240928881564705,0.5111726339122615,-1.906180525714645,0.2694320129912468,-0.18903773468858534,0.3659687218364491,nm,0.0
3.240630626678467,51.89482178750552,16.70748873296143,124.52768851967745,0.8321821429908435,1.240737505150243,0.8633890766255577,0.7449778589742719,-1.0623884742981389,0.7008801397105018,nm,0.0
3.2474560737609863,42.10738169858808,17.74207664180002,126.02811305144107,-0.15533327389599885,1.6462484956721901,2.3374018428645713,0.9145871827618534,-1.6422163932382032,0.8670043517229804,nm,0.0
3.270399808883667,16.82346782361182,21.679968426656004,126.6220134604398,-2.6227721740917116,0.4515567634988979,1.9486216865709527,1.1611605373608334,-2.14371416111663,0.8458876599037284,nm,0.0
3.2734429836273193,3.4981593097358656,22.331105730619058,125.48351781529003,-4.640480503010916,0.24818289402796914,2.8114445306457814,1.3574239496730331,-2.066512538097575,0.764952199137932,nm,0.0
3.3010811805725098,-23.745043103186294,22.09926773610604,123.21366729978152,-4.162677101610832,-0.9554733855193819,-0.926477215052788,1.3997856813103584,-1.9785169108337919,0.787714977755608,nm,0.0
3.306184768676758,-34.727358521384325,21.021593024375925,122.71380061415054,-3.2252079390361326,-1.2586880104657028,-1.480762161119666,1.299620042258736,-1.5860998670765258,0.7079669542253701,nm,0.0
3.3290209770202637,-49.31638716749141,17.49679548119084,122.22973957125005,-1.148427857946077,-1.8650981160862699,-2.2030115457862487,0.9535359892014733,-0.7895728143755795,0.32677817865306424,nm,0.0
3.335994243621826,-52.88394870909407,15.622267950622856,121.51073624306375,-0.22789128249474114,-1.9137047381239294,-2.2094208199784076,0.6849832538313007,-0.3702933365614045,0.06340567410312352,nm,0.0
3.3411319255828857,-53.51355125599296,14.04123359271774,120.29588490257484,-0.3072725495241407,-1.9732442393265777,-2.0902213344374516,0.33918472394614396,0.07096995461281458,-0.2068705235228414,nm,0.0
3.360811948776245,-49.19294985133095,13.432847008779412,115.74922524248268,-0.18671673889820248,-1.19107057336082,-1.3439249718367507,-0.30296491895095007,0.5353026867532005,-0.6832002208737193,nm,0.0
3.3786141872406006,-43.80934001585908,14.202434501643506,113.32753986039071,-0.3613364442487076,-0.5405232325554045,-0.8467194136326722,-0.5671723096604594,0.9010564101986721,-0.726759446253005,nm,0.0
3.381059408187866,-35.84657795417546,15.381049394160227,111.4735881148062,-0.1611400640290444,0.182023775466352,-0.3311530780741418,-0.7942589221311859,1.3494112326718364,-0.726395680714989,nm,0.0
3.4495151042938232,1.1945821827927243,18.17695610610426,109.88983566353699,1.4906382819835837,0.527961482972999,2.3844551383560435,-0.8478814846085493,2.280136844670351,-0.7575600062660879,nm,0.0
3.4521212577819824,14.645586155388164,17.780184417725074,109.73435887218405,2.6430390192181434,0.7439615340319125,2.8989592794099774,-0.7865905690816682,2.445440274912554,-0.8721983665866975,nm,0.0
3.4547665119171143,27.677940575468146,17.623593343621067,109.08220785797214,3.222859616693584,0.5667981768789037,2.2126309543223006,-0.7909432157370366,2.3622895805341466,-0.9352245948389589,nm,0.0
3.4575867652893066,54.003657114174466,20.076448579578148,109.05341643222945,3.204901585799745,-0.07823520068631673,-1.1638190367383576,-0.5607488324615615,1.0916414851210166,-0.3483071551324246,nm,0.0
3.473346471786499,57.88923277947513,20.34994937377953,110.65282217634157,2.966200114049319,0.1108342954397791,-1.355772776457414,-0.3006090214470822,0.6704622570920391,-0.02369547438013114,nm,0.0
3.499908685684204,57.054807144800044,18.800100672899408,115.08127616553755,1.9808079605974493,0.11039064720806299,-1.4416012613510834,0.31940429983885016,-0.18821014080206347,0.5791048068948066,nm,0.0
