timestamp,roll,pitch,yaw,acc_x,acc_y,acc_z,gyro_x,gyro_y,gyro_z,markers,motor_input
25.051817893981934,-37.135607869730016,15.941278630548492,-80.48747976101652,-0.5874291067649343,3.646882670502753,4.057788595515476,0.43073190807727696,-2.694565267336017,-1.9533185300664102,nm,0.0
25.06382131576538,-24.278078242672144,19.836887524560506,-88.8129039634437,-0.10113235890014977,0.3451190000384314,5.5433628366143575,0.9918675618053808,-2.3795407801252106,-2.4534775273185834,nm,0.0
25.084958791732788,1.7225945834625664,34.10380835739935,-95.80265369312866,-2.9900175392861783,-3.8226936789563593,-0.6370693385817632,1.2441780155310556,-2.6717347182609856,-1.6716944434222951,nm,0.0
25.111260890960693,36.84865848605008,35.152107024651016,-81.91069933511866,-0.09499615192354624,-5.688940048285008,-3.3377082523462676,-0.4806265430273499,-2.7394877413566228,-0.3511283340388206,nm,0.0
25.113561153411865,44.704428485806666,26.682687102970473,-77.76964784006931,0.994730293323112,-1.495585978822835,-1.7393182427158997,-1.4327503835100837,-1.6304004984401361,0.004894001943985895,nm,0.0
25.123074769973755,44.9336379427823,17.57622753189777,-79.63049895545183,0.8850643351602916,1.185529974748831,-2.973411084156283,-1.7843007007609548,-0.40348803679765294,-0.4015419652767861,nm,0.0
25.14203929901123,28.892083005640067,9.80105090951516,-88.13222433975506,1.727448889992723,3.992012898968836,1.8305804997186592,-0.46972278787092503,2.4785417688824802,-0.4001630135076225,nm,0.0
25.144250869750977,12.9459541418062,11.023329673570771,-91.3387338232696,0.4021736507924163,3.3837162261180755,1.357969207234392,0.21858434364346058,3.1363662744421412,-0.0695023225204417,nm,0.0
25.156097173690796,-2.4451106078517846,13.266991486294677,-92.40961701063704,5.319765439038181,2.313399961814919,7.183188379030339,0.5331798230036807,2.9917634929420682,0.42929161212014333,nm,0.0
25.187777280807495,-44.235498066535726,16.4227462173804,-89.71558426049849,10.617980024688483,-2.171659912546924,-0.7947727204213945,0.4004628508482792,4.088936317510095,1.5740830802087717,nm,0.0
25.193257093429565,-65.90133912536238,20.900676364162262,-89.95095874308325,10.003910036202798,-2.233986528845547,-6.078716679150176,0.8650425772426688,4.104248754169469,1.347343936084487,nm,0.0
25.20517373085022,-88.23029127332107,22.940447997826816,-92.63812137789452,0.692573152091096,-0.6624453248290244,-7.713473470773279,0.49108973087922425,4.124849239455233,1.1445794831450817,nm,0.0
25.22465705871582,-110.15462657519338,17.08585863422525,-79.92859220489953,-2.1977758099105253,1.652763193197555,-3.9116610903624456,-0.5645031298221298,0.30635388847101686,1.3521038483952788,nm,0.0
25.236423015594482,-115.48224294512578,15.039217028642572,-73.4538698203356,-6.985083169274794,0.0146464312475248,3.4304796239327575,-0.632243813654673,0.8939537020314671,1.6005419903066522,nm,0.0
25.24770951271057,-116.72331726548126,15.415972728097268,-68.8001175758138,-4.612314928223044,1.9362918423523916,0.6223124998347702,-0.00212322158422159,0.24178467788297536,1.0070897571036594,nm,0.0
25.322141647338867,-124.33748987932861,23.100920565833285,-74.94607434976618,-5.654897101334209,1.8891027802904985,0.9879601749372549,0.6876498533119595,0.9737471681857428,-0.7718083725708417,nm,0.0
25.329262256622314,-138.93308719708534,27.65176581308379,-89.99700998805804,-4.624330643917923,1.0984221864177608,-0.3628647301697621,0.04976508680453917,1.4759374252934883,-0.7201937551939505,nm,0.0
25.33398675918579,-153.57313369681705,18.580749267849423,-84.0312031918228,-1.1640003571732271,-1.5440790069748962,-0.6277495146003753,-0.24092079956940007,-0.42717694671298834,0.5939206922229241,nm,0.0
25.35038948059082,-146.93910942798163,17.300913272962255,-82.42958690961078,0.1808186556283638,-0.41012889508082656,-2.011164981564116,-0.09739169453508494,-1.2937223306790029,-0.08097118289152089,nm,0.0
25.360377550125122,-120.96162040583853,16.30665767813738,-86.16188131611345,5.964983002093386,2.950852061129267,-4.016327323121145,0.2774137638865841,-2.893989863696082,-1.3666900733816272,nm,0.0
25.377033472061157,-84.02914482593036,19.320055864176705,-87.98992433659178,7.901615978460547,-1.0798580820608472,0.30851577413943226,0.42750036089056165,-3.474497388868907,-1.167771321190477,nm,0.0
25.39356017112732,-68.4425628046036,20.65255264591162,-88.4422484550549,6.635437913182779,-3.052322395118142,2.4905130210161195,0.34790425460640695,-2.9338490800607855,-1.1512174140016707,nm,0.0
25.396059274673462,-55.7055520128967,21.871710942699675,-88.96492790200327,3.6140919061747425,-2.329134555037767,2.1732784047706724,0.28658015633791944,-2.380622595745841,-1.0258717440752358,nm,0.0
25.41073751449585,-45.77911337290007,20.136191290414214,-84.76395163295537,0.9826685425545464,-1.7604745933728616,2.440658361306775,-0.2726710489092207,-0.34193916419422216,0.414194345059619,nm,0.0
25.42731285095215,-46.488342040903575,19.419945087146008,-82.47839643473267,0.20670059652904188,-0.4259085813405171,1.8261813837547185,-0.16780482317736473,0.1069497204263442,0.5076804130232547,nm,0.0
25.431638479232788,-48.386175505866625,18.926158024922245,-80.46292158019612,-0.28181186633409566,1.206116190149856,0.6672343731349933,-0.16087978839394673,0.32999230782598954,0.5307880905063327,nm,0.0
25.457385301589966,-51.6857786493509,15.343708500107212,-76.61435929598002,-2.4881816221732977,1.0011777428039321,-1.1580958062317235,-0.4403769457528779,0.03988062698262612,0.3656681282320939,nm,0.0
25.463804006576538,-50.989483264710394,13.662172023613625,-76.74636586535085,-4.194452994414962,1.208464256819347,-2.424922743956776,-0.30542694157317074,-0.21980612749959638,-0.05768969829225083,nm,0.0
25.479026794433594,-39.270731364917566,10.615893986704195,-78.04823534571062,-3.9423722927712976,0.7973271009656094,-1.3075024545524707,0.08045250199624526,-1.6819097655906072,-0.44270361799354785,nm,0.0
25.52665901184082,-26.11193216931123,10.846514347877786,-78.8833241842254,-2.240349833972326,1.6953128387737626,1.4846092586897395,0.5521284898731091,-2.537649504567371,-0.6581440301609812,nm,0.0
25.529112339019775,29.138692626182618,16.41897199938314,-79.723798644716,-4.785501778043976,-0.5087272369318417,5.008354065421506,1.2042072251307168,-3.700877607646647,-0.9910940012671949,nm,0.0
25.531334400177002,47.960117271975435,20.111833208607045,-78.32945710752088,-5.083871338573298,-1.8030981899049026,2.2162622537968635,1.3977705051941562,-3.3781413238904965,-0.9186856675235414,nm,0.0
25.552239656448364,79.24542215201596,23.50166448149588,-74.57448442838722,-0.3574205691472796,-4.124432183526688,-3.276206580061796,0.7337490374534955,-2.555953028669615,-0.839737266465896,nm,0.0
25.575897455215454,90.07581089213365,15.242889544602347,-78.22654098949273,4.386030283916854,-0.2558178124086074,-1.684348025575559,-0.91136320840711,-0.7364682525143639,-0.8303488140906311,nm,0.0
25.587260484695435,82.00876198720624,7.198739391560994,-88.01077027724278,4.446404091635839,2.646353818593041,-1.1233796992472054,-0.6604172829512966,0.9743177803448688,-0.7864205751495966,nm,0.0
25.604880809783936,75.25148048046701,7.051521415062506,-88.86685243973683,3.098719541057454,2.9175090224527915,0.47442878182869513,-0.06398561669044836,1.3354402254154176,-0.01643227983846675,nm,0.0
25.607074975967407,65.62056031532366,9.145914140596338,-86.78923156823578,4.263413534474735,3.00950324023478,-1.4177634208283294,0.3462084132675159,1.9188139786048986,0.6730560114664776,nm,0.0
25.61518955230713,57.01719664226415,12.583022106307826,-83.90554635311832,0.4698423239162226,1.0513109464376678,1.2286039358665697,0.5464262087540964,1.7381057636330657,0.8870657151693624,nm,0.0
25.632084608078003,27.231340732220545,21.19568998565696,-80.55276548429424,2.6347087748392894,-2.6069912989598327,1.8779019667067127,0.24796221831210907,3.426969633874649,1.3340208488621246,nm,0.0
25.649494886398315,-0.7845422043247549,22.195001104461703,-81.00383838186748,2.9239270823174173,-2.2121114558420385,-3.3431110658569874,-0.46997140051870234,2.248215249363623,0.8479622694741715,nm,0.0
25.65906858444214,-6.925753043231989,19.22392329076731,-81.39311764946405,0.748944551726143,-1.1439280615903822,-5.136415211477875,-0.774452703443284,1.0386457202890242,0.3513786010492703,nm,0.0
25.685325860977173,2.564973215820592,9.461896896893277,-78.52692854527636,0.156558732301681,0.6779115691374255,0.06550935270842775,-0.6784868690878805,-1.6076413910341336,0.11459058049970053,nm,0.0
25.68793821334839,16.114791466472887,5.9598024345414835,-75.62872578747208,-2.220344777343684,4.936458648987959,1.6533006339814793,-0.08652097058153528,-2.786365019139545,0.20465950093114607,nm,0.0
25.69793438911438,36.909657459079135,3.4019432190722814,-74.76413647671104,-3.4077028940738505,6.8111274851499495,7.784393647889713,0.5667588845488892,-4.150951380200108,-0.17985837399093937,nm,0.0
25.708410263061523,55.4596881230377,5.023284631649078,-77.51572656829319,-7.091488783629789,4.410741942124702,4.954200388118536,1.1993040175491188,-3.5274452513635994,-0.8319415941673578,nm,0.0
25.71607732772827,71.72889695321577,11.95571467061218,-77.3373619009866,-8.84744008083548,-0.09750332207469141,-1.346317690770736,2.0618183420119536,-2.842595879853581,-0.5523947586594814,nm,0.0
25.724843502044678,91.87204309947184,19.21309936133766,-72.38397915823629,-7.0294356113882825,-4.105391657547259,-2.450596860315252,2.4212372905148536,-3.3686368678160985,-0.19484061267698222,nm,0.0
25.75715947151184,113.6092222600604,21.656130908814816,-62.58192651097061,2.0502624208808,-4.122666525767736,-6.912173350637656,0.3313266539438498,-1.2180799125077224,0.1693544045092162,nm,0.0
25.761508464813232,118.35257982613308,17.318532118997894,-64.8256708212493,3.7407683965725225,-2.2737987475588355,-1.9199179227726815,-0.3710767509676404,-1.187838136249469,-0.7747518849004698,nm,0.0
25.766281366348267,120.68834467133841,13.196596234916333,-72.12203367624572,3.9914388680436126,-0.3830367833945506,-0.7697083496043887,-0.59191325372692,-0.7256366193736253,-1.5916445558106154,nm,0.0
25.791707515716553,120.30667418389159,6.994258164271577,-89.15816772037662,4.639471175081978,4.295537022472265,1.597560754065667,-0.5701934376547616,0.22503672261559593,-1.4625462590633804,nm,0.0
25.79852533340454,120.08071184920217,6.235706132926113,-92.1369498847498,4.581811577272143,5.327556604412248,2.429812265868465,-0.14183616176553634,0.039691793197285184,-0.5991743306940741,nm,0.0
25.820430278778076,121.60407338785706,9.9943854932391,-86.0235565612097,6.446022348470538,0.9472925022180047,1.1801748572905593,0.48211749056410824,-0.32314191957818883,0.8229451224870754,nm,0.0
25.82414937019348,126.33764852792446,11.217955831498548,-80.50115551801419,5.447011953862815,-0.23659835379267422,0.4730488778919094,0.36454861524138593,-0.9005147924913214,0.9231182382090375,nm,0.0
25.830876111984253,131.87779706585226,10.5188225126559,-75.30315920195277,4.635682703231851,-1.5885945034174414,-0.7025299864951783,0.10426845032532006,-1.0975802056338548,0.824618855224812,nm,0.0
25.85832977294922,142.32854662058676,6.3487974847739626,-72.8430861870403,2.894640378416315,-2.621932345491902,-1.4360217141126128,-0.08587957630374309,-1.1145173423631665,-0.20839668544880424,nm,0.0
25.860350847244263,145.4211049586841,4.83257619562421,-74.60494693072889,2.6741314346942193,-1.2064669114165687,-1.216744679069529,-0.10519496795398726,-0.680228731431761,-0.4158286443613627,nm,0.0
25.89160132408142,133.8810817074204,7.88209592515704,-76.5516133562262,-3.8804418575836817,1.1185593864607553,-3.7211333920672285,-0.17936157488847748,1.9489235028384682,0.3509701952592341,nm,0.0
25.89655041694641,121.94314011926213,8.248011519746557,-74.59386806829454,-8.514937626360222,1.1276016247833875,-2.1995878048792243,-0.5012941228296238,2.307932344219527,0.7756751507989437,nm,0.0
25.92777180671692,85.52434563858058,9.702386627772695,-75.09924927019362,-7.689607401934698,-1.1656328094848671,2.8399990091769385,-0.8881554001688208,3.644053733006247,0.53266240812416,nm,0.0
25.92994260787964,70.61633206939146,8.78750019487219,-75.5722419799952,-5.995003977130795,-1.7527427867520964,5.112418106851676,-0.9032867546009877,2.804632071702838,0.5066113308363099,nm,0.0
25.998268842697144,51.42472467271332,5.705583910587335,-75.52024859169106,-0.16198332618755792,1.7037426691072062,1.1927210792444625,-0.6768142984428547,1.31123744886486,0.2520890984506885,nm,0.0
26.00210976600647,50.1856597326311,4.482459828003175,-76.54553244302583,-0.3765567233392545,2.2682032514751373,2.342982775860708,-0.2985694727276534,0.1747204219944359,-0.11308509907520668,nm,0.0
26.00516176223755,54.987933325388234,7.274557908798418,-80.77205474222167,0.0475858439835668,1.521691734910349,0.32121931138829357,0.578010821658716,-0.6138193108451402,-0.5870518501607399,nm,0.0
26.007914543151855,65.02583340848584,12.935200799800715,-85.5962167395018,1.7332123553169072,-1.4765856300857179,-1.328260721352681,0.6079728625312613,-0.7987626156562028,-0.6115979902229941,nm,0.0
26.010977268218994,64.30844622978847,11.448330013074406,-87.32036451799236,3.237717909773918,-1.8271680457508235,-1.9083474257306825,-0.46403680903649486,0.3304185530667304,-0.03465663969127061,nm,0.0
26.035027503967285,59.49723195323035,7.371366333138448,-87.45615109797713,4.19434930283464,-1.5261634681463534,-2.5415545472618155,-0.8580022359521718,0.9083258478989673,0.16082872028884737,nm,0.0
