timestamp,roll,pitch,yaw,acc_x,acc_y,acc_z,gyro_x,gyro_y,gyro_z,markers,motor_input
25.552239656448364,79.24542215201596,23.50166448149588,-74.57448442838722,-0.3574205691472796,-4.124432183526688,-3.276206580061796,0.7337490374534955,-2.555953028669615,-0.839737266465896,nm,0.0
25.575897455215454,90.07581089213365,15.242889544602347,-78.22654098949273,4.386030283916854,-0.2558178124086074,-1.684348025575559,-0.91136320840711,-0.7364682525143639,-0.8303488140906311,nm,0.0
25.587260484695435,82.00876198720624,7.198739391560994,-88.01077027724278,4.446404091635839,2.646353818593041,-1.1233796992472054,-0.6604172829512966,0.9743177803448688,-0.7864205751495966,nm,0.0
25.604880809783936,75.25148048046701,7.051521415062506,-88.86685243973683,3.098719541057454,2.9175090224527915,0.47442878182869513,-0.06398561669044836,1.3354402254154176,-0.01643227983846675,nm,0.0
25.607074975967407,65.62056031532366,9.145914140596338,-86.78923156823578,4.263413534474735,3.00950324023478,-1.4177634208283294,0.3462084132675159,1.9188139786048986,0.6730560114664776,nm,0.0
25.61518955230713,57.01719664226415,12.583022106307826,-83.90554635311832,0.4698423239162226,1.0513109464376678,1.2286039358665697,0.5464262087540964,1.7381057636330657,0.8870657151693624,nm,0.0
25.632084608078003,27.231340732220545,21.19568998565696,-80.55276548429424,2.6347087748392894,-2.6069912989598327,1.8779019667067127,0.24796221831210907,3.426969633874649,1.3340208488621246,nm,0.0
25.649494886398315,-0.7845422043247549,22.195001104461703,-81.00383838186748,2.9239270823174173,-2.2121114558420385,-3.3431110658569874,-0.46997140051870234,2.248215249363623,0.8479622694741715,nm,0.0
25.65906858444214,-6.925753043231989,19.22392329076731,-81.39311764946405,0.748944551726143,-1.1439280615903822,-5.136415211477875,-0.774452703443284,1.0386457202890242,0.3513786010492703,nm,0.0
25.685325860977173,2.564973215820592,9.461896896893277,-78.52692854527636,0.156558732301681,0.6779115691374255,0.06550935270842775,-0.6784868690878805,-1.6076413910341336,0.11459058049970053,nm,0.0
25.68793821334839,16.114791466472887,5.9598024345414835,-75.62872578747208,-2.220344777343684,4.936458648987959,1.6533006339814793,-0.08652097058153528,-2.786365019139545,0.20465950093114607,nm,0.0
25.69793438911438,36.909657459079135,3.4019432190722814,-74.76413647671104,-3.4077028940738505,6.8111274851499495,7.784393647889713,0.5667588845488892,-4.150951380200108,-0.17985837399093937,nm,0.0
25.708410263061523,55.4596881230377,5.023284631649078,-77.51572656829319,-7.091488783629789,4.410741942124702,4.954200388118536,1.1993040175491188,-3.5274452513635994,-0.8319415941673578,nm,0.0
25.71607732772827,71.72889695321577,11.95571467061218,-77.3373619009866,-8.84744008083548,-0.09750332207469141,-1.346317690770736,2.0618183420119536,-2.842595879853581,-0.5523947586594814,nm,0.0
25.724843502044678,91.87204309947184,19.21309936133766,-72.38397915823629,-7.0294356113882825,-4.105391657547259,-2.450596860315252,2.4212372905148536,-3.3686368678160985,-0.19484061267698222,nm,0.0
25.75715947151184,113.6092222600604,21.656130908814816,-62.58192651097061,2.0502624208808,-4.122666525767736,-6.912173350637656,0.3313266539438498,-1.2180799125077224,0.1693544045092162,nm,0.0
25.761508464813232,118.35257982613308,17.318532118997894,-64.8256708212493,3.7407683965725225,-2.2737987475588355,-1.9199179227726815,-0.3710767509676404,-1.187838136249469,-0.7747518849004698,nm,0.0
25.766281366348267,120.68834467133841,13.196596234916333,-72.12203367624572,3.9914388680436126,-0.3830367833945506,-0.7697083496043887,-0.59191325372692,-0.7256366193736253,-1.5916445558106154,nm,0.0
25.791707515716553,120.30667418389159,6.994258164271577,-89.15816772037662,4.639471175081978,4.295537022472265,1.597560754065667,-0.5701934376547616,0.22503672261559593,-1.4625462590633804,nm,0.0
25.79852533340454,120.08071184920217,6.235706132926113,-92.1369498847498,4.581811577272143,5.327556604412248,2.429812265868465,-0.14183616176553634,0.039691793197285184,-0.5991743306940741,nm,0.0
25.820430278778076,121.60407338785706,9.9943854932391,-86.0235565612097,6.446022348470538,0.9472925022180047,1.1801748572905593,0.48211749056410824,-0.32314191957818883,0.8229451224870754,nm,0.0
25.82414937019348,126.33764852792446,11.217955831498548,-80.50115551801419,5.447011953862815,-0.23659835379267422,0.4730488778919094,0.36454861524138593,-0.9005147924913214,0.9231182382090375,nm,0.0
25.830876111984253,131.87779706585226,10.5188225126559,-75.30315920195277,4.635682703231851,-1.5885945034174414,-0.7025299864951783,0.10426845032532006,-1.0975802056338548,0.824618855224812,nm,0.0
25.85832977294922,142.32854662058676,6.3487974847739626,-72.8430861870403,2.894640378416315,-2.621932345491902,-1.4360217141126128,-0.08587957630374309,-1.1145173423631665,-0.20839668544880424,nm,0.0
25.860350847244263,145.4211049586841,4.83257619562421,-74.60494693072889,2.6741314346942193,-1.2064669114165687,-1.216744679069529,-0.10519496795398726,-0.680228731431761,-0.4158286443613627,nm,0.0
25.89160132408142,133.8810817074204,7.88209592515704,-76.5516133562262,-3.8804418575836817,1.1185593864607553,-3.7211333920672285,-0.17936157488847748,1.9489235028384682,0.3509701952592341,nm,0.0
25.89655041694641,121.94314011926213,8.248011519746557,-74.59386806829454,-8.514937626360222,1.1276016247833875,-2.1995878048792243,-0.5012941228296238,2.307932344219527,0.7756751507989437,nm,0.0
25.92777180671692,85.52434563858058,9.702386627772695,-75.09924927019362,-7.689607401934698,-1.1656328094848671,2.8399990091769385,-0.8881554001688208,3.644053733006247,0.53266240812416,nm,0.0
25.92994260787964,70.61633206939146,8.78750019487219,-75.5722419799952,-5.995003977130795,-1.7527427867520964,5.112418106851676,-0.9032867546009877,2.804632071702838,0.5066113308363099,nm,0.0
25.998268842697144,51.42472467271332,5.705583910587335,-75.52024859169106,-0.16198332618755792,1.7037426691072062,1.1927210792444625,-0.6768142984428547,1.31123744886486,0.2520890984506885,nm,0.0
26.00210976600647,50.1856597326311,4.482459828003175,-76.54553244302583,-0.3765567233392545,2.2682032514751373,2.342982775860708,-0.2985694727276534,0.1747204219944359,-0.11308509907520668,nm,0.0
26.00516176223755,54.987933325388234,7.274557908798418,-80.77205474222167,0.0475858439835668,1.521691734910349,0.32121931138829357,0.578010821658716,-0.6138193108451402,-0.5870518501607399,nm,0.0
26.007914543151855,65.02583340848584,12.935200799800715,-85.5962167395018,1.7332123553169072,-1.4765856300857179,-1.328260721352681,0.6079728625312613,-0.7987626156562028,-0.6115979902229941,nm,0.0
26.010977268218994,64.30844622978847,11.448330013074406,-87.32036451799236,3.237717909773918,-1.8271680457508235,-1.9083474257306825,-0.46403680903649486,0.3304185530667304,-0.03465663969127061,nm,0.0
26.035027503967285,59.49723195323035,7.371366333138448,-87.45615109797713,4.19434930283464,-1.5261634681463534,-2.5415545472618155,-0.8580022359521718,0.9083258478989673,0.16082872028884737,nm,0.0
26.059876203536987,40.885935271680424,2.257069879248123,-83.96631130042209,3.26246300554423,0.7993309463309369,3.956568270802379,-0.503250917403983,2.426554122520502,0.639759035573047,nm,0.0
26.062474250793457,22.3733702884356,3.5977639554030505,-82.93238490936398,4.690112984711097,0.9996861034179484,5.491099339619416,-0.14080804436402417,3.7025913394459806,0.5372054147551772,nm,0.0
26.066055059432983,1.6470222731992998,6.959552757613511,-83.64815425638682,7.4798425907014074,0.6872380679042741,6.142026419054819,0.19631192592492155,4.174546073287224,0.387613886902014,nm,0.0
26.070935249328613,-20.321038423490712,9.582685699003294,-85.81667634984736,9.470799048740867,0.43437766042566706,3.2490926171443837,0.13415294410982745,4.3745163264909,0.35200410981754143,nm,0.0
26.081973791122437,-41.65955937344255,10.052329089800313,-86.60859301780255,8.338480593342252,-0.9849411973128659,-0.5679904284542192,-0.1966601958588076,4.199144773403367,0.5743697543768062,nm,0.0
26.087589263916016,-60.22787425832001,10.381075989651395,-86.94180832780913,5.65810147681801,-1.65452883231995,-4.121225671227577,-0.15019791665065388,3.6482515940746385,0.5993184412899959,nm,0.0
26.107736349105835,-85.86513233012774,7.597919639668472,-85.18869000366074,-3.0758336698165794,-1.4136285628278449,-2.6216880607858655,-0.5908990050153424,1.8221780896053001,0.63815180233827,nm,0.0
26.114203453063965,-88.21835652566239,4.465662781176323,-82.49959170645957,-1.9401679584099725,-0.6753340986479391,-3.6673117031456073,-0.6784443641254508,0.3897834602902663,0.5980969648516276,nm,0.0
26.14090585708618,-91.23836623880167,-0.7226146518057845,-74.77873107041084,-7.672372810099222,0.2529809138070514,-0.2984826148259446,-0.39117558371619937,-0.11091070401223403,0.925362181048297,nm,0.0
26.165979862213135,-77.27667515106175,1.1096590873865202,-72.06420817121813,-8.401374303966925,3.899796881245694,-1.889074416202513,0.8544198861433719,-1.5474200222261705,-0.06489044400199355,nm,0.0
26.1682186126709,-64.69202054639761,2.2603827894682826,-73.81350558916817,-2.9795851666344264,5.5232463626326505,-2.3273021320266274,0.951770501844707,-2.3508509417219345,-0.4150562432094158,nm,0.0
26.202290534973145,-40.14522389470129,4.069275512982777,-83.86011798969662,-1.4323390285956996,1.8081420515939217,1.301277198261015,0.7065187330606868,-2.4494528113667275,-1.3401820908622186,nm,0.0
26.204825162887573,-23.90592256426803,7.8814703460838995,-88.83040182556255,-0.6424980099911182,1.0364900014341996,2.453198655148659,0.9515106718722713,-3.189715424300673,-1.3276997766075065,nm,0.0
26.226115703582764,9.145180249054404,14.781151948601181,-89.69273583492878,-1.8903682059901121,-1.9007573763306433,1.6573406990424209,0.5621722936088213,-3.086648382848477,-0.5292729452335713,nm,0.0
26.228529930114746,23.010420918456724,15.598046656092516,-86.75272338689558,-1.8227283654004267,-1.8217778184158497,-0.1934557755754798,0.23771970635401904,-2.6784121930078992,-0.15243005787874142,nm,0.0
26.26039958000183,33.76513371936596,12.855421905822977,-84.47785854157583,-0.9955787018934216,-1.9345985859985124,-0.7741588901443364,-0.39249722009458526,-2.129167085475282,-0.08699285192277711,nm,0.0
26.26400136947632,39.95938168364753,3.4719645548333093,-84.87471816403857,0.6749093148917138,-0.736998143704228,-2.0981614206765253,-0.8832435334780941,-0.20666721231810417,-0.3299724181365037,nm,0.0
26.280919551849365,35.38098142486292,0.42912352678748383,-87.05451447478794,0.5338055011214458,-0.04337259945663573,-0.12296928485353502,-0.6788920066997078,0.8632443569148656,-0.43380198965862415,nm,0.0
26.283543586730957,23.289333347237186,-1.3324343581446374,-89.61102913534992,0.8352280215687248,0.9886816635163379,3.737840650435036,-0.4234763144910414,2.404173298479179,-0.4732962407219203,nm,0.0
26.285911560058594,4.734020852716629,-2.670554558313167,-92.0034981597788,4.010149853453126,1.161300343423961,6.589393175472818,-0.20605789620444637,3.711595893098082,-0.4974853259764808,nm,0.0
26.291226625442505,-16.845660680617087,-4.165284911499104,-93.25614097821229,9.239035049615406,0.9766914597453781,4.478176905776896,-0.08549555786332415,4.317463770243557,-0.37664070467970784,nm,0.0
26.313520431518555,-60.8642675383319,-5.822723747484423,-90.8180712651916,10.047834776460691,-1.8190310265064586,-4.008951547875812,0.13102189333841124,4.3853440302157916,-0.010388912569877217,nm,0.0
26.36394429206848,-82.04363105775022,-5.572014062478754,-90.87229572036854,4.765724845974442,-1.9401094295093695,-4.701551987541872,0.12071655742778588,4.212051486774046,-0.3371441572905952,nm,0.0
26.40647029876709,-108.43348578417046,-3.420493099690567,-85.9818883907464,0.3655758830572596,-1.3097641324198779,-4.733983908737297,0.1285065407075415,2.1507372079048035,0.39314152327411706,nm,0.0
26.46164083480835,-117.89303856313745,-3.8584597936412086,-84.52461703161984,-2.429186750738672,0.14666823658883224,-2.8793623196593736,-0.24222763103566716,1.869688502131409,0.18373657015730407,nm,0.0
26.469125270843506,156.83066895904273,-2.7717834742898524,-86.06118749750223,-2.7202186763316027,0.7062315062325368,0.3825552294124676,-0.2052418621629784,1.6248543515849072,0.034161165258422284,nm,0.0
26.476608276367188,150.6134189188282,-3.1338272714860165,-84.82148431301282,-0.4046762202355917,-0.15549374332787103,1.9398246168114717,-0.15796718425354583,1.2267362865510052,0.18310678354907634,nm,0.0
26.534478902816772,156.6697965156717,-7.2345558801342955,-83.49266749499327,0.7548590588525097,-1.2342998345771532,2.2802674097230113,-0.22029323540194717,-1.169914317169285,-0.018149646918905023,nm,0.0
