timestamp,roll,pitch,yaw,acc_x,acc_y,acc_z,gyro_x,gyro_y,gyro_z,markers,motor_input
30.55352807044983,30.57048904799999,-20.893966357729774,-66.53302682016313,0.03302634359703516,-0.0760752797618024,0.031659728787492,0.0,0.0,0.0,nm,0.0
30.571027994155884,30.570355520197847,-20.93556009221038,-66.61071502489209,0.03971899077800935,-0.09183228637359321,0.03827800824786003,0.0,0.0,0.0,nm,0.0
30.57329797744751,30.57217795189054,-21.008295767048654,-66.73375036801268,0.04806265908827569,-0.11178144875811026,0.0467273533087441,0.0,0.0,0.0,nm,0.0
30.579029083251953,30.571199394502177,-21.087069233982888,-66.8837535231159,0.05290521859065659,-0.12393715618303391,0.05196336333976879,0.0,0.0,0.0,nm,0.0
30.60127091407776,30.550248387216666,-21.260950600016045,-67.25622595076024,0.06903391367375351,-0.12469142293340768,0.027025030151218796,0.0,0.0,0.0,nm,0.0
30.603420734405518,30.526094947581,-21.338951015081943,-67.45683074515267,0.06148213954937598,-0.11490982011880606,0.027491520604020988,0.0,0.0,0.0,nm,0.0
30.63296341896057,30.50176051205919,-21.411382008222418,-67.82541748768192,0.06033108471700755,-0.07881792839307196,-0.010078493945244574,0.0,0.0,0.0,nm,0.0
30.64250087738037,30.50094551648413,-21.368466581009617,-67.97873593236204,0.047152694866951166,-0.0531977809571633,-0.01711037018014404,0.0,0.0,0.0,nm,0.0
30.646226406097412,30.53035701428837,-21.284145915076532,-68.15973865199439,0.04443659155408222,-0.007653019124104555,-0.060670315491761787,0.0,0.0,0.0,nm,0.0
30.671983003616333,30.68160414226162,-21.032958423133245,-68.5564026423777,0.05340208263917262,0.0170360664588764,-0.09959141592398493,0.0,0.0,0.0,nm,0.0
30.674265384674072,30.777947606101787,-20.863798468592815,-68.71113055228857,0.03395846602419737,0.04410802568827881,-0.0965924264830741,0.0,0.0,0.0,nm,0.0
30.692115783691406,30.818455464729276,-20.740399697629623,-68.82817585464734,0.025853168672799933,0.07065274941434012,-0.11036384387380055,0.0,0.0,0.0,nm,0.0
30.71173334121704,30.869559485174037,-20.57867971354887,-68.95640162145973,-0.013349060710255172,0.09372255834188063,-0.136109917217911,0.0,0.0,0.0,nm,0.0
30.715768337249756,30.872372094138658,-20.53881808210382,-68.94851866181784,-0.024883783213463774,0.10376179210658575,-0.13524223911142727,0.0,0.0,0.0,nm,0.0
30.733531713485718,30.84844270987789,-20.419777325917888,-68.85492403893014,-0.043738326390231425,0.09618583813877238,-0.08830790241111931,0.0,0.0,0.0,nm,0.0
30.736172676086426,30.822256883642375,-20.34199348309931,-68.8035771468924,-0.03798615835416094,0.09795230106102623,-0.038950431572628556,0.0,0.0,0.0,nm,0.0
30.74569582939148,30.78777731916425,-20.29875519966428,-68.76605367523423,-0.05251594390791382,0.07260784852750382,-0.046460158068315154,0.0,0.0,0.0,nm,0.0
30.778651237487793,30.72562116539951,-20.338305012791636,-68.74104283704511,-0.025796101332485975,0.06630387714918813,-0.02637150348382302,0.0,0.0,0.0,nm,0.0
30.780924320220947,30.704418556800263,-20.402005140417387,-68.74000911543041,-0.02456544243160946,0.06313733596577331,-0.025197934059144063,0.0,0.0,0.0,nm,0.0
30.78450846672058,30.697102877158493,-20.47586020104703,-68.73669951467178,-0.03731705432702419,0.059785413412307274,-0.002312796786738105,0.0,0.0,0.0,nm,0.0
30.80608296394348,30.695247583868426,-20.55941420619894,-68.72885544986141,-0.03639439272995054,0.04340415546329661,0.01256483047637357,0.0,0.0,0.0,nm,0.0
30.808988571166992,30.6925199993602,-20.65679389211374,-68.71041301917263,0.0,0.0,0.0,0.0,0.0,0.0,nm,0.0
30.832285404205322,30.67781369852343,-20.965226001475802,-68.77339077967734,0.0036758199921418234,-0.07273128857502845,0.01193526313157272,0.0,0.0,0.0,nm,0.0
30.83474826812744,30.660436246505,-21.21323485577562,-68.76271726986128,-0.0071014825249307275,-0.10722349741855906,0.05696997433154284,0.0,0.0,0.0,nm,0.0
30.863317012786865,30.629347812506072,-21.721061429743145,-68.7854290718958,-0.015335917224845142,-0.1499488636538892,0.11247058959620578,-0.04103324316274189,-0.028493351518279197,-0.005284740459623638,nm,0.0
30.86554265022278,30.611407726424385,-21.94421000944014,-68.84654486620717,-0.007023139934133374,-0.14192644765801746,0.15756685031696951,-0.04575872580153008,-0.025551515133613624,-0.009961158558860681,nm,0.0
30.86967897415161,30.55330309203126,-22.15918895551213,-68.90716324532511,-0.023402034825050055,-0.13507442752183219,0.17674950114767896,-0.046942932194057554,-0.0179891412280004,-0.01421231163225084,nm,0.0
30.895071744918823,30.392843223899046,-22.50889833809909,-69.06136505460107,-0.011482228063939875,-0.1277688610034101,0.15180978340351986,0.0,0.0,0.0,nm,0.0
30.897403240203857,30.306035142518454,-22.609459523578277,-69.12538914793662,-0.005584702530199803,-0.1240025679644135,0.13898268467818112,0.0,0.0,0.0,nm,0.0
30.92432737350464,30.17895038117689,-22.636644454639388,-69.22476568807247,0.009278668673641298,-0.1083708270553551,0.09908088357734987,0.0,0.0,0.0,nm,0.0
30.928462982177734,30.160914695116066,-22.578014592285975,-69.30970078214453,0.0020236435754550585,-0.10065991131429783,0.1022074106164222,0.0,0.0,0.0,nm,0.0
30.95659899711609,30.17401776925882,-22.42672093741264,-69.59295815204204,0.014615938190246673,-0.07604600456537194,0.0553686859682374,0.0,0.0,0.0,nm,0.0
30.95883345603943,30.19816870658923,-22.388189871125455,-69.75022738651047,0.025334087422222578,-0.06867188809549817,0.030151536175897175,0.0,0.0,0.0,nm,0.0
30.98637294769287,30.24267240375049,-22.27604585426523,-69.9980935810265,0.0,0.0,0.0,0.0,0.0,0.0,nm,0.0
30.988595724105835,30.271708243365968,-22.18953981632693,-70.07404873694132,0.0,0.0,0.0,0.0,0.0,0.0,nm,0.0
31.005969047546387,30.29821013802397,-22.07988669309681,-70.14474506245818,-0.014294845837002643,0.03958563919419912,-0.01707279093825867,0.0,0.0,0.0,nm,0.0
31.00821352005005,30.328379545132258,-21.932834835083277,-70.19144977546199,-0.005087009353741575,0.05188508723451069,-0.04393097636416207,0.0,0.0,0.0,nm,0.0
31.018835067749023,30.361078459391532,-21.75982493428038,-70.24615044824489,-0.005014331325751121,0.05838672718144439,-0.0502081129284669,0.0,0.0,0.0,nm,0.0
31.02317190170288,30.39131403853799,-21.597855791241713,-70.30418841915022,0.0008057267277617819,0.04844715036769203,-0.04928324966193025,0.0,0.0,0.0,nm,0.0
31.053458213806152,30.43127354042268,-21.308536258373746,-70.36094415593725,0.010885482285514924,0.03737803554567346,-0.05399254712869601,0.0,0.0,0.0,nm,0.0
31.05567717552185,30.440308335174123,-21.194182521675234,-70.33160518085333,0.004678040190399447,0.04599312490617844,-0.052477127161324785,0.0,0.0,0.0,nm,0.0
31.05907130241394,30.43894844099961,-21.10186786971113,-70.26035533311598,-0.021148438857937185,0.05893677135645705,-0.024163959844154214,0.0,0.0,0.0,nm,0.0
31.070239543914795,30.436760059871037,-21.00832679977236,-70.15963730131176,-0.02495714148523547,0.06916820316189179,-0.0282389285695523,0.0,0.0,0.0,nm,0.0
31.08196187019348,30.432700727385296,-20.89849452641696,-70.0161761082844,-0.027303540311279097,0.07508180884025188,-0.030505453821852695,0.0,0.0,0.0,nm,0.0
31.09725308418274,30.41129978910752,-20.770132628755075,-69.87526498439685,-0.025581775867022625,0.06981208716035245,-0.028199166716790448,0.0,0.0,0.0,nm,0.0
31.099306344985962,30.381404507230368,-20.646450146867718,-69.75571283803667,-0.038300346309549226,0.03742145919836822,-0.03262353869526191,0.0,0.0,0.0,nm,0.0
31.128244638442993,30.29772904089157,-20.50908900462454,-69.49708736270925,-0.021120512234457642,-0.026712227314698456,-0.047110893626535505,0.0,0.0,0.0,nm,0.0
31.13326621055603,30.22392569682312,-20.53157387772907,-69.32652715341544,-0.015405100140301265,-0.06892660842320325,-0.03447910394495247,0.0,0.0,0.0,nm,0.0
31.136945009231567,30.101017308759417,-20.60754557581458,-69.13393081486052,-0.020234897018479397,-0.07935890816813086,-0.004042812462879965,0.0,0.0,0.0,nm,0.0
31.165095567703247,29.622610022354436,-20.89020903835272,-68.67665739187473,-0.022080158410590394,-0.07666455028862212,0.0460947118726967,0.0,0.0,0.0,nm,0.0
31.167309999465942,29.28471648805845,-21.038448885986817,-68.4198182041756,0.003358781463383807,-0.061464297809404815,0.05968122686416492,-0.04018834464817857,0.03513614232437242,0.02057478078575905,nm,0.0
31.201467275619507,28.544699785250707,-21.246638962771474,-68.04732538930251,0.034479762554500144,-0.03852777197201227,0.08789225128567951,-0.035765472383141914,0.053605792791579975,0.014834015796851641,nm,0.0
31.20410966873169,28.144525838185057,-21.21584243062724,-67.88552921555461,0.036521748543314754,-0.02149943549822244,0.1070021586930039,-0.0253855535036022,0.05902716778654576,0.011596743722693587,nm,0.0
31.221054792404175,27.34603653846309,-20.957024354940653,-67.583239181216,0.05833774594307651,0.006389479861434964,0.10305777633378271,-0.002473407572811737,0.07065541790879327,0.00835461293169034,nm,0.0
31.223302364349365,27.000890578239073,-20.742856391695756,-67.43743630487907,0.052732759760907195,0.022633898175886766,0.08300693282639356,0.007076965779347732,0.07434296386174472,0.013478142730304747,nm,0.0
31.240244388580322,26.64914800450272,-20.459494404290812,-67.24588805848632,0.03123271155978994,0.04424242200250346,0.07697851945964784,0.013596449244275733,0.07617688891094912,0.0221163405021489,nm,0.0
31.285394430160522,25.902116340509117,-19.650039008941825,-66.66257358249838,-0.02274740513328678,0.09436412466692026,0.04390910752895608,0.03184748646903002,0.08340350195193524,0.04403252522838162,nm,0.0
31.290858268737793,23.888164352286314,-17.416981350045408,-65.42808690144297,-0.09018274431771747,0.04487656342386606,-0.0072953801673206475,0.04929298935947774,0.11714152880832826,0.02543936319247712,nm,0.0
31.306452751159668,23.220912373766858,-16.821951188115385,-65.19740906160372,-0.10046681231721578,0.02549739445038613,0.02161263566280978,0.04597927683806082,0.131622060502536,0.016041072719270005,nm,0.0
31.31056547164917,22.44237587988062,-16.244291650518644,-64.94880949205437,-0.06690821179632628,0.003291281455804485,-0.03460067483266068,0.037331596284951814,0.15508498414880134,0.009773541818619658,nm,0.0
31.338593006134033,20.516950538366075,-15.129002832925217,-64.39745297248685,-0.07535923277507596,0.012054909187503744,0.040017361865877815,0.01180118254428551,0.19504167069326228,0.0119900730275184,nm,0.0
31.34183430671692,19.51547515144307,-14.551226351618853,-64.0854270928252,-0.038795115916182094,0.04062839931296674,0.03607149963211477,0.007175030298490968,0.20462115208305826,0.01925445611343185,nm,0.0
31.368377685546875,17.607833986808984,-13.252377000566003,-63.44534007860032,0.05281801373762017,0.07735583172152599,0.015944861098651657,0.021030799783847254,0.22223575241780735,0.025372935029088196,nm,0.0
31.370963096618652,16.771819003973565,-12.521805730144555,-63.16866782360007,0.09959633574972435,0.08597492537008265,-0.0009172574419499794,0.0341085833613243,0.22129043198994522,0.020321891631840408,nm,0.0
31.37534236907959,16.01310962248744,-11.773075085639613,-62.95909178303134,0.12626616843548397,0.06420858897665685,-0.0010292068075233012,0.0467780304414787,0.21554097855830148,0.01003381032224685,nm,0.0
31.386045694351196,15.369193317396203,-10.994259738676952,-62.83816789701779,0.12499768895275232,0.06561199789941581,0.006764791869714865,0.06594814188340786,0.20051466932498604,0.0018484969217208282,nm,0.0
31.436092376708984,13.958672849288437,-8.694794553519984,-62.69048772657401,0.1152919965837858,-0.02938903808674016,-0.027229032484100985,0.09809423041319935,0.15855502145989162,-0.000563587870229026,nm,0.0
31.438522338867188,13.525134109128777,-7.892077043262483,-62.58887069894231,0.0950132821975937,-0.03031148459418622,-0.05997674180877073,0.10558427159958397,0.16060221466792599,0.0073552608283936885,nm,0.0
31.440906524658203,13.075183962726511,-7.079662784172653,-62.43058438212585,0.07373794626536814,-0.030890990904663716,-0.07419993947786488,0.1055344033907202,0.1601277834191851,0.013479593522993034,nm,0.0
31.444411039352417,12.630092371257279,-6.275779388745392,-62.267997590733415,0.06888177080258069,-0.03751248433869032,-0.06253988790628932,0.10537550516618953,0.15758977198438032,0.015659726865974485,nm,0.0
31.4489848613739,12.186726595326133,-5.456650992736662,-62.1249856839594,0.07084046349587077,-0.04239319383857453,-0.06641347044004532,0.10888935028573776,0.1596810954886879,0.01298644632454488,nm,0.0
31.481062173843384,11.298918325872112,-3.8639563110711443,-61.992098908989945,0.0901921133519435,-0.05604444921694886,-0.09702449605654578,0.10392356988611007,0.16205325542443996,-0.005980584524096645,nm,0.0
31.48404312133789,10.769549190410375,-2.9953174989784683,-62.00108603047673,0.09916527561880485,-0.06471514356288167,-0.12436069495631934,0.09855550333067957,0.16348650991991287,-0.014816615388407981,nm,0.0
31.493478536605835,10.24764063830907,-2.1284153779309856,-62.03120768263605,0.10471599727907223,-0.06630928847307671,-0.1462123636551973,0.09885700258952723,0.1621093447912726,-0.017403194402077042,nm,0.0
31.511423110961914,9.275386949783114,-0.3828929000694032,-62.0776586673558,0.11078112261747207,-0.03487367948846322,-0.1563873026032185,0.1044845730690515,0.15329686695246192,-0.011846457747507148,nm,0.0
31.52991223335266,8.5909060821452,1.3411472202183303,-62.0563168640511,0.12109543461248753,0.013554179100839744,-0.19305034207351557,0.1176510258938676,0.12005315029390594,-0.012069330858263557,nm,0.0
