timestamp,roll,pitch,yaw,acc_x,acc_y,acc_z,gyro_x,gyro_y,gyro_z,markers,motor_input
2.05574369430542,-32.14011948140715,17.6107590860757,120.38356718402363,-0.2850889122468766,0.06753207481585205,-0.8133904221497074,-0.6532848164275099,0.8621803801282326,-0.7447696468911518,nm,0.0
2.0579447746276855,-23.8596907175484,17.96174012205575,118.49411581892745,-0.019381335931195,0.48531246939466766,-0.37615686467300774,-0.8268311527996219,1.3549888913982224,-0.8342539306733922,nm,0.0
2.0748729705810547,-12.931871851980866,18.238096767823286,117.02044131082229,-0.7298487136261365,0.35845829544692803,1.4170117329151617,-1.0036942126605146,1.8301236544207309,-0.9008390277222408,nm,0.0
2.079714775085449,-2.4960321465079853,18.56644706984668,115.8651244997873,0.8751295302678552,0.33938553583449416,1.5876719780618946,-0.9278761126567155,1.760123746733872,-0.8167662494454797,nm,0.0
2.1022133827209473,19.36581598951138,18.59847754958681,114.47672786967624,2.8152653518542503,0.5926960796078122,2.109961627613511,-0.8829536680569919,1.961558598161412,-0.8185819650599835,nm,0.0
2.105863332748413,29.522922274094814,18.970910634944822,114.10103120330115,3.1964328223367677,0.5274529970664158,1.1351746504330793,-0.85402435194429,1.731808561186788,-0.7310253886628152,nm,0.0
2.135948657989502,37.9958595280484,19.73639111640181,114.13128441865292,3.256429939841764,0.5043526243575749,0.1722314417449084,-0.7907047492025572,1.4037158942060544,-0.582656175644928,nm,0.0
2.138277292251587,48.53007438913286,20.960614942506755,115.54829979829458,2.725982297859269,0.7188740668816987,-1.0959356537481557,-0.3986164493481384,0.6464330746211647,-0.1460656372761547,nm,0.0
2.155097723007202,49.152919802529645,20.135972017872536,118.52522467355024,2.163905015471888,0.5659849736542312,-1.2263076704511653,0.1989218285331478,-0.060054023674436914,0.32809634503180907,nm,0.0
2.159884452819824,46.36918719568967,19.10939604041347,120.26469233588261,1.888533601786965,0.6937032907348819,-0.376273965996915,0.4394629001721102,-0.351104868705202,0.4824544931862012,nm,0.0
2.19120454788208,35.25746554156543,18.42061177310397,124.16715629154433,0.6769718350968267,0.6793350888623575,1.343391016598505,0.670427370476144,-1.0158894442246,0.7471518280204837,nm,0.0
2.193390130996704,26.81874623156586,19.26077752232195,125.9703669630889,-0.5233538818456751,1.1601190815798281,2.8333949195206305,0.7887595780343535,-1.3965899896743004,0.8459447471175722,nm,0.0
2.2758400440216064,-41.33204596235717,18.700860179407485,127.6699989313065,-1.5747859134221946,-2.057847953291368,-1.8491608258207632,0.98971186638141,-0.3974225192422409,0.27363710717704415,nm,0.0
2.2802369594573975,-44.46286130182083,15.93108578726919,127.47208205502622,-0.3995424050774812,-1.6575150979491793,-2.0656217656773275,0.8088198179518992,-0.12235431714380969,0.14108832747981112,nm,0.0
2.3003242015838623,-43.22543714136859,13.449935106763244,125.18029613372657,-0.7648788849564714,-1.932044869109602,-1.2488146182105075,-0.07186187915910269,0.3241797679975668,-0.3783567811831618,nm,0.0
2.3372695446014404,-30.879372100279063,15.121536943482345,120.3065985752951,-0.73959614896467,0.04806839431651475,-0.40191060132605544,-0.683591570337414,0.8470947456566402,-0.5287905105555885,nm,0.0
2.339589834213257,-13.582388027700004,15.71753055442989,118.7759979524374,-0.2728200950706051,0.44179964685413875,0.9297289438866347,-0.9344420166146608,1.7124160847099201,-0.5717187047702167,nm,0.0
2.3553686141967773,8.423750439593778,15.044905134965488,117.66443353645727,2.009338773731486,0.011910996361741458,1.5661694646020434,-0.8995699431089641,1.9117349919557323,-0.6100393366220096,nm,0.0
2.3655142784118652,19.399486246044386,14.56091911900987,116.68545048982632,2.8734457688565485,0.08851120834870617,1.722824072184586,-0.8723510335131974,1.9465365874153475,-0.68956650925458,nm,0.0
2.369389772415161,29.5583001190531,14.681882502546687,115.65092477196448,3.3948030028089877,0.35227459694493773,1.3398005073304369,-0.8817349155794018,1.765626015330387,-0.6851719244445558,nm,0.0
2.378831386566162,38.096071052000624,15.731274359240592,115.23424203533489,3.4028068941014817,0.2584149876639775,0.2752260372502075,-0.8939283129620119,1.406800867098423,-0.5292386341140007,nm,0.0
2.392042636871338,44.52991709936343,17.064449037931812,115.65329221652483,3.3797621164753413,0.48288983698893756,-0.3469713710904051,-0.7699892159075632,1.0064983679108135,-0.30558332870650506,nm,0.0
2.4302642345428467,49.26237030258891,17.302683423113077,120.64465884154909,2.0638815849892875,0.7812004670007674,-1.219464755607068,0.19506961422149188,-0.06258848449981036,0.42986111004301797,nm,0.0
2.432468891143799,46.52550534974423,16.33002079857359,122.72387612472396,1.7398509503413744,0.6951786296126677,-0.6966205502667402,0.4427305980484945,-0.33883174899743673,0.5614330966078389,nm,0.0
2.450664758682251,35.516797830677184,16.75300844556973,126.98018664253941,0.017562865322415754,1.573810647643961,2.3724437651063086,0.6239405541427339,-1.1550685413134572,0.7962697074817463,nm,0.0
2.524125576019287,1.5915617182152941,23.353911006795787,130.09810391718543,-4.242725647830763,0.6379606093664301,2.102092717043362,1.1656403873597792,-1.8367996997048783,0.8390671028902417,nm,0.0
2.526489734649658,-10.715245476219492,24.019101668734063,129.71796172787282,-4.513469873769404,-0.2852045659679566,0.4548110935777317,1.3555591702448044,-1.8018771146894044,0.863852857560551,nm,0.0
2.5285563468933105,-21.947293036520385,23.61603634281692,129.58204859684247,-3.7010111965003816,-0.9026195160161682,-0.8327897458732938,1.3825455596451857,-1.5184157071697815,0.8476074519211231,nm,0.0
2.5305798053741455,-30.652984804669796,22.255058463663854,130.11946626788094,-2.887126325793826,-1.0861782806558538,-1.4306287466997558,1.2437079535266922,-1.043598143810471,0.7612982086113602,nm,0.0
2.532461166381836,-36.849125396791244,20.792646566193255,130.9308865533684,-2.0330643154909214,-1.49406305045894,-1.74783509407372,0.9769477013509229,-0.6730500134837025,0.6068196569631498,nm,0.0
2.538734197616577,-42.289084753653306,17.957469815538957,132.32171458504305,-0.5239098047551105,-2.0073078786500678,-1.8709422670494578,0.40598082569427224,-0.00360472047114322,0.204512890420705,nm,0.0
2.5556812286376953,-40.61507416094261,16.190897562385594,130.47174315472319,-0.416158113563792,-1.8345584207177668,-1.2197142328909103,-0.07984075588181082,0.29708515179245265,-0.3795883780727728,nm,0.0
2.575566053390503,-37.99321212983983,15.886233885100028,128.3969304251206,-0.6822502130800527,-1.4749678938414217,-0.7412273954997697,-0.26905852150176574,0.4422488782114448,-0.5594660330088499,nm,0.0
2.5783989429473877,-34.746878810341045,15.899378404330246,126.13486345369878,-1.1186135333538505,-0.8990198147034733,-0.23326170398657717,-0.3756103345602505,0.5095511007221194,-0.630515422333455,nm,0.0
2.5832037925720215,-31.115444824115933,16.40520710513748,123.76407569310199,-0.35767683791388727,-0.1148483176543811,-0.4084195687703061,-0.4773296800107906,0.5277668907701951,-0.6773181525855401,nm,0.0
2.6121554374694824,-17.903951660916867,16.19644286166932,120.19282431859993,-0.15525241047092822,0.20764029554367008,0.5870268450945187,-0.6538318359078817,1.3446968735253035,-0.6951842049440652,nm,0.0
2.6145944595336914,-8.444044792763302,15.501077603249524,118.90717755396321,0.4709910019780685,0.9120051944489509,1.869920698456453,-0.7661610901158844,1.6676554120891218,-0.717090510345105,nm,0.0
2.6167097091674805,3.13597607209058,15.553947018008271,117.79210743381515,1.2787783724750212,0.3522170038419845,1.59489819076274,-1.05716401616516,1.975334842301187,-0.7785964970216217,nm,0.0
2.6474006175994873,25.647907981204003,14.38921929126014,115.55598361995668,3.183017698445814,0.974132656894092,1.1761501921406867,-0.7534316192468269,1.934981231032444,-0.7556356316730015,nm,0.0
2.6634204387664795,44.09342688934189,14.336568305351973,115.34669177997372,3.4702804924931896,0.21488871554878286,0.2896935038930793,-0.7208223985587482,1.4656398131708352,-0.38841224737513974,nm,0.0
2.6660406589508057,49.27289252467132,14.26275452829804,115.80052516461909,2.9056268076521117,0.054003299125160546,-1.2183265399463692,-0.42042408462395503,0.9178482956194671,-0.20965184033007617,nm,0.0
2.6843132972717285,52.292553587147005,14.075835808737619,116.95373971974468,2.5234430061534607,0.32501950211489095,-1.410963322692428,-0.22734547911740408,0.5465648167283205,0.024755386467385617,nm,0.0
2.6864912509918213,52.672638762909216,13.924090631023958,118.66395676433562,2.1774452536992195,0.3134861565280575,-1.071929832858328,-0.007176798689435044,0.08457545912273287,0.31044842391137983,nm,0.0
2.6927809715270996,50.07048329097631,13.69140199761031,120.41050477716533,1.756949297722241,0.5610313587445002,-0.8814939198480946,0.29071030936300984,-0.41191134160562454,0.4606065265044268,nm,0.0
2.7483530044555664,30.945298641794178,16.026022297231652,125.15109274832581,-0.5774124726192463,1.0947401254778895,1.438428755454937,0.6891390610454052,-1.5061237941410173,0.6871741096046114,nm,0.0
2.750450849533081,10.572205825709837,18.63089300275162,125.65414117686976,-2.8425427110824426,0.8190163682889979,2.3947213935978957,0.9697217301162767,-1.7367963209714326,0.5423464043161043,nm,0.0
2.7695629596710205,-22.797031134699495,20.040863533753644,122.9446067313709,-3.6851869049261134,-1.1407488730170294,-0.640529676614056,1.1301020933316537,-1.6296715961992914,0.5042537075607977,nm,0.0
2.7967424392700195,-39.162671872634704,18.734967053930752,121.34930367712066,-1.8273780156119692,-1.341006713248963,-1.8762815811675027,0.8358993749183046,-1.0429308384826133,0.3259890333817739,nm,0.0
2.826066017150879,-45.62528420613316,17.268814951200167,120.06450711612207,-0.8875870413599865,-1.471290435288266,-2.1931424293230997,0.318353887759731,-0.2562315225255941,-0.05275492615198908,nm,0.0
2.828270673751831,-43.65600152843766,16.39267788708887,117.13079735744611,-0.8313823238537319,-1.110196564246265,-1.4448269196945753,-0.10488313058852433,0.38405479807361487,-0.44538701926594865,nm,0.0
2.8456993103027344,-39.83813843689477,16.17398237008121,115.22778365323778,-0.842972703949075,-0.6660013433558576,-0.8384806230301086,-0.27698484586923144,0.6905339556618229,-0.5844392576919017,nm,0.0
2.849017858505249,-34.06432390288955,16.216864499771535,113.29133192412776,-0.47738116012488346,-0.21603292140162136,-0.36609675863972274,-0.4548095168433362,1.0214974424783885,-0.6816441786271968,nm,0.0
2.8753018379211426,-15.112300466789073,17.11562297345724,110.44269810241796,-0.17646954094420866,0.04259448892308727,1.2661453713702746,-0.827664642636881,1.8924090712268535,-0.7643315143814133,nm,0.0
2.879396677017212,-3.473977545068667,17.860355217609026,110.00113901311343,0.8834633996207745,0.21421100268912496,2.0788594213015386,-0.8929791543181458,2.04696344785773,-0.7269478606093239,nm,0.0
2.8858041763305664,8.861346721658325,18.38810351306362,110.0671430889143,2.200657997477162,0.31272893307367394,2.381173393059049,-0.8905072118998264,2.179996734070332,-0.7147316760118158,nm,0.0
2.9197587966918945,43.86349401878556,19.57017685775682,110.73014621195941,3.5968750201558417,0.24281379660009766,0.6236646778066421,-0.8112310380280784,1.7987212993576116,-0.5842871402763663,nm,0.0
2.937624454498291,51.59940328389845,20.3891761726077,111.43727483397002,3.550379422395879,0.174308685483198,-0.30809602685999954,-0.6741283831097707,1.3035536942982413,-0.3911753072532724,nm,0.0
2.9450623989105225,56.62166428502381,21.084703982964353,112.68100452608678,2.6142399844116873,-0.27045787422810796,-1.6772585306165249,-0.4822175718613739,0.8220177075982378,-0.14377169354626138,nm,0.0
2.9755783081054688,59.48254316752161,21.027854270685683,116.13744108420683,1.9477806216305167,-0.046563012851464365,-1.551375295901828,0.0688309356473855,0.009882778799349949,0.3596897967909885,nm,0.0
2.978182315826416,52.24827963831368,19.362237183484574,120.41793323689103,1.1429899096235203,1.291509682019932,0.2748896889744385,0.5702613330587173,-0.6779522695547211,0.7729817005123724,nm,0.0
2.9808051586151123,44.52384070887729,19.248584713871093,123.1358419223627,0.06913216903897834,1.653076215624362,1.3405457069689346,0.7903749486769726,-1.224452360085255,1.0414114654269728,nm,0.0
2.9966604709625244,34.04374146517758,20.004512221992453,125.5367626540345,-1.1482599603866193,1.6664903797733004,1.8295824633550755,0.9940923382122705,-1.7116724045825251,1.1719559182370851,nm,0.0
2.999016523361206,22.236687797734554,21.22145996568715,126.8950835889932,-2.2612704971886277,1.199711913548714,1.9096592993716126,1.116646252518296,-1.9215583336594497,1.0925346956216724,nm,0.0
3.0299088954925537,-3.6013202277076406,22.216806080787684,125.40758718154541,-4.889887818753322,-0.27774552049194984,1.7114590994921515,1.4612849736963556,-2.0239401050440318,0.7363038558075812,nm,0.0
