timestamp,roll,pitch,yaw,acc_x,acc_y,acc_z,gyro_x,gyro_y,gyro_z,markers,motor_input
5.541372776031494,-65.36229519675828,14.685153537106764,124.91472460965886,-0.5081171892268516,-2.394522176534322,-2.3934473619207406,0.393796505443239,0.14088996581594487,-0.40922451073430555,nm,0.0
5.554495096206665,-62.425362990641865,13.558581756154226,118.13729457048804,0.9308865847415415,-0.39037530293245637,-2.170731322816018,-0.2728458998863069,0.5046424069057441,-0.858212759442225,nm,0.0
5.5724732875823975,-56.284529162686994,14.380407076848911,115.41259848068118,0.7888455362479516,0.18020466878769945,-1.761488279963015,-0.679239896198959,1.0038436612006931,-0.8419060714037044,nm,0.0
5.574824094772339,-45.81353806526058,16.057637259773564,113.56809145458134,-0.5974287907377376,0.09219519248367633,-0.4811213292302158,-1.1346647413319426,1.7165335286554082,-0.8882966745633415,nm,0.0
5.603545427322388,-19.28129201658202,18.85361409738057,112.45866384249376,-0.3703616557675681,-0.5841781898050872,1.9337206337768398,-1.034163314772317,2.166663355133356,-0.7632075026244507,nm,0.0
5.6056907176971436,-6.966862412953755,18.305664817834383,112.40139221178941,1.3933178714321899,0.24277406365941764,2.2331550932963244,-0.7782933344784084,2.214116069701398,-0.7620371147039811,nm,0.0
5.615653038024902,7.13119575081913,17.95880260792123,111.8810425266125,1.7027910522586875,0.35568069326797,2.8936438589314353,-0.9394460500281988,2.520506343137872,-0.9908496615933746,nm,0.0
5.625603914260864,20.37687312859353,18.12837103489006,110.61245465696956,2.6970747654939684,0.7544288499680663,2.34433873693034,-0.9389698607230604,2.346378950993908,-1.0852091162382391,nm,0.0
5.631902694702148,32.215514812630985,18.687944567033327,109.2357419624286,3.4015366158027316,1.1518983114978427,0.9594984566161425,-0.8664539850572909,2.0832128412545208,-1.0356194279910518,nm,0.0
5.656003952026367,50.70174896983401,19.775451487825222,109.9583012277395,3.4085330777468186,0.5309811848548139,-0.7942666118210661,-0.5423427158264826,1.3802533499707186,-0.340665549801192,nm,0.0
5.660743236541748,55.52178239929446,18.824070199853434,111.83737906544573,3.240840092773595,0.2991324987489392,-1.5699554858008093,-0.14697955682209143,0.9224996487781026,0.022646225518953664,nm,0.0
5.673863887786865,57.81040815269406,16.976167662307837,114.24354429492453,2.9552904568856615,0.2932484667853686,-1.3944007807179608,0.16993760130241242,0.5500317501555125,0.32688418644522,nm,0.0
5.684680700302124,57.181514993169,15.132447303303667,117.11930252159245,2.306737994256492,0.08936902741488016,-1.1343530487868665,0.38507862542198407,0.05522672307118369,0.5967732124260502,nm,0.0
5.707462310791016,49.00688257336643,14.751541894772618,123.04771108656502,1.309214908199882,0.5429095108391265,-0.3516568953826549,0.399910447584825,-0.8520625914476413,0.8063347923810202,nm,0.0
5.719384670257568,42.60700958947474,16.576261937503528,125.06693449850135,0.4917313009722056,0.7989100204071936,0.7938050008350345,0.39050913301972084,-1.2211940753198913,0.7367392969041965,nm,0.0
5.735215902328491,20.830617034011716,20.52490271400318,125.03827045040775,-1.87125937203082,1.705295600014124,3.5026402344603973,1.0776662154434067,-2.1124444381793293,0.7162952340431245,nm,0.0
5.737640619277954,6.539457069522482,21.789705126203973,124.72550995721755,-3.669534172208669,1.3088295914178774,3.4323410934035925,1.3313353112419657,-2.320976441779165,0.9100475049541717,nm,0.0
5.768871545791626,-21.95422808450767,23.159378580793273,125.93238933867792,-6.345565532247503,-1.2530590536760282,0.8269551595799977,1.4401879626841305,-2.182580162689913,1.2575101882209196,nm,0.0
5.771109580993652,-35.88111389716941,23.60908262620503,126.7115938128693,-5.129217162779382,-1.9566010229961142,-1.2591593027472248,1.4495403138380674,-2.10260279832425,1.2618241775761885,nm,0.0
5.787286281585693,-56.86615109162277,22.531260824623025,126.67996652088257,-1.9853728396143109,-2.7196868102814555,-2.3989097867840012,1.1605676118649426,-1.1707033874192758,0.6601292281507776,nm,0.0
5.803236246109009,-63.63429686159615,20.21578005956984,126.15919087584827,-0.6819347505788486,-2.4218723529092707,-2.6651555481189426,1.1240728576450663,-0.7271915854876715,0.39452208135841643,nm,0.0
5.825718879699707,-68.50143796106791,14.944223396623759,123.04644363993519,-0.3406713014327429,-1.7964157418517679,-2.429084460968845,0.48073864837755453,0.17248102734514764,-0.38213829690652384,nm,0.0
5.828012704849243,-67.63684669892338,13.577611536338477,120.08362259543439,-0.6582574642476164,-1.2472009562420934,-2.1372226563507937,0.14800224475113416,0.2988772656304742,-0.65628092205552,nm,0.0
5.845503568649292,-59.24595327581131,14.730360357589507,114.43637842861162,0.8413458479114877,-1.1141862911363574,-1.675159575970087,-0.6754649862731407,0.941663194142697,-0.7180299025661885,nm,0.0
5.861889839172363,-51.372401605890296,16.167883018884964,114.09968401341608,-0.06938254435861792,-0.6077092353502276,-0.5955962279447916,-0.8788008658461511,1.2808342668203818,-0.4577047560195668,nm,0.0
5.864233732223511,-40.29709626728031,18.52658508889531,113.58272344520773,0.8607721236464095,-0.7991424586862093,-0.3340432218883812,-1.2734879019738519,1.7625337228676543,-0.6919069586958532,nm,0.0
5.873543739318848,-25.278351511995144,20.293891543122356,113.08953574046282,-1.6014935700693882,-1.9777907157089374,2.284082198957204,-1.4274919717615056,2.483301686463428,-0.9996575573521793,nm,0.0
5.902195692062378,0.4166056023354989,18.60605333195716,110.99328958508183,1.8066098532503876,1.6095344507387708,2.240457764678134,-0.7284733635703137,2.281245120358061,-1.1057898699848492,nm,0.0
5.904385805130005,14.748319243859875,19.4243738650083,109.45259092058235,1.9002394469269743,1.141525163642531,2.3770658476375846,-1.0836724018249388,2.498203424097324,-1.2520330712671888,nm,0.0
5.926075220108032,36.68099044845929,19.77482413291497,107.58366847719812,4.459297348688385,1.6565819564402962,0.4462899249832641,-0.5163247559347153,1.7214837617809053,-0.7613419171658056,nm,0.0
5.941030025482178,45.417380496027235,19.338945269267644,109.20008260195836,3.386209951043391,-0.12777605047329177,-0.7396149780986955,-0.4344448540421556,1.596219034782249,-0.27604618462671343,nm,0.0
5.943231582641602,51.53448846155454,18.00607601333873,111.76350776978713,3.666399547860178,-0.3098246379720676,0.07155710420037051,-0.15469930130149218,1.184644977203847,0.10683080061898322,nm,0.0
5.947549819946289,53.411128666957936,16.41250019360919,114.85794435302518,2.902967871962179,-0.3806829206854064,-1.3893642803846027,0.15135897880753385,0.46054815351763767,0.4703927195490364,nm,0.0
5.977648973464966,51.787720425141686,16.131183734357435,123.2019217841945,1.8579933004381373,0.4317439381465088,0.025124276030390507,0.1132082994105676,-0.3628267438599145,0.9490089565485315,nm,0.0
5.979756116867065,46.58974617842339,17.679451153279782,126.54684339562867,0.8062526705760745,0.9755139758225314,-0.13868916201001602,0.3165005234213123,-0.9894865399964897,0.9583539593258352,nm,0.0
5.99004340171814,39.426381339106086,20.139539126377045,128.89934631766727,-0.2096026649509202,1.9347529989370038,1.4077870538873363,0.44363786666418337,-1.3691497358900724,0.9221837212385993,nm,0.0
6.010197639465332,15.541192303748366,24.969987276934717,130.29119510190998,-2.8529583201086552,1.2778973612483007,1.591907401258718,1.284335969494816,-2.1284143693838597,1.1148295133749884,nm,0.0
6.019131422042847,2.415580967333614,25.686127206894273,130.36788848771528,-4.567127738234124,0.8249650236972464,2.198690056552687,1.4347271964367814,-1.8935091237351482,1.1318239532517538,nm,0.0
6.047406196594238,-24.633666241473843,25.413083321177513,132.17057148006256,-5.450655993821956,-1.9926469877329456,-0.5353922217150479,1.7074442725021952,-1.8252579335994592,1.4196292008798321,nm,0.0
6.0526416301727295,-46.253872797872134,22.984510930690277,134.20199308700094,-2.890382824776133,-2.610175204405212,-1.7788737428921604,1.3519414810664268,-0.9591059841049988,0.8922340043329512,nm,0.0
6.0585854053497314,-53.874951715932774,20.83971494483121,134.34261685838527,-1.5739793446609842,-3.1558443331429684,-2.4214721310004554,1.29700193949703,-0.7004466691669838,0.6006841430594857,nm,0.0
6.154739856719971,-62.189792483071045,14.911625318696524,132.9771789875231,-0.11903385122723836,-1.8673258125824304,-2.326122329327587,0.6923070096204513,0.1467033638465121,-0.09866847023495627,nm,0.0
6.161142826080322,-40.45186100766644,14.354738599475354,121.29725000215784,0.34658861414705366,-0.0852096852226324,-0.3655081420444946,-1.2998504574651006,1.4280711127242285,-0.6002512881029851,nm,0.0
6.1637468338012695,-13.000613061573201,17.383209283054292,120.94216801667375,-0.4732963135144597,-0.9999166210252771,2.680145697651383,-1.42162715860941,2.140270085669797,-0.7252324612470936,nm,0.0
6.166760206222534,-1.484031321919479,17.10928642788932,120.30705630219384,1.5082264929524274,0.7229157356478533,2.035535329776776,-1.0655126172939353,1.935831227183317,-0.7856471956240361,nm,0.0
6.181689977645874,23.055271197718618,18.88185025547059,117.26490245637467,2.43178476361965,1.2548520136034862,2.0001017203308122,-1.2383753099070058,1.8710318732849858,-1.1097584920155579,nm,0.0
6.196924448013306,32.3011526233014,19.853624593614782,115.48541366252091,3.0544077153937295,1.562010692055251,0.11550834331743937,-0.9471103907591236,1.4843196716741716,-1.0066024044704796,nm,0.0
6.2124247550964355,46.44874502668456,21.20104772483621,115.31308236361897,3.0432410145294693,0.2927092631943739,-0.6675474911264265,-0.5329739312488843,0.981018026440371,-0.38298818743896235,nm,0.0
6.214671850204468,48.94909930572571,20.520274244150603,115.87902255859336,3.237309224311295,0.2297788516548627,-1.059525962149486,-0.0771430684923792,0.48496717345950996,-0.07871642132304602,nm,0.0
6.221787214279175,49.26871595395679,19.63134273459163,117.15614918593408,2.758668519921255,-0.14090567847264154,-1.2300534489299453,0.13426063837793514,0.13752765988313795,0.22003710777228472,nm,0.0
6.234814405441284,47.72300511775231,19.375990212040755,119.10577108526064,2.4224106315169656,-0.10875118847206751,-0.21490077550953815,0.1845401546412131,-0.22872673344594682,0.4800464396674915,nm,0.0
6.257377624511719,38.622370136208424,21.888899846211743,122.35258028227868,0.9795175604989989,0.25541140202620005,-0.28226625235847386,0.19899199401311765,-0.9800878248670466,0.6225365182096084,nm,0.0
6.2767322063446045,25.15043006841935,26.046573097127034,122.70423637758391,-0.45262089490819796,0.9852112703699283,1.0284558797210905,0.4437387255732249,-1.3483845743550356,0.5042649295805081,nm,0.0
6.307751417160034,-13.218027176512583,28.325239755946534,121.49075523177265,-4.07764647024472,0.0034702256100494835,0.7311263355309627,1.1773849524564255,-2.1050163778618316,1.3298051129779185,nm,0.0
6.30984354019165,-25.253158458965522,28.24635329033733,122.6786802860937,-6.393828169434486,-1.567128024428691,1.1089953070527259,1.1488110579662243,-1.7776415415978601,1.3655010918459622,nm,0.0
6.325171709060669,-38.289855169733855,28.22441755724749,123.43992823849662,-4.616850486609078,-2.331052559314219,-1.1479113716346483,1.2648013767071116,-1.9122388598560183,1.3811893675930502,nm,0.0
6.33427619934082,-49.486202896403995,28.050601671048884,123.14687772603277,-1.685026316084621,-2.252916503572862,-2.081775523294576,1.1193806429764368,-1.6195677830624278,0.9917023875209261,nm,0.0
6.336405277252197,-56.941261084477205,26.785019144026634,122.44051290735995,-1.4958994514106574,-3.000887643012175,-2.1065341393113712,0.9346016796631414,-0.9627122426899638,0.5371460830255291,nm,0.0
6.349204063415527,-62.60512708814964,24.41910913436416,121.27982694125272,-0.7590533256829383,-2.5682346138962533,-2.3538104429425277,0.9454657637244369,-0.6047532132698997,0.2483790864325038,nm,0.0
6.357009410858154,-66.1164907214944,21.81227602213473,119.14691718536737,0.09000127760761548,-1.7042679510439447,-2.248249232903619,0.7797801677333427,-0.28241657324580793,-0.16434055438951767,nm,0.0
6.363381385803223,-66.59994926025242,19.770183957726996,116.26797997256023,-0.6833056247544554,-1.7887245411443822,-2.16102894339468,0.40776349040473037,0.12328655394612284,-0.5596286968634897,nm,0.0
6.373655557632446,-65.57635057426795,18.766355131814393,113.11508935341678,0.04713864684459641,-0.9544649855329402,-2.2299918340626532,0.10610137926102677,0.272458784976248,-0.7169405553819764,nm,0.0
6.383389472961426,-62.94426084325699,19.12026683662625,110.02617521669309,-0.049976736418639166,-0.6303976016749183,-1.659084743074806,-0.2440359254495101,0.44972857246276593,-0.803269604599443,nm,0.0
6.406030654907227,-57.889368922705536,20.645521804412105,107.57193958272532,0.09659024923184596,-0.7135140473738977,-1.4194472673232341,-0.5895981808175886,0.8146239152318501,-0.846070229311715,nm,0.0
6.422447681427002,-38.03402779704001,24.317227566517403,105.56330949682597,-0.7776795675826943,-0.7133207973104299,0.09694596173744102,-0.931304936260408,2.0591780007911007,-1.043068584417335,nm,0.0
6.427247047424316,-24.416295902815314,25.162520093782316,104.94124391390505,-1.6040445646495307,-0.6320619371494473,1.3793315816176432,-0.7967084040144616,2.357870727033048,-1.1972707274625178,nm,0.0
6.433250188827515,-13.022403360435883,24.775567357672234,103.6649187285452,0.41420040427926613,0.575535636318425,2.2811387289051983,-0.42099897473695364,2.033564370484261,-1.1686815828121495,nm,0.0
6.447015762329102,-1.0106743140422767,24.01561676556831,101.76714771968385,1.61950842614208,1.306254358284843,2.386923494152414,-0.32145541537850103,2.1788109602630725,-1.3505376428569877,nm,0.0
6.46768593788147,23.136945992665346,23.714240120532743,98.59010845278581,2.8801715268392414,1.03950223031723,0.9584041154451716,-0.32494561757689405,2.053044785901745,-1.1737940319223503,nm,0.0
6.4816460609436035,41.36378508216205,22.159977678863918,99.88137515098629,3.4337382445964892,-0.007042517045130733,-0.23053504848022824,-0.008149072332574246,1.5665453890963232,-0.3946315923383243,nm,0.0
6.497604608535767,46.92246084593359,20.140548764191056,102.18104236456462,3.4319525531628305,-0.31411379892322494,-0.28092021012205004,0.201278612609071,1.1000337207281754,0.04484253436648947,nm,0.0
6.4997382164001465,49.17165648836165,17.935528404591707,105.23505035745524,3.0156439567288578,-0.5345314026101251,-0.900449781298013,0.3302845961221355,0.5226785443453172,0.4376151139250111,nm,0.0
6.5067832469940186,49.20321231848316,16.34911862391462,108.85605392047017,2.5136169786727507,-0.3811761726905198,-0.8368593045398536,0.3040334029033752,0.10373959206135529,0.6935670037096486,nm,0.0
6.526035308837891,47.03580043499558,15.883670740438365,112.50942305628949,2.0263944931311513,-0.02172534516991651,-0.32112418566543544,0.23696475098687356,-0.35203575492221467,0.8174883096659901,nm,0.0
6.531631231307983,42.6665369257035,16.608943946914632,115.55969867622169,1.331668004764134,0.4093215246663246,-0.12729395100911012,0.21338924818338406,-0.8207972265375627,0.8114438467483024,nm,0.0
