timestamp,roll,pitch,yaw,acc_x,acc_y,acc_z,gyro_x,gyro_y,gyro_z,markers,motor_input
19.54038977622986,-17.393845677239522,64.62663398929028,-27.595359731024374,1.4644939685158358,2.3955886559575634,-0.6810231091316351,-0.5585241587489723,0.22483368033329384,1.4807469433762066,nm,0.0
19.542906999588013,-22.282558061011486,64.13749362525877,-26.46295927242994,-0.20689574583234185,2.0566901706346794,-1.1919648666767464,-0.42498587940376426,0.09277798515475988,1.1033437489357407,nm,0.0
19.562483072280884,-23.096801554642905,62.02804249994485,-24.06887171231571,-0.8052082681504058,1.460074091330811,-1.0522845558150717,-0.021641944171563513,-0.26646070785513776,0.05657228563916914,nm,0.0
19.56470227241516,-20.105247294163128,60.91699487391098,-23.024572790961443,-1.0061371984804501,0.9070170913254721,-0.7469551555843391,0.17108931678860417,-0.3310348733091971,-0.32429086831202175,nm,0.0
19.592926740646362,-6.653983363909309,59.54354374889748,-20.005204689147995,-1.1430262257338863,0.3644284433330268,0.3500401772517754,0.6957595235519571,-0.3954754318017446,-1.0219284220097808,nm,0.0
19.59517502784729,3.002317920517257,59.19608681691982,-18.002334773277624,-1.2776181958584154,0.06052782791681958,0.8917473568467928,0.9044081485945368,-0.3966651974843081,-1.2729738462576299,nm,0.0
19.603793621063232,13.700559885261143,59.137746350629875,-16.118499124791466,-0.8937060630428448,-0.3927058346663475,1.7108520725773242,1.0413866052282486,-0.34055021841502653,-1.503964763818421,nm,0.0
19.62771487236023,33.759455323522694,60.69855627541011,-15.5024329653799,-0.9763698691778162,-1.7847527514455315,1.1710640655648734,0.9987921025828924,-0.045370062105471204,-1.7561885212505701,nm,0.0
19.63389825820923,43.087893107213624,62.70322446138064,-16.108020933170092,-0.9538332473822758,-2.3196461510267388,0.2166309518171987,0.9541543443268972,0.14184018899913672,-1.7791904823780196,nm,0.0
19.655338287353516,59.32075194832309,67.20669815551953,-16.900838542574263,-1.0761453491520918,-2.2395593935898144,-1.920906009463437,0.7028689925835957,0.2265393174062358,-1.4562932211841342,nm,0.0
19.661620378494263,64.5904803232717,68.4562389139064,-17.205638355335005,-1.2141965925517517,-1.6568122845425055,-2.325896045755855,0.4458636827971742,0.1250920066612272,-1.0508087700609519,nm,0.0
19.683518886566162,63.38878367822867,67.81128713510108,-21.459932731967253,-1.0206423847818562,-1.0565145083790175,-1.3603118192660941,-0.2473446364329152,-0.07703161924600745,-0.08541602753950955,nm,0.0
19.689929485321045,57.45597131947593,66.76792974222585,-24.543543272539377,-0.4328416567928126,-1.5203482065314886,-0.13886778828927898,-0.5118714257957947,-0.011893555507829088,0.4674495670363731,nm,0.0
19.711179971694946,37.79076109146668,66.24469170058887,-29.143780035921196,1.752906306115177,-1.7661085652935353,2.04447573348199,-0.8028999751726034,0.4311733592893152,1.6027840028932343,nm,0.0
19.7158522605896,23.844238338784994,66.32228421137867,-31.55721707387435,2.8321564754642514,-1.2543514874067396,2.030651882794362,-0.9701007681842474,0.5763783210371495,2.0647746417466455,nm,0.0
19.740291357040405,-2.1744008416559377,65.37106425064164,-32.32107534173994,4.978363097715538,0.9492760590048687,0.7810178541103383,-0.9225534971925601,0.4330025478099866,2.348005302402869,nm,0.0
19.792304515838623,-20.397776552865537,64.59427793788848,-27.47362345357626,1.9702567312422685,2.5946884002731023,-1.4058536755939188,-0.6301956908311109,0.26540948102563744,1.9689484771063632,nm,0.0
19.794628143310547,-26.208699202053303,63.945068943163335,-25.11713641901993,-0.8602726349147677,2.0533577081365433,-2.0137506329608432,-0.513274685476204,0.09459186639796946,1.514540099855008,nm,0.0
19.798203468322754,-28.668379801117286,62.246525751874636,-22.777165649149044,-2.2084256778238442,1.32504626429644,-1.97119128630996,-0.34323576315783094,-0.2338740777982203,0.9021520876524746,nm,0.0
19.800755977630615,-27.506795139874008,59.69114441476528,-20.489914794040796,-1.9236860363457324,1.2606769460177536,-1.4751039605361207,-0.08442452951102357,-0.5310657415981423,0.24855381074326574,nm,0.0
19.802926063537598,-17.973504389584214,56.0040856429139,-17.21138692977744,-3.106256189501835,0.4315483214761561,0.023826114873154208,0.5610272428090625,-0.48718784401294696,-0.7252264286769678,nm,0.0
19.88445234298706,0.5998209070040642,55.818580693136,-15.229943644831671,-1.2021016532942763,0.8074047615046355,3.07316574773313,1.0319792210773884,-0.21138366150824828,-1.4769931119589785,nm,0.0
19.88824224472046,14.922128882810027,59.60321633123916,-18.556472772036237,-1.399724195435546,-1.1195107284141546,0.40220438513206375,0.898680672753293,0.1758987372879876,-1.7143940073063957,nm,0.0
19.89123773574829,35.02111043381816,65.21074958724115,-20.43438857068086,0.028904191882047407,-2.9225518778555166,-1.1578858974559754,0.98878173445173,0.21145597275920086,-1.8950931343822552,nm,0.0
19.89410924911499,52.715005185967605,67.34627931663358,-21.278839882549867,-0.11025416935477952,-2.6800721718014735,-2.2255520916372555,0.6411066456801443,-0.15286509589449737,-1.66264340701798,nm,0.0
19.926751375198364,55.65237771069318,66.13662495946853,-26.523226942644133,-1.1618268259533797,-0.7699354846351726,-1.055200237817485,-0.11735963763002402,-0.1136758442384195,-0.4231747602202643,nm,0.0
19.929847240447998,40.77596704089271,65.66699672068195,-34.43041377290002,0.3100347764314554,-1.6272884033043895,1.4519256535223164,-0.6919717112168047,0.4534938063532369,0.9660630434582904,nm,0.0
19.932575464248657,27.656288244619226,66.09665869074388,-38.42142412852915,1.646793292656124,-1.8706920831505702,2.4671069854542282,-0.821446027221749,0.7032901455124049,1.5892650894192923,nm,0.0
19.9494309425354,-1.5304392933741362,64.4643816423864,-42.57048769976715,4.771508695904814,-0.641130509732742,1.8859598364163597,-1.0385165358843418,0.6032606023680629,2.537001584357994,nm,0.0
19.959221363067627,-11.89704804598185,63.6497664887586,-39.638430865744134,5.790914087286219,0.9609274409654294,0.7782695821701008,-0.7963210659316758,0.4720169553980438,2.6360629628203895,nm,0.0
19.992770671844482,-27.0594553496592,64.47920792181347,-30.77492685016654,0.9482146202338475,2.6336172502713873,-1.9904623770476462,-0.4324702024916487,0.4227159926252324,2.1711380162863367,nm,0.0
19.99568247795105,-34.63398493642987,62.39632225779263,-26.882985181670918,-2.4663768464186044,1.3862859274175134,-1.981079901531837,-0.3791254429672554,-0.2593641215383188,0.7551542239298673,nm,0.0
20.00511407852173,-34.09515884869635,59.02760585851959,-26.04182428914813,-2.6448499730646575,0.8281116244599376,-1.8212973865839808,-0.2540817272462451,-0.6417132370037935,0.06890393259191578,nm,0.0
20.017270803451538,-30.641595789038664,55.79605937253245,-25.73345219472013,-2.327861252113542,0.5476405834413288,-1.0381178770190462,0.052573798673630344,-0.7587229146848568,-0.5451787302443211,nm,0.0
20.031622886657715,-24.170555304061143,53.969944255736614,-25.407374548830212,-2.4463154823031585,0.5098392503973722,0.39016369116067123,0.5142884333777272,-0.6641511571665439,-1.0288346046944097,nm,0.0
20.04953694343567,-6.736288066101429,54.93097566525491,-24.52645089240995,-1.244806594511393,0.6538367136838316,2.5744419943502646,1.0095709569207536,-0.23420643887629441,-1.3883370669629553,nm,0.0
20.071009874343872,9.345219147063805,59.21839078091072,-24.679525543983967,-1.4454035397493135,-0.8736348107997559,-0.2709100862210621,1.0615539522244506,0.027340318354121023,-1.5211096458791842,nm,0.0
20.07327127456665,20.064376107682957,61.52134781230814,-24.19334394993007,0.8520590084613522,-1.7442106147092662,-0.10076158551922863,1.1497646393746674,-0.025981413726132763,-1.7916359462064844,nm,0.0
20.0910701751709,27.55593049526146,63.0492493065705,-24.547933194462807,-0.16816909322511553,-1.8190070855649132,-1.816185888108301,0.7542272502961704,-0.01419071781393751,-1.4112536600660839,nm,0.0
20.096089839935303,33.44991969360434,63.75745716736625,-25.604872040539014,-0.7081647866762997,-1.581936983689953,-2.4983164411016445,0.5307171002484102,-0.09960148503131741,-1.2548412419099877,nm,0.0
20.09895420074463,38.028158810633,63.79692387498649,-27.090471063344786,-0.30861476561055656,-1.7230477721216002,-1.4989057990570351,0.35810873580779634,-0.1758100038516927,-1.0915605519810057,nm,0.0
20.11418581008911,37.077029196573115,62.37410355341682,-32.94273210298286,-1.196805206365712,-1.264648122766528,0.0720923413781781,-0.2219325932285427,-0.07100984052202469,-0.2962119076276642,nm,0.0
20.131364583969116,34.392538815095364,61.87112175724643,-35.702628827237184,-0.7232485069405011,-1.441985020981794,1.234965208818763,-0.27265850115532564,0.057185845518654674,-0.014744328305297393,nm,0.0
20.14383316040039,30.283687834238652,61.83043516013736,-38.055161746361016,-0.7168416424084039,-1.0228759730179737,1.4184016883547694,-0.3231506314561677,0.22513709810793833,0.33364593897298883,nm,0.0
20.150691986083984,25.826958145985376,61.97650461046459,-39.923680475310725,0.10336053746564966,-1.2891154666292166,1.3924010964583373,-0.31585407171224966,0.28555803334245305,0.5077971133725052,nm,0.0
20.170936346054077,15.08385695192605,63.302757289408284,-41.275011942317064,1.618861497048282,-1.3638868684650727,0.6342030731856436,-0.2962357038882129,0.4721494202484085,1.074169186619024,nm,0.0
20.173346757888794,9.157049381455964,63.999702557115135,-41.39004083843784,2.4650026169363377,-1.0505522190119614,0.6769356492994841,-0.31050528611468897,0.44855232963314595,1.1385369359543527,nm,0.0
20.182895183563232,2.457779177058503,64.29644701621584,-41.82577572899494,2.314252310259045,-0.12187857577319783,0.17782550024461766,-0.40513535591021554,0.42768396556351507,1.2060766842309285,nm,0.0
20.218712091445923,-10.226293862875178,65.02702836875645,-43.163726540720354,2.3781211394637314,0.5877602787468048,0.15533913686727677,-0.3200054364552498,0.3972494345470679,1.0034085109424085,nm,0.0
20.22176170349121,-15.253733117449487,65.34417909477517,-43.186359812957484,2.166794220407961,0.8391377712237756,-0.04290410019709535,-0.27162200855932905,0.32628029737364794,0.9441842868440874,nm,0.0
20.22434949874878,-18.72114154716989,65.6777945777252,-42.193073577074586,1.9933055105880038,0.8084535180162074,-0.380676594446573,-0.17301221321478788,0.23427672254943663,0.8512706173880671,nm,0.0
20.240241527557373,-20.55413333298567,66.67315639943892,-37.18163875797457,1.8108411994632037,0.7483709957586205,-0.723383007451931,0.036518017893915684,0.0668814772755524,0.6372885389386088,nm,0.0
20.268092155456543,-16.885365447846873,66.00325908931742,-29.64121634586452,0.7718451515191858,0.4056059750649589,-1.0669293082723283,0.0946948556244729,-0.21718046891148246,0.3110821352366436,nm,0.0
20.271776914596558,-14.200621754110692,64.78366636926877,-26.319506497007538,-0.4396313472232928,0.2632979565019213,-1.3334122424799582,0.07849147196125543,-0.3324133888847381,0.15231147654869998,nm,0.0
20.296663761138916,-5.6984132635224265,60.45890036469435,-21.120354816929776,-1.5243048595584276,0.10260108631189846,-0.5216040445948543,0.2521813178458651,-0.6563432440709653,-0.4433732787471116,nm,0.0
20.306358575820923,-0.23607278042131338,57.610202366446565,-19.252805147246065,-1.2508640324333624,0.17510708088998106,0.635605302300325,0.3279246226258097,-0.7401874476379985,-0.5903979517402851,nm,0.0
20.308682203292847,4.786247515172984,55.11444589134625,-18.307175480643,-4.218827308211164,0.3528338312419039,0.23072221645311194,0.362848802946971,-0.6627084585148989,-0.665846968584327,nm,0.0
20.40814185142517,10.903210114340407,53.553717982138195,-18.97602040150469,-3.2555250920189196,0.718089319593128,2.1590797257747854,0.5729076001801865,-0.5336252257112304,-1.1473780310310615,nm,0.0
20.41077160835266,18.995971631719407,59.10826303029498,-30.164947563318,-2.2458495627534023,-1.1192841524009391,0.472422656980973,0.47335375399289703,0.5110116706219671,-1.1290880902245475,nm,0.0
20.415987253189087,54.44509191303432,65.19622973234502,-20.290260329023504,-0.30667773362745926,-1.6512339088277679,-1.2834237782628395,0.31966329441973745,-0.21092677114810265,-0.8633950456402372,nm,0.0
20.418108224868774,54.01415480170464,65.79200498019604,-23.798771514075707,-0.5495053998490732,-1.2711348041599486,-1.0332517262994962,0.003950421822597973,0.12470249224943965,-0.5880685881366002,nm,0.0
20.42172622680664,48.87941004387348,67.36586895981219,-31.00300587206487,-0.3653657970538392,-1.7284218120199677,-0.5947712600381718,-0.2242349447663095,0.4690856503506971,-0.43912469047138764,nm,0.0
20.42555022239685,39.16231137577929,69.36330217672798,-41.3047574959075,0.3909205517427546,-2.297047907955123,-0.0963554734804919,-0.34885985579011114,0.7464066679445795,-0.1790323685145745,nm,0.0
20.443618059158325,7.414959401819698,69.53482118573868,-64.55574088861067,1.265482080546508,-1.616087194218753,0.8404661672588593,-0.7886830400591922,0.871541104212059,1.07926877216978,nm,0.0
20.447227716445923,-4.899866329160937,66.69670801195579,-68.76400967993987,1.9341554933101657,-1.9457713022357201,0.9752600846132609,-0.8929079077663582,0.6190960872270407,1.5422232219576346,nm,0.0
20.475399494171143,-18.224351757547133,64.4300030581101,-61.5056878604204,5.2676442667020185,-0.1395346883046611,1.4200738312099341,-0.30628103663912026,0.4489458511766885,2.230432670060893,nm,0.0
20.480347156524658,-24.21537461709841,64.76410923278479,-55.42288182984172,4.6588749703969965,1.3075853582693577,0.9182427290471571,-0.22044942767652337,0.466156256043169,2.356234708150888,nm,0.0
20.519370079040527,-36.248719362690366,64.27885727010676,-49.01102741163175,1.0110251557479613,1.7099182119540488,-0.35502220798159145,-0.35487341318101917,-0.034834966217496044,0.5855369360771315,nm,0.0
20.521435976028442,-35.825386005724255,62.09932988615601,-47.93154919464318,1.1214912961172567,0.8522221781509561,-0.7016899302864195,-0.30691643612534886,-0.3310533851507419,0.11470915441278676,nm,0.0
