timestamp,roll,pitch,yaw,acc_x,acc_y,acc_z,gyro_x,gyro_y,gyro_z,markers,motor_input
24.03958797454834,-152.44002607049293,45.85889266016909,-59.807547613702255,-2.564890103031624,1.3982357503241687,-1.0068694669632685,-0.6495007174416547,2.1511741616421167,0.9194374297731033,nm,0.0
24.073172092437744,171.08905543484147,41.126174480968324,-82.27761272782962,-5.294384535435299,-0.7778680683492666,-1.6286822692268268,-1.5264146922441943,2.377691407569581,0.5443488207910577,nm,0.0
24.075457096099854,156.84289502485464,31.719878526778338,-84.81524015905279,0.24645777893555726,-2.8593731827207103,2.7142303622943498,-0.6351862187654791,0.2591478984644046,0.4033514107779395,nm,0.0
24.07916235923767,161.5755251456854,32.52473881981421,-81.22475203007865,1.619258883531493,-3.93693289726356,2.537909176266518,0.27072774710705433,-0.7813389573663173,0.21192442910707385,nm,0.0
24.095367193222046,171.67913014702617,35.485313121402925,-77.26014917338667,0.3955531937727941,-2.6792946164246065,0.15141351744258366,0.9071591964246772,-1.540927630260778,-0.3405005621362139,nm,0.0
24.100889205932617,-172.61703421334636,37.98053223676599,-74.1285083819296,0.9894827648840389,0.4868810096340474,-4.110353298225944,1.115881778329013,-2.3229775243863147,-1.254889036899356,nm,0.0
24.107882022857666,-152.42911843939845,36.91312500704779,-74.61761377539949,1.6338759213523775,4.987843697817239,-5.456876919710767,0.6709220493675531,-3.1558171758349207,-2.5505299773441377,nm,0.0
24.145689487457275,-91.22352335125353,35.365278177060084,-81.49823902718657,7.958810923466369,0.9127794833244518,-0.3716649092017757,0.6753348770391115,-3.0811449348632114,-3.1071397025263576,nm,0.0
24.148738861083984,-73.56845452205025,37.55061099609846,-86.61935042747554,6.817082428937827,-0.27512440575780284,0.8214676724877974,0.7205526941081057,-2.8003089984594576,-3.117616121230896,nm,0.0
24.166086435317993,-56.80983558786862,39.86539614872551,-86.74353896086129,0.38750665684150487,-3.2168906134197126,-0.16432040731750402,0.601452694215357,-2.5986731905530336,-2.1230671019958725,nm,0.0
24.17174458503723,-35.04139322076015,42.049674913441216,-82.75667948546908,-0.3599945150964587,-2.233950664485748,-1.1172437675396918,0.7195402666672208,-3.243687702253158,-2.0685518022200284,nm,0.0
24.201857089996338,12.381935642052769,37.683724252176994,-69.86985726770064,-2.6290051099700964,-3.0077719345424323,4.431621386371064,0.1443370176349557,-3.4436141917363767,-1.6205003743916102,nm,0.0
24.20413899421692,53.85181200823771,26.810338283997364,-69.9627932717958,-6.431789174301456,0.35925276153231717,6.383738301302503,0.47045298873526337,-3.7065114469032667,-2.4152442775548932,nm,0.0
24.213303089141846,71.10383021049583,27.385697162651915,-73.59760020628315,-8.160058043853748,0.6819372449869092,3.1759851511614334,1.0723200106103465,-2.8889345695658344,-2.311667376275513,nm,0.0
24.22384476661682,86.05915395408586,32.74818998073485,-74.36437390407592,-7.572671826411625,0.031315660756340145,-0.5516093799305879,1.7464115945992749,-2.1962778913701833,-1.6681712746518416,nm,0.0
24.248305559158325,100.73778927661654,39.4797877526458,-69.61266585706471,-6.5585715129056785,-1.5874659403035045,-2.7412713354283236,2.015126775559757,-1.8393846341326794,-0.7997366640592009,nm,0.0
24.252495765686035,109.8825237404566,44.53504491716199,-61.9775390671014,-1.7246210952839953,-1.0690662618742361,-4.813756301951953,1.4864734361000558,-0.8207156138197352,0.2881237927233785,nm,0.0
24.275229930877686,108.72887765230628,46.57331206776436,-61.86858284512499,2.601104955717402,-0.7283477851446625,-3.782618531551465,-0.3127345131854274,0.4207768666454801,-0.1571051592296987,nm,0.0
24.278342723846436,100.48477756637593,43.26385282521266,-68.788334115353,5.8057896775289315,1.2272152451615468,-3.3907584421147483,-1.083244536366695,0.7888832522296823,-0.23033897363665637,nm,0.0
24.286060094833374,94.4151822246032,37.360108632665025,-75.79470435462713,4.291108769048086,1.339157851652487,-0.6391684470663683,-1.4023748821364392,0.5252781395830969,-0.6263889363012015,nm,0.0
24.303991317749023,79.00855349880338,28.19325396730489,-84.95299890142824,2.9047422172377413,3.684850649130167,1.80013000011367,-0.794651152864146,1.2827541929361028,0.18180473770708538,nm,0.0
24.32190489768982,70.27243303790218,28.638234381019885,-83.86508165943374,4.34755523124467,2.938605806545161,1.3499720796109558,-0.060333694510470486,1.5396869332353398,1.0354590300745248,nm,0.0
24.324102640151978,60.884608588369595,30.96301327822815,-81.02303424941927,4.080274682025881,3.223710208038965,-1.7961607537524842,0.24521951595013153,1.6791078887735702,1.4876278840559405,nm,0.0
24.32738184928894,55.11006900606858,34.41174972079835,-77.28003499288266,-0.1827612551539209,-1.48406454218967,2.5454616156680294,0.4926381433110789,1.0869550122079565,1.358678261066293,nm,0.0
24.336800813674927,44.24747099155112,38.68332572265901,-74.32809069930842,1.997610627299925,-3.5525229558725337,2.218462475773641,0.3938527474238616,1.905473197953419,1.8711758970306152,nm,0.0
24.369922161102295,20.929787928007446,42.10143963753778,-73.97879919023518,1.6071655198833488,-1.8914514642407665,-1.2889859746852061,-0.34601400753347317,1.3109949483129777,1.0806171192700216,nm,0.0
24.381017923355103,16.82327785402272,39.58223543021863,-75.03727116552288,1.5279981225169466,-1.0723995345227901,-3.1989428675702594,-0.6612953708849311,0.4619294563261458,0.3154716645060259,nm,0.0
24.38323998451233,18.500668351632015,36.55376195202292,-74.47818659875485,0.5168191283688718,-1.342841557001552,-0.893033817481379,-0.524341083295791,-0.4180746013838627,-0.10608615710170627,nm,0.0
24.419121503829956,54.325772198803975,24.860606331328704,-70.3446293358548,-6.310487137278153,1.9648451945360088,7.500620406302996,0.28481437992000014,-2.895222920025746,-1.4493227074900723,nm,0.0
24.421374797821045,68.50530456519424,25.637714474233537,-72.17376268101623,-7.580652532258758,0.8444570252589227,5.07880449711759,0.9729347282735099,-2.384300020843256,-1.590441625314576,nm,0.0
24.425379276275635,80.26202242933032,30.79598054137046,-72.24012406893306,-7.008805789908058,-0.8542301195986215,-0.8294670392815642,1.6175184298879688,-1.6604583101105923,-1.1414737141440594,nm,0.0
24.44211721420288,94.38180740989776,37.060914295310866,-67.7577648721965,-5.347869339378198,-3.0760128528970774,-3.5870504629654874,1.9803132045092398,-1.773880666813309,-0.6992654871799199,nm,0.0
24.46997308731079,109.15299525084602,40.81447952470411,-61.614012489596135,2.587697618006771,-3.140945531612415,-6.147604608579967,0.23145146586632134,-0.46156775950227863,-0.42688383574374955,nm,0.0
24.473080158233643,95.11163205002502,32.60885327164646,-76.58781999201832,4.48410492845057,1.561597113052296,-1.7054819890574155,-1.348836700474568,0.9936570396092325,-0.7442317311903031,nm,0.0
24.504169464111328,82.69578142062977,25.10761377261119,-88.6451238925023,3.1316374198122254,5.65339502548146,2.2470148768416145,-0.6072280670109524,1.1462595073500828,-0.3771032708009128,nm,0.0
24.506630182266235,69.75351747744926,26.84504493195551,-91.26477099873257,6.307186537063238,3.649514793086201,-0.8571545707972829,0.3175183152062431,1.1322646463460369,0.504595021425305,nm,0.0
24.5177161693573,66.43326758942034,27.93642484051953,-88.3546334332199,5.05467388441685,3.395089828460661,-2.1931911967470903,0.2169284705198968,0.5905902393713743,0.8738142799361509,nm,0.0
24.549387216567993,52.79158877245892,32.85590893170919,-74.78600275191233,0.9709023130033332,-2.4862285768538963,-0.8125025071519533,0.1097351066118667,1.349455469599033,1.491696371601078,nm,0.0
24.573057174682617,40.10251035721993,36.40729400546086,-74.11188921372268,1.5891651180519581,-2.143309161556684,-2.3950565289247816,-0.07605915839508472,1.0006879379732903,0.5134277746878286,nm,0.0
24.598655223846436,37.85337957938694,31.780654871609737,-77.96957019477487,-1.6859219784585362,-2.6785204578860875,1.092536993934418,-0.5764984166299801,-0.2858249174358387,-0.3445558467928759,nm,0.0
24.60085964202881,43.78727884629287,27.857020410531778,-76.58633535551039,-3.7092899075515238,-0.7005472099857746,3.1062256648061575,-0.5430952848307596,-1.1809833205051554,-0.3275793236093638,nm,0.0
24.603110551834106,53.5658753082558,23.05126781484174,-74.62898839725013,-5.902192778096651,2.428766215118596,4.956121112221591,-0.49241656648909143,-1.9542586382931997,-0.4645466505538726,nm,0.0
24.63007426261902,75.93657433283668,20.965869170426362,-74.17116138348318,-8.06839903844561,1.7101195281371173,4.028871298055147,0.8075515211124952,-1.783479313519231,-0.6791909410886147,nm,0.0
24.632240295410156,82.79851502809674,26.228011974759227,-72.30721805827902,-6.0802812253242395,0.07849388401617431,-1.353976239765557,1.3751153012258446,-0.9024634920546141,-0.1921339466354456,nm,0.0
24.65942144393921,95.36348518678254,36.243592996730605,-66.00023176184295,-0.5098532412179084,-2.942179241203981,-4.834498224699237,1.0426482722889,-0.29097657417963274,0.11003545355256289,nm,0.0
24.661754846572876,93.76521599154027,37.148858851126796,-67.03229445153704,-0.33244215149941236,-3.409959511073089,-4.28350361063653,0.06905208179209742,0.3104213385481674,-0.02883579340172253,nm,0.0
24.678516626358032,87.25621437998073,35.15626811028657,-70.75159207937928,1.0830190866629,-1.3756366007846657,-3.289870530522696,-0.7469666544725242,0.8397267580728276,0.011311834272830043,nm,0.0
24.68346881866455,81.8122276750806,31.48660820335042,-74.00422029500581,2.971217384956533,0.8897549614881063,-1.9228798606868942,-0.9726825184215183,0.6464286089325337,-0.06529153088956861,nm,0.0
24.705240964889526,64.84486246824333,24.735110815107653,-80.32576437663994,2.523663310491516,2.9697361055123452,0.8286148123073346,-0.9317596382697841,1.7939684420531894,0.31326166899572555,nm,0.0
24.730204105377197,43.37315819726215,24.817398747190857,-81.32818967525382,2.77138453579113,1.5488659145606003,1.1369670328152435,-0.05937866772330042,1.8521370456529598,1.1111073766220172,nm,0.0
24.73236083984375,30.28167365928844,27.24287895083853,-80.30056159094786,3.622542163628241,-0.9517409713259662,5.0405225315279845,0.11074109679166699,2.4001138431640534,1.4963086620457262,nm,0.0
24.769477128982544,10.839857800130115,29.85371612372454,-80.62186846045603,6.205145386656025,-2.02694605462023,3.9751110682334168,-0.039235869352490786,3.455765117540465,1.9615742419404918,nm,0.0
24.772229433059692,-54.95282878506049,33.11876964082499,-82.88724187077833,6.8778471488188995,0.3516724090004785,-4.013695759512372,-0.48443256408674384,3.685707409362309,2.211318793229306,nm,0.0
24.774858713150024,-73.57420310998255,31.717256112925565,-82.79397257083701,1.9014232301035423,1.2855509060563703,-4.444074725516491,-0.6750237853503299,3.076610706010394,2.021813156493232,nm,0.0
24.789900541305542,-86.05609879083285,29.021859560826066,-80.24456350841886,-1.4967990058513487,1.049067206355332,-3.425139357241592,-0.8543015632559471,2.042074478084453,1.7784590034066334,nm,0.0
24.812535524368286,-94.05463596533811,25.96759025713172,-76.082561821627,-4.764370631214699,0.5570224669046412,-2.041034898841394,-0.8913858660813874,1.2536138008551834,1.578650923157236,nm,0.0
24.815691471099854,-100.52516882035775,21.86299690588903,-65.96051274097816,-6.790240339117526,-0.36079077091245726,0.8539944494036004,-0.37762546121002766,0.1828569506350191,1.1155907292126366,nm,0.0
24.83129072189331,-98.94058138715627,22.400909123336604,-64.15378341728855,-7.474161355355526,0.28246302673949114,1.0378420714843855,0.2235659749933069,-0.23270549211100114,0.25054431601692434,nm,0.0
24.833473443984985,-95.2720241832057,24.622178163735462,-65.12038081591479,-7.748146544865412,0.9858279349851804,0.9106311089399913,0.6918225599464354,-0.4303411177099312,-0.4787737221610838,nm,0.0
24.842727661132812,-89.26398356588952,26.755944508893997,-67.31135708339225,-5.221193646272391,2.471100813373636,-0.7659298310276687,0.8280311703703106,-0.8327530993335188,-0.952966659056836,nm,0.0
24.852883100509644,-85.03892283236178,27.300818499123295,-70.35009721542579,-3.7467100580905415,1.8530966784028648,-1.0897953185048328,0.37245602483482365,-0.6764291832973739,-0.9864064500777047,nm,0.0
24.880744695663452,-71.72436647681616,27.02124469337386,-76.25715460233037,0.16629563720957707,0.5091891028165231,-1.2455850771177732,0.43021772892470295,-1.5821529609110234,-1.418045150606008,nm,0.0
24.88748335838318,-64.08961123652534,27.82445940630104,-79.59776937693209,2.957223010908488,-0.47329472020354224,-0.20653973916726112,0.43389812633924174,-1.3059450333858598,-1.3685631309130348,nm,0.0
24.915161609649658,-49.79525065904428,30.119352126393487,-82.77696948018158,4.917113742116913,-1.0149579938278601,1.8811952888088423,-0.0507605377186276,-0.43635391096533177,-0.11973244769709725,nm,0.0
24.934049606323242,-54.27006974898703,28.6621547219126,-83.10531496206545,4.763145041059538,-0.5139896905342815,2.1995571980199253,-0.39495682204077703,0.7283256201866397,0.37600865471500466,nm,0.0
24.937116384506226,-72.60950223897783,23.097300286183117,-86.39775536723495,8.136766246186648,2.003496662376898,-0.07777105271096485,-0.8215533813110522,1.9056057445698975,0.6001623678408949,nm,0.0
24.945478916168213,-84.37832207124801,19.761722298997714,-86.33440268055713,6.888361268072287,1.485886681704611,-0.9633753823773666,-0.808939009926291,2.1363006182077102,0.8812260781404365,nm,0.0
24.987740993499756,-105.168316081444,21.962948139993053,-87.37516892846195,-0.12249340766782361,-1.201923153632492,-2.064227558568559,0.5020123566653469,0.88944051185303,0.08054771070357783,nm,0.0
24.990077257156372,-104.93194890577865,25.734255090766386,-88.70082732428517,-0.8557811603773172,-0.921196923384927,-2.638227856764895,0.7548993195795836,-0.029488416624470964,-0.2764504544930099,nm,0.0
25.007630586624146,-102.44894197056699,29.094977262160445,-88.61992472528249,-4.966853139072059,-0.7452877934538744,-1.3050301917207978,0.6810387478490761,-0.4379190522907035,-0.20552303010164333,nm,0.0
25.01287841796875,-96.79986556759314,30.842803497999903,-85.50443146137023,-6.774438728748977,-0.6183290528275667,-0.9229778557026042,0.39664103890324415,-0.9730394557462251,0.06485808849265452,nm,0.0
25.015161991119385,-87.78669695665006,29.762683028430448,-79.8797279405913,-1.8809735533346539,1.1759545304335979,-1.3599438787811842,-0.0197053493165443,-1.584993551651839,0.2198199278248549,nm,0.0
25.030284643173218,-78.0619432684866,25.8099673636687,-74.87545406022076,-3.792275062744266,0.44071544905385307,-1.0695199387656058,-0.3986898286736913,-1.865916157604458,0.09742038705317987,nm,0.0
