timestamp,roll,pitch,yaw,acc_x,acc_y,acc_z,gyro_x,gyro_y,gyro_z,markers,motor_input
5.043106317520142,-33.78823667179305,14.332919843698939,112.42803020579971,0.15054663964597173,0.005584516487749678,-0.9358699398065581,-0.6422235404035488,1.2434872955233378,-0.6110444614609633,nm,0.0
5.045288324356079,-10.760727441984335,13.68344930905397,111.71967449797951,-0.45911167143998827,0.1550057420405051,3.2667714865163022,-0.8324626340703005,2.2945960679843385,-0.5674534283283075,nm,0.0
5.061816930770874,14.628675076382534,13.765557855293697,109.84959980325836,2.2538227674353695,-0.11293052793942306,1.9649937247148996,-0.7892826602889322,2.2944615530251276,-0.775488877976174,nm,0.0
5.070632696151733,26.354234856464597,14.027383901969383,108.48943989675548,3.454158278540969,0.9110947482999955,2.056986177408172,-0.7884536909038888,2.144869924164104,-0.8083594417504832,nm,0.0
5.101186990737915,51.53352560065451,18.18985803418162,108.99280393320024,3.5307404881153945,0.555946131896524,-1.0943343776096832,-0.5284058457982203,1.0416510422141323,-0.2703515204164205,nm,0.0
5.1086812019348145,55.39719999497392,18.361643963147156,110.76936120999417,2.870426889534407,0.16426931739962466,-1.5222528627877694,-0.282204141849916,0.6825527970788708,0.0668828001149653,nm,0.0
5.133811712265015,54.66269407760405,17.239738112033763,115.42566763317049,2.4390442156561956,-0.15341817961656876,-1.4056264220812504,0.2660707466840845,-0.24211615572049863,0.5374698666338891,nm,0.0
5.1394431591033936,51.95688457830703,17.090575809473393,117.95968756328962,2.2937024184353185,0.4866857752585851,-0.2587384657561145,0.2602031823422658,-0.44476418029709164,0.6534256004866932,nm,0.0
5.168680191040039,47.65278670394972,18.179333101997834,120.82883121081741,1.4257674937363392,0.49004424371240324,0.30604364342363916,0.21487510263439263,-0.8180956269396811,0.8216727048456018,nm,0.0
5.170877456665039,33.71171638363005,22.092386131114775,124.75783428241859,-0.4602100557998991,1.3690320620949534,1.2051335614826924,0.48030421254430844,-1.416897431463759,0.82568904006908,nm,0.0
5.187740802764893,23.874163774766238,23.804773425431076,125.74386551523969,-1.721066861453463,1.6734144441444778,1.925392518951542,0.7758038969406229,-1.6706593464811044,0.9133918191403929,nm,0.0
5.189992189407349,12.278850657417832,24.98103993286647,126.45388476966859,-3.361974413580064,1.6770253242938165,2.8152219972802763,1.0657628059738813,-1.8367832146309093,1.0502573908107233,nm,0.0
5.198225975036621,-0.3597156208207548,25.834414930942764,127.04060905544063,-4.8541254203842525,0.8131342184556025,2.0978494696583523,1.2410091135971049,-1.921892102208912,1.1609440781533156,nm,0.0
5.218480587005615,-25.50227522341494,26.06735449180777,127.18356619885787,-4.616165859552788,-1.9318683117966615,-0.4336554795079462,1.418405296461737,-1.7136994071433147,1.044499134166445,nm,0.0
5.223517656326294,-37.00953545375769,24.316917362611424,126.62410158251915,-3.0547735122194215,-2.226735595103843,-1.5362035917318693,1.537997058402026,-1.442757017604559,0.8468638350243904,nm,0.0
5.247071743011475,-52.439056132878676,18.404235046902286,124.18709138351717,-1.1004857129730046,-2.5862803559933227,-2.080702599785219,1.2157239098269668,-0.5902692715140035,0.14287082025332437,nm,0.0
5.253074884414673,-56.50430222256235,15.259871010121675,122.61918835537129,-0.3422664005270978,-2.0861579626407623,-2.1702080900804313,0.9587881234418246,-0.2899223578614118,-0.0970433778741617,nm,0.0
5.2790772914886475,-57.029794533300326,12.759933284610472,117.43863548344635,-0.9280910122353669,-1.4866973625540334,-1.8505762699974249,0.007512641155523234,0.18686494873431972,-0.6564868479560855,nm,0.0
5.282672166824341,-54.698227101932076,13.669323408937114,114.23644496231485,-0.4397014812591114,-0.8754698001892859,-1.7770890063547808,-0.3564572519197202,0.34173530547056613,-0.7657053054814386,nm,0.0
5.3046815395355225,-50.07793334839445,15.08369356011614,111.78179342518318,-0.40284142269505024,-0.3678844041754292,-1.597921025206201,-0.6040278508598922,0.7265398266491366,-0.7173897813591886,nm,0.0
5.307389736175537,-42.935403757484835,16.336501463835294,110.24746570595173,-0.12262802511864627,0.0482580687691838,-1.30139382855446,-0.7182027558998416,1.2083968784065313,-0.663056459079565,nm,0.0
5.334041357040405,-18.881021675209414,17.412980304371658,108.66063765142202,-1.3732974218112695,0.04560779138418574,1.7712548884357633,-0.8823065675753397,2.459422660631493,-0.8758603736944937,nm,0.0
5.336387634277344,-5.548894206916391,17.116315306724193,107.6601125021124,0.1233136928031972,0.28826832435782374,2.8790713554064853,-0.7209695969716039,2.4532668141676153,-0.9209211947850275,nm,0.0
5.338719844818115,7.2488275085673015,16.499792199622217,106.3134641751016,2.229575951407134,0.6352063298961882,2.6651759081060655,-0.5850972334209473,2.3923851885684773,-0.965047257847087,nm,0.0
5.366089344024658,33.71355956822938,16.7930288261315,104.4199030727605,3.5651213235447434,0.3793897985674752,1.5326477752599443,-0.7148032699074104,2.365956660680851,-0.8492125451446528,nm,0.0
5.3697731494903564,44.34386474246528,17.519556676065665,104.90691595311681,4.171291319178043,0.2693530004070313,0.44847064036493745,-0.6522712056581208,1.9356947935630262,-0.5494062572232699,nm,0.0
5.375676870346069,52.64114505678161,17.886993307996086,106.61477097147679,3.7410826684273553,-0.10429793661215962,-0.9423236999780544,-0.5002602400305947,1.5069251594653987,-0.1981373295496021,nm,0.0
5.404707431793213,61.150789890733066,16.55244951419838,112.38019557290312,3.1201729050207403,0.15960118108153562,-1.3612252223710029,0.007854833424945697,0.5181062225510409,0.4589228301162603,nm,0.0
5.407409429550171,60.653043379353065,15.485828338988965,115.73508005892127,2.3103829690311173,-0.02980726017769068,-1.799285036716796,0.23339877126610636,0.0034255588130032463,0.685253007908628,nm,0.0
5.426985502243042,53.310780298028774,15.462586103182387,122.47963019863394,1.4818929131030203,0.9439501455689041,0.15651461938240385,0.3979917931497382,-0.8798692573539931,0.9127413706020143,nm,0.0
5.4435343742370605,45.863791956053234,17.299917609429084,125.31985712852727,0.5605040644752065,1.4685758090574172,1.285411610083865,0.4945137339384733,-1.3876876015546415,0.9749754824674024,nm,0.0
5.453641891479492,35.588354250204006,20.047673523958085,127.19392611386849,-0.8292071699603948,2.117580302444577,3.0406597925043273,0.7136377673168728,-1.8908809023811304,1.020441642545229,nm,0.0
5.469942569732666,8.17225166684316,25.169467420743572,127.92277648022045,-4.046960200511146,1.0630536210710613,2.1208408908753507,1.232635591523999,-2.2747090508979158,1.1012202350672795,nm,0.0
5.473186731338501,-5.84834140768296,26.168620823525934,127.79238213445858,-6.193915438162274,-0.045045862770379363,2.3073668395073152,1.4055976297596329,-2.107272590576395,1.148836600067517,nm,0.0
5.488811254501343,-35.20846562371459,25.48076247951628,127.76841702666515,-4.000657844851907,-1.5258354464405104,-1.754740958855988,1.7071027903991243,-1.9479477563830532,1.2633106214084122,nm,0.0
5.513867616653442,-53.89057866280318,21.866559186584247,128.1378878492588,-2.5635377123242837,-3.203521369340705,-2.25891142522158,1.2618462918868854,-0.9081750863141053,0.6686560437424441,nm,0.0
5.517038106918335,-61.30623417204577,19.212147197764583,127.89691756178492,-0.2835073206406216,-2.2138518165573875,-2.216466252360769,1.276783028257459,-0.7551206137355831,0.4773454966065232,nm,0.0
5.541372776031494,-65.36229519675828,14.685153537106764,124.91472460965886,-0.5081171892268516,-2.394522176534322,-2.3934473619207406,0.393796505443239,0.14088996581594487,-0.40922451073430555,nm,0.0
5.554495096206665,-62.425362990641865,13.558581756154226,118.13729457048804,0.9308865847415415,-0.39037530293245637,-2.170731322816018,-0.2728458998863069,0.5046424069057441,-0.858212759442225,nm,0.0
5.5724732875823975,-56.284529162686994,14.380407076848911,115.41259848068118,0.7888455362479516,0.18020466878769945,-1.761488279963015,-0.679239896198959,1.0038436612006931,-0.8419060714037044,nm,0.0
5.574824094772339,-45.81353806526058,16.057637259773564,113.56809145458134,-0.5974287907377376,0.09219519248367633,-0.4811213292302158,-1.1346647413319426,1.7165335286554082,-0.8882966745633415,nm,0.0
5.603545427322388,-19.28129201658202,18.85361409738057,112.45866384249376,-0.3703616557675681,-0.5841781898050872,1.9337206337768398,-1.034163314772317,2.166663355133356,-0.7632075026244507,nm,0.0
5.6056907176971436,-6.966862412953755,18.305664817834383,112.40139221178941,1.3933178714321899,0.24277406365941764,2.2331550932963244,-0.7782933344784084,2.214116069701398,-0.7620371147039811,nm,0.0
5.615653038024902,7.13119575081913,17.95880260792123,111.8810425266125,1.7027910522586875,0.35568069326797,2.8936438589314353,-0.9394460500281988,2.520506343137872,-0.9908496615933746,nm,0.0
5.625603914260864,20.37687312859353,18.12837103489006,110.61245465696956,2.6970747654939684,0.7544288499680663,2.34433873693034,-0.9389698607230604,2.346378950993908,-1.0852091162382391,nm,0.0
5.631902694702148,32.215514812630985,18.687944567033327,109.2357419624286,3.4015366158027316,1.1518983114978427,0.9594984566161425,-0.8664539850572909,2.0832128412545208,-1.0356194279910518,nm,0.0
5.656003952026367,50.70174896983401,19.775451487825222,109.9583012277395,3.4085330777468186,0.5309811848548139,-0.7942666118210661,-0.5423427158264826,1.3802533499707186,-0.340665549801192,nm,0.0
5.660743236541748,55.52178239929446,18.824070199853434,111.83737906544573,3.240840092773595,0.2991324987489392,-1.5699554858008093,-0.14697955682209143,0.9224996487781026,0.022646225518953664,nm,0.0
5.673863887786865,57.81040815269406,16.976167662307837,114.24354429492453,2.9552904568856615,0.2932484667853686,-1.3944007807179608,0.16993760130241242,0.5500317501555125,0.32688418644522,nm,0.0
5.684680700302124,57.181514993169,15.132447303303667,117.11930252159245,2.306737994256492,0.08936902741488016,-1.1343530487868665,0.38507862542198407,0.05522672307118369,0.5967732124260502,nm,0.0
5.707462310791016,49.00688257336643,14.751541894772618,123.04771108656502,1.309214908199882,0.5429095108391265,-0.3516568953826549,0.399910447584825,-0.8520625914476413,0.8063347923810202,nm,0.0
5.719384670257568,42.60700958947474,16.576261937503528,125.06693449850135,0.4917313009722056,0.7989100204071936,0.7938050008350345,0.39050913301972084,-1.2211940753198913,0.7367392969041965,nm,0.0
5.735215902328491,20.830617034011716,20.52490271400318,125.03827045040775,-1.87125937203082,1.705295600014124,3.5026402344603973,1.0776662154434067,-2.1124444381793293,0.7162952340431245,nm,0.0
5.737640619277954,6.539457069522482,21.789705126203973,124.72550995721755,-3.669534172208669,1.3088295914178774,3.4323410934035925,1.3313353112419657,-2.320976441779165,0.9100475049541717,nm,0.0
5.768871545791626,-21.95422808450767,23.159378580793273,125.93238933867792,-6.345565532247503,-1.2530590536760282,0.8269551595799977,1.4401879626841305,-2.182580162689913,1.2575101882209196,nm,0.0
5.771109580993652,-35.88111389716941,23.60908262620503,126.7115938128693,-5.129217162779382,-1.9566010229961142,-1.2591593027472248,1.4495403138380674,-2.10260279832425,1.2618241775761885,nm,0.0
5.787286281585693,-56.86615109162277,22.531260824623025,126.67996652088257,-1.9853728396143109,-2.7196868102814555,-2.3989097867840012,1.1605676118649426,-1.1707033874192758,0.6601292281507776,nm,0.0
5.803236246109009,-63.63429686159615,20.21578005956984,126.15919087584827,-0.6819347505788486,-2.4218723529092707,-2.6651555481189426,1.1240728576450663,-0.7271915854876715,0.39452208135841643,nm,0.0
5.825718879699707,-68.50143796106791,14.944223396623759,123.04644363993519,-0.3406713014327429,-1.7964157418517679,-2.429084460968845,0.48073864837755453,0.17248102734514764,-0.38213829690652384,nm,0.0
5.828012704849243,-67.63684669892338,13.577611536338477,120.08362259543439,-0.6582574642476164,-1.2472009562420934,-2.1372226563507937,0.14800224475113416,0.2988772656304742,-0.65628092205552,nm,0.0
5.845503568649292,-59.24595327581131,14.730360357589507,114.43637842861162,0.8413458479114877,-1.1141862911363574,-1.675159575970087,-0.6754649862731407,0.941663194142697,-0.7180299025661885,nm,0.0
5.861889839172363,-51.372401605890296,16.167883018884964,114.09968401341608,-0.06938254435861792,-0.6077092353502276,-0.5955962279447916,-0.8788008658461511,1.2808342668203818,-0.4577047560195668,nm,0.0
5.864233732223511,-40.29709626728031,18.52658508889531,113.58272344520773,0.8607721236464095,-0.7991424586862093,-0.3340432218883812,-1.2734879019738519,1.7625337228676543,-0.6919069586958532,nm,0.0
5.873543739318848,-25.278351511995144,20.293891543122356,113.08953574046282,-1.6014935700693882,-1.9777907157089374,2.284082198957204,-1.4274919717615056,2.483301686463428,-0.9996575573521793,nm,0.0
5.902195692062378,0.4166056023354989,18.60605333195716,110.99328958508183,1.8066098532503876,1.6095344507387708,2.240457764678134,-0.7284733635703137,2.281245120358061,-1.1057898699848492,nm,0.0
5.904385805130005,14.748319243859875,19.4243738650083,109.45259092058235,1.9002394469269743,1.141525163642531,2.3770658476375846,-1.0836724018249388,2.498203424097324,-1.2520330712671888,nm,0.0
5.926075220108032,36.68099044845929,19.77482413291497,107.58366847719812,4.459297348688385,1.6565819564402962,0.4462899249832641,-0.5163247559347153,1.7214837617809053,-0.7613419171658056,nm,0.0
5.941030025482178,45.417380496027235,19.338945269267644,109.20008260195836,3.386209951043391,-0.12777605047329177,-0.7396149780986955,-0.4344448540421556,1.596219034782249,-0.27604618462671343,nm,0.0
5.943231582641602,51.53448846155454,18.00607601333873,111.76350776978713,3.666399547860178,-0.3098246379720676,0.07155710420037051,-0.15469930130149218,1.184644977203847,0.10683080061898322,nm,0.0
5.947549819946289,53.411128666957936,16.41250019360919,114.85794435302518,2.902967871962179,-0.3806829206854064,-1.3893642803846027,0.15135897880753385,0.46054815351763767,0.4703927195490364,nm,0.0
5.977648973464966,51.787720425141686,16.131183734357435,123.2019217841945,1.8579933004381373,0.4317439381465088,0.025124276030390507,0.1132082994105676,-0.3628267438599145,0.9490089565485315,nm,0.0
5.979756116867065,46.58974617842339,17.679451153279782,126.54684339562867,0.8062526705760745,0.9755139758225314,-0.13868916201001602,0.3165005234213123,-0.9894865399964897,0.9583539593258352,nm,0.0
5.99004340171814,39.426381339106086,20.139539126377045,128.89934631766727,-0.2096026649509202,1.9347529989370038,1.4077870538873363,0.44363786666418337,-1.3691497358900724,0.9221837212385993,nm,0.0
6.010197639465332,15.541192303748366,24.969987276934717,130.29119510190998,-2.8529583201086552,1.2778973612483007,1.591907401258718,1.284335969494816,-2.1284143693838597,1.1148295133749884,nm,0.0
6.019131422042847,2.415580967333614,25.686127206894273,130.36788848771528,-4.567127738234124,0.8249650236972464,2.198690056552687,1.4347271964367814,-1.8935091237351482,1.1318239532517538,nm,0.0
